Timer,AX,AY,AZ,GX,GY,GZ
"1006","6,89993285073344","-1,64643506558986","-22,4283258358426","-3,04751638746209","-1,00505603578835","-0,04588964375776"
"1006","7,11652609566029","-1,76226853196001","-22,7070251961171","0,37523822071425","-2,61559846865518","3,18316610779295"
"1014","2,06474370987608","1,69339820074427","-36,6422390613265","-0,700540933373565","-2,28929425405011","2,51043615867157"
"1018","3,56275572743017","0,586064385960689","-32,3647203277231","-2,71978967131408","0,90195418786879","-0,852475884345276"
"1026","5,71106694771034","0,299601530564691","-26,0229948982563","-2,28790881345705","0,42932098784297","-0,424967785291539"
"1026","5,352260272665","0,225477146306288","-27,3242947375806","-0,447804033950527","0,202272495548804","2,83437482659414"
"1034","3,54364136402047","0,206296608558499","-25,9407327140183","-0,929929183744692","0,0928795824710887","2,36853607663951"
"1034","4,00381293438962","0,201333418331322","-26,5701242272826","-4,50274119977182","0,040137620357669","-0,909086854644332"
"1047","9,24573617341598","1,94128732737939","-21,5423129244627","-3,50826694550124","0,0147049289375859","-0,452335276661843"
"1047","7,81032223574778","1,39152094483108","-23,1955358372408","-3,22838390923514","-1,51532714507874","-0,237274781410327"
"1055","2,27731296425429","1,24926240228366","-35,7633188265905","-3,1496141333635","-1,25315827258046","-0,136013405596317"
"1055","3,62584482715869","1,21245132475953","-32,1297940488761","2,02824011201526","3,42656924195203","2,96996276854335"
"1063","5,72987307618367","-2,27955036226885","-32,8886327104548","0,485486052689364","2,68328815526491","2,43241613270339"
"1067","5,35787412269823","-1,18314702869018","-32,0918993927398","-8,54151289818724","-0,710680501175593","2,17931151879221"
"1075","6,94836594285077","0,841798472103013","-23,2178094399287","-6,08205516806286","-0,347364194021385","2,0601368421458"
"1075","6,42308890723665","0,365777028871313","-25,84074707564","3,2029392071278","-3,20769507356099","0,474874732147892"
"1083","4,56478211814151","-4,98111371906657","-26,5433415242967","0,816091242936842","-2,58704102435918","0,72845175233895"
"1087","5,01012292626144","-3,36468483058776","-26,7315423234932","-1,57422074159883","-0,769974161597673","0,847848862657282"
"1096","8,5460951262893","0,536061615499724","-28,5140893409506","-1,24694582641935","-0,893724550831755","0,904067166437824"
"1096","7,60149647039827","-0,4545741856419","-27,9915721533071","-1,15483816578838","-0,953401072715162","-0,598610902547626"
"1104","-2,8895896943796","2,77156349051384","-38,2444149563866","-1,12891555225029","-0,982179061100946","-0,306149066094233"
"1104","-0,020922695069569","1,60636470507777","-34,9907976146387","-2,84018174608742","2,03947723614038","-0,168442983239486"
"1116","2,53682876653647","1,30485576189791","-32,387131323778","-2,32179741084057","1,496619627881","-0,103603872998099"
"1116","2,30025511091057","1,22683676294795","-32,6896990031588","-3,89446606776591","-3,31846521654123","-0,0730742832389498"
"1124","12,4387901879877","1,20664842580293","-18,9136702793757","-3,33707509222352","-2,64045804313808","-0,058699381310283"
"1124","9,46489529920972","1,20142445520389","-23,2235477335373","1,97548143855888","-0,79573361101091","-0,0519309377416346"
"1136","-5,03493507559502","-0,541165501913953","-33,0386877265752","0,47063774698471","-0,906146607490265","-0,0487440062015579"
"1137","-1,3627803190617","0,00791877200261592","-30,667824911542","-1,67144454914757","2,07614259460793","1,48190510459985"
"1145","9,94241472777349","-6,81495196129342","-23,10421452549","-1,27430831909936","1,51430087381894","1,20261347403929"
"1145","7,31673934711013","-4,5804503208536","-25,0781843993099","3,99314640574603","-0,274404743192044","-1,98718847699691"
"1153","6,53303937177545","1,22146794040641","-25,6069427869585","2,47560934342325","-0,13697762524712","-1,48911138456804"
"1157","6,29912406912124","-0,277217206511452","-25,7485789062412","-1,38860715937158","-1,58847272990674","0,274557481309069"
"1165","-3,9798404714436","-5,88873426232128","-34,4471909335833","-0,476145267963909","-1,28843157378139","0,104983542767319"
"1165","-1,04786034786545","-4,34078055543493","-31,7772488191464","1,49921816496502","4,92732616013838","1,55428794556154"
"1173","8,33488622542422","4,76596170807066","-24,133525413018","1,05516087937458","3,92476968114812","1,23669504042623"
"1177","6,1354069265784","2,1224387916383","-26,0860357742652","0,930186199480635","-1,11199713040875","2,61630449660796"
"1186","8,88196491803412","1,43839602505837","-23,1447768591701","0,895013551443061","-0,54089231783707","2,26589562406589"
"1186","7,70174540042388","1,26139188274444","-24,3569151282343","-2,55200898973231","-1,78325372526914","-2,48654052365997"
"1194","2,24490543066458","1,21558997104097","-26,413739647492","-1,52213278377792","-1,38236139819825","-1,72423202507745"
"1194","3,61617196985679","1,20373818560664","-25,9646919345065","2,20483732896973","3,3642631022848","0,163850584315303"
"1206","5,72698596451519","-2,28180498990029","-29,3086765934583","1,2537490615981","2,65324209160373","0,0528570386227461"
"1206","5,35701239037593","-1,1837304402101","-28,2044146490586","2,70463830590951","0,792597297569219","-1,52855297391136"
"1214","3,54505989161827","2,58288570053008","-29,6407555133911","2,11297395257789","0,89533297010931","-1,27316218807143"
"1214","4,00423632331211","1,55754209920952","-29,0255016483808","1,94645700631508","2,46264249855166","1,90538601531923"
"1227","10,947386964255","-3,93149224295523","-20,2000237762687","1,89959277791166","2,21845087985479","1,40201007937458"
"1227","9,01974786085499","-2,35184468776547","-22,8359829103075","1,88640339416941","0,582926625635395","1,16499478471978"
"1235","3,33982139865955","3,28062234710412","-33,9348724891908","1,8826913978467","0,794222852238375","1,05339578705438"
"1235","4,64450206820952","1,73808969465493","-30,9078818730998","0,163084892970165","-0,621650130287761","1,00084923600559"
"1243","6,7354418069791","1,33894115822187","-24,9006520187665","0,679121946151868","-0,304430811215197","0,976107615696406"
"1247","6,35953625283784","1,23565676169147","-26,291522510693","-0,894207325595552","-0,151457186212994","2,49360652706802"
"1256","6,2473376255139","-5,7560220675695","-30,1283577426639","-0,337002272294731","-0,0776882555730497","2,20812310589916"
"1256","6,21384907543878","-3,56520151507","-29,1561134535474","1,53837831818741","-6,1131824286162","2,07370282007358"
"1264","4,50232913852847","0,484175555898706","-30,6278172904735","1,06618204212176","-5,02369691124416","2,0104108321625"
"1268","4,99148223711047","-0,468000316179973","-30,0220359450893","-2,50383563907541","0,0549899515822734","0,451461167781226"
"1276","0,0329092228815662","-5,93810164451538","-29,859768034266","-1,50857496303468","-0,495899628759131","0,717427441353802"
"1276","1,55289627933003","-4,35355494845606","-29,8163020624535","-4,66559421182513","0,75621023082764","-0,686490489703499"
"1284","10,5141974066093","4,76265618304978","-22,8761209488345","-3,55410000339657","0,360018929118717","-0,347527298060791"
"1284","8,18892693491868","2,12158344801096","-25,0170860039266","1,91440233979621","1,68672940424555","-0,187925984196703"
"1296","9,19641491083646","1,43817469479579","-22,1263075958462","0,453447755819661","1,32651298143089","-0,112777472455071"
"1297","8,49712546618213","1,26133461092576","-23,3519678501498","5,19796476016835","-0,364962262557852","-0,0773936859419399"
"1305","1,48230695505216","-0,525663041764475","-37,5373560828553","3,5332530509154","-0,180647449799722","-0,0607331783817714"
"1305","3,3885549495164","0,0119302166031249","-33,3371319100214","-5,52806944053772","2,94376922895982","-3,11118563292531"
"1317","5,65904784294075","0,151038819544529","-32,2120368460868","-3,07827166563888","2,45046606812004","-2,54749562654333"
"1317","5,33673452031085","0,187034813004471","-31,9106627168017","2,76688041453131","-0,822954989779101","-0,752932824299207"
"1325","6,94205628782198","-1,54488899173089","-24,9013969107994","1,41192945179543","-0,401506658225337","-0,907960307779826"
"1325","6,42120562930868","-0,99304472495059","-27,0238565616094","-4,12509092032039","2,83726362953177","2,07734185405706"
"1333","7,96726885085457","-0,8502485053214","-25,8602557145839","-2,68341992656855","2,39910555301908","1,48297573719765"
"1337","7,42873096361782","-0,813298297503973","-26,5485672152305","4,59656858168411","0,670044271270363","1,20311758296169"
"1346","-4,64268040136243","2,6787393911305","-38,8578837460851","2,64543539003004","0,836233856150119","1,07134596228756"
"1346","-1,24570187867837","1,58234537339248","-35,1551247264228","-1,34081162374803","-0,601391037691667","1,0093011022316"
"1354","1,46973766991909","4,78111686232152","-34,1632834044987","-0,462693778800814","-0,29466120814455","0,980087189253458"
"1358","1,28023005710863","3,60883675282923","-33,8976033527717","-3,65268149425727","4,40655502834125","-5,15026238206537"
"1366","18,2389108888516","-5,40069553178983","-25,1657642379312","-2,55046587150195","3,67363665412942","-4,03674643151918"
"1366","13,3006629422177","-2,73201838556684","-27,826805962628","1,19686331596821","-2,75086876081166","1,07499979845544"
"1374","-10,2931009587177","3,18224791410471","-33,7360107415325","0,25150486979071","-1,8489773030124","0,481872976896895"
"1375","-4,33526326232426","1,71263414861394","-32,3188827157296","-0,0145551027170568","-1,41405547649365","0,202598346663426"
"1387","9,35367674235186","3,07359242817747","-28,4750139968447","-0,0894345405187295","-1,20432181780708","0,0711014791181386"
"1387","6,4394910143782","2,42575645178612","-29,4453742576133","-1,82907028150132","0,414585670862329","3,06748306583626"
"1395","12,3757754369014","2,25812124392539","-22,7767621943658","-1,31867022032966","0,195276291499848","2,47833371236445"
"1395","10,1476113575839","2,21474365463026","-24,9904712234741","0,543537657760203","-2,94601592221923","-0,857365200073083"
"1407","-0,726587738094677","-3,02019538789552","-29,0477164951248","0,0676340773264473","-2,46085070128853","-0,427983905012609"
"1407","2,02772940795153","-1,37479767383271","-28,1345124470719","-5,22198878825204","-0,7091210231015","1,30333944433864"
"1415","7,95439907625794","-4,43150797427641","-29,6220311265067","-3,71069068739181","-0,864379159082454","1,11853557209784"
"1416","6,72336522762394","-3,22246785495365","-29,0204860315013","-3,28535368131569","2,09628423670185","-0,497628140496583"
"1423","9,7589805340217","4,05533832318663","-25,3950838258097","-3,16564760305434","1,52401383838116","-0,258601185090228"
"1427","8,66503756539336","1,93855660050205","-26,4239637239869","2,02372768128284","-0,269720831118389","5,97053916370234"
"1436","6,6369978835884","1,39081433701332","-24,9674306116638","0,484216082339562","-0,134718888259747","4,9035389950204"
"1436","7,03167756855131","1,24907955916799","-25,5772756704749","-5,1047467016666","1,44815050062982","-1,71545375055495"
"1444","0,343382125052542","-2,27007237414779","-29,2049011499548","-3,67769428643955","1,21146236017034","-0,832016152304505"
"1448","2,34708928066568","-1,18069448735768","-28,176616790078","3,59817999549383","-3,45597746221705","-0,416048268846741"
"1456","-0,457901914282205","2,583671289176","-36,561847506772","1,64588890342028","-2,70677098638732","-0,220189183370871"
"1456","0,704876719175803","1,55774537954706","-33,8079613571525","6,25212504894242","0,690055095703099","1,40117989252218"
"1465","9,55955985614725","-0,448963255675451","-19,2132141615331","4,5484958247019","0,328116739611159","1,16460389002778"
"1465","7,20246651823726","0,0317771918444939","-23,3037851992962","2,35046768752911","-1,36418887743371","1,05321173371772"
"1477","-5,41173923493476","0,156174458720554","-36,5244496139594","2,73185862118806","-1,18027449796845","1,0007625742232"
"1477","-2,17677158068113","0,188363720277522","-33,0658092325908","-4,03505063310742","3,4617160751491","0,976066810869593"
"1485","12,400982638545","-1,54454512128364","-23,478686266604","-1,93951734352846","2,70023713140735","0,964438774624682"
"1485","8,75208624646932","-0,992955744412302","-25,910626972024","0,368807565489163","0,815259856762969","4,01726077563728"
"1493","9,36450421152534","2,63225090553579","-21,3656563761165","0,0184583559544252","0,906261604096138","3,45468647367114"
"1497","8,54729601726169","1,57031592885744","-23,1482156461058","-1,79870509971709","2,4679126465432","-1,39764807638128"
"1505","1,49728163925461","-2,18694867066765","-30,5542398207109","-1,31012429844852","2,2209923191496","-0,682376886442727"
"1506","3,39302452703026","-1,15918524764447","-28,5380580407291","-2,89118080811158","3,61968618455476","-0,345590401957255"
"1514","14,1680040156201","-6,1169539063204","-24,5337235004678","-2,33615049468399","3,2941825282356","-0,187013993837383"
"1517","11,3840722400576","-4,39983508289851","-25,4611005069787","-2,17994376640159","0,10167992938599","-0,112348060462361"
"1526","5,4485633281066","-0,473033927303089","-22,2452437538089","-2,1359812271125","0,562149812485191","-0,0771914966779862"
"1527","6,6769588783899","-1,45692776473278","-23,3838267411853","-0,405046682169944","3,81973758024499","4,52680764102157"
"1534","1,93903168177852","3,51219266718163","-39,2780245000477","-0,917895592229088","3,39065391363216","3,69460735946567"
"1534","3,52487612604346","1,79801124911507","-34,5355314110731","-2,78079266992394","1,66596861182437","3,30276464140917"
"1546","3,99821196222786","1,35444656792946","-28,0687776634933","-2,30508305658139","1,83426843865427","3,11826492529895"
"1546","4,13949114924184","1,23966896952497","-29,3365575672088","1,2659234119092","-1,12010582338133","-0,0269041143681674"
"1555","4,18165953616185","1,209968910764","-27,9440175195282","0,270941018377247","-0,544802597203633","0,492188449568274"
"1555","4,19424576979624","1,20228366989238","-28,571004111313","-1,72764683552691","2,76816159848999","0,736603941468237"
"1567","2,49647803055767","-0,540943169968598","-18,3461450553135","-1,2901257890013","2,36578227304237","0,851687332815017"
"1567","2,9897358242804","0,00797630301853958","-21,6072582769036","0,551571150923753","-0,863792310626545","-2,15242256314419"
"1575","6,54001007425379","0,150015697720842","-29,4093360153796","0,069895009123141","-0,421199762112186","-1,56691209536627"
"1575","5,5996802309784","0,18677006815264","-27,4992433133681","-0,0656670536725155","1,3099999683888","3,29622198185849"
"1583","7,02053916064095","0,196280695459023","-39,1125370553854","-0,103819395618944","1,14484161407367","2,58603576506248"
"1587","6,44463085009012","0,198741682566087","-35,2233375573382","-3,5516805364627","-1,97033718819463","0,722495008177092"
"1596","4,57121186197323","-3,28309789405551","-13,3959410265356","-2,52204034448335","-1,47257921842858","0,845044120967812"
"1596","5,01204204776421","-2,18406499442552","-19,5491349788526","1,20486334491772","0,285223098851537","-2,15555052914531"
"1604","-1,66247859835213","-3,6409154484617","-33,3223048704694","0,253756383479487","0,132893389859572","-1,56838490272651"
"1608","0,345339997863427","-3,01789270440963","-30,0116616338574","-1,73248324811405","-2,9760990162438","1,76637996893075"
"1616","14,5568201934235","-4,59791640643153","-22,1963165141359","-1,29148694021878","-2,47535776207434","1,33655887940465"
"1616","10,7985999506438","-4,00676619459662","-24,1028553427025","-2,88593554369545","3,83718418292647","-0,394971547813093"
"1624","13,0799118388263","4,85239186762972","-19,4171477208874","-2,33467427694669","2,88130024473647","-0,210265178488173"
"1624","11,7608277219039","2,14480361590111","-21,1620083998859","2,9761571196713","-3,65072652379719","1,40585262471589"
"1637","-5,64813089744707","1,44418318739682","-35,4864725035402","1,4708279094558","-2,80068541128046","1,16680405280603"
"1637","-0,844279873464367","1,26288937932827","-31,3235019556268","-7,54563825952664","3,68030045353065","2,58339622300638"
"1645","15,9032721380206","-4,00773711317556","-19,8155787314839","-5,08321620230229","2,80564573271083","2,25040071537578"
"1645","11,9020073948523","-2,37157394815465","-22,7330033538736","-0,953072974271092","0,866091363163485","0,564460754813974"
"1657","-8,00904105822527","1,5342789749898","-33,907287820882","-1,79069292874834","0,930774234099706","0,770633461951861"
"1657","-2,95200274209577","0,544964535078603","-30,9004928926841","-3,74499298221241","2,47973344573332","-2,19058689662487"
"1665","8,76654622483549","7,25392051514628","-28,3629418060903","-3,29500765717408","2,22669269864674","-1,58488182752729"
"1665","6,26424689414748","4,98994208732238","-28,6832194663938","1,98732082144903","-0,930865893841845","1,7586123677934"
"1673","3,81584723397774","-4,30208002679663","-27,0368762755322","0,473969801507518","-0,453544857601103","1,33290149306401"
"1677","4,08505973167817","-1,70650045930114","-27,5958777665572","-1,67050678174483","-3,25889889367963","-1,92584217294448"
"1686","12,6730352003254","-7,99981637250816","-15,6206733288589","-1,27404439553639","-2,61173319635752","-1,46022638770445"
"1686","10,2363361371126","-5,62828616994098","-19,41292944471","0,556097069235966","-0,781881541873062","1,81730656370186"
"1694","11,2105653998358","5,43280442879786","-27,3572820294768","0,0711687753930555","-0,899466682585335","1,36053774093443"
"1698","10,5013490415569","2,29499221900768","-25,4852998474511","1,65325324014467","-2,47393711466462","1,14546747359202"
"1706","3,48356758915087","4,96552264781286","-35,3766675621409","1,09851223253934","-2,23319872003632","1,04420132408889"
"1706","5,38893121800691","3,65655392709571","-32,0262235223531","-4,21329849605625","2,43619426858381","-0,532628529741892"
"1714","12,7637334176658","-0,164633570415433","-20,7359481012776","-2,70824490726255","1,68792967397282","-0,275081169486864"
"1715","10,9649317624934","0,846589048019151","-23,711673056895","-0,566103538036154","-0,190675205401042","2,90448246011696"
"1727","10,4280333998197","-5,85669793218675","-12,3838254099352","-0,963223142659526","-0,096600478757128","2,40158463908789"
"1727","10,2677823510103","-3,591252583715","-16,3494860632335","-4,51211138113508","-0,051234540774899","0,635645926108369"
"1735","-3,39224405403382","3,95991092039536","-41,6616329381938","-3,51090407292287","-0,0293575882454751","0,804151103826679"
"1735","0,530571677285005","1,91386363332287","-34,4418833093045","-1,51056429028164","-1,53657479622747","-3,70395360542432"
"1747","13,6121073258935","-0,356813452839174","-29,0436925697671","-1,94759227714982","-1,26340467734818","-2,82660129217299"
"1747","10,5166262320212","0,0556220413368491","-29,5977036164838","-0,352026836575389","-2,64944002696414","-2,41349867404504"
"1755","-2,31797023296415","-1,57889359798442","-24,549700491244","-0,902973782709861","-2,31783201655619","-2,21898870293463"
"1756","0,851216176325206","-1,00184381830951","-26,1975147113356","-1,05803129548132","-2,157919689715","-0,598254859511035"
"1763","5,20018976493775","0,888712818427648","-30,1031762983704","-1,10167040163403","-2,0808046880469","-0,835129962141479"
"1768","4,49825216793966","0,377916669898334","-29,149368213886","-1,11395211279893","2,50968370034439","2,11163412867462"
"1776","2,58721651577986","0,245742135519825","-28,8938759535597","-1,11740865539195","1,72336870337568","1,49912230478756"
"1776","3,01681904605039","0,21154041417076","-28,8254383966251","4,03730396352875","2,8619486572038","-0,318428321536454"
"1784","11,6526670222798","-1,53854787809261","-18,4142992172632","2,48803696667789","2,41100948805466","-0,174224688599157"
"1788","9,23025673340967","-0,991403886927449","-21,6255144242046","0,333452255796567","-0,841982254891571","-1,63547473684231"
"1796","15,3133241140753","-0,849823919109614","-22,48568812682","0,727069828833928","-0,410682233428771","-1,32350645631408"
"1797","13,1289711629434","-0,813188430808604","-22,7160989685076","-4,31783657483228","-7,79153011120999","-2,7057642752072"
"1804","-7,94129791649313","2,67876782043512","-43,5634323198556","-2,73766591521738","-6,35081855163353","-2,3566023881159"
"1805","-2,23025864616169","1,58235272981071","-37,147713273597","-2,2929455406815","1,93277509344496","-0,663050464172914"
"1817","16,4895913235617","-9,14878677848767","-19,8399529315848","-2,16778424223318","0,927397336622385","-0,865639067234974"
"1817","12,0770093523032","-5,92559582832873","-24,203801400791","1,30456454207367","-1,07519599520222","-0,961028206881372"
"1825","-6,2552828253372","1,8733956582763","-40,9619364458952","0,281816108213065","-1,04091259238201","-1,0059423226063"
"1825","-1,72702431830698","-0,108523212232144","-36,4508623327425","-3,44314797723881","0,493386992437442","2,03120687926653"
"1837","3,02759909942058","2,86110826569149","-24,8496941800261","-2,49149513717064","0,233276889482192","1,46125301693422"
"1837","2,44673806939384","1,62953547290601","-27,7421417048709","-2,2236636818224","0,107843213295343","2,72203794782916"
"1845","14,1840361961918","-3,91286310748882","-18,1241214290031","-2,14828568109177","0,047354954888656","2,31568037400439"
"1846","10,6873330318209","-2,3470241790102","-21,5477858116828","-2,12707143279984","-3,01734847265387","0,595197777424696"
"1854","-2,26701842232612","-0,200606675432241","-34,5898089551033","-2,12110093310193","-2,4952496113314","0,785106033941661"
"1858","0,866424047425478","-0,645195803729054","-31,0833167438752","-0,400858799117363","0,792057683699176","0,87452461389678"
"1866","0,100155675275537","6,20471428226546","-42,2689901651715","-0,9167169619917","0,377305753984513","0,916627482870651"
"1866","0,871443280447075","3,97720939358875","-38,2652459446801","5,81234807834144","0,177298685213909","2,46560021965217"
"1874","9,60927590669989","1,65957801055009","-19,8714358769337","3,7061639815823","0,0808486757209337","2,19493629514727"
"1878","7,2173055451325","2,05986352602207","-24,9443691151116","-0,323720278698793","-4,5189636915663","0,538345251539767"
"1886","-0,302736880043955","2,16344212930305","-24,5710982916327","0,542116378459967","-3,73714502494508","0,758336939091707"
"1887","1,45271411495392","2,1902443158498","-25,4711119233519","2,50435768972955","5,74647571789127","3,92021742535064"
"1895","0,275148941710828","-4,76777307411369","-27,4443290268244","2,05660733793543","4,31979063269284","3,40899347045017"
"1895","0,923674496689207","-2,5682422267569","-26,9728857732826","1,93059328816376","-0,921504990502887","0,109985845745372"
"1907","13,0279144943066","-7,22280222938261","-33,7751404801238","1,89512812174629","-0,449030721068555","0,556643287224962"
"1907","9,6407345167045","-5,42722458623712","-31,597229701883","-8,42622397463448","1,2965789614612","-2,29134448294244"
"1915","5,22669517191814","3,74359329445992","-32,7459771060457","-5,33104665444418","1,13836956159308","-1,63232368420832"
"1915","5,90921222977265","1,11665070051369","-32,0536868807978","2,41430168587268","1,06207576751393","0,207125760852003"
"1927","7,81445132529795","2,17813648118631","-18,0111700669138","0,594138524291184","1,02528438204731","0,073233218701431"
"1927","7,38311866443894","1,45280845984896","-22,2496645609208","0,0818750937499408","-3,54575862779147","-1,51895881976049"
"1936","-1,25324571351682","1,26512127041346","-35,509952563186","-0,0622954003072389","-2,75006642751933","-1,26864476657657"
"1936","1,16901044204982","1,21655499413304","-32,0619259731276","1,61569132375076","2,186943601596","6,49495866812119"
"1944","13,8026657048476","-2,27848848936662","-25,9419151155532","1,0879408746766","1,56773277620878","5,15046268462687"
"1948","10,5735032542098","-1,18287225653924","-27,3025754699178","0,93941174211383","-1,76640511292779","-3,1283379100857"
"1956","1,10205501425499","-4,38184500649718","-27,6670494087824","0,897609971488052","-1,3742364412642","-2,02642326186535"
"1956","3,2750590319257","-3,2096169756724","-27,7646793953439","-5,98840187264808","0,332647231655309","0,0215633991025781"
"1964","10,7297453511742","4,05866363993039","-32,987234658715","-3,92638860069497","0,155762871859561","-0,0141390903549127"
"1968","8,95478715472226","1,93941706547136","-31,3861769308795","3,52818791716505","1,58823039227193","-1,56009819909295"
"1977","-1,78414105338242","6,61475157162207","-25,7609052740288","1,62619045939493","1,27901350704582","-1,28801530342216"
"1977","1,01055114893916","4,82454957654728","-27,254089181843","4,52801934711741","-0,387868076754883","0,369243864831303"
"1985","5,24774736289031","-2,60363909869528","-27,6540616059564","3,3447048246857","-0,191693389377397","0,149566764744756"
"1989","4,51244694944878","-0,52577062269511","-27,7612004113065","-3,86257230521669","-0,0970914806741531","-1,48301705811558"
"1997","0,889928888796985","-5,21181220037135","-24,3256301587133","-1,89097535465393","-0,0514713181040666","-1,25172153561064"
"1997","1,80869571896584","-3,42438078647169","-25,4053594841161","-1,33609267223419","-1,5472387665956","-1,14281570101613"
"2005","7,18749844687568","4,00309096817968","-20,4981781379127","-1,17992749295582","-1,26854719580795","-1,09153722973282"
"2005","5,79293969686297","1,92503698051189","-22,1837136514326","2,30114696753728","0,383614073928529","0,461755852797706"
"2017","-1,42939972163928","3,12855416876149","-34,7601520711086","1,28085427221226","0,180340765287503","0,193126169398876"
"2017","0,414908350172366","2,43997845109297","-31,1289457843993","-4,16198048196483","1,60008266363921","3,12493856948042"
"2026","6,06996253459829","-4,70315141802011","-24,9598674094654","-2,69380205812577","1,28472906346547","2,50538672017303"
"2026","4,75785809757957","-2,55152061025777","-26,3073842697427","-0,562038768678243","1,13265514969151","-2,37377579126466"
"2038","7,76927581329823","-5,47723712063595","-16,2755303999281","-0,962079161317857","1,05932008949945","-1,67113658612845"
"2038","6,66811045482002","-4,2343008114961","-19,5883430483477","-1,07466580641322","1,02395550316172","3,24714772815606"
"2046","-0,466658201735704","4,79351459901626","-34,3328073588224","-1,10635198832648","1,00690153247481","2,56292908103035"
"2046","1,40378760381217","2,12956842748618","-30,2823403678861","4,0404157319245","-3,55462344455357","0,711615192251662"
"2054","15,5742653763573","1,44024090251329","-25,7330910432467","2,48891273715116","-2,75434133473193","0,839921343748601"
"2058","11,803806911693","1,26186926656828","-26,5145041895107","2,05226053839606","2,18488210025122","0,900334482580918"
"2067","14,081465989532","-5,74923927244279","-23,2595487568612","1,92936993275754","1,56673865222358","0,92878009723767"
"2067","12,7612915979331","-3,56344638674681","-24,3876585576936","-4,97946340654946","2,78641647719954","-2,11612332241648"
"2075","-2,94646801919137","0,48462971607505","-36,8147818713066","-2,92387297495103","2,37458537803087","-1,54982054485208"
"2075","1,36514935927015","-0,467882796872096","-33,1435792220487","1,09177229564721","0,658219833639637","4,83341810281251"
"2087","11,1596839588275","2,76811973022387","-21,7673836421009","0,221928242966806","0,830531722076845","3,83897534322566"
"2087","9,0831133288924","1,60547359144242","-24,720093553125","-1,74144090245566","-2,12190779143966","0,312443438559893"
"2095","-3,44736324704019","-2,17785121036889","-27,2431571306357","-1,29400796626715","-1,5456715656726","0,651970740504956"
"2095","-0,187404478263959","-1,15683117237887","-26,9189987667585","0,550478557970467","0,24997555670774","3,8701347453909"
"2107","-31,543350431631","32,1908954854645","-25,1000334109856","0,0695875117370554","0,115895861745841","3,38541196744192"
"2108","-21,9023345052985","21,8200134932509","-25,6127953829574","8,52705544152045","0,0512382077370085","0,0988824606115255"
"2116","-83,6826547682882","120,128240525918","-79,4463167363687","5,90730993015597","0,0200581530455517","0,55141524211743"
"2116","-64,1225715313578","87,5666549913192","-62,8664587708533","24,0741933689526","6,07609008765271","-6,88125173391034"
"2128","-25,9554003638173","143,566773423812","-67,0859597597661","18,1870482102268","4,9965085567247","-5,38093383549575"
"2128","-33,56343191148","121,057465259033","-63,2162184172915","-29,8709880813586","-16,772839238555","-13,8493981982957"
"2136","154,73649180946","-448,928258541921","53,8733645483306","-16,3963549580362","-13,2707372099451","-11,8367870122963"
"2137","98,9394202683233","-272,41879437055","18,2376218860285","-93,3764835100505","-25,2418109987192","-13,9474431746731"
"2145","269,453043607198","27,475889707628","147,262798178943","-68,04163176044","-22,0146578669098","-12,9412487114871"
"2148","210,347195789537","-40,922819944451","101,82418895169","-60,9114368727284","-20,4584181194272","-12,4674805788795"
"2157","-166,316109432639","270,47222483839","-168,435289405151","-58,9047277102195","-19,7079479518443","-12,2444061616703"
"2157","-67,7409069479812","162,04936930287","-91,8284742850103","118,671903045723","51,9890023669542","13,8561539238159"
"2165","-31,5125187777067","3,40081081094191","-81,7009601060896","65,648749064272","39,5636380604395","9,1456407617351"
"2169","-24,699229699951","37,3486231449482","-72,9881486598987","-69,5733180752057","22,947348335868","11,5151343776331"
"2177","167,905106021675","-122,767084318852","54,0593982037376","-37,6299722586474","21,9344250350867","9,63081390748755"
"2177","113,392796337854","-67,1989141038774","16,0910503202564","-18,3285239004899","-45,3357878568875","4,1561332436464"
"2185","49,479519396503","6,38210459363737","42,295465512858","-18,8963591588558","-33,7757046653628","4,57837185692812"
"2189","58,402967157269","-8,57793805068923","28,3147237651138","10,1593810370866","5,18982289587457","3,2480349852694"
"2198","71,2755449156916","-200,502750566427","19,3733621066974","1,33677604422208","1,98028628439908","3,62164392620014"
"2198","69,1176949948917","-142,165561852276","19,9782799746999","-14,8947364182425","17,1279787660109","3,797558241719"
"2206","17,4278968161164","350,029139406652","-82,055620093479","-11,4629039498118","13,432696007399","3,88038775411605"
"2206","31,9997544585009","203,390329677519","-50,3869797059469","101,209462254734","8,6151747109446","-2,19720600671772"
"2218","-14,6966345954528","304,74486174614","-97,3323487910669","67,9197693620325","8,29200694676639","-1,05884990575114"
"2218","1,3656337187071","250,971543607178","-77,9073926122685","34,49091305735","11,1716987782298","-9,69774450954963"
"2226","87,8330008126108","28,108479474097","-31,132888921206","39,0827561562798","10,5603812192492","-7,76538065144951"
"2227","65,6413981330848","90,4400302957509","-42,6036140407898","-102,265553830226","-4,91208624838091","-22,1470097008227"
"2238","-106,030122281571","-408,837450125065","84,2338636738226","-59,0463667283302","-2,37342070673588","-18,9186207440812"
"2239","-60,2698784621855","-242,031393130117","43,2092455169164","-88,128320198319","39,8305165079775","-26,5734203251009"
"2247","-131,687784395274","4,85651217514138","-134,064747440499","-72,3130926219259","33,1826479102368","-24,1776938881868"
"2247","-103,004285106064","-48,2583273330207","-85,5503306458823","-67,8620835563241","29,976826269525","-23,049662596242"
"2255","-150,593267039049","204,407024355846","-121,054759668447","-66,6093996093892","28,4308732710633","-22,5185274148624"
"2259","-131,79741589985","116,787167313485","-102,565170588765","133,096323148086","-19,3654131783762","-13,093550402364"
"2267","185,191655955808","256,049646733459","-14,4699909733229","73,3011408247468","-11,4143599486763","-14,6557862102002"
"2268","96,8051522105801","199,085457549044","-38,8723334047527","18,6641330204227","-15,1689346513272","-21,5079613797971"
"2276","92,5437569636438","-426,829304735177","87,9654794722604","25,2871922916404","-11,9795144870234","-20,7343180664763"
"2279","78,2718345567423","-237,792139622927","44,9409510937915","-165,327748299305","-14,9947718113142","-29,5449382190259"
"2288","12,7571350623513","-220,21882867188","55,933913910976","-106,974072673155","-13,4488284071097","-27,6934315863723"
"2288","29,2025973019213","-197,671526976025","45,8785491720235","-13,2158383395671","13,098715464557","-13,0593101292549"
"2296","34,1111661396511","-191,837146447273","43,1850640701975","-31,8286903217586","8,90081728113931","-15,1688126670275"
"2296","35,5762540577491","-190,327431599196","42,463572390671","-37,0670577438689","6,87645223179414","-16,1620750180117"
"2304","95,5669018107104","-62,8263869647533","16,2882918748396","-38,541334403635","5,90023659388322","-16,6297540467008"
"2308","78,4726450379745","-102,833986266642","24,2768377967599","91,6544451956237","23,6426771528473","-29,0831497158848"
"2317","-3,1981721392131","158,446733161316","-56,7257634784176","52,2965100979583","20,1986675528834","-26,9468492557633"
"2317","17,4250835462806","70,0562042426946","-30,4235641458222","53,2496166286362","3,36018249436068","-56,5239398525216"
"2329","25,282146117672","179,518213933614","-38,9673235784669","46,5178572080423","5,240109270326","-50,4503561593859"
"2329","26,6272874054145","131,842801354036","-32,2559017994307","17,1262940858456","15,2532739848908","-47,5906004065851"
"2337","-32,5245755626791","30,7030776023198","-33,922412623582","24,8543856812913","14,0819524796603","-46,2440802335084"
"2337","-15,1799620169571","55,5319799295134","-32,3688133453275","-22,8089266002469","7,44603460610762","-39,4934750856055"
"2345","-61,0487511516452","20,1670349272707","-68,3274826501607","-7,22320306493737","8,24597599901487","-40,314942791991"
"2346","-44,739464473718","35,0159378556671","-56,9595688616993","-2,83678520186628","8,63173413953448","-40,7017320613529"
"2357","-27,9608697572487","-138,748028882007","-26,2003448579017","-1,60227968623337","8,81775944625893","-40,8838523537643"
"2358","-29,9528690111223","-81,7115068985149","-33,9610105573752","-23,5961461805093","4,35416599912372","-33,3238612622903"
"2366","49,4242157231082","-54,7639660563808","-11,7899417188969","-16,7860602162568","5,20167392474235","-34,7642284149814"
"2369","26,1163369222789","-54,7909716951077","-19,8510777235745","19,5017942161858","-21,7094357199382","-36,9715759320126"
"2378","39,5777974100796","260,366153218372","-65,3137407897369","9,71458238315031","-16,686860951208","-37,01090873439"
"2378","31,5957146019576","160,916780335362","-52,4916188515524","43,0498851278298","-0,604906666650038","-27,8545374052515"
"2386","-20,1309504282413","102,099555239851","-76,7711673255346","31,431712484056","-1,84965754997887","-29,5432465914148"
"2386","-6,57009664062281","105,879903794125","-67,2748202303764","-28,5506246690462","3,62115047898363","-33,3966748570581"
"2394","-2,522512976191","106,858113616945","-64,7310766580034","-12,4319452289194","2,25935466632099","-33,211067184134"
"2398","-1,3144081048345","107,111236958277","-64,0496955651315","-7,89553321922926","1,60265178143721","-33,1236735402449"
"2407","87,5254516688963","-221,917282874261","41,7930286316644","-6,61881362206235","1,28596797685752","-33,0825241153752"
"2407","62,0419801118826","-118,057297205477","9,14464074737209","-83,5947772964165","-11,0088833774425","-33,0631488485738"
"2419","-93,5968385408393","-164,314303751561","-35,9755602638445","-60,2587533911646","-8,93786647352023","-33,0540259759014"
"2419","-53,0512248056184","-134,283850349701","-27,0617045629488","-22,7569924672816","11,7918171829397","-45,2829187734273"
"2427","-29,038678376426","-9,85015702970003","-50,6560081282824","-30,2025646513082","8,78835479404332","-43,0409108082837"
"2427","-28,8715197158887","-44,6514697002763","-41,9761075767889","60,5043045662789","-10,8732178527211","-60,335040556461"
"2435","86,8820337979553","230,165105215243","-43,1153308897935","32,0326819006954","-8,35467708355591","-56,4780068076594"
"2439","53,4316425202574","138,277138721249","-41,4204894892965","36,0496125269871","-19,2822895760833","-73,0116993067448"
"2447","43,4475176690566","114,500042473949","-40,966499984121","30,18013022249","-16,5519449693567","-68,7966125685374"
"2448","40,4675002391611","108,347438084883","-40,844891867427","28,5282337308643","-15,2352826890854","-66,8119328214275"
"2456","80,4146239582416","-204,926257499567","47,5265432718991","28,0633269678003","-14,600344683085","-65,8774434637392"
"2456","68,3378647761622","-106,989525040107","20,198200158962","-63,1512913403882","-11,2586226284048","-76,1414775608027"
"2468","114,07745536116","252,67049388312","-49,4789623070627","-35,8225686611882","-11,6471339651393","-73,9743130067348"
"2468","98,7296060715138","153,736770268748","-32,1430688722608","9,67713741883058","12,4497849901766","-85,1870887266068"
"2476","66,9242571313449","-230,558566589888","36,5895957849541","0,482492464538131","8,07011459291351","-82,4666405513408"
"2477","73,4311372417019","-123,999522359364","18,000703991288","-63,9734568577966","15,0646949619793","-84,2440106334767"
"2488","15,8199272491277","46,3554203027857","-45,8711921125313","-46,1138227412391","12,4377124615235","-83,080887932622"
"2489","33,6243880813063","8,43677308956184","-28,9802682174061","32,8107181217216","17,2419627862366","-76,4166357523795"
"2497","38,9385848086642","-1,37512458057726","-24,4557727815165","12,023098258689","15,5587308498527","-77,2787628797124"
"2497","40,5247427453327","-3,91406895134865","-23,243816640071","6,17266809474047","14,7470208575958","-77,6846966968132"
"2505","-66,1978664718278","58,1135241651769","-36,7762515870064","4,52613360311706","14,3555875100649","-77,8758312274895"
"2509","-35,0519588806199","38,1638962410068","-32,4011237688976","-2,81151131771851","18,7201264207405","-74,9075301215615"
"2517","18,4839688589643","275,033803304708","-62,4075994170594","-0,876604842617024","17,8248511284954","-75,5099012104268"
"2517","8,46313580321591","197,3266884695","-52,4452984180254","66,6918622249732","-22,068822073832","-88,0267168328718"
"2526","44,6072235903427","-12,5759080204598","-49,7767418795582","46,7082094772615","-15,3068679225379","-85,9202777503725"
"2529","32,3953510625625","42,1093168274951","-49,0619277016202","-82,6524037632957","-18,1170984487109","-95,6324976077954"
"2538","69,5869915007366","-159,653771514894","27,3434652236256","-47,0594209550671","-15,4722843558536","-93,2055105130299"
"2538","56,6877878553452","-87,862352830959","3,80983246996659","-25,0122635507698","-17,2324017051908","-102,766799870695"
"2546","52,837690599158","-69,285475608524","-2,49401536245204","-25,8073514176206","-16,081188381061","-100,268746929674"
"2546","51,6885305975329","-64,478489290887","-4,18259858758589","-26,0311195098728","-15,5260353221052","-99,0925350538155"
"2554","-15,0139180784992","112,630432672329","-68,7238889856329","-26,0940963973311","-15,258322195087","-98,538713974129"
"2558","4,07703003826223","57,4594573471779","-49,0122727144038","23,7264719141523","0,0484478753045909","-102,865392128158"
"2566","142,494116762738","-127,458026837887","-16,0180588405377","8,74788261701477","-2,57012241988167","-101,902614856394"
"2570","105,808236646234","-77,3076091829736","-23,1800479057921","37,1850098561025","-32,6704563718284","-104,507586850644"
"2579","207,159009286608","273,469612959856","59,776093938553","26,188303550705","-28,1858308196024","-103,734141718877"
"2579","171,409739671391","170,237360799784","32,9971806881105","52,3089611276898","-6,29222541541552","-95,72422125176"
"2587","-41,7419505072075","-192,534174562979","-67,7112298450827","42,660311787239","-8,7344063240753","-96,9527385007766"
"2591","13,6374756908211","-93,4055925648673","-40,6875365670991","-123,318558342074","24,9965343609426","-79,1814051686378"
"2595","30,1668819019113","-67,7549015662638","-33,4488219972936","-75,0313515709652","18,2627071981056","-82,8137469129423"
"2599","35,1005059650107","-61,1174824138505","-31,5098202448646","-61,4414873687197","15,0154335003714","-84,5240403285337"
"2607","26,363925720428","-134,273214141447","-34,4546976499442","-57,6167805491491","13,4494909519509","-85,3293344812664"
"2607","29,7562698873375","-110,20312347231","-33,2435286494364","-6,70206956152692","-2,48332819154577","-78,0627657121131"
"2615","129,45721828155","-138,799467178145","76,2053764796169","-21,3727253213801","-0,166659421216667","-79,6412911938324"
"2619","101,215516421836","-126,19910874774","42,5229599815138","-101,118327686539","11,574883693549","-68,151353906997"
"2628","-187,965471575136","-324,922247625376","-28,856239401437","-79,561785888748","10,2370432954189","-70,7413001536447"
"2628","-109,278933943522","-260,344206124893","-11,9762629022724","-68,3392663031636","33,8761644461554","-65,8441859689498"
"2636","-152,152376670544","-29,46157767201","-135,632654379893","-68,1808206739088","29,2757288385976","-67,5383726025131"
"2640","-125,949052244045","-92,7179715392895","-94,7559330313675","120,905570785058","-27,5823649160794","-59,1611916168167"
"2644","-118,127999855785","-109,086310317771","-83,8064704487486","64,1217030538118","-19,0012142402543","-61,2167837142509"
"2648","-115,793606728246","-113,321811236923","-80,8734873989107","48,140553947303","-14,8631001764297","-62,1846622556619"
"2657","203,088219632732","448,002139245791","-74,8914389264304","43,6428482261422","-12,8675650026371","-62,6403892805386"
"2657","111,266656881375","270,251338959168","-76,2890546412926","76,7482582036698","-42,2605920123545","-67,4424146341156"
"2669","7,2915639039257","-599,349444621323","6,47902931708541","66,0653849550032","-36,4348797089862","-66,7034552855366"
"2669","21,2575379912247","-351,368914709088","-19,3502581492391","-163,791342153435","-24,5189269884047","-37,3016929477674"
"2677","210,892202233336","116,766236087081","22,2307339284728","-96,4818040015054","-24,7726613184843","-42,4578302077272"
"2677","158,493518139949","5,90173360570794","5,36884632797662","166,497447407056","-38,5549233551353","-29,594119573163"
"2689","11,8364101102202","5,07404570532747","-167,164919732209","98,5098526304799","-36,20118497199","-33,5372226325418"
"2689","45,0628451097686","-11,1401283113688","-116,380759784715","-94,1991957080905","-6,22856170840742","-24,6897986912071"
"2697","54,9801244815341","-15,3357372781932","-102,777436406753","-47,4348819816664","-10,7747735694614","-27,5239762061568"
"2698","57,9401901683579","-16,4214006357204","-99,1335756612623","-34,2736180455309","-12,9671069697306","-28,8584528285826"
"2706","339,575227210757","-396,29225493192","156,466263294203","-30,5695357102278","-14,0243224899993","-29,486793095347"
"2706","258,636407510869","-276,588323598705","77,9326368299863","-106,862346802631","-44,8894866358277","-23,6660538699631"
"2718","33,6982647004407","182,731077461912","-50,4961509580898","-83,3340576694046","-39,773687445159","-24,9253503041"
"2718","84,5597226435685","55,5853956493136","-22,897789837754","48,7427134364681","14,2973976450773","-10,2268064750924"
"2726","155,890931616528","-201,934777625847","64,1730463319621","12,9141611888324","6,37225941023937","-13,3059756449671"
"2730","144,181555402084","-139,571162989594","41,4963176518139","-76,2232049390098","-5,0383387863772","-17,8141040248037"
"2738","212,150618324148","-79,9028865519904","-63,3096628027964","-55,3098641604747","-5,54090582637749","-17,9367628568821"
"2739","190,437723625826","-89,4630155231746","-34,3835670584231","29,6297918083667","6,358875732527","-13,4070713288248"
"2747","10,4014637393211","36,9148145149456","-75,1350311004364","7,53505506937322","4,09734313458194","-14,2742594569122"
"2751","58,6650371149624","-4,38342982548477","-58,0509415745297","16,7838085603221","28,8087964180066","0,608909140700158"
"2759","149,639134062677","21,4961638989335","43,5248293888135","10,3867610271697","23,7254747555366","-2,3833291872199"
"2759","131,792680178498","7,19281433429525","14,7334720287376","3,43070210906022","-7,56344365111762","6,91181080172574"
"2767","70,3156436052263","31,3514648441955","-41,4785052903274","4,47300145911318","-3,65199275038962","4,2884410417138"
"2767","84,9662496165643","21,6028009037037","-28,5357535735811","-5,54502653963941","11,8941409340495","15,286411874048"
"2779","152,295501341035","-155,043600297539","0,913180627658274","-2,3644822336225","10,3909996733922","12,4648225037474"
"2780","135,391638626079","-100,752942264267","-6,19846647864504","-40,9962771612902","17,2549703311295","24,8986098824948"
"2788","57,1806982704025","-8,34887480378669","-54,8710632854507","-28,8687397049327","15,5650035172945","21,753076830182"
"2788","76,8366426879641","-29,4382313378281","-40,9087717892966","36,4126375824484","11,7145117518411","21,8011465376636"
"2796","82,7034620475344","-34,8953513420705","-37,1687558765411","18,7853104205442","11,8576775428635","20,8237802296405"
"2796","84,4545643434422","-36,3074455751322","-36,1669347190673","13,8243073226769","11,9267168122656","20,3635858759969"
"2804","-32,4279595463938","52,1303062148856","-74,0055408551014","12,4280915770339","11,9600098265083","20,1469026924382"
"2808","1,68546164645102","24,0146186710061","-62,1411972481967","29,2207612144203","8,94053082374683","13,9282829412547"
"2816","96,9437058639162","88,1301184732946","-65,8916872339137","23,9468598070976","9,48443839526269","15,0002367486869"
"2820","75,3759653097854","63,7207610558836","-62,8963140339684","56,8338186735615","15,8177965631272","10,9175221462858"
"2829","21,2958376619421","-40,1047871866127","-112,325858035732","46,0894649390126","14,8719508946101","11,9951700126589"
"2829","33,1542403358464","-10,9708736578144","-96,5663265632481","-25,6768788509476","6,82699791450314","14,0317306239508"
"2837","130,277527163551","-52,186798954758","21,9759862219448","-5,87466894098794","7,94745607595039","13,9906481623148"
"2841","104,266456279406","-34,8519062598697","-12,2706202700069","35,7882271808854","-11,243192974165","9,38385880695663"
"2845","96,5027868782082","-30,3662981027894","-21,4441039544762","26,5137573663938","-7,49755730457226","10,2147453104527"
"2849","94,1855211708656","-29,2055940307765","-23,9013635643882","23,9035673439265","-5,69128816563598","10,6059694341908"
"2857","50,9557633861038","47,7092323462672","-43,613058309748","23,1689601815049","-4,82024557365096","10,7901778842627"
"2857","63,0527364700032","23,6118518011321","-37,8931408832519","22,9622136693981","-2,88243309184064","13,9352097808903"
"2869","51,349667692823","99,214565141588","12,1387941049725","22,9040273046921","-2,94795595853202","13,4160526429534"
"2870","56,8565874820854","71,7776598561778","-2,4593776168077","45,2289549347959","-7,53285423685661","17,7590523645841"
"2878","60,201792968526","134,32756438915","-96,4407189342254","38,5120422182706","-6,74384350432057","16,8039601267645"
"2878","60,2002551076464","110,513090710892","-69,6150760321318","-25,2465786211723","-20,0232594575496","13,295956472747"
"2890","192,918701055754","-57,5843374830413","62,2842731226108","-7,19068963669956","-17,4270320973012","13,6442078285716"
"2890","154,531915843071","-8,08153174679728","25,6155555884372","-21,013252754789","-16,1750455796192","1,57499417265848"
"2898","92,0286652841016","63,9300022783676","-63,8849159553477","-13,9034499366685","-15,5712963608654","3,89218729485286"
"2898","103,372971483512","48,5638369442374","-41,859002720767","19,0316326507556","7,48635638586331","-2,66250163629671"
"2906","38,6979929230966","32,3989928851033","-93,1194600627498","10,3008227692579","3,60551752340494","-0,748786493103731"
"2910","59,3940913532981","35,2161486272346","-73,8503670708828","-17,9347876943508","7,80511692872137","-1,3768594622494"
"2919","75,7805178179265","-31,9631685912612","21,382152814334","-10,8813668718719","5,83030236341235","-0,672588537115525"
"2919","74,6714659186427","-10,3466101046446","-5,10834254019861","-2,02201763416395","-2,71085337829491","-3,39927862224205"
"2927","26,6977571801059","-48,2840251966782","-22,5970389126603","-3,52865839656243","-1,82968056491545","-2,68314463134279"
"2931","40,3787767638727","-33,1007792770508","-21,2816569600899","-9,10837007174021","9,21961902302908","-0,816803356333762"
"2939","54,6713735192349","-11,7595531970018","-41,7149257827077","-7,67871404116441","7,5479559498118","-0,938033841075613"
"2939","52,9373645884797","-16,2372589739179","-35,1882931427325","16,7835110709702","0,670756859156686","-2,52426393131283"
"2947","16,6877923972481","47,0298949309474","-87,1362036798892","9,66811549496386","1,35434448605431","-2,27114268609947"
"2948","26,8681804066054","26,4010179961973","-70,0512556680876","2,50988600197294","-2,86930798899911","-8,26855433581385"
"2960","35,011350863726","-146,095814007298","-29,0999629479177","3,4952868308223","-1,90609260775257","-7,09244437071521"
"2960","34,441888367863","-94,7314059503362","-39,1305252690431","-16,8501254289447","-9,03043334398149","-12,6552654335829"
"2968","138,064907498588","-34,4268276961559","41,3250903033048","-10,5761014842498","-7,46602557511699","-11,274527855918"
"2968","107,993847966597","-45,8223060595148","14,8763723828976","34,1536936589565","-18,8537524901107","-10,624405550812"
"2980","8,83757671218506","52,2207945647561","-14,7260748975031","21,7423663620986","-16,3452902432802","-10,3182945139044"
"2980","32,2418513957034","19,5906044416499","-9,65554864582721","33,7164011052259","6,11311099126161","-8,64501314564914"
"2988","49,4366023312685","-28,9013209559141","-84,5112485802467","28,0863518021759","2,94329327223395","-8,85714616946331"
"2988","48,5688155451822","-18,4491791944587","-60,5625065698319","-4,43227163038498","-9,20966642248909","-12,0153263924232"
"2996","101,057059483427","-14,0033259126806","-64,5402724174499","4,41574576297406","-8,07022467739844","-11,5023601631439"
"3000","85,7235184001305","-13,8529088840361","-59,6057785753327","6,90591578678252","-7,52074826235866","-11,2608292648652"
"3009","53,9224401101137","99,3664958460929","-51,3554599338079","7,60674473769851","-7,25577260038574","-11,1471040886381"
"3009","60,4305949052408","63,6633535962995","-53,1454843711931","26,7081646517513","3,4963763844925","5,72707751043327"
"3017","50,4624492074598","-32,637165658495","71,0887153177009","21,0840337495961","1,68141748346896","2,67231056226199"
"3021","54,4872011646078","-7,55606203145896","32,3667688430043","-18,3071712482748","2,32395139792049","-0,295179456413291"
"3029","91,4205042033398","54,6535918409465","-66,3443644566445","-7,39336078956288","1,63380245733223","-0,692426465930378"
"3029","81,4441931534833","38,7510742869433","-41,7856695539134","0,833887722988346","-4,77007812517488","-0,879470800568153"
"3037","37,6299218102954","-36,7546558053383","-43,8679155572324","0,149349674922879","-3,85824069248446","-0,9675408987235"
"3041","48,5524318723396","-15,2926549593862","-39,425677382276","-20,6660471642152","5,68807939042383","-5,5964544513655"
"3049","60,3201564828247","-196,051595495582","-34,7714860814002","-14,5242948301164","4,29162999630528","-4,77598515847447"
"3050","58,8325348807409","-135,82510557179","-35,5247888948332","-11,0772093461039","12,7248179897994","-10,5062601512889"
"3058","-6,26941189432918","208,853228273102","-32,2623036743885","-11,10706783754","10,7915795649187","-9,20436850111736"
"3058","12,2992469514677","109,042816756646","-33,3883965049992","90,279675475673","11,377075189329","-14,7079650738557"
"3070","34,8567823480961","-63,0483138960362","-18,1008272210429","59,8137772733955","10,6594205028201","-13,2993415585119"
"3070","31,5896557505509","-23,578925824454","-23,0058151375967","-31,2514568067424","-1,82879224418575","-15,6943861977825"
"3078","45,9282180561872","-177,042145794028","-50,3017098808094","-8,880691700388","0,148979414572551","-14,822096464311"
"3078","41,2079287195911","-122,75256589431","-42,6133378267403","-18,051760266504","-4,9683418042322","-11,3530804904045"
"3090","138,487454144529","121,138945381399","37,3921650459772","-11,6328492285097","-3,43608298541222","-11,7196892523536"
"3090","109,523016665907","52,2487535398051","13,8228774712541","69,227520630521","6,40942476596029","-5,77571336565058"
"3095","100,87783946512","34,4226030174773","7,50947894307872","45,9847169814406","5,15725353981316","-6,97698363780974"
"3098","98,2974652083031","29,8098760972886","5,81833741624219","39,4433043300994","4,55341524854137","-7,54260349999396"
"3107","29,4663096084653","77,3709479497283","24,4188187001006","37,6023009760647","4,2622244957176","-7,80892643823022"
"3107","48,9218906970073","61,6779368429272","18,4012455464175","40,5212959341054","29,923841645022","-6,40517644325074"
"3119","-45,6610344365543","5,38003914099987","-71,5495150972831","39,3428125994791","25,2987203574052","-6,74421870784098"
"3119","-14,8917276289195","20,8122934039466","-44,6442187685655","-26,2942062992295","10,9261982553006","6,8584796015614"
"3128","-51,6490004229361","21,3230950163055","-122,311810137073","-6,76697026965192","11,9952937542406","4,26332996822252"
"3131","-35,6201486441465","23,4552709645144","-94,1162767752041","-6,42694567586937","1,88647791216212","7,62884559126299"
"3140","-160,151783971094","131,963764634478","-131,599164220328","-3,33124976873537","4,01167328688424","6,21350353793928"
"3140","-121,321435731115","98,0416185263577","-115,639535855557","19,8813007878165","-1,03455535058526","17,7802759803754"
"3148","-109,731525119156","89,2638627036681","-111,364502343877","13,4141990634741","0,531986657258056","15,2265076789653"
"3148","-106,272219857122","86,9925147459894","-110,219368440488","11,5941096424288","1,28742491479748","14,0240621442916"
"3156","-67,8061644246182","180,431639068732","18,2653278861826","11,0818669652908","1,65172217468384","13,4578889080359"
"3156","-78,3249863187172","150,61011571867","-21,3180572666295","5,78201689001298","-33,08124258319","13,1913054128098"
"3169","332,005836932142","-553,601832767972","26,9714939534022","7,29043666345947","-26,830624498578","13,0657841847191"
"3169","211,479566331057","-335,824989036861","5,90659776730595","-186,482520631185","-51,1361761030865","-2,28480306317021"
"3181","132,967307555576","-331,709805231679","-25,717978560402","-128,017631518513","-44,8571152548701","0,487350510569764"
"3181","134,533315783802","-300,644952834303","-19,1891108764947","62,0113637487784","-3,88496997023469","-5,85311962746846"
"3189","-108,317261436422","517,069204271259","32,7916484807376","14,4927807297415","-9,12684929009468","-3,83853925265767"
"3189","-37,8022276965761","263,662397135633","17,7154995338911","227,969395176035","23,2539844212171","-12,0648623773306"
"3197","-16,7552122849911","198,090393826815","13,6771196605151","156,04986772091","15,8690911174135","-9,93823863569517"
"3197","-10,4731922072614","181,122863765041","12,5953770975312","135,808965897","12,3078518390488","-8,93691474086546"
"3205","47,5521433082106","75,7404998300361","-30,9977473946438","130,112403069877","10,5905047256876","-8,46543992248229"
"3206","31,8712888305992","106,471568917147","-17,6748406090616","1,33559898025585","-2,37979270288788","-23,5349307099354"
"3218","-13,6456494060482","-411,430338416189","-168,266066073529","39,092887980782","-0,634498188060631","-20,6304224572383"
"3222","-3,23134382816613","-243,443571782604","-119,604256958141","-156,508185724018","-2,82839356521157","-19,2628305042213"
"3230","-23,944269873744","304,984063479221","18,1442473394944","-91,5577983897911","-1,88636232228334","-18,6188978356808"
"3230","-16,1265724350481","156,896189362994","-16,9576834450529","182,787430527807","-7,50315175265238","6,15067543270606"
"3238","20,2373077737835","250,910806140234","39,460832780406","110,998655919184","-6,21175298964406","1,81346518379605"
"3242","11,091037915982","199,238198257586","16,5734057069481","90,7945529400796","-5,58899788545209","-0,228716596697922"
"3246","8,36109973902717","185,867300871854","10,4426540692001","85,1083467133302","-5,28868482111732","-1,19028087079084"
"3247","7,54627986536702","182,407423303728","8,80043733932839","43,9811095409565","-11,2149319361452","15,1775991200629"
"3254","37,9305156397115","-91,8622571758862","3,1641406066432","55,4063342420772","-10,0727638818638","11,884439320174"
"3258","28,99946795662","-5,83277528944416","4,65437127722756","-142,449902626125","-23,1818757191221","14,9212958368024"
"3271","-4,29367126408708","21,6520834739329","-59,0354246109856","-81,1342043367591","-20,5035220935221","13,3512041631953"
"3271","3,76913978322136","25,7641151914155","-39,095722354209","-34,6620743037479","-2,51649461865125","23,3159639814674"
"3279","6,17569196611435","263,63654620316","-64,9329858002104","-38,5830420182112","-4,84255633554253","21,0078856961198"
"3279","6,8939890184706","189,188846276263","-53,8538967736504","142,480999492826","-13,5530950461255","12,2753809672012"
"3287","131,319665994996","65,4503333368516","59,9704180092992","87,4393360913516","-12,7536042905674","13,1636683611644"
"3291","95,4576917751922","93,4315321388682","26,4600227180949","71,9485098226576","-12,3680634622502","13,581919778017"
"3295","84,7537683128744","100,671997701613","17,483744600255","67,5887996747911","-12,1821429506418","13,7788540685271"
"3299","81,5589085769068","102,545553653816","15,0793095540961","-93,4644373523935","-12,092485943918","7,75498670912579"
"3308","-2,76937573444081","-327,055475304964","-91,224961316869","-45,7909693033168","-12,0492503762815","8,91863996467794"
"3308","21,0606909137364","-191,219813827568","-58,7002058539702","-63,3079471498909","6,18480319944785","9,46654779965051"
"3320","58,8008234228897","327,993485051925","26,2259722606078","-50,2378937358905","2,9778656211146","9,72453100400452"
"3320","52,0653312650886","184,346056464448","4,97476372120129","123,578137401602","-1,60415951231298","19,0208940091631"
"3328","-19,7075499720421","-199,330812137306","-57,8781406154279","73,4966070602184","-1,8137632544838","17,3981001081213"
"3332","-0,130002141672969","-99,6117319430874","-41,714264001524","71,4316843266901","11,7450618719536","18,1631537690444"
"3341","65,2667725419186","-58,137098826841","-20,0631742340162","63,850536204584","9,28357483650479","17,5233804027037"
"3341","49,7861126263542","-56,4050478189334","-24,2635946821009","-68,8937857790505","-1,0100374287026","24,8678848758842"
"3349","45,1655137193686","-55,956859170391","-25,3887423213997","-30,2531078439605","0,0260430118594047","23,3260555342365"
"3349","43,7863777926261","-55,8408850658379","-25,69013053381","-19,3781452827636","0,525675194571433","22,6000829367736"
"3357","4,23967768099441","151,396469575509","-69,0742250333411","-16,3175154742986","0,766614322682158","22,2582576789252"
"3357","15,4359535305156","86,021581930838","-55,6953263284564","77,3462002437729","17,5782400836726","29,7430514541631"
"3369","-47,5816840514676","-176,40952734501","67,4057006780336","49,7067471132579","14,6853608679865","28,2672775352913"
"3369","-27,3909098157632","-103,316675382129","31,3802163589037","-61,1857590623151","2,66595005951265","24,5141101512589"
"3377","41,5919468184238","63,6022094761187","-66,6086278112895","-32,3951455798717","3,8697934851323","24,7469258067274"
"3381","25,181644783703","21,7944417367593","-41,8564565842373","-8,82531108974642","-3,13850846653405","20,269101779855"
"3390","47,5079611698577","52,7659048449239","-139,154275562085","-11,1918594695575","-1,51814296606833","21,1607117966313"
"3390","38,1718213446532","36,7801366027969","-105,217002540231","75,7887556059426","-3,77228323703819","26,1679732935815"
"3398","35,385211619545","32,6436303269187","-96,1263786141921","49,2684227092194","-2,85930407020134","25,5256496828712"
"3398","34,553476672827","31,5732604884966","-93,6913142732403","-13,1893896848576","-11,5256373634967","17,5774679754552"
"3410","25,7976019914032","193,23144160829","64,5851967301116","1,23259647747544","-9,70482929678934","18,8350550096508"
"3410","28,1841872401358","142,06240466372","15,9820103141144","0,135808775544566","10,9041954006","19,4271917014944"
"3418","74,8376840602198","295,980678736286","-28,2155269030665","2,82713082698177","7,8425472794728","19,7060001277054"
"3422","61,7626134617893","239,80884945852","-22,0545214221532","77,4827293566368","29,1326244579973","24,4247231006989"
"3431","-219,488456666926","-182,176011758099","-261,170899019646","55,4936660787503","24,3994023203839","23,6465407045532"
"3431","-140,43503222077","-57,3695769536774","-186,221922267613","1,18537324601361","19,0813523997504","32,4550236233252"
"3439","-314,216348733409","-129,548729946988","-439,822932807131","13,9009454647351","18,5168132138004","30,6025106710258"
"3443","-250,085827522587","-88,2259379999346","-349,753889209947","-144,065216761383","37,9755447411683","41,9634405571609"
"3447","-230,944433174583","-77,5331776873375","-325,627501618561","-94,5229279596895","34,3591872897647","39,3127509874693"
"3447","-225,23119444413","-74,7662997075255","-319,164875227044","-97,7654538125195","26,5441923882419","51,8270067869443"
"3455","-339,229592951299","-183,748343523756","74,0286408253575","-88,6780244281923","26,7755439246021","48,7193624080608"
"3459","-305,255330769539","-148,948734107167","-46,6483892858304","-36,2821823134757","-59,6256095300849","48,7852720527656"
"3472","-424,430699364601","457,300775921589","-777,023811456942","-50,5359912058274","-44,2910972657533","47,8163057052405"
"3472","-384,00163631906","271,174994601512","-569,66617445716","79,5002635535368","-146,175513107974","19,8353927755075"
"3480","764,683765907732","-724,220825910676","24,5716142351066","38,0974320732471","-123,307540968645","24,6605390544896"
"3480","439,538304599795","-437,791247060713","-127,252595295122","177,678533056388","156,364908301717","52,9279913977348"
"3492","-780,515793615738","-257,458681896653","-365,384395334493","128,961985846533","114,232193507462","49,2377626201155"
"3492","-484,672145052037","-271,795501482179","-315,171684242311","-264,550870575038","-79,1110296949205","-16,7240256457636"
"3496","-396,37004122391","-275,505322824101","-301,721432286242","-154,300417674677","-58,3475129247226","-5,78222999249371"
"3500","-370,014019797293","-276,465282898013","-298,118574090643","134,51254163056","38,178058931365","2,42802755095766"
"3504","575,392565763345","1017,02629353195","497,896251954139","65,795538914122","27,7258753613554","4,29383930693911"
"3508","306,573342275758","608,732511128546","252,121145376312","388,449749525339","-69,8982993016238","-4,00253173919647"
"3521","110,633708590276","-762,798492118736","-385,317913123804","280,256967413798","-55,9758982628268","-1,9088901636915"
"3521","120,150513288501","-390,698332812219","-226,065832464908","-99,0606605325804","69,1237687335257","22,0141321215084"
"3529","-341,525120301173","421,235874119719","112,787305482427","-2,81512818576963","51,4509568850859","18,2783221057188"
"3533","-206,324021612971","220,333436633062","32,5543639097084","-403,649849538251","26,2331067856725","36,3982415159795"
"3541","-16,2356464276243","708,131398731893","347,096825398482","-267,460049070943","25,0722271906092","31,9300320356927"
"3541","-47,4989088852521","524,354880832988","237,351892808393","212,539346717719","62,4565876494768","64,9965854826853"
"3549","-56,8302291990125","476,800536985782","207,955013768569","90,6295091462233","55,484560077202","57,5660204691836"
"3550","-59,6154004176597","464,495289043375","200,080604655668","264,265403480843","-54,1212714749349","81,5920017894822"
"3558","155,646895663601","201,866670086905","-2,95628204697476","192,133175763227","-36,9768208246127","74,9046701857476"
"3558","92,8974337810542","282,908414087937","58,6571448497937","-233,748174570449","-36,2980358768168","54,9352963990787"
"3570","-152,134496290977","-385,651402241944","-354,408105956951","-117,607452095827","-30,9707033727157","56,5326875849781"
"3570","-92,2705431031092","-162,649148372193","-217,054027613083","-359,890906242829","9,54248709402803","48,1099303213725"
"3578","-18,2523091638456","269,421529298847","109,004853354072","-268,078723689308","4,07928461386881","50,144062761786"
"3582","-29,1596740499566","166,224918584777","29,3447719948123","173,652688409052","-7,66185390587105","32,752054519173"
"3590","98,6021244570712","196,982437495415","283,415974757696","55,9727786710268","-7,32381839866646","36,5630020359112"
"3591","59,7359010373945","171,941308666149","192,472879426092","192,990776488692","-22,3384764858153","27,6533524643018"
"3599","48,135282560461","165,461620922124","168,112363547367","132,552874156345","-19,5790401515937","30,4582309503518"
"3599","44,6727812622453","163,784925212983","161,587022269794","-56,3128405782442","-37,9793198347935","7,31253545133044"
"3607","218,896324714749","-463,494689095043","-139,820163372769","-9,46686598852752","-33,8525419715247","12,4143509197317"
"3607","167,897797445149","-265,810695558697","-47,5567438139192","-135,486125961181","-9,09596854016142","10,2291025662886"
"3619","-174,016706565987","177,120965250005","-225,502297498764","-89,9527587281963","-12,157531778173","12,200175187364"
"3623","-84,0698355755592","66,7347621579315","-156,167768640712","32,8500255213448","54,6655962290169","16,186554688747"
"3631","-215,464662621341","285,426852195607","44,2786828143701","3,4114191741134","41,8899139506866","16,0635472993553"
"3632","-161,682809492516","200,016012580268","-7,02863226325392","136,048339211234","32,6935243209267","22,1222232481236"
"3640","169,151778353442","-158,14402186995","74,4953077617671","91,377434266429","30,2587217284804","20,9749596677152"
"3640","82,8978229879583","-57,8221595629389","41,3327570836127","23,8113576794003","-2,7885273652441","26,5513630929465"
"3648","57,1531238563506","-31,8626931954021","32,4496545299939","36,7956831996408","2,27499844712496","25,1770207904384"
"3648","49,4689599177976","-25,1453747705808","30,0701780010642","-95,3164144729221","-36,2629111978176","24,5299097099808"
"3656","156,072987695086","-152,258815602505","-58,906062144159","-53,4978044703686","-27,8471631142201","24,2252165125969"
"3656","123,891686440142","-111,150919240295","-31,7397254144","-36,5727650296886","-13,1644426636782","14,9068600389971"
"3668","-71,1798080960435","258,181302069971","-78,158971709615","-34,8094125188097","-13,0839502813729","16,5192982833004"
"3672","-20,4038850639602","147,750375022492","-59,5930853971884","51,6149525918895","26,4168077111","17,2785171857078"
"3681","28,7819763333662","169,670976394437","68,361625574376","25,9380697104058","19,4653768780398","17,6359965147979"
"3681","23,4627547143406","146,343190814956","31,6362756400542","49,6457267312322","16,1131675088429","23,9209103367473"
"3689","129,071135593401","-148,738689179484","32,1916292740602","38,3179668753693","14,4966215163995","22,8801711893623"
"3693","97,5926580556125","-59,0946096461828","26,3403893417727","2,47722827518638","-9,04943526043303","16,2735434840206"
"3697","88,1971012965337","-35,8981456434317","24,7730441490346","11,3902755799625","-5,40412094032946","17,1628031795251"
"3697","85,3927570677794","-29,8957867031401","24,3532064767416","-102,963455394632","-2,12846307056424","14,5232153271164"
"3709","-138,343970554446","149,263690232943","-93,5444009065564","-67,1469627640143","-1,54883273761358","15,2803615315097"
"3713","-74,1239195193107","93,6233202178297","-57,1251000927026","6,51995306094731","30,6037910654185","12,5785678488505"
"3721","-82,1801934667402","-30,4722886287695","-130,512083563541","-9,74736329046202","25,1088474121184","13,3064243472144"
"3722","-68,5847944849722","0,416507391047265","-102,169923112705","81,9138538072313","19,4234702371506","9,06169102426052"
"3730","161,775848280702","-244,070189927929","140,992258026568","51,7108210841936","18,6817937260782","10,0630521394219"
"3730","97,532874142722","-162,334009502365","70,1270123820202","-53,028927069277","-4,44237211308879","-0,169495292964579"
"3742","-10,1213546323271","280,19583495523","-180,961366341319","-26,5066924892208","-0,593608058968523","2,012494803155"
"3742","9,74648727341353","152,70565713808","-114,219275416769","-29,3536935677554","-19,9863449605215","-12,2515973674504"
"3750","15,6765528581198","119,716068357247","-96,3413731987023","-24,1549484057983","-15,3381627224968","-8,96786599967032"
"3750","17,446532607594","111,179622753655","-91,5525003406421","113,074559816566","32,4363540541518","-5,89256774960391"
"3758","-124,953223162239","68,9222382242447","-105,858937294611","72,6961845902458","25,4748027697569","-5,44455907687495"
"3758","-83,4560724886806","80,9876410462711","-100,691137895595","-22,8773609156596","38,813149946499","-2,17531646011089"
"3771","216,487440937191","-39,5182052241525","167,441853259086","-0,775406828920242","34,2453411671648","-2,63598879905322"
"3771","137,013254297358","0,299484246410665","85,2654256239413","-58,1418596880924","-4,38381489605337","-8,96949120041207"
"3779","114,993674973435","-130,437512114198","25,1462379540512","-37,286970500075","0,987931153201187","-7,95163005660894"
"3783","107,421368320402","-83,2672535281873","31,0423828949261","28,7320550780295","-19,1881405630807","-13,588962808117"
"3791","-34,3637829325687","-60,6139630237141","-133,663157335896","12,3123303178851","-13,917708225503","-12,2433091678778"
"3791","5,31681217903881","-60,7521566393263","-81,7820859194986","-24,9614816820454","22,0147421135164","-5,49311202822711"
"3807","17,1605007169477","-60,7879158690116","-67,8849378244616","-16,4517559648429","17,3425555633461","-6,31477184589412"
"3807","20,6955524919641","-60,7971689919003","-64,1623715801116","35,7814982739053","56,0691819160834","-5,17250303170243"
"3807","-139,894141034365","294,413028034717","-115,129260188077","21,4819309435926","47,7444392572949","-5,63466409217789"
"3808","-92,8262425357288","182,327860465755","-98,7815302663753","108,54126234737","33,1056046260927","-4,32312476308983"
"3820","101,583964440668","-294,173715639976","101,328663021285","80,0430832318105","33,0462754342584","-4,70558455439507"
"3824","53,6106632223425","-160,474124489449","41,9312759882589","-84,3665172605331","-1,89097597978766","-4,88566630574005"
"3832","27,3811334828096","-319,155216122472","-60,5859595995756","-39,6376580789998","4,26112833704502","-4,97045806138265"
"3832","26,5522594486102","-249,215822122842","-38,0467881129908","-155,941384341743","-14,020861871555","-18,7727192382505"
"3840","-118,324715127499","190,26146456293","-97,8304338872373","-113,673694860716","-8,83704091966827","-16,271534072533"
"3840","-76,5669537675148","61,9814013809118","-75,8444088554441","-26,1612332023015","5,80490459958746","-24,2687386206877"
"3849","-64,1032818342452","28,7874204357798","-69,9551117082104","-45,5318841579569","4,86573396431141","-22,0342340626552"
"3849","-60,3831801573139","20,198085946426","-68,3775723013253","124,309779195153","25,6615728391756","-30,1570055644437"
"3857","115,984194865504","251,301412101615","74,0800266935067","70,1097099675682","21,690012679947","-27,9816243899288"
"3857","65,6255489617223","177,102126370575","30,2394998201325","115,005403699037","-2,99170965180164","-37,6613827626315"
"3869","55,6992963157763","-247,806313859628","-26,5393614732834","92,6407666010251","0,105949256791772","-35,2191111303732"
"3873","49,7365523257602","-124,756389643534","-15,7484584043999","-68,3240591039573","7,67081060210809","-40,1857581229424"
"3881","-62,6422685979588","46,383286535848","-82,143328776991","-23,6257087321495","7,31883640966415","-38,5243111135241"
"3882","-31,1846020618191","10,6676983855205","-59,9282225952605","-66,0398636235282","19,2912388097502","-46,9169075990677"
"3889","-134,095868769415","-31,6576574085545","-135,387884958417","-45,976826719346","17,0647263781643","-44,8685739122519"
"3893","-98,8123685219577","-23,6098429537936","-108,600923633844","57,6277011446294","46,3463685311177","-36,2583703069269"
"3898","-88,2811054125525","-21,5273759434504","-101,425621382358","29,785972218027","40,4669427737284","-37,2042433635635"
"3901","-85,1377805751163","-20,9885130169323","-99,5036056010098","-5,54674256904188","30,0428546493939","-34,5913119949315"
"3906","53,6239033505158","-38,2614578028276","10,1357108421609","0,509282039525157","30,0160153245258","-35,3610094436447"
"3906","14,0408770826007","-32,7310362070398","-23,495701037899","36,5849148068691","-0,352267413867438","-40,3108682298606"
"3922","12,4354569971902","-73,089690954805","-20,3794536820122","26,737975691965","5,00314439028833","-39,6415164689605"
"3922","5,95627831021173","-59,532969383563","-26,5447185883989","37,7151654029589","13,6567686955755","-40,8554997541373"
"3930","2,32087728788335","-56,0250076134183","-45,5175254320845","32,8045658357036","13,8298319354097","-40,4271055570692"
"3931","2,23579886862704","-55,1172810870506","-40,5996854431805","-78,5654201011601","13,9132887413491","-41,7545440631114"
"3943","-79,4627672460064","178,443521737317","-44,4787694344215","-45,909187659766","13,9535343675391","-41,3795704224968"
"3943","-55,8477939406394","104,880137109741","-42,517842129484","40,6168047079286","7,9018741507041","-48,8487562332938"
"3947","-48,7993011477986","85,8447427778687","-41,9925773958088","19,9685236179786","8,98356386822379","-47,3656332815685"
"3951","-46,6954981915853","80,9191097444745","-41,8518771058244","53,684230275321","15,5762583355803","-54,3130453707005"
"3955","-17,1416492054425","-84,0318461059769","37,8639995673904","40,1731178212077","14,7554731896819","-52,5842445000428"
"3959","-25,320547064616","-32,7148535006032","13,2171311317327","-49,5575156157153","-2,3357734580294","-62,4742758610779"
"3971","60,7175216489707","-106,497885418908","-90,3844472339922","-24,811142916412","0,422263337613987","-60,1310115724942"
"3972","34,3977838874984","-75,5901160806211","-62,1357337460324","1,05761137170646","-11,9076232632478","-59,0276821597155"
"3980","67,378571104024","-29,285125590718","-14,7297845884839","-2,66193317508791","-8,85350151150307","-58,5081778942199"
"3983","53,2225306119123","-39,3031625805702","-25,031367265128","-1,99019326251461","10,8325007519627","-58,2635685520395"
"3992","-82,0200822872411","92,1798929303593","-104,004724535405","-2,8011399955826","8,32574075023362","-58,148393886005"
"3992","-45,3866992627509","49,2026859581798","-81,1589607835111","19,3119321169435","14,7057333281026","-55,0358666474201"
"4000","-34,4525291120351","38,0818262242294","-75,0393693113898","12,5353951664462","12,7823763111881","-55,5703286510717"
"4000","-31,1889463628011","35,2041724645921","-73,40014200464","58,7479494601354","27,0325400452082","-57,3511294055407"
"4008","71,8766187381027","-28,2250293717008","4,98500380707736","43,753927218739","23,9044393029244","-57,1896220417647"
"4008","42,6391727926813","-8,63808425249994","-19,0183214894736","-22,33418836583","1,14722793564052","-61,7010216819313"
"4021","49,2262290354386","80,0097023254658","170,283217025844","-4,93390817223569","4,17294954688201","-60,825220791714"
"4021","42,1923044509276","54,9483637628388","107,99056449466","25,7416223473263","19,2919553357708","-61,9419972028187"
"4033","11,1669345650771","91,9944013378453","-19,5520960561715","19,374888215629","17,5828389071668","-61,4678330071162"
"4033","18,9066193740396","76,580500961234","10,2836279618614","57,1099676372865","13,7231125654677","-67,3611662607444"
"4041","523,16643093042","-676,140450762272","560,433693272548","44,7300601895876","13,8618251390511","-66,1360508308348"
"4041","378,675669349361","-440,915884362263","394,799904559011","-3,43672557863505","26,0708528920926","-57,9134607441412"
"4049","335,548705856046","-380,048750520662","350,432330250078","9,00730128852991","23,9584490151648","-59,0418421921616"
"4049","322,67636052544","-364,298660983708","338,547788663801","-106,071238987048","33,5641471245574","-53,4565480873168"
"4057","796,96264256806","-356,740662969349","215,847048344096","-69,4587353761219","31,1963317744919","-54,8267042003434"
"4058","657,525514458367","-356,7849417462","251,979755648698","0,995084725794342","49,7854640211119","-61,5884383650936"
"4070","-396,500094307624","830,728048254972","-952,567837925673","-14,1765194787515","45,7497570967184","-60,7722107725453"
"4074","-116,100996488963","456,011055328836","-574,224557195598","400,882692645209","288,164092463063","-20,6300267932304"
"4082","-51,1254825107896","-891,160413464183","590,651142594796","273,696207152131","244,064285496409","-27,7290208361418"
"4082","-20,7318784586438","-521,756937005726","288,681130995931","-153,93101952937","101,37654340884","-67,7711574961618"
"4090","-139,27446163386","252,913469345697","658,148764124056","-46,2816533386864","112,56780498039","-62,6250560268344"
"4094","-99,6565275947542","63,3685834868582","497,116388996227","-290,954899451469","-15,5988950317524","-72,4351949492137"
"4098","-87,8315418566413","14,3216063231653","453,981374545857","-199,81529562963","10,5948922736723","-69,0543131892005"
"4099","-84,3020724105932","1,63012188666432","442,426993197655","374,056086291267","-16,2355409103851","-65,9332715350563"
"4107","74,9931593211383","978,663153125935","148,333373923181","216,565410838203","-3,17406128973742","-65,4637245137059"
"4107","29,5388955909242","668,481985742999","237,555845447332","311,445026172504","25,8911202053961","-36,1888153637076"
"4123","-373,677184794811","-853,52627745428","-828,057147510251","257,147773632437","24,9073099748485","-41,4046816324071"
"4123","-265,027337208934","-419,363885837887","-484,498083304931","-404,312786548784","27,4684182055199","-11,748460555105"
"4131","201,290716545222","110,87792545925","270,937051498929","-214,473051121852","26,7034691198658","-18,7847855459011"
"4131","85,4752668961934","8,08425467297549","90,2920464508142","-317,434023556271","-92,0512403028144","-25,1561465237174"
"4143","-81,8117212728184","260,083289564286","374,47331332433","-255,411173552698","-71,3186805065903","-26,1561111459344"
"4144","-53,7428016597415","165,291015183386","258,595664766907","195,122000705669","-134,173571758331","-18,9812032516674"
"4147","-45,364914670954","140,76239497932","227,556042821124","69,9192430021765","-116,484274750851","-20,6028873902039"
"4152","-42,8643200145","134,415324893231","219,241599591292","58,742270460861","-44,2076980719472","-3,01667726224299"
"4156","-195,255151613648","43,969797723538","-344,197137232623","41,5966435094262","-51,353547417925","-6,73618453761983"
"4160","-150,740093067191","71,5659496822153","-171,122924891814","-148,833465944556","-25,9619388768978","-20,7207082862762"
"4172","289,629194805995","-515,055444000724","-339,54699842373","-94,4277717772721","-32,7172672266529","-19,3053417186924"
"4172","170,068672277569","-325,850655827903","-260,661993714723","-120,361414916603","-89,0967543840964","-47,6927365522948"
"4180","462,77698984033","-196,794726075862","777,23153920418","-103,660132570818","-81,2848038113961","-42,0589828714444"
"4184","357,14327393758","-209,399980495115","468,247388531771","-188,324967834017","-116,979565332784","-62,3435498137957"
"4193","83,9977215817625","264,437525988893","61,5720454661697","-160,152886052322","-108,19275739019","-56,8945677856107"
"4193","144,470445125391","113,048575369198","139,637759513925","96,967275792124","-25,0315847865306","-63,503797875612"
"4202","162,520076202629","73,8748969539998","160,548869474611","24,3307094379917","-36,9285227479113","-60,6157635167255"
"4202","167,907450260445","63,7382451422543","166,150233980422","230,7381640512","71,1669058646723","-54,6684827023773"
"4205","-51,6827250936264","26,290502942062","-216,883217279992","156,829105029028","48,2940890683256","-54,8681968445277"
"4209","12,7749705240073","36,6004575039985","-97,4846565370211","-71,9177056515276","69,1371688529479","-61,0788266977796"
"4221","86,462799964878","-164,456588610343","31,4976293642449","-15,2957946261313","58,1883898195197","-60,0031108352365"
"4221","76,4568174053304","-99,4824731636923","10,0475312816476","-119,659552836028","54,4262942181617","-68,6714996867871"
"4233","-50,741006865756","108,866547589588","243,336354231405","-79,0315003257939","51,612087556893","-66,7530232383194"
"4234","-15,7064509103622","52,7793166767704","167,826376756749","157,53438210555","18,3818772995229","-67,3788543399222"
"4242","-126,057725596165","81,7970382848863","80,0466141177028","93,1130565019719","23,3571732004247","-66,6735278281814"
"4242","-87,9948860259375","64,3057163618859","95,5334458688979","123,102165660888","59,1472990091458","-49,5207898762089"
"4250","-76,6340580073503","59,779630295079","99,681833488766","103,542246342048","54,4064788732591","-52,4443981587659"
"4250","-73,2431283046469","58,6084520860034","100,793043329562","32,7319893214522","41,4959299645602","-43,1169436127221"
"4258","-184,531630494617","-60,0988012307807","-428,942465049809","50,8032785638077","42,2700371875818","-45,7250980163268"
"4259","-151,748530444861","-22,8157045975593","-264,840321245991","-31,7574226271491","32,0189682632121","-36,2491115506362"
"4271","-2,43857307583893","46,0338354196572","77,0441157134789","-3,99315715504866","34,0755645068048","-38,787329482934"
"4274","-39,87319733706","29,849466802453","-3,3768454944959","-27,1133449921825","-7,43015281188661","-27,7492647881505"
"4283","-78,270909189994","434,852545700505","-19,7224413059801","-15,620248871018","0,554420463410935","-30,551975904757"
"4283","-73,7316884065207","304,651874218035","-27,1008621730175","101,039426613847","2,88707821905595","-10,4635569755295"
"4291","-84,2875128203122","124,69690498275","-157,255240903843","67,8719148385735","5,01196277468067","-15,0048955821815"
"4295","-80,4381686072571","162,131431973105","-118,119106029577","56,8187484621812","-7,62325073255331","4,26488805397265"
"4299","-79,2892333706157","171,818057819591","-107,635886478272","54,7079652940425","-4,71636769191551","-0,661906176096203"
"4299","-78,9463042624524","174,324586626914","-104,827793841788","-76,4967870637586","-15,4567087244875","7,72234534077036"
"4307","6,23227283061804","-293,419893379138","-43,4508945580754","-37,4228154357002","-12,6360556391583","4,67008241326455"
"4307","-18,3440021885669","-145,454300218189","-62,0101419738808","-177,659346526611","-31,0068145846074","7,82036557410103"
"4323","129,159302390187","192,326513239074","71,5892379140231","-129,127262381701","-26,8658008473077","6,30368100158671"
"4323","82,1854363942111","107,731286883614","27,3758999281097","6,54940798721239","-41,5643043168487","-2,05619484175925"
"4331","68,164884617883","85,841273252206","15,5326729285231","-26,2659951180762","-37,6524077918101","-0,992454592773909"
"4331","63,9800923308369","80,1769737706986","12,360281244176","103,702003535137","-8,44615624405363","-0,491590942873167"
"4343","-41,061955741371","127,465938807028","-45,649932138727","59,2799621796948","-12,3619378394221","-0,255758561771499"
"4343","-11,4144416920506","111,702516848806","-28,1888657882758","53,6521503757263","-0,590353990609538","10,5593232353369"
"4347","-2,56538281740909","107,623545299121","-23,511648869953","48,0682691929885","-3,91370775533308","8,65162029567825"
"4351","0,0758451397344901","106,568063250411","-22,2587839153175","-121,922305354458","11,179098338619","9,28252411963929"
"4356","113,164799070255","-363,839367314183","-8,06610848250078","-71,7641454242737","7,45734755243506","8,57958610662989"
"4356","80,9190898933587","-215,562844051592","-12,2643806659795","-92,0189596931931","7,18036348907062","9,77775525594601"
"4372","42,3686180437598","-198,089401279884","-63,6208539409308","-77,7194380136955","6,04679263227483","9,34191494991017"
"4372","47,8622436990234","-181,567941654572","-48,3774803030308","-11,8267814120685","23,7133513114209","6,07840182637631"
"4380","49,5019567885525","-177,292818908412","-44,2943067075271","-29,282071228561","20,2327489646416","6,5417719055744"
"4380","49,9913710997364","-176,186580421666","-43,2005654526669","63,763366571532","30,6964236130515","9,81824746301085"
"4392","9,30086317669934","93,9915917702409","-13,4613030855702","32,9499064212197","27,7423528663223","9,36098076474831"
"4392","21,1557403292653","8,9033838061051","-22,4951812983844","117,080159483301","35,4244044366429","4,55823045370875"
"4400","24,6941316325019","-13,114194637159","-24,9150454216286","86,7576258530957","33,1289432383827","5,29684845500772"
"4401","25,7502550198379","-18,811503019886","-25,5632434864041","-21,45287803439","50,2352000484355","4,11547928029083"
"4405","68,6035926224396","-230,975570190359","41,8163729100029","6,09255332472175","46,4844016484609","4,55922987890423"
"4409","56,3942673073211","-164,875527582067","20,8650461945662","-37,7119644777476","44,6756428705464","0,180724878096604"
"4421","-59,5505300068362","-60,7094514647113","39,5027922892058","-20,0402287984038","43,8033996924793","1,11909940335781"
"4421","-28,157220332863","-83,7552493852928","30,4952010919477","88,0469809927691","58,5604452100194","3,09008295856879"
"4429","-144,699891372775","150,572248942454","-221,344992535115","58,4668499660255","55,676779592618","3,0181234442973"
"4433","-105,485032404314","73,2072558287154","-144,804286870581","50,141871351222","28,4841419202427","13,688280977918"
"4442","-1,89803591079079","121,096439944433","-3,05225760856821","47,7989044159411","32,3709545826104","11,7123402371242"
"4442","-24,9798473202204","94,4883317597613","-35,0817822570591","9,33114427472741","3,88996399664615","23,015153968772"
"4450","-31,8692043083183","87,6031696062723","-43,6613862494514","20,5048473849178","10,1554903639356","20,3371003228574"
"4450","-33,9255091133243","85,8215526062653","-45,9595659906154","47,7094194963301","5,58809897995726","38,9550658647998"
"4458","-199,587134868561","219,435879036598","-81,2178594110744","41,3658251034461","8,38555211473573","34,7213621330461"
"4458","-152,033084270532","177,010163578631","-70,6623391002028","5,20925921574052","6,69904234903437","60,2525902570922"
"4470","-79,9875311920411","56,3340026235105","-86,8883593066575","15,0334206595237","7,8857516793008","54,2740063094188"
"4470","-92,4836931371168","88,1076211585106","-80,2347499968639","-71,5668990810371","-38,5927548078254","71,337912338126"
"4483","46,7145592084793","-372,063653825327","146,725009861366","-43,9395365525718","-30,006224588957","66,3724774147544"
"4483","4,26183795179187","-222,138404448398","77,5196948640929","-70,5353777214127","-48,6320212795459","67,0927922075868"
"4491","-8,40926253792304","-183,343476011619","58,9819799475729","-58,0204631922354","-42,6139951600889","65,4319534798614"
"4491","-12,1912765730106","-173,304830228673","54,0163660443675","-85,4324007979789","-57,9251083074972","61,5916480602803"
"4495","121,100313988705","-83,6453024542002","14,5792900517613","-75,1471669750395","-53,3086323873851","61,7834346444396"
"4499","81,8845984455085","-110,444841036649","26,015458763357","15,3941428175267","-60,1890173179238","48,1114007828293"
"4507","36,1491766534069","187,337145717304","-178,777328822521","-10,1240745934124","-57,5069660081619","50,6739036701416"
"4507","42,4982702259202","89,3917506880626","-113,634247158578","94,400641895676","-33,4470874019217","42,7055706607587"
"4519","139,678687261047","62,3059850944419","-56,3455703622852","58,8178891926315","-36,84461987797","44,9536694249908"
"4520","112,68466834855","56,2972234467084","-63,9999114568072","-38,8431085923258","-38,4830221683581","46,0121900116328"
"4527","-28,0912919949954","-18,3896186827526","46,5384985957889","-15,3286433022662","-39,2731138257808","46,5105959758955"
"4531","7,89052195601992","4,28427909215163","11,1479228569335","-10,4293364970131","5,87888779645142","43,6869740732628"
"4540","-107,282592620353","-249,293072912805","-64,1531024609737","-8,05048444445734","-2,34732684756217","44,3574675763137"
"4544","-67,6589544956426","-165,909206720178","-46,3236477481387","-28,003726310265","-4,79651204621116","61,4938043552686"
"4548","-55,8322662272853","-144,332646833377","-41,5477523043197","-21,6193306386795","-6,97758998066498","58,5624735564411"
"4548","-52,3022886175394","-138,74945720922","-40,2684547790918","-31,8524505110264","-12,5826787333704","64,8279948655576"
"4556","144,426632085626","170,894419195663","12,0382604681331","-27,7324412731696","-12,2856375174294","62,7781247251811"
"4556","88,1454102857458","74,0184281663824","-3,95057614779946","92,0078513869555","-21,2489964187503","61,8129403756081"
"4568","125,795621634568","101,187767468586","-56,7332001032231","56,7073429417633","-19,5714239031153","61,3584819148934"
"4569","105,033290206515","78,2181548001666","-42,8718430018224","24,4311281495563","0,968527884273549","61,1444994848979"
"4581","-127,466506859322","-42,6472244199899","-94,5871685709065","28,3473685925416","-2,12642947370318","61,0437455451985"
"4581","-63,8620180362522","-7,92256834515905","-76,4399190750039","-54,759980334839","32,807487860059","70,1711966421191"
"4589","-72,1020222703597","-98,1877305970161","-107,95372230024","-29,1495624136992","25,6537757396772","68,468870322376"
"4589","-58,5614622919957","-64,5449070862884","-95,3951823260741","7,273738044071","-11,1868542654205","67,66732748836"
"4597","52,676102789172","186,192679549793","46,5395786158846","0,524645895606681","-6,95262192333401","67,2899198742549"
"4597","22,8777992564543","112,073990538991","4,55900147654379","45,0263623974376","-17,0528713155848","70,1705140267858"
"4605","97,3584301105991","-133,466060454495","17,5637373134915","30,5508450599667","-13,923544916033","69,5268459908114"
"4606","70,5890794106499","-67,0024477291079","7,04725712001915","-80,0739504324043","-9,37894645445375","69,2237739559512"
"4618","3,04572721294167","-168,208400330745","-30,4124352954332","-49,207992939125","-9,1873910886591","69,0810720456797"
"4618","17,8856861655247","-126,39663550043","-20,446593782907","11,0357205727037","4,56488619929083","73,6013262610955"
"4626","473,219023468992","215,257908997762","165,829170262689","-2,00939757741917","2,19668818072036","72,7296945605671"
"4630","344,124904234659","113,665056286106","109,726017200967","87,1215455437549","-17,1585390207301","60,0860971858468"
"4638","899,425485939874","-812,843439660021","562,374239594367","58,2063970858317","-14,4922683673649","62,1328408951138"
"4638","716,169147700438","-535,588452229128","413,623072932226","-157,87740872483","17,1488352680817","27,9261367531187"
"4646","304,15147758648","-1109,84482031467","3,10098299015127","-97,6916444952104","12,4072197080199","34,8198601466098"
"4647","391,174265596099","-887,440435775235","107,136286339612","-51,5375210617987","219,572501713122","59,473859427228"
"4655","-67,786017943057","2664,77437808628","-143,869904926199","-55,5479879789071","181,47443787381","57,0822309973734"
"4658","80,225546419343","1576,9519020093","-50,1057988188928","812,915587974418","229,88404196766","98,772288362107"
"4667","-1007,11035746659","2213,09752018994","-620,843906433572","551,334407181492","209,22875074772","90,4021127634958"
"4667","-666,653569217558","1850,70770983613","-429,724943552931","433,032865434496","294,88740840469","46,7031413324641"
"4675","-553,124861803647","-1173,56881120936","594,928829436429","425,738293336366","273,194840161745","52,1274168088013"
"4679","-526,239315305671","-273,136068523176","307,398204116131","-1318,93635049423","101,850666194687","5,74869157757004"
"4687","-969,118608277059","-2011,22009951354","-150,690919246307","-795,954429033103","125,222850551614","15,911201063118"
"4687","-836,30726096962","-1328,96986401023","-53,3971821335723","-330,833407905434","12,0367954986186","77,2747294563825"
"4696","-224,954111405188","3299,91649934232","-1146,29444850143","-384,930588351233","39,4547442169474","69,1678364260163"
"4696","-378,480127087532","1940,69549890742","-793,043899288116","1162,01708182846","-105,171183659792","94,4045162511817"
"4708","-208,210291596842","20,1254048506914","-516,546146776372","688,387238262948","-70,9145792426792","87,2872438067721"
"4708","-284,388904133255","424,15521693106","-547,481943595978","-788,825622239944","-104,481224889909","102,285848154227"
"4716","-12,76263438828","-2777,90862742645","383,048334211014","-422,569739873527","-87,6681692375406","97,3479629177223"
"4716","-104,688826686428","-1707,48045377397","90,305273679549","-1225,17341875769","-125,093368807638","82,7897641265438"
"4724","97,5792470379327","1036,83999420105","514,208524085413","-924,056747564863","-113,141035202632","83,935014962464"
"4728","22,9513271344167","329,965312179445","337,757571705812","977,208814514056","-239,4229541657","66,1244755181025"
"4737","-448,525731913455","1357,21368633669","-501,093023005113","455,297558071655","-213,320263234054","69,7383570072037"
"4737","-325,25011934833","928,026331824017","-268,792140159874","573,070315660166","-127,87986835449","48,5027302932046"
"4745","1482,83156420882","-1077,49811758564","593,679395580422","452,216067700425","-134,677690112134","53,5039044388208"
"4749","981,499788712959","-508,451248004994","362,705747440778","-764,167456870745","-277,590387794221","-63,4148714857767"
"4757","-417,054428633213","-1035,06283249974","-584,284859420777","-418,504237607077","-254,507607234667","-40,4662478978091"
"4757","-100,488706194781","-784,329797666429","-326,950952831572","67,1735625503292","-50,61992008002","-51,0689345154016"
"4765","250,928618409332","1260,33816098354","5,26436461147395","-22,1381551584365","-79,2985483282995","-42,0612249952501"
"4769","204,818107282416","652,420136584432","-57,7466199364176","602,342479600914","8,56205940149221","-45,4656745084609"
"4777","921,009223140257","315,766636227355","554,139743225632","400,095180798561","-16,0686558442957","-42,0686645341896"
"4778","705,774779981827","331,653568157621","355,042977566104","-67,5612054010121","9,99777527724799","-46,5857715839607"
"4786","-280,69368176219","-263,221439037029","-3,14384865247234","39,8224264812185","-2,43213135268015","-44,7126580358918"
"4786","-33,1304254779747","-73,1523708103964","76,9102652323543","-344,129113809628","194,954534972046","-25,4809173127996"
"4798","-502,025130419262","-166,751287099825","-471,518258228229","-211,187741377988","156,140899923187","-28,425624104048"
"4798","-322,978748221098","-108,971111807799","-289,423327880768","35,8915787043897","67,6064022777687","-8,40406404562018"
"4806","183,067720497612","370,8907883002","107,512656563352","-16,5708640080411","70,9121455655207","-12,9768832492402"
"4806","68,1102324447131","228,06072066045","12,8381045440929","236,759842877548","-9,45313373145763","10,8655233201451"
"4814","-211,22128703244","293,834807660372","-235,967292858204","152,05677916863","5,79207625664846","5,09175527681931"
"4818","-150,594923597191","251,854629263211","-173,613670046386","-45,3566405357177","34,3925576091917","42,1310301858398"
"4827","-193,754313977828","-143,821878218284","52,67698998104","0,0836834159219314","34,1846536331593","33,5710268751676"
"4827","-170,636337942352","-25,2078462633812","-7,70755376354288","-128,049742139163","-16,001915410389","44,8320222081727"
"4835","-155,228564583663","31,6035078710427","-138,203366878573","-82,1113818466813","-7,203535335242","40,1342783081785"
"4839","-155,629720533826","31,3041165223608","-107,158690489501","4,7155849634178","6,14593589330964","73,092755138401"
"4847","12,7014620487292","31,2266454759896","-39,9503196669364","-13,8479904234251","6,58349149889055","65,6113020920397"
"4847","-36,0557910338371","31,2065989280439","-55,9475171601989","-39,6952312176838","-49,3628836180134","69,7343916951375"
"4855","90,6178867743904","-22,7769723373566","26,3741118582142","-34,9696319520597","-39,342072125155","66,6757544568129"
"4859","45,4268859008475","-5,74585878381312","-1,57476547487798","-78,3222748263566","-45,1340750770745","42,2983625543316"
"4867","-97,3773802954595","-412,271070625155","-28,1147846362431","-64,5233642839197","-40,927170056816","45,8202319721861"
"4868","-64,0009661050114","-281,464269013515","-24,2239396066634","-79,5440037209269","-26,756325641429","21,4829841611886"
"4876","100,799800848049","-75,2338835550641","23,5859155060514","-72,7713853366711","-27,9226767769723","27,0237554831515"
"4876","58,9888049219718","-120,869336365048","9,39252529194074","83,8052508015956","-70,9826056904027","-13,1835233512926"
"4884","56,7183903063895","196,415969890408","-60,2305057518882","37,8718962890832","-63,747524540499","-4,11517931599424"
"4888","50,0407269930435","89,5172890569725","-40,8801123776997","128,058204452704","-46,5986266585014","-24,3117129129287"
"4896","36,136936621713","-25,2059164087771","-28,7682718891714","93,4400760249226","-47,3288621262799","-17,8212802554755"
"4896","38,9869947624427","-4,8919003546314","-29,5239279236892","-24,5721813354926","-15,8078988425055","-36,1733301110236"
"4904","82,3757780763995","103,097644535752","-7,20859332933969","5,21466224130203","-21,6074500451948","-30,8144195899429"
"4908","70,3262702291494","72,0412143037107","-14,2310855180812","41,094806580037","-10,7442820720084","-26,7620202046026"
"4917","93,9541771783755","215,492719094347","-69,8083388803228","35,1928495550993","-14,5057039528554","-25,8539420352064"
"4917","85,0065303480352","165,61248968422","-53,6955665262491","30,0946898221651","-4,17744975179845","-8,60573816909398"
"4925","12,5733749676981","-59,7256681608475","28,5665423760817","30,6598729610376","-7,19682470758891","-11,4843961865437"
"4925","31,9538470919249","3,96542293951257","5,60172165852865","-55,1091532848519","6,52480300388547","5,50996595463399"
"4937","93,8887506451521","-12,6372809083735","37,5571983763606","-29,2478330176765","3,14182474799541","1,51178619024543"
"4937","79,3748067450333","2,06657344362804","24,116967484268","-30,5622788185908","7,58150896893787","19,5081684211692"
"4945","30,8031139716088","84,2270880520152","-71,2863359771115","-25,9322140691492","5,72247122536113","14,9817912795571"
"4946","42,3056499252805","60,487091272339","-43,8415876471745","1,14929009593562","18,4858848392379","25,0837283067913"
"4957","-12,1129543823287","43,8966576502746","-50,3471631242306","-6,22894031733706","15,6408241210745","21,8402401106403"
"4958","5,64442127511214","45,6036870680815","-44,0897822217135","-39,2395686820009","26,4109779178963","23,3713360350064"
"4966","-80,937754592108","-79,3237488145668","-4,30668644185901","-30,5300202675125","23,6047015314136","22,0922547872654"
"4966","-52,7804195274894","-39,6501978616712","-15,6501683970728","-43,5458769689196","25,286956433945","19,9608489741491"
"4974","-25,6593740372608","-159,977062607286","-27,3493682355314","-38,2090361548812","24,0981952682327","19,9572734339782"
"4978","-28,5644043246023","-116,113059553952","-25,4831800152378","-53,8926633950688","14,4183334218109","7,72240157021805"
"4986","-54,9543512558603","-78,6441579679504","-92,5365388940681","-48,3066350998955","15,7503845702187","9,96159428329246"
"4987","-47,8311059039864","-83,9486372889809","-71,4978190520999","22,0079589012564","7,28614161727586","3,37017874558376"
"4995","-101,855297080023","73,1314416241603","-76,2550793845207","1,79717115454038","9,20440431578817","5,26660111243664"
"4998","-84,9801987353984","22,7777666801769","-71,5293852066901","35,6360051477032","-3,53044907018832","-1,48620834343019"
"5007","-51,0174788291059","-127,809658485741","-6,17455762565137","22,1595454284502","-0,671615667544146","0,334221461330985"
"5007","-57,8804363946617","-87,7759327262006","-25,6682553689049","-33,1900992585968","-12,9528948178701","-0,337775045664971"
"5015","-22,4953243198008","-30,403302297321","-60,3362309117404","-18,7676032236753","-9,87533294926136","0,345814417518739"
"5019","-33,9337325615397","-42,5574567778491","-52,6225848192588","24,8183595628617","-29,6399689970335","-10,0363562613289"
"5027","-25,4371471080138","91,8553294974197","-88,6633247477672","14,0851141548372","-25,1711288012864","-7,92481648934059"
"5028","-29,9011238587593","47,6362249517089","-76,317394846306","16,2200543878508","-38,1937765366386","-6,93059490365044"
"5036","30,0213673162577","-230,215433978482","4,93570699457685","13,8209081084666","-34,473727067482","-6,46246421789904"
"5036","11,9067674695656","-149,112831308381","-18,2993918837593","-38,4111575045389","-20,5376604667699","-3,18374712191377"
"5048","26,9182948918536","0,725050992609326","43,0299734857433","-23,1112556495454","-21,8172292130372","-3,63995838847667"
"5048","19,3988692070268","-34,5026278330492","20,4579933751944","67,1228114434101","-19,3987454997098","-6,9130632085279"
"5056","-10,0698864774836","168,812853890865","-68,7307178730556","42,5181242023846","-20,2324728347342","-6,45420939364434"
"5056","-2,86559034597161","99,423135323436","-44,6212948172834","81,9945942925019","-14,5634556855668","-3,17986032585671"
"5064","70,7487418504946","215,543067227464","10,3365539222863","66,1047806872488","-15,8296685188734","-3,63812828487627"
"5068","50,7208221584853","168,590470630307","-2,94213554831989","15,2316114662986","-22,5113461225696","3,79183827444258"
"5076","-38,6317194428188","67,6377840482978","-22,0882487569013","27,9139586658839","-21,7334715817685","2,29024888087644"
"5076","-16,3012708903177","92,5150844514922","-18,2168315606077","-56,163396633938","-3,14515084752741","16,8747087160513"
"5085","-16,442275055146","-38,6054375946901","-76,0723862171085","-28,8259755531265","-6,18124910997278","13,7418229310528"
"5089","-12,4843613546604","6,4655791919086","-57,5698921326818","-64,0962263556737","-10,6808898869851","22,9707388594077"
"5097","66,9671026615717","-55,0037671710828","-33,560232953969","-49,0226219961966","-10,8507651735211","20,3161874037419"
"5097","44,6814242598852","-28,909686308242","-38,1288740747366","-25,8761541476547","-18,521519625704","23,6537335919792"
"5105","-52,1511008663022","-138,820493727466","-44,5490588814132","-30,3618540699055","-17,2206105842335","22,2252220894271"
"5106","-28,0532447154079","-100,26121285902","-43,2688047659921","-48,8099194222405","-2,933366341327","20,0234568225799"
"5117","-2,14385453793677","-95,5072582457992","10,7703012387787","-44,0019095930696","-5,04358563843954","19,9867524308549"
"5118","-5,41053434437549","-91,2771163599055","-5,75448769543085","3,75241680173073","-15,167805007159","6,20713325952253"
"5126","12,3312101626743","63,0464437862213","-30,9665224549447","-9,80769188603578","-14,0500377213534","8,71897944661657"
"5126","6,62668759867646","14,9794870651831","-25,719956246203","56,837009733563","-13,5110134459137","-3,86065096234492"
"5138","-39,3156080548015","42,5900729293368","-45,1001965112876","34,5933741077272","-13,251078150613","-0,783788313822216"
"5138","-27,0282612775135","26,7346380185994","-38,2914938713525","-11,1937560698159","-7,05466078641642","2,19410549763583"
"5146","71,9245793117151","-94,0311019030346","34,5498378513365","-1,08000323405755","-8,06654382998693","2,59625114818014"
"5146","45,4595855429432","-58,2806629832744","13,0615161330996","-46,3533375204836","-31,3210121768838","-0,272695063761686"
"5154","-21,9929235439931","-87,3370550560198","-35,9978264785419","-31,0949828977333","-27,5350842924288","0,376457422051703"
"5158","-7,12585014146871","-72,8557395723227","-24,1391308330171","-1,02227203964118","-9,01394795611933","6,79870597585305"
"5167","90,8954514191973","23,1770960207538","-26,1589991925653","-7,55866264736232","-11,0824447525671","5,82263108754734"
"5167","65,1524160009952","-4,97327391428044","-23,7000522001223","21,5358599256085","-18,1510101614628","8,42134187962598"
"5175","4,72149153997124","-12,257514505089","-29,9699232640494","11,7241697748419","-17,5597056889776","7,64494865167254"
"5179","17,6843364680479","-14,1423977626532","-27,6494052857843","-3,06714721950889","-6,6501901816799","13,3959769240389"
"5187","-44,8060233881789","11,4884393354148","-18,3671460235415","-0,229988741455529","-8,38926175194794","12,1038569858561"
"5187","-24,4578696288239","3,1207210566505","-20,8807491912828","0,568496012896925","1,39646951698596","13,0246089651634"
"5195","-14,9813938410933","39,2627154017722","9,62436465077984","0,793220119028196","-0,884527901825762","12,4581463794421"
"5195","-14,1528972585386","26,6148831654315","-0,204368389125728","9,4492751020064","-15,6444031066256","7,60398102530439"
"5207","120,514818121933","-96,803328078278","4,09139139810259","6,88541957197868","-13,7621020578104","8,31839017846539"
"5208","81,7098422286025","-59,7392474307113","1,24207715523883","-17,8960125973972","-12,8543943695632","-0,520120464911119"
"5216","27,5893940777098","-27,512382439664","-1,25329029199581","-10,8704540786651","-12,4166677647666","1,3182538894007"
"5216","36,435762066185","-32,173300622123","-0,921713090889551","11,7295481013555","4,48985541215579","-5,46188755795422"
"5224","-66,4183273410547","31,0464449096277","-70,1182758069586","6,09005186900557","1,6427388623783","-3,65432706130547"
"5228","-35,1177610658587","10,4053004985856","-48,6536462894733","35,4369947739875","13,9296682658536","-7,39068017968474"
"5236","-568,561597279825","137,398263344697","-382,402378932615","25,6963453452527","10,8548311357916","-6,14994750267503"
"5236","-408,781554309586","94,2591918811791","-275,802143383252","16,0807073453367","4,81874220178904","5,13829306648787"
"5244","-374,703309106172","215,430550470476","-245,515485605471","17,3744995653705","4,90794090579726","3,45337762573208"
"5248","-356,531785191964","170,785070170095","-238,402735483882","17,7386221094539","-77,0084623466673","16,4223695843963"
"5257","-410,661383889902","507,480163624477","475,409812483593","17,8411001001675","-62,5112555224044","13,5288383902406"
"5257","-391,817747116239","394,603994399226","255,615553235979","90,0495372289543","-163,281680685322","48,8659799476152"
"5265","410,120048022411","-244,037414677682","-248,418313160657","68,3717492692609","-140,876505474851","41,5045246622375"
"5269","181,478894473309","-59,2934196859716","-126,431586691749","-121,615321580388","-187,747136406615","34,9800756103421"
"5277","194,908266432377","-1982,5703642463","-784,87722716095","-68,0849394290221","-172,349701536428","33,9080292448494"
"5277","150,916605982113","-1348,24098169339","-562,252084663216","-804,030955231675","-29,8432875837279","39,5198488055836"
"5285","554,65965326255","-1497,52363920839","292,431250684904","-574,154271814273","-50,1219915663749","38,1621822422048"
"5289","430,167092424846","-1356,15228941385","62,3714125092985","92,0384390704335","-120,611731755162","-28,2304642376622"
"5298","649,939291256656","1243,53183667444","251,90582894813","-70,469488415116","-114,604210881806","-16,4915388037466"
"5298","564,535925201643","444,230798650263","157,675556373697","1356,60204307113","52,2116495753085","27,2644648680986"
"5306","-282,791189905361","1553,77829169394","246,755397508758","901,234475688708","24,6557629937254","22,8670431056479"
"5306","-52,6976398420601","1084,88680589503","204,616811907865","-5,43184819639941","91,8090558584889","2,44672817288788"
"5318","-86,1117999840042","-1648,30169180481","-279,543384523235","192,397620263971","71,192589971074","4,83179306151954"
"5318","-36,0851107260407","-855,546486215074","-136,233187910731","-1284,88274382527","29,3775427781277","-4,74923542813372"
"5326","271,508834921623","-1700,37834715144","-142,880830835465","-808,645859546197","30,2129469790934","-2,26047668623984"
"5327","191,318115456624","-1315,98856605951","-118,661504898005","55,7741565628202","21,5092044770102","-20,9675720102188"
"5335","424,313331972479","1052,31019380957","326,056050041991","-125,945036404599","23,3119725886055","-16,7758351665171"
"5338","342,856713755813","362,135460319836","192,180531336156","709,690134942674","30,2523948556906","2,01848418240193"
"5347","-496,486295820888","294,9838435231","21,2134087008171","428,86978728952","29,5992955310532","-0,132183101759956"
"5347","-268,009685249328","213,607569820905","53,4172183412109","98,9261923122657","156,776777188786","23,3215486971911"
"5355","130,280740998157","272,647455074678","325,3279543149","152,067463262227","134,105956145204","18,36477257052"
"5359","55,1607059492443","241,924722465292","246,16345410881","48,442681807541","51,838289185864","-0,789766642177872"
"5368","-447,090677057423","542,174012829897","-603,002283319615","88,278710600179","59,1661050577422","1,19129059299781"
"5368","-315,000448605301","442,867061741251","-352,464471129104","-19,0906741601631","62,6998197146779","17,4155596799613"
"5376","15,3859348650556","-974,079100609403","-112,140587816756","19,6914802459035","64,4038935471774","15,054780476222"
"5376","-57,0017985602332","-541,730649935572","-147,766115470942","-349,195899732813","6,03274132580334","6,29746144290538"
"5388","208,949858325966","-483,833767589948","293,046010679845","-232,014897248991","16,8842452727733","7,17406498539983"
"5388","119,329932678217","-437,8522656972","151,124362416996","45,0000889464308","-5,20260732360416","15,2325577408784"
"5396","-177,961809568748","556,104331697052","78,4657615893291","-19,037313999081","2,14638341114903","14,02691082478"
"5396","-107,696133995131","249,302336872482","79,0030306064618","459,604477374664","72,4720571321383","36,39645830487"
"5404","-171,799767035693","464,182952939433","-158,155482817879","305,312558070286","62,3854179932432","31,9291924081373"
"5408","-140,933135921553","350,785849432272","-84,682061839437","-2,76959917113993","-15,3315081262119","20,6508824993245"
"5416","-104,495809615619","-411,618269247005","-278,053614632524","64,5243153041348","-4,80917483099999","21,3404738060106"
"5417","-109,620157607179","-187,899336625507","-206,85117842924","-378,829733203492","-25,5369973829288","27,7817630376835"
"5424","198,527794578573","-466,068392628491","103,220095686804","-234,606495323834","-18,5326375080047","26,8146534803639"
"5428","108,50243253492","-345,047920198468","18,2774863451922","-29,0346344107854","-62,2056808997109","18,7135458356146"
"5437","124,170171182148","532,509317746365","-37,3862623549533","-67,1788614137278","-52,2662637861508","19,8991274688579"
"5437","103,846608521588","273,587614342393","-33,2966591160802","224,552774370058","-21,6711098778863","28,1031030096495"
"5445","-181,269483883313","267,53190326663","-130,932863224823","130,657198686701","-23,9171169163892","26,9659568755032"
"5449","-102,369674192745","230,964916526275","-100,086231898462","23,4589926226417","34,1926972273615","34,0762726545153"
"5457","72,6156656726972","-97,1438123649632","147,211079574003","40,2893232516118","23,2151674342923","32,4241752241697"
"5457","35,8445160273173","0,954180069811559","75,4534926007915","-131,985845070358","-16,9872006484206","17,88394588121"
"5466","-65,3115684923872","-168,680483770391","-75,4101113976609","-77,4706570830367","-13,3741093564575","20,0376576580696"
"5466","-42,5041892279392","-100,57545590769","-39,8212630890053","-99,9363608648687","-28,3271944524244","13,4059932966934"
"5478","209,322773320188","-405,081541548835","-70,1273331173566","-84,2590679340555","-24,5380655897311","15,2834644461362"
"5478","140,486971374142","-298,876086497779","-55,2452831107611","-21,4157774962403","6,12675033598842","13,1091774001654"
"5486","174,389947164698","75,1122293757728","76,9190588408651","-37,7292754146336","1,91433662139218","14,0854111688739"
"5486","152,5091574397","-27,1138782291625","38,3213237294108","172,499709132795","39,344913613045","9,95762664643391"
"5494","-170,505266509398","245,926878653066","-162,552474317027","106,666174588505","31,3951731781863","11,0140532751291"
"5498","-80,9171832093581","144,579398275956","-106,3596306392","100,168036261343","68,5412548770018","16,0989189145272"
"5506","-118,835256375746","-148,054902412706","24,7455052457156","91,3392119548939","59,4543214225987","15,4931353276348"
"5507","-92,1528751583572","-70,7774828355787","-7,13595460715915","-46,9119391811076","30,7880302662252","1,44556438607852"
"5515","119,994094692978","-132,61923318224","74,3950978908263","-6,82109328994547","32,9641985828973","3,83124509080056"
"5519","63,3147840151339","-101,621516247131","44,2344523986561","-5,84936892418052","2,14051183969339","3,4253977956391"
"5527","-93,1276086190168","19,579991546442","-143,986533467242","0,42411142508375","8,27631280280679","4,23430400394436"
"5527","-57,8218420918945","-14,0576872913629","-90,4044381820155","58,902248038497","27,9306354916637","9,2026242918813"
"5535","19,0755194392011","-101,117552536243","-56,9981647913556","42,3602291170825","26,4085985535216","8,54196515603084"
"5535","3,02750382349918","-78,6453205801667","-59,0497773363779","30,8304259795359","12,0147191408472","20,4640811524257"
"5547","-98,7493289913128","294,570893499813","-63,0636025555215","31,5854990227828","14,0735154397646","18,0776268824008"
"5547","-72,1272279326733","180,144995439621","-62,1387677742645","102,259039516353","16,5841019590783","24,5997041009338"
"5556","-30,1506924955285","159,24213426048","-68,8195745419311","81,1492730217247","16,7947896368146","22,6706336852236"
"5556","-37,6217218432561","148,83327213126","-66,6091320531749","8,1842680057364","-5,87011475916449","44,6995561539115"
"5568","-14,3287753028158","57,3367083130156","-3,66018809306829","26,6491288666315","-1,79987967990743","40,0719064730538"
"5568","-22,376399634578","84,6608921293391","-22,7983390071357","-31,7409409365571","-16,5325149542996","37,8929708618204"
"5576","16,058167188381","-63,2388518739181","-29,6569235070552","-11,1741366512396","-12,6370779120289","36,8670158467854"
"5576","3,52994671336638","-12,5096568802117","-30,4941015358725","-34,6014031491795","-9,24080261071139","40,9713890477713"
"5584","-37,6429584238136","-170,02422163685","-44,5754287907979","-24,1947306913167","-8,6030065714697","39,9039391641756"
"5588","-27,9320650582799","-112,782975034826","-40,3473302742073","-53,9185699426402","-20,4375762439107","37,8721802879693"
"5597","41,3258519271752","-117,124746755303","-27,0898269954222","-43,2839935404399","-18,144596322093","37,9155236535837"
"5597","22,9976486896217","-107,248231451075","-30,5385995167722","19,8586456788076","-27,6632147029995","34,8776348617271"
"5605","78,7820068586459","186,094211734163","-81,6943077050085","2,62939594043546","-25,2534066339228","35,4472404870353"
"5609","59,4322753735908","95,0000323890298","-66,3971560307993","80,2713937855205","-2,84257969982623","29,5988459699359"
"5617","31,5370356021906","13,9674775681826","38,1642250073754","54,1228173335287","-6,03533931664667","30,8451208695761"
"5617","36,210987804432","25,9993472606539","8,17260952292416","15,8294967041308","-6,05722637958797","26,844485608049"
"5625","-130,844869449629","-16,1594574158892","-69,1464897553398","23,0522937552551","-7,06778104368779","27,9607806519552"
"5625","-81,7069629032547","-1,06854589300557","-49,8576073924612","-17,8789804802365","10,6581001035403","34,6029839615285"
"5637","177,979018978854","41,1436458882518","97,3442489837562","-4,39860432433138","7,20610500871878","33,7304750912372"
"5638","111,488942366396","30,0665489090521","54,7745448908316","42,3593335608671","-15,7072989050036","34,8488015547321"
"5646","163,107304106239","-173,042172921397","-17,2531175290646","30,5188030917714","-12,7568984945543","34,3753672034616"
"5646","136,514124431496","-110,598952790329","-1,54684189251833","-46,7117321192163","0,808017928942323","37,2107470265445"
"5658","-65,3970744023523","-400,898954293321","-146,303241555672","-25,4473543671371","-0,650531682030446","36,5457897575108"
"5658","-11,6626360598274","-300,017507240939","-99,0784840266162","-100,235151269554","39,6258164640304","28,5869509590152"
"5666","149,00535737141","-206,004952184745","55,6064289586852","-74,2832936627697","32,0484008002141","29,8395200863106"
"5666","111,960829482103","-220,678093562057","15,0411774158117","120,343787238339","13,2166509208658","22,783551392206"
"5674","-154,324720758041","567,788435697462","37,085702723209","66,1192811297782","14,1353596155285","24,461238226858"
"5678","-83,8044541219035","316,81345953128","23,9906700748444","219,277491252071","54,0403331778859","31,3677736810553"
"5687","-112,100085073687","257,09443577746","-150,998354615812","164,382061099882","47,2838284331495","30,6197259871355"
"5687","-91,5456398602","238,641433281402","-98,8718736997598","30,3516257460924","21,2591139093713","22,6217639407229"
"5695","-59,8877736179124","-204,925523635834","-110,891006672133","61,6303422587304","23,7091376595354","23,8559118295944"
"5699","-65,4386737116776","-67,7037109127549","-99,1105174943057","-177,039532554243","2,1241150235921","33,6119034022139"
"5707","-61,9909085545392","-30,4547085060031","-5,88393606385781","-100,21035076392","6,715104727408","32,2055262834803"
"5707","-63,9618348584883","-21,816089336004","-32,9117530853182","2,1847202476656","-7,76640548030052","40,7182227996"
"5716","-44,1318151540119","293,842130118319","-59,2050519842494","-15,9973960295732","-3,74986764287082","38,7264383875953"
"5716","-50,2130385726669","195,522421364153","-55,2481191131605","157,615889990025","-6,36626152740846","53,0800891823747"
"5728","-70,7449038923993","224,05941985218","-71,50953859108","102,47729942909","-4,6279730086684","49,8385266235935"
"5728","-65,8731642490104","200,443705145981","-65,865411524127","9,62391282550406","-17,4496158839076","54,4288263159899"
"5736","7,04495680282182","21,9502790245289","-50,4964685580281","28,4914235174594","-14,6326352373421","52,5901756306039"
"5736","-13,1907649125814","74,7629975519597","-54,3796592741599","-89,9349885019117","-33,0051651539664","54,7827413487759"
"5748","31,8150990418063","-155,3444349982","31,1868939836717","-51,2647038638152","-28,8650054374156","53,8151141195706"
"5748","15,2482502724274","-74,8874500383883","4,10721983935787","-48,9742178823351","-29,9040177753798","54,8886539648441"
"5756","20,5125970556633","-1,8311094367447","8,97845156830702","-43,329587647395","-28,405063815782","54,39413176897"
"5756","16,083876001476","-12,926918733228","3,28328639330745","-0,495489739673811","-32,2355197352707","49,5738396524659"
"5764","-19,2684775241607","-12,315614010309","-32,8849421607536","-12,4403386403166","-31,0826919980714","50,3041980690408"
"5769","-9,82029165552695","-14,157431695607","-22,5731620611635","-0,33501906044374","-22,9379254333147","53,706385475086"
"5777","-56,3444471780201","-277,560990917904","-85,6321038977682","-5,92811979631638","-24,0102501900469","53,3083103843518"
"5777","-41,2307713611082","-194,719771860339","-64,523417617682","-38,4363444909096","-18,4562925921752","43,9459849098772"
"5785","167,463222465934","-79,256765902252","8,68411704587886","-29,5854004955309","-19,7779909384836","45,5377202858988"
"5789","109,753282775456","-103,379349844215","-10,7061115458439","33,0552564427714","-47,7351634388703","37,1122999759517"
"5797","140,170959036566","170,717995826998","63,7781034886922","15,6847297185029","-43,2170347028892","39,1451785171057"
"5798","121,24989252207","80,6439202741333","37,7298534972776","119,065393934117","-18,2717389647585","26,340025492488"
"5806","132,617660494844","90,419715392254","20,3596193912612","85,1606612269182","-21,2422940779516","29,3107004880377"
"5806","126,01066160438","73,9493178014295","21,7067332956884","-13,7466394505019","18,3049151134764","26,1220015302748"
"5818","-23,9939909697296","-262,889086912237","-48,9499367139979","10,4170686059965","10,3758845816041","27,6205979686975"
"5818","18,2332837390288","-159,050001167395","-26,8764195374892","-53,2433751715789","32,3542833140636","32,9136599088253"
"5826","-16,8055898923449","-24,2236437387624","-8,83874462453785","-30,1598554122535","25,9529925467729","32,4059058542165"
"5826","0,736162068735396","-51,335731865525","-11,0070741768803","82,8875607241345","16,7950108878035","32,1668291159941"
"5838","-53,581408176549","-54,8688283934055","-27,1771054935894","52,7034212064073","16,3787298864697","32,0542594846141"
"5838","-34,7938763190176","-57,7830588351023","-22,5084986929725","32,1785188821681","17,6957524454071","39,6469986064182"
"5847","-328,654555275575","-210,024873165091","-277,613849059723","33,4020274675176","17,3308641896709","38,2220509116389"
