Timer,AX,AY,AZ,GX,GY,GZ
"1001","4,19960079840319","-0,800399201596806","-28,8003992015968","-1,1187624750499","1,99101796407186","-1,04590818363273"
"1001","4,19960079840319","1,19960079840319","-30,8003992015968","-1,1187624750499","1,99101796407186","-1,04590818363273"
"1001","4,19960079840319","1,19960079840319","-30,8003992015968","-0,1187624750499","-0,00898203592814371","-0,0459081836327345"
"1001","3,19960079840319","1,19960079840319","-25,8003992015968","-0,1187624750499","-0,00898203592814371","-0,0459081836327345"
"1001","3,19960079840319","1,19960079840319","-25,8003992015968","2,8812375249501","-2,00898203592814","-0,0459081836327345"
"1001","1,19960079840319","1,19960079840319","-25,8003992015968","2,8812375249501","-2,00898203592814","-0,0459081836327345"
"1001","1,19960079840319","1,19960079840319","-25,8003992015968","-0,1187624750499","1,99101796407186","1,95409181636727"
"1001","5,19960079840319","4,19960079840319","-27,8003992015968","-0,1187624750499","1,99101796407186","1,95409181636727"
"1001","5,19960079840319","4,19960079840319","-27,8003992015968","3,8812375249501","-2,00898203592814","-1,04590818363273"
"1001","3,19960079840319","1,19960079840319","-26,8003992015968","3,8812375249501","-2,00898203592814","-1,04590818363273"
"1001","3,19960079840319","1,19960079840319","-26,8003992015968","-0,1187624750499","-1,00898203592814","-0,0459081836327345"
"1001","4,19960079840319","0,199600798403194","-27,8003992015968","-0,1187624750499","-1,00898203592814","-0,0459081836327345"
"1001","4,19960079840319","0,199600798403194","-27,8003992015968","-0,1187624750499","-3,00898203592814","-2,04590818363273"
"1001","3,19960079840319","1,19960079840319","-26,8003992015968","-0,1187624750499","-3,00898203592814","-2,04590818363273"
"1001","3,19960079840319","1,19960079840319","-26,8003992015968","0,8812375249501","0,991017964071856","-1,04590818363273"
"1001","2,19960079840319","1,19960079840319","-26,8003992015968","0,8812375249501","0,991017964071856","-1,04590818363273"
"1001","2,19960079840319","1,19960079840319","-26,8003992015968","0,8812375249501","-0,00898203592814371","-2,04590818363273"
"1001","3,19960079840319","0,199600798403194","-26,8003992015968","0,8812375249501","-0,00898203592814371","-2,04590818363273"
"1001","3,19960079840319","0,199600798403194","-26,8003992015968","0,8812375249501","-0,00898203592814371","-0,0459081836327345"
"1001","3,19960079840319","0,199600798403194","-28,8003992015968","0,8812375249501","-0,00898203592814371","-0,0459081836327345"
"1001","3,19960079840319","0,199600798403194","-28,8003992015968","1,8812375249501","-0,00898203592814371","-1,04590818363273"
"1001","1,19960079840319","2,19960079840319","-31,8003992015968","1,8812375249501","-0,00898203592814371","-1,04590818363273"
"1001","1,19960079840319","2,19960079840319","-31,8003992015968","-0,1187624750499","-0,00898203592814371","-0,0459081836327345"
"1002","4,19960079840319","1,19960079840319","-30,8003992015968","-0,1187624750499","-0,00898203592814371","-0,0459081836327345"
"1002","4,19960079840319","1,19960079840319","-30,8003992015968","-1,1187624750499","-1,00898203592814","-1,04590818363273"
"1002","3,19960079840319","-0,800399201596806","-25,8003992015968","-1,1187624750499","-1,00898203592814","-1,04590818363273"
"1002","3,19960079840319","-0,800399201596806","-25,8003992015968","2,8812375249501","-1,00898203592814","-1,04590818363273"
"1002","4,19960079840319","5,19960079840319","-26,8003992015968","2,8812375249501","-1,00898203592814","-1,04590818363273"
"1002","4,19960079840319","5,19960079840319","-26,8003992015968","4,8812375249501","-0,00898203592814371","-1,04590818363273"
"1002","2,19960079840319","5,19960079840319","-27,8003992015968","4,8812375249501","-0,00898203592814371","-1,04590818363273"
"1002","2,19960079840319","5,19960079840319","-27,8003992015968","-1,1187624750499","-0,00898203592814371","-0,0459081836327345"
"1002","3,19960079840319","-0,800399201596806","-28,8003992015968","-1,1187624750499","-0,00898203592814371","-0,0459081836327345"
"1002","3,19960079840319","-0,800399201596806","-28,8003992015968","-2,1187624750499","-1,00898203592814","0,954091816367265"
"1002","4,19960079840319","0,199600798403194","-28,8003992015968","-2,1187624750499","-1,00898203592814","0,954091816367265"
"1002","4,19960079840319","0,199600798403194","-28,8003992015968","-0,1187624750499","-1,00898203592814","-0,0459081836327345"
"1002","4,19960079840319","-0,800399201596806","-27,8003992015968","-0,1187624750499","-1,00898203592814","-0,0459081836327345"
"1002","4,19960079840319","-0,800399201596806","-27,8003992015968","-1,1187624750499","0,991017964071856","-1,04590818363273"
"1002","5,19960079840319","0,199600798403194","-27,8003992015968","-1,1187624750499","0,991017964071856","-1,04590818363273"
"1002","5,19960079840319","0,199600798403194","-27,8003992015968","1,8812375249501","-2,00898203592814","-3,04590818363273"
"1002","1,19960079840319","-0,800399201596806","-25,8003992015968","1,8812375249501","-2,00898203592814","-3,04590818363273"
"1002","1,19960079840319","-0,800399201596806","-25,8003992015968","-3,1187624750499","0,991017964071856","-1,04590818363273"
"1002","3,19960079840319","1,19960079840319","-31,8003992015968","-3,1187624750499","0,991017964071856","-1,04590818363273"
"1002","3,19960079840319","1,19960079840319","-31,8003992015968","0,8812375249501","-0,00898203592814371","-1,04590818363273"
"1002","1,19960079840319","0,199600798403194","-32,8003992015968","0,8812375249501","-0,00898203592814371","-1,04590818363273"
"1002","1,19960079840319","0,199600798403194","-32,8003992015968","0,8812375249501","-3,00898203592814","-3,04590818363273"
"1003","2,19960079840319","-0,800399201596806","-25,8003992015968","0,8812375249501","-3,00898203592814","-3,04590818363273"
"1003","2,19960079840319","-0,800399201596806","-25,8003992015968","-1,1187624750499","-3,00898203592814","-1,04590818363273"
"1003","3,19960079840319","2,19960079840319","-26,8003992015968","-1,1187624750499","-3,00898203592814","-1,04590818363273"
"1003","3,19960079840319","2,19960079840319","-26,8003992015968","-2,1187624750499","-0,00898203592814371","1,95409181636727"
"1003","4,19960079840319","2,19960079840319","-26,8003992015968","-2,1187624750499","-0,00898203592814371","1,95409181636727"
"1003","4,19960079840319","2,19960079840319","-26,8003992015968","1,8812375249501","-0,00898203592814371","-2,04590818363273"
"1003","2,19960079840319","1,19960079840319","-28,8003992015968","1,8812375249501","-0,00898203592814371","-2,04590818363273"
"1003","2,19960079840319","1,19960079840319","-28,8003992015968","-3,1187624750499","0,991017964071856","0,954091816367265"
"1003","2,19960079840319","3,19960079840319","-25,8003992015968","-3,1187624750499","0,991017964071856","0,954091816367265"
"1003","2,19960079840319","3,19960079840319","-25,8003992015968","1,8812375249501","-1,00898203592814","1,95409181636727"
"1003","3,19960079840319","4,19960079840319","-26,8003992015968","1,8812375249501","-1,00898203592814","1,95409181636727"
"1003","3,19960079840319","4,19960079840319","-26,8003992015968","2,8812375249501","-0,00898203592814371","-1,04590818363273"
"1003","5,19960079840319","1,19960079840319","-27,8003992015968","2,8812375249501","-0,00898203592814371","-1,04590818363273"
"1003","5,19960079840319","1,19960079840319","-27,8003992015968","2,8812375249501","-2,00898203592814","-3,04590818363273"
"1003","3,19960079840319","-1,80039920159681","-26,8003992015968","2,8812375249501","-2,00898203592814","-3,04590818363273"
"1003","3,19960079840319","-1,80039920159681","-26,8003992015968","-3,1187624750499","-0,00898203592814371","-0,0459081836327345"
"1003","1,19960079840319","1,19960079840319","-28,8003992015968","-3,1187624750499","-0,00898203592814371","-0,0459081836327345"
"1003","1,19960079840319","1,19960079840319","-28,8003992015968","-0,1187624750499","0,991017964071856","1,95409181636727"
"1003","3,19960079840319","6,19960079840319","-31,8003992015968","-0,1187624750499","0,991017964071856","1,95409181636727"
"1003","3,19960079840319","6,19960079840319","-31,8003992015968","-0,1187624750499","0,991017964071856","-1,04590818363273"
"1003","4,19960079840319","-3,80039920159681","-28,8003992015968","-0,1187624750499","0,991017964071856","-1,04590818363273"
"1003","4,19960079840319","-3,80039920159681","-28,8003992015968","-2,1187624750499","-0,00898203592814371","-1,04590818363273"
"1003","2,19960079840319","-1,80039920159681","-29,8003992015968","-2,1187624750499","-0,00898203592814371","-1,04590818363273"
"1004","2,19960079840319","-1,80039920159681","-29,8003992015968","-0,1187624750499","-1,00898203592814","3,95409181636727"
"1004","4,19960079840319","5,19960079840319","-29,8003992015968","-0,1187624750499","-1,00898203592814","3,95409181636727"
"1004","4,19960079840319","5,19960079840319","-29,8003992015968","1,8812375249501","0,991017964071856","0,954091816367265"
"1004","2,19960079840319","-2,80039920159681","-26,8003992015968","1,8812375249501","0,991017964071856","0,954091816367265"
"1004","2,19960079840319","-2,80039920159681","-26,8003992015968","-1,1187624750499","-0,00898203592814371","-1,04590818363273"
"1004","3,19960079840319","1,19960079840319","-24,8003992015968","-1,1187624750499","-0,00898203592814371","-1,04590818363273"
"1004","3,19960079840319","1,19960079840319","-24,8003992015968","-3,1187624750499","2,99101796407186","-1,04590818363273"
"1004","2,19960079840319","1,19960079840319","-27,8003992015968","-3,1187624750499","2,99101796407186","-1,04590818363273"
"1004","2,19960079840319","1,19960079840319","-27,8003992015968","0,8812375249501","0,991017964071856","1,95409181636727"
"1004","1,19960079840319","1,19960079840319","-28,8003992015968","0,8812375249501","0,991017964071856","1,95409181636727"
"1004","1,19960079840319","1,19960079840319","-28,8003992015968","1,8812375249501","-4,00898203592814","-0,0459081836327345"
"1004","1,19960079840319","3,19960079840319","-29,8003992015968","1,8812375249501","-4,00898203592814","-0,0459081836327345"
"1004","1,19960079840319","3,19960079840319","-29,8003992015968","-0,1187624750499","-2,00898203592814","-0,0459081836327345"
"1004","4,19960079840319","1,19960079840319","-30,8003992015968","-0,1187624750499","-2,00898203592814","-0,0459081836327345"
"1004","4,19960079840319","1,19960079840319","-30,8003992015968","0,8812375249501","-3,00898203592814","-0,0459081836327345"
"1004","2,19960079840319","0,199600798403194","-29,8003992015968","0,8812375249501","-3,00898203592814","-0,0459081836327345"
"1004","2,19960079840319","0,199600798403194","-29,8003992015968","-3,1187624750499","-1,00898203592814","-1,04590818363273"
"1004","4,19960079840319","7,19960079840319","-28,8003992015968","-3,1187624750499","-1,00898203592814","-1,04590818363273"
"1004","4,19960079840319","7,19960079840319","-28,8003992015968","1,8812375249501","-0,00898203592814371","-0,0459081836327345"
"1004","6,19960079840319","4,19960079840319","-25,8003992015968","1,8812375249501","-0,00898203592814371","-0,0459081836327345"
"1004","6,19960079840319","4,19960079840319","-25,8003992015968","0,8812375249501","-2,00898203592814","-1,04590818363273"
"1004","3,19960079840319","-1,80039920159681","-26,8003992015968","0,8812375249501","-2,00898203592814","-1,04590818363273"
"1004","3,19960079840319","-1,80039920159681","-26,8003992015968","-1,1187624750499","-2,00898203592814","2,95409181636727"
"1005","5,19960079840319","3,19960079840319","-26,8003992015968","-1,1187624750499","-2,00898203592814","2,95409181636727"
"1005","5,19960079840319","3,19960079840319","-26,8003992015968","1,8812375249501","-0,00898203592814371","-0,0459081836327345"
"1005","2,19960079840319","-0,800399201596806","-26,8003992015968","1,8812375249501","-0,00898203592814371","-0,0459081836327345"
"1005","2,19960079840319","-0,800399201596806","-26,8003992015968","-0,1187624750499","-0,00898203592814371","0,954091816367265"
"1005","1,19960079840319","1,19960079840319","-28,8003992015968","-0,1187624750499","-0,00898203592814371","0,954091816367265"
"1005","1,19960079840319","1,19960079840319","-28,8003992015968","-0,1187624750499","-0,00898203592814371","0,954091816367265"
"1005","4,19960079840319","1,19960079840319","-28,8003992015968","-0,1187624750499","-0,00898203592814371","0,954091816367265"
"1005","4,19960079840319","1,19960079840319","-28,8003992015968","-0,1187624750499","-0,00898203592814371","-0,0459081836327345"
"1005","1,19960079840319","1,19960079840319","-28,8003992015968","-0,1187624750499","-0,00898203592814371","-0,0459081836327345"
"1005","1,19960079840319","1,19960079840319","-28,8003992015968","-1,1187624750499","-0,00898203592814371","-0,0459081836327345"
"1005","2,19960079840319","1,19960079840319","-29,8003992015968","-1,1187624750499","-0,00898203592814371","-0,0459081836327345"
"1005","2,19960079840319","1,19960079840319","-29,8003992015968","-3,1187624750499","-1,00898203592814","-2,04590818363273"
"1005","4,19960079840319","1,19960079840319","-29,8003992015968","-3,1187624750499","-1,00898203592814","-2,04590818363273"
"1005","4,19960079840319","1,19960079840319","-29,8003992015968","-0,1187624750499","0,991017964071856","0,954091816367265"
"1005","2,19960079840319","1,19960079840319","-26,8003992015968","-0,1187624750499","0,991017964071856","0,954091816367265"
"1005","2,19960079840319","1,19960079840319","-26,8003992015968","-1,1187624750499","0,991017964071856","1,95409181636727"
"1005","4,19960079840319","1,19960079840319","-28,8003992015968","-1,1187624750499","0,991017964071856","1,95409181636727"
"1005","4,19960079840319","1,19960079840319","-28,8003992015968","1,8812375249501","-0,00898203592814371","1,95409181636727"
"1005","3,19960079840319","1,19960079840319","-27,8003992015968","1,8812375249501","-0,00898203592814371","1,95409181636727"
"1005","3,19960079840319","1,19960079840319","-27,8003992015968","-1,1187624750499","-0,00898203592814371","-0,0459081836327345"
"1005","5,19960079840319","1,19960079840319","-30,8003992015968","-1,1187624750499","-0,00898203592814371","-0,0459081836327345"
"1005","5,19960079840319","1,19960079840319","-30,8003992015968","-0,1187624750499","-1,00898203592814","0,954091816367265"
"1005","4,19960079840319","0,199600798403194","-27,8003992015968","-0,1187624750499","-1,00898203592814","0,954091816367265"
"1005","4,19960079840319","0,199600798403194","-27,8003992015968","-2,1187624750499","-3,00898203592814","0,954091816367265"
"1006","4,19960079840319","2,19960079840319","-26,8003992015968","-2,1187624750499","-3,00898203592814","0,954091816367265"
"1006","4,19960079840319","2,19960079840319","-26,8003992015968","-1,1187624750499","-0,00898203592814371","1,95409181636727"
"1006","1,19960079840319","1,19960079840319","-27,8003992015968","-1,1187624750499","-0,00898203592814371","1,95409181636727"
"1006","1,19960079840319","1,19960079840319","-27,8003992015968","-1,1187624750499","-1,00898203592814","-0,0459081836327345"
"1006","4,19960079840319","-0,800399201596806","-28,8003992015968","-1,1187624750499","-1,00898203592814","-0,0459081836327345"
"1006","4,19960079840319","-0,800399201596806","-28,8003992015968","0,8812375249501","2,99101796407186","-0,0459081836327345"
"1006","5,19960079840319","2,19960079840319","-27,8003992015968","0,8812375249501","2,99101796407186","-0,0459081836327345"
"1006","5,19960079840319","2,19960079840319","-27,8003992015968","0,8812375249501","-0,00898203592814371","0,954091816367265"
"1006","1,19960079840319","5,19960079840319","-30,8003992015968","0,8812375249501","-0,00898203592814371","0,954091816367265"
"1006","1,19960079840319","5,19960079840319","-30,8003992015968","1,8812375249501","-0,00898203592814371","-1,04590818363273"
"1006","6,19960079840319","1,19960079840319","-28,8003992015968","1,8812375249501","-0,00898203592814371","-1,04590818363273"
"1006","6,19960079840319","1,19960079840319","-28,8003992015968","-2,1187624750499","-1,00898203592814","0,954091816367265"
"1006","4,19960079840319","-2,80039920159681","-25,8003992015968","-2,1187624750499","-1,00898203592814","0,954091816367265"
"1006","4,19960079840319","-2,80039920159681","-25,8003992015968","-5,1187624750499","0,991017964071856","0,954091816367265"
"1006","1,19960079840319","1,19960079840319","-28,8003992015968","-5,1187624750499","0,991017964071856","0,954091816367265"
"1006","1,19960079840319","1,19960079840319","-28,8003992015968","0,8812375249501","3,99101796407186","0,954091816367265"
"1006","5,19960079840319","2,19960079840319","-28,8003992015968","0,8812375249501","3,99101796407186","0,954091816367265"
"1006","5,19960079840319","2,19960079840319","-28,8003992015968","2,8812375249501","-1,00898203592814","-1,04590818363273"
"1006","6,19960079840319","-2,80039920159681","-25,8003992015968","2,8812375249501","-1,00898203592814","-1,04590818363273"
"1006","6,19960079840319","-2,80039920159681","-25,8003992015968","-2,1187624750499","1,99101796407186","-0,0459081836327345"
"1006","5,19960079840319","0,199600798403194","-26,8003992015968","-2,1187624750499","1,99101796407186","-0,0459081836327345"
"1006","5,19960079840319","0,199600798403194","-26,8003992015968","-0,1187624750499","-0,00898203592814371","0,954091816367265"
"1006","2,19960079840319","3,19960079840319","-27,8003992015968","-0,1187624750499","-0,00898203592814371","0,954091816367265"
"1007","2,19960079840319","3,19960079840319","-27,8003992015968","-0,1187624750499","-1,00898203592814","1,95409181636727"
"1007","4,19960079840319","1,19960079840319","-28,8003992015968","-0,1187624750499","-1,00898203592814","1,95409181636727"
"1007","4,19960079840319","1,19960079840319","-28,8003992015968","-0,1187624750499","-1,00898203592814","-0,0459081836327345"
"1007","2,19960079840319","0,199600798403194","-29,8003992015968","-0,1187624750499","-1,00898203592814","-0,0459081836327345"
"1007","2,19960079840319","0,199600798403194","-29,8003992015968","2,8812375249501","-1,00898203592814","-0,0459081836327345"
"1007","4,19960079840319","1,19960079840319","-26,8003992015968","2,8812375249501","-1,00898203592814","-0,0459081836327345"
"1007","4,19960079840319","1,19960079840319","-26,8003992015968","1,8812375249501","0,991017964071856","1,95409181636727"
"1007","5,19960079840319","1,19960079840319","-27,8003992015968","1,8812375249501","0,991017964071856","1,95409181636727"
"1007","5,19960079840319","1,19960079840319","-27,8003992015968","1,8812375249501","-0,00898203592814371","0,954091816367265"
"1007","4,19960079840319","-0,800399201596806","-26,8003992015968","1,8812375249501","-0,00898203592814371","0,954091816367265"
"1007","4,19960079840319","-0,800399201596806","-26,8003992015968","-0,1187624750499","-2,00898203592814","0,954091816367265"
"1007","3,19960079840319","0,199600798403194","-25,8003992015968","-0,1187624750499","-2,00898203592814","0,954091816367265"
"1007","3,19960079840319","0,199600798403194","-25,8003992015968","-0,1187624750499","-2,00898203592814","1,95409181636727"
"1007","3,19960079840319","1,19960079840319","-29,8003992015968","-0,1187624750499","-2,00898203592814","1,95409181636727"
"1007","3,19960079840319","1,19960079840319","-29,8003992015968","-3,1187624750499","1,99101796407186","0,954091816367265"
"1007","4,19960079840319","0,199600798403194","-26,8003992015968","-3,1187624750499","1,99101796407186","0,954091816367265"
"1007","4,19960079840319","0,199600798403194","-26,8003992015968","-5,1187624750499","-0,00898203592814371","-0,0459081836327345"
"1007","2,19960079840319","-0,800399201596806","-25,8003992015968","-5,1187624750499","-0,00898203592814371","-0,0459081836327345"
"1007","2,19960079840319","-0,800399201596806","-25,8003992015968","-3,1187624750499","0,991017964071856","-0,0459081836327345"
"1007","3,19960079840319","1,19960079840319","-27,8003992015968","-3,1187624750499","0,991017964071856","-0,0459081836327345"
"1007","3,19960079840319","1,19960079840319","-27,8003992015968","-3,1187624750499","0,991017964071856","-0,0459081836327345"
"1007","2,19960079840319","2,19960079840319","-27,8003992015968","-3,1187624750499","0,991017964071856","-0,0459081836327345"
"1007","2,19960079840319","2,19960079840319","-27,8003992015968","0,8812375249501","0,991017964071856","0,954091816367265"
"1008","3,19960079840319","1,19960079840319","-29,8003992015968","0,8812375249501","0,991017964071856","0,954091816367265"
"1008","3,19960079840319","1,19960079840319","-29,8003992015968","1,8812375249501","-2,00898203592814","-3,04590818363273"
"1008","2,19960079840319","0,199600798403194","-24,8003992015968","1,8812375249501","-2,00898203592814","-3,04590818363273"
"1008","2,19960079840319","0,199600798403194","-24,8003992015968","-1,1187624750499","-1,00898203592814","-2,04590818363273"
"1008","1,19960079840319","2,19960079840319","-27,8003992015968","-1,1187624750499","-1,00898203592814","-2,04590818363273"
"1008","1,19960079840319","2,19960079840319","-27,8003992015968","0,8812375249501","-1,00898203592814","-1,04590818363273"
"1008","3,19960079840319","0,199600798403194","-26,8003992015968","0,8812375249501","-1,00898203592814","-1,04590818363273"
"1008","3,19960079840319","0,199600798403194","-26,8003992015968","-0,1187624750499","-0,00898203592814371","-3,04590818363273"
"1008","3,19960079840319","-1,80039920159681","-25,8003992015968","-0,1187624750499","-0,00898203592814371","-3,04590818363273"
"1008","3,19960079840319","-1,80039920159681","-25,8003992015968","0,8812375249501","0,991017964071856","-1,04590818363273"
"1008","4,19960079840319","1,19960079840319","-29,8003992015968","0,8812375249501","0,991017964071856","-1,04590818363273"
"1008","4,19960079840319","1,19960079840319","-29,8003992015968","1,8812375249501","1,99101796407186","1,95409181636727"
"1008","5,19960079840319","0,199600798403194","-29,8003992015968","1,8812375249501","1,99101796407186","1,95409181636727"
"1008","5,19960079840319","0,199600798403194","-29,8003992015968","0,8812375249501","-1,00898203592814","-3,04590818363273"
"1008","4,19960079840319","1,19960079840319","-27,8003992015968","0,8812375249501","-1,00898203592814","-3,04590818363273"
"1008","4,19960079840319","1,19960079840319","-27,8003992015968","-4,1187624750499","-0,00898203592814371","-1,04590818363273"
"1008","3,19960079840319","1,19960079840319","-27,8003992015968","-4,1187624750499","-0,00898203592814371","-1,04590818363273"
"1008","3,19960079840319","1,19960079840319","-27,8003992015968","-3,1187624750499","0,991017964071856","-0,0459081836327345"
"1008","3,19960079840319","0,199600798403194","-27,8003992015968","-3,1187624750499","0,991017964071856","-0,0459081836327345"
"1008","3,19960079840319","0,199600798403194","-27,8003992015968","-1,1187624750499","-2,00898203592814","-3,04590818363273"
"1008","4,19960079840319","1,19960079840319","-29,8003992015968","-1,1187624750499","-2,00898203592814","-3,04590818363273"
"1008","4,19960079840319","1,19960079840319","-29,8003992015968","-3,1187624750499","-1,00898203592814","-0,0459081836327345"
"1009","5,19960079840319","0,199600798403194","-26,8003992015968","-3,1187624750499","-1,00898203592814","-0,0459081836327345"
"1009","5,19960079840319","0,199600798403194","-26,8003992015968","-3,1187624750499","-0,00898203592814371","-0,0459081836327345"
"1009","2,19960079840319","1,19960079840319","-26,8003992015968","-3,1187624750499","-0,00898203592814371","-0,0459081836327345"
"1009","2,19960079840319","1,19960079840319","-26,8003992015968","-0,1187624750499","-0,00898203592814371","-1,04590818363273"
"1009","3,19960079840319","0,199600798403194","-27,8003992015968","-0,1187624750499","-0,00898203592814371","-1,04590818363273"
"1009","3,19960079840319","0,199600798403194","-27,8003992015968","0,8812375249501","1,99101796407186","-0,0459081836327345"
"1009","3,19960079840319","-1,80039920159681","-26,8003992015968","0,8812375249501","1,99101796407186","-0,0459081836327345"
"1009","3,19960079840319","-1,80039920159681","-26,8003992015968","-0,1187624750499","-0,00898203592814371","-0,0459081836327345"
"1009","4,19960079840319","2,19960079840319","-26,8003992015968","-0,1187624750499","-0,00898203592814371","-0,0459081836327345"
"1009","4,19960079840319","2,19960079840319","-26,8003992015968","-3,1187624750499","1,99101796407186","-0,0459081836327345"
"1009","2,19960079840319","1,19960079840319","-27,8003992015968","-3,1187624750499","1,99101796407186","-0,0459081836327345"
"1009","2,19960079840319","1,19960079840319","-27,8003992015968","-1,1187624750499","2,99101796407186","-2,04590818363273"
"1009","3,19960079840319","-0,800399201596806","-26,8003992015968","-1,1187624750499","2,99101796407186","-2,04590818363273"
"1009","3,19960079840319","-0,800399201596806","-26,8003992015968","-1,1187624750499","0,991017964071856","-2,04590818363273"
"1009","1,19960079840319","1,19960079840319","-24,8003992015968","-1,1187624750499","0,991017964071856","-2,04590818363273"
"1009","1,19960079840319","1,19960079840319","-24,8003992015968","-1,1187624750499","0,991017964071856","-2,04590818363273"
"1009","4,19960079840319","3,19960079840319","-24,8003992015968","-1,1187624750499","0,991017964071856","-2,04590818363273"
"1009","4,19960079840319","3,19960079840319","-24,8003992015968","0,8812375249501","-0,00898203592814371","-1,04590818363273"
"1009","5,19960079840319","0,199600798403194","-28,8003992015968","0,8812375249501","-0,00898203592814371","-1,04590818363273"
"1009","5,19960079840319","0,199600798403194","-28,8003992015968","-2,1187624750499","-0,00898203592814371","-0,0459081836327345"
"1009","4,19960079840319","1,19960079840319","-28,8003992015968","-2,1187624750499","-0,00898203592814371","-0,0459081836327345"
"1009","4,19960079840319","1,19960079840319","-28,8003992015968","0,8812375249501","-1,00898203592814","-3,04590818363273"
"1009","3,19960079840319","1,19960079840319","-28,8003992015968","0,8812375249501","-1,00898203592814","-3,04590818363273"
"1010","3,19960079840319","1,19960079840319","-28,8003992015968","0,8812375249501","-0,00898203592814371","-2,04590818363273"
"1010","4,19960079840319","1,19960079840319","-28,8003992015968","0,8812375249501","-0,00898203592814371","-2,04590818363273"
"1010","4,19960079840319","1,19960079840319","-28,8003992015968","0,8812375249501","-0,00898203592814371","-2,04590818363273"
"1010","4,19960079840319","0,199600798403194","-27,8003992015968","0,8812375249501","-0,00898203592814371","-2,04590818363273"
"1010","4,19960079840319","0,199600798403194","-27,8003992015968","-2,1187624750499","-0,00898203592814371","-2,04590818363273"
"1010","3,19960079840319","-2,80039920159681","-27,8003992015968","-2,1187624750499","-0,00898203592814371","-2,04590818363273"
"1010","3,19960079840319","-2,80039920159681","-27,8003992015968","-0,1187624750499","-2,00898203592814","-0,0459081836327345"
"1010","3,19960079840319","1,19960079840319","-29,8003992015968","-0,1187624750499","-2,00898203592814","-0,0459081836327345"
"1010","3,19960079840319","1,19960079840319","-29,8003992015968","0,8812375249501","-3,00898203592814","-2,04590818363273"
"1010","2,19960079840319","1,19960079840319","-27,8003992015968","0,8812375249501","-3,00898203592814","-2,04590818363273"
"1010","2,19960079840319","1,19960079840319","-27,8003992015968","0,8812375249501","0,991017964071856","-0,0459081836327345"
"1010","3,19960079840319","0,199600798403194","-26,8003992015968","0,8812375249501","0,991017964071856","-0,0459081836327345"
"1010","3,19960079840319","0,199600798403194","-26,8003992015968","0,8812375249501","0,991017964071856","-0,0459081836327345"
"1010","1,19960079840319","1,19960079840319","-24,8003992015968","0,8812375249501","0,991017964071856","-0,0459081836327345"
"1010","1,19960079840319","1,19960079840319","-24,8003992015968","-0,1187624750499","0,991017964071856","-3,04590818363273"
"1010","3,19960079840319","1,19960079840319","-27,8003992015968","-0,1187624750499","0,991017964071856","-3,04590818363273"
"1010","3,19960079840319","1,19960079840319","-27,8003992015968","-3,1187624750499","-0,00898203592814371","-1,04590818363273"
"1010","3,19960079840319","-2,80039920159681","-27,8003992015968","-3,1187624750499","-0,00898203592814371","-1,04590818363273"
"1010","3,19960079840319","-2,80039920159681","-27,8003992015968","-1,1187624750499","0,991017964071856","-1,04590818363273"
"1010","2,19960079840319","1,19960079840319","-26,8003992015968","-1,1187624750499","0,991017964071856","-1,04590818363273"
"1010","2,19960079840319","1,19960079840319","-26,8003992015968","-1,1187624750499","1,99101796407186","-1,04590818363273"
"1010","3,19960079840319","1,19960079840319","-25,8003992015968","-1,1187624750499","1,99101796407186","-1,04590818363273"
"1010","3,19960079840319","1,19960079840319","-25,8003992015968","-1,1187624750499","1,99101796407186","-1,04590818363273"
"1011","3,19960079840319","0,199600798403194","-25,8003992015968","-1,1187624750499","1,99101796407186","-1,04590818363273"
"1011","3,19960079840319","0,199600798403194","-25,8003992015968","-2,1187624750499","0,991017964071856","-0,0459081836327345"
"1011","2,19960079840319","-0,800399201596806","-27,8003992015968","-2,1187624750499","0,991017964071856","-0,0459081836327345"
"1011","2,19960079840319","-0,800399201596806","-27,8003992015968","-3,1187624750499","-0,00898203592814371","-0,0459081836327345"
"1011","2,19960079840319","0,199600798403194","-28,8003992015968","-3,1187624750499","-0,00898203592814371","-0,0459081836327345"
"1011","2,19960079840319","0,199600798403194","-28,8003992015968","-2,1187624750499","2,99101796407186","1,95409181636727"
"1011","3,19960079840319","1,19960079840319","-27,8003992015968","-2,1187624750499","2,99101796407186","1,95409181636727"
"1011","3,19960079840319","1,19960079840319","-27,8003992015968","2,8812375249501","0,991017964071856","-0,0459081836327345"
"1011","3,19960079840319","1,19960079840319","-25,8003992015968","2,8812375249501","0,991017964071856","-0,0459081836327345"
"1011","3,19960079840319","1,19960079840319","-25,8003992015968","2,8812375249501","0,991017964071856","-0,0459081836327345"
"1011","3,19960079840319","1,19960079840319","-26,8003992015968","2,8812375249501","0,991017964071856","-0,0459081836327345"
"1011","3,19960079840319","1,19960079840319","-26,8003992015968","-1,1187624750499","0,991017964071856","-1,04590818363273"
"1011","4,19960079840319","0,199600798403194","-29,8003992015968","-1,1187624750499","0,991017964071856","-1,04590818363273"
"1011","4,19960079840319","0,199600798403194","-29,8003992015968","-1,1187624750499","-0,00898203592814371","-2,04590818363273"
"1011","4,19960079840319","-0,800399201596806","-28,8003992015968","-1,1187624750499","-0,00898203592814371","-2,04590818363273"
"1011","4,19960079840319","-0,800399201596806","-28,8003992015968","-1,1187624750499","-0,00898203592814371","-2,04590818363273"
"1011","4,19960079840319","1,19960079840319","-26,8003992015968","-1,1187624750499","-0,00898203592814371","-2,04590818363273"
"1011","4,19960079840319","1,19960079840319","-26,8003992015968","-1,1187624750499","-0,00898203592814371","-0,0459081836327345"
"1011","4,19960079840319","1,19960079840319","-26,8003992015968","-1,1187624750499","-0,00898203592814371","-0,0459081836327345"
"1011","4,19960079840319","1,19960079840319","-26,8003992015968","-1,1187624750499","-0,00898203592814371","-0,0459081836327345"
"1011","6,19960079840319","0,199600798403194","-28,8003992015968","-1,1187624750499","-0,00898203592814371","-0,0459081836327345"
"1011","6,19960079840319","0,199600798403194","-28,8003992015968","-1,1187624750499","1,99101796407186","0,954091816367265"
"1012","1,19960079840319","1,19960079840319","-28,8003992015968","-1,1187624750499","1,99101796407186","0,954091816367265"
"1012","1,19960079840319","1,19960079840319","-28,8003992015968","-1,1187624750499","1,99101796407186","0,954091816367265"
"1012","3,19960079840319","4,19960079840319","-26,8003992015968","-1,1187624750499","1,99101796407186","0,954091816367265"
"1012","3,19960079840319","4,19960079840319","-26,8003992015968","-0,1187624750499","1,99101796407186","-0,0459081836327345"
"1012","3,19960079840319","-0,800399201596806","-29,8003992015968","-0,1187624750499","1,99101796407186","-0,0459081836327345"
"1012","3,19960079840319","-0,800399201596806","-29,8003992015968","-2,1187624750499","0,991017964071856","-2,04590818363273"
"1012","3,19960079840319","-0,800399201596806","-29,8003992015968","-2,1187624750499","0,991017964071856","-2,04590818363273"
"1012","3,19960079840319","-0,800399201596806","-29,8003992015968","-2,1187624750499","0,991017964071856","-2,04590818363273"
"1012","3,19960079840319","0,199600798403194","-26,8003992015968","-2,1187624750499","0,991017964071856","-2,04590818363273"
"1012","3,19960079840319","0,199600798403194","-26,8003992015968","-0,1187624750499","-2,00898203592814","-0,0459081836327345"
"1012","5,19960079840319","1,19960079840319","-28,8003992015968","-0,1187624750499","-2,00898203592814","-0,0459081836327345"
"1012","5,19960079840319","1,19960079840319","-28,8003992015968","2,8812375249501","-1,00898203592814","-2,04590818363273"
"1012","5,19960079840319","1,19960079840319","-26,8003992015968","2,8812375249501","-1,00898203592814","-2,04590818363273"
"1012","5,19960079840319","1,19960079840319","-26,8003992015968","1,8812375249501","-2,00898203592814","-2,04590818363273"
"1012","4,19960079840319","0,199600798403194","-27,8003992015968","1,8812375249501","-2,00898203592814","-2,04590818363273"
"1012","4,19960079840319","0,199600798403194","-27,8003992015968","0,8812375249501","-2,00898203592814","-1,04590818363273"
"1012","4,19960079840319","0,199600798403194","-27,8003992015968","0,8812375249501","-2,00898203592814","-1,04590818363273"
"1012","4,19960079840319","0,199600798403194","-27,8003992015968","0,8812375249501","0,991017964071856","0,954091816367265"
"1012","6,19960079840319","0,199600798403194","-27,8003992015968","0,8812375249501","0,991017964071856","0,954091816367265"
"1012","6,19960079840319","0,199600798403194","-27,8003992015968","0,8812375249501","-2,00898203592814","-0,0459081836327345"
"1012","3,19960079840319","-1,80039920159681","-28,8003992015968","0,8812375249501","-2,00898203592814","-0,0459081836327345"
"1012","3,19960079840319","-1,80039920159681","-28,8003992015968","-1,1187624750499","0,991017964071856","2,95409181636727"
"1012","3,19960079840319","0,199600798403194","-27,8003992015968","-1,1187624750499","0,991017964071856","2,95409181636727"
"1013","3,19960079840319","0,199600798403194","-27,8003992015968","-0,1187624750499","-1,00898203592814","0,954091816367265"
"1013","4,19960079840319","1,19960079840319","-27,8003992015968","-0,1187624750499","-1,00898203592814","0,954091816367265"
"1013","4,19960079840319","1,19960079840319","-27,8003992015968","0,8812375249501","0,991017964071856","1,95409181636727"
"1013","4,19960079840319","1,19960079840319","-27,8003992015968","0,8812375249501","0,991017964071856","1,95409181636727"
"1013","4,19960079840319","1,19960079840319","-27,8003992015968","1,8812375249501","-1,00898203592814","-0,0459081836327345"
"1013","3,19960079840319","0,199600798403194","-24,8003992015968","1,8812375249501","-1,00898203592814","-0,0459081836327345"
"1013","3,19960079840319","0,199600798403194","-24,8003992015968","-0,1187624750499","-0,00898203592814371","-1,04590818363273"
"1013","4,19960079840319","1,19960079840319","-28,8003992015968","-0,1187624750499","-0,00898203592814371","-1,04590818363273"
"1013","4,19960079840319","1,19960079840319","-28,8003992015968","-0,1187624750499","-1,00898203592814","0,954091816367265"
"1013","5,19960079840319","1,19960079840319","-26,8003992015968","-0,1187624750499","-1,00898203592814","0,954091816367265"
"1013","5,19960079840319","1,19960079840319","-26,8003992015968","1,8812375249501","0,991017964071856","-2,04590818363273"
"1013","6,19960079840319","0,199600798403194","-27,8003992015968","1,8812375249501","0,991017964071856","-2,04590818363273"
"1013","6,19960079840319","0,199600798403194","-27,8003992015968","-0,1187624750499","-2,00898203592814","-1,04590818363273"
"1013","6,19960079840319","0,199600798403194","-27,8003992015968","-0,1187624750499","-2,00898203592814","-1,04590818363273"
"1013","6,19960079840319","0,199600798403194","-27,8003992015968","-1,1187624750499","-4,00898203592814","-1,04590818363273"
"1013","2,19960079840319","1,19960079840319","-27,8003992015968","-1,1187624750499","-4,00898203592814","-1,04590818363273"
"1013","2,19960079840319","1,19960079840319","-27,8003992015968","-1,1187624750499","-2,00898203592814","0,954091816367265"
"1013","4,19960079840319","1,19960079840319","-28,8003992015968","-1,1187624750499","-2,00898203592814","0,954091816367265"
"1013","4,19960079840319","1,19960079840319","-28,8003992015968","1,8812375249501","-2,00898203592814","1,95409181636727"
"1013","4,19960079840319","-0,800399201596806","-26,8003992015968","1,8812375249501","-2,00898203592814","1,95409181636727"
"1013","4,19960079840319","-0,800399201596806","-26,8003992015968","2,8812375249501","-3,00898203592814","-0,0459081836327345"
"1013","2,19960079840319","2,19960079840319","-27,8003992015968","2,8812375249501","-3,00898203592814","-0,0459081836327345"
"1013","2,19960079840319","2,19960079840319","-27,8003992015968","-1,1187624750499","-1,00898203592814","-1,04590818363273"
"1014","2,19960079840319","2,19960079840319","-27,8003992015968","-1,1187624750499","-1,00898203592814","-1,04590818363273"
"1014","2,19960079840319","2,19960079840319","-27,8003992015968","0,8812375249501","-0,00898203592814371","0,954091816367265"
"1014","5,19960079840319","1,19960079840319","-27,8003992015968","0,8812375249501","-0,00898203592814371","0,954091816367265"
"1014","5,19960079840319","1,19960079840319","-27,8003992015968","-0,1187624750499","-2,00898203592814","-0,0459081836327345"
"1014","3,19960079840319","1,19960079840319","-31,8003992015968","-0,1187624750499","-2,00898203592814","-0,0459081836327345"
"1014","3,19960079840319","1,19960079840319","-31,8003992015968","1,8812375249501","-2,00898203592814","-0,0459081836327345"
"1014","4,19960079840319","1,19960079840319","-26,8003992015968","1,8812375249501","-2,00898203592814","-0,0459081836327345"
"1014","4,19960079840319","1,19960079840319","-26,8003992015968","2,8812375249501","-0,00898203592814371","0,954091816367265"
"1014","4,19960079840319","1,19960079840319","-29,8003992015968","2,8812375249501","-0,00898203592814371","0,954091816367265"
"1014","4,19960079840319","1,19960079840319","-29,8003992015968","-1,1187624750499","2,99101796407186","-1,04590818363273"
"1014","4,19960079840319","1,19960079840319","-29,8003992015968","-1,1187624750499","2,99101796407186","-1,04590818363273"
"1014","4,19960079840319","1,19960079840319","-29,8003992015968","-0,1187624750499","-0,00898203592814371","0,954091816367265"
"1014","1,19960079840319","2,19960079840319","-30,8003992015968","-0,1187624750499","-0,00898203592814371","0,954091816367265"
"1014","1,19960079840319","2,19960079840319","-30,8003992015968","0,8812375249501","-2,00898203592814","0,954091816367265"
"1014","1,19960079840319","1,19960079840319","-31,8003992015968","0,8812375249501","-2,00898203592814","0,954091816367265"
"1014","1,19960079840319","1,19960079840319","-31,8003992015968","0,8812375249501","-3,00898203592814","-1,04590818363273"
"1014","3,19960079840319","1,19960079840319","-25,8003992015968","0,8812375249501","-3,00898203592814","-1,04590818363273"
"1014","3,19960079840319","1,19960079840319","-25,8003992015968","-0,1187624750499","1,99101796407186","1,95409181636727"
"1014","2,19960079840319","1,19960079840319","-28,8003992015968","-0,1187624750499","1,99101796407186","1,95409181636727"
"1014","2,19960079840319","1,19960079840319","-28,8003992015968","-0,1187624750499","1,99101796407186","-1,04590818363273"
"1014","2,19960079840319","1,19960079840319","-28,8003992015968","-0,1187624750499","1,99101796407186","-1,04590818363273"
"1014","2,19960079840319","1,19960079840319","-28,8003992015968","-2,1187624750499","-5,00898203592814","1,95409181636727"
"1014","4,19960079840319","1,19960079840319","-23,8003992015968","-2,1187624750499","-5,00898203592814","1,95409181636727"
"1015","4,19960079840319","1,19960079840319","-23,8003992015968","-2,1187624750499","-2,00898203592814","-1,04590818363273"
"1015","1,19960079840319","3,19960079840319","-31,8003992015968","-2,1187624750499","-2,00898203592814","-1,04590818363273"
"1015","1,19960079840319","3,19960079840319","-31,8003992015968","-1,1187624750499","-2,00898203592814","2,95409181636727"
"1015","3,19960079840319","-3,80039920159681","-27,8003992015968","-1,1187624750499","-2,00898203592814","2,95409181636727"
"1015","3,19960079840319","-3,80039920159681","-27,8003992015968","-4,1187624750499","-2,00898203592814","0,954091816367265"
"1015","3,19960079840319","1,19960079840319","-25,8003992015968","-4,1187624750499","-2,00898203592814","0,954091816367265"
"1015","3,19960079840319","1,19960079840319","-25,8003992015968","-1,1187624750499","-3,00898203592814","-0,0459081836327345"
"1015","3,19960079840319","1,19960079840319","-25,8003992015968","-1,1187624750499","-3,00898203592814","-0,0459081836327345"
"1015","3,19960079840319","1,19960079840319","-25,8003992015968","0,8812375249501","-2,00898203592814","-0,0459081836327345"
"1015","1,19960079840319","1,19960079840319","-26,8003992015968","0,8812375249501","-2,00898203592814","-0,0459081836327345"
"1015","1,19960079840319","1,19960079840319","-26,8003992015968","-0,1187624750499","-1,00898203592814","0,954091816367265"
"1015","4,19960079840319","-1,80039920159681","-30,8003992015968","-0,1187624750499","-1,00898203592814","0,954091816367265"
"1015","4,19960079840319","-1,80039920159681","-30,8003992015968","1,8812375249501","-0,00898203592814371","-1,04590818363273"
"1015","4,19960079840319","-2,80039920159681","-25,8003992015968","1,8812375249501","-0,00898203592814371","-1,04590818363273"
"1015","4,19960079840319","-2,80039920159681","-25,8003992015968","2,8812375249501","-3,00898203592814","-1,04590818363273"
"1015","2,19960079840319","3,19960079840319","-25,8003992015968","2,8812375249501","-3,00898203592814","-1,04590818363273"
"1015","2,19960079840319","3,19960079840319","-25,8003992015968","0,8812375249501","-1,00898203592814","-0,0459081836327345"
"1015","2,19960079840319","3,19960079840319","-25,8003992015968","0,8812375249501","-1,00898203592814","-0,0459081836327345"
"1015","2,19960079840319","3,19960079840319","-25,8003992015968","1,8812375249501","-0,00898203592814371","-1,04590818363273"
"1015","2,19960079840319","-5,80039920159681","-26,8003992015968","1,8812375249501","-0,00898203592814371","-1,04590818363273"
"1015","2,19960079840319","-5,80039920159681","-26,8003992015968","2,8812375249501","-0,00898203592814371","-2,04590818363273"
"1015","2,19960079840319","0,199600798403194","-25,8003992015968","2,8812375249501","-0,00898203592814371","-2,04590818363273"
"1015","2,19960079840319","0,199600798403194","-25,8003992015968","-3,1187624750499","0,991017964071856","1,95409181636727"
"1016","2,19960079840319","2,19960079840319","-28,8003992015968","-3,1187624750499","0,991017964071856","1,95409181636727"
"1016","2,19960079840319","2,19960079840319","-28,8003992015968","-1,1187624750499","-1,00898203592814","0,954091816367265"
"1016","4,19960079840319","-2,80039920159681","-25,8003992015968","-1,1187624750499","-1,00898203592814","0,954091816367265"
"1016","4,19960079840319","-2,80039920159681","-25,8003992015968","2,8812375249501","-2,00898203592814","-0,0459081836327345"
"1016","4,19960079840319","-2,80039920159681","-25,8003992015968","2,8812375249501","-2,00898203592814","-0,0459081836327345"
"1016","4,19960079840319","-2,80039920159681","-25,8003992015968","-4,1187624750499","-5,00898203592814","1,95409181636727"
"1016","4,19960079840319","0,199600798403194","-26,8003992015968","-4,1187624750499","-5,00898203592814","1,95409181636727"
"1016","4,19960079840319","0,199600798403194","-26,8003992015968","-0,1187624750499","-3,00898203592814","-1,04590818363273"
"1016","2,19960079840319","3,19960079840319","-29,8003992015968","-0,1187624750499","-3,00898203592814","-1,04590818363273"
"1016","2,19960079840319","3,19960079840319","-29,8003992015968","-1,1187624750499","-1,00898203592814","-0,0459081836327345"
"1016","2,19960079840319","1,19960079840319","-28,8003992015968","-1,1187624750499","-1,00898203592814","-0,0459081836327345"
"1016","2,19960079840319","1,19960079840319","-28,8003992015968","-1,1187624750499","-1,00898203592814","-1,04590818363273"
"1016","2,19960079840319","0,199600798403194","-26,8003992015968","-1,1187624750499","-1,00898203592814","-1,04590818363273"
"1016","2,19960079840319","0,199600798403194","-26,8003992015968","1,8812375249501","-2,00898203592814","-0,0459081836327345"
"1016","2,19960079840319","0,199600798403194","-26,8003992015968","1,8812375249501","-2,00898203592814","-0,0459081836327345"
"1016","2,19960079840319","0,199600798403194","-26,8003992015968","-3,1187624750499","0,991017964071856","-1,04590818363273"
"1016","3,19960079840319","1,19960079840319","-28,8003992015968","-3,1187624750499","0,991017964071856","-1,04590818363273"
"1016","3,19960079840319","1,19960079840319","-28,8003992015968","-1,1187624750499","0,991017964071856","-0,0459081836327345"
"1016","4,19960079840319","-1,80039920159681","-26,8003992015968","-1,1187624750499","0,991017964071856","-0,0459081836327345"
"1016","4,19960079840319","-1,80039920159681","-26,8003992015968","-3,1187624750499","0,991017964071856","0,954091816367265"
"1016","5,19960079840319","1,19960079840319","-27,8003992015968","-3,1187624750499","0,991017964071856","0,954091816367265"
"1017","5,19960079840319","1,19960079840319","-27,8003992015968","-2,1187624750499","-0,00898203592814371","0,954091816367265"
"1017","5,19960079840319","1,19960079840319","-25,8003992015968","-2,1187624750499","-0,00898203592814371","0,954091816367265"
"1017","5,19960079840319","1,19960079840319","-25,8003992015968","1,8812375249501","1,99101796407186","0,954091816367265"
"1017","5,19960079840319","1,19960079840319","-25,8003992015968","1,8812375249501","1,99101796407186","0,954091816367265"
"1017","5,19960079840319","1,19960079840319","-25,8003992015968","0,8812375249501","0,991017964071856","0,954091816367265"
"1017","4,19960079840319","1,19960079840319","-25,8003992015968","0,8812375249501","0,991017964071856","0,954091816367265"
"1017","4,19960079840319","1,19960079840319","-25,8003992015968","-1,1187624750499","-0,00898203592814371","-1,04590818363273"
"1017","1,19960079840319","1,19960079840319","-26,8003992015968","-1,1187624750499","-0,00898203592814371","-1,04590818363273"
"1017","1,19960079840319","1,19960079840319","-26,8003992015968","0,8812375249501","-1,00898203592814","-1,04590818363273"
"1017","1,19960079840319","0,199600798403194","-27,8003992015968","0,8812375249501","-1,00898203592814","-1,04590818363273"
"1017","1,19960079840319","0,199600798403194","-27,8003992015968","1,8812375249501","0,991017964071856","-1,04590818363273"
"1017","2,19960079840319","0,199600798403194","-24,8003992015968","1,8812375249501","0,991017964071856","-1,04590818363273"
"1017","2,19960079840319","0,199600798403194","-24,8003992015968","1,8812375249501","-2,00898203592814","-0,0459081836327345"
"1017","2,19960079840319","0,199600798403194","-24,8003992015968","1,8812375249501","-2,00898203592814","-0,0459081836327345"
"1017","2,19960079840319","0,199600798403194","-24,8003992015968","1,8812375249501","-2,00898203592814","-0,0459081836327345"
"1017","3,19960079840319","1,19960079840319","-27,8003992015968","1,8812375249501","-2,00898203592814","-0,0459081836327345"
"1017","3,19960079840319","1,19960079840319","-27,8003992015968","-0,1187624750499","0,991017964071856","0,954091816367265"
"1017","3,19960079840319","0,199600798403194","-28,8003992015968","-0,1187624750499","0,991017964071856","0,954091816367265"
"1017","3,19960079840319","0,199600798403194","-28,8003992015968","-3,1187624750499","-0,00898203592814371","-3,04590818363273"
"1017","1,19960079840319","-0,800399201596806","-27,8003992015968","-3,1187624750499","-0,00898203592814371","-3,04590818363273"
"1017","1,19960079840319","-0,800399201596806","-27,8003992015968","0,8812375249501","-1,00898203592814","-1,04590818363273"
"1017","5,19960079840319","1,19960079840319","-25,8003992015968","0,8812375249501","-1,00898203592814","-1,04590818363273"
"1018","5,19960079840319","1,19960079840319","-25,8003992015968","-0,1187624750499","-3,00898203592814","-1,04590818363273"
"1018","5,19960079840319","1,19960079840319","-25,8003992015968","-0,1187624750499","-3,00898203592814","-1,04590818363273"
"1018","5,19960079840319","1,19960079840319","-25,8003992015968","2,8812375249501","-3,00898203592814","0,954091816367265"
"1018","1,19960079840319","1,19960079840319","-25,8003992015968","2,8812375249501","-3,00898203592814","0,954091816367265"
"1018","1,19960079840319","1,19960079840319","-25,8003992015968","0,8812375249501","-3,00898203592814","1,95409181636727"
"1018","3,19960079840319","1,19960079840319","-29,8003992015968","0,8812375249501","-3,00898203592814","1,95409181636727"
"1018","3,19960079840319","1,19960079840319","-29,8003992015968","0,8812375249501","-1,00898203592814","0,954091816367265"
"1018","2,19960079840319","1,19960079840319","-28,8003992015968","0,8812375249501","-1,00898203592814","0,954091816367265"
"1018","2,19960079840319","1,19960079840319","-28,8003992015968","1,8812375249501","0,991017964071856","1,95409181636727"
"1018","4,19960079840319","0,199600798403194","-25,8003992015968","1,8812375249501","0,991017964071856","1,95409181636727"
"1018","4,19960079840319","0,199600798403194","-25,8003992015968","-0,1187624750499","-3,00898203592814","-1,04590818363273"
"1018","4,19960079840319","0,199600798403194","-25,8003992015968","-0,1187624750499","-3,00898203592814","-1,04590818363273"
"1018","4,19960079840319","0,199600798403194","-25,8003992015968","0,8812375249501","-0,00898203592814371","-2,04590818363273"
"1018","5,19960079840319","0,199600798403194","-27,8003992015968","0,8812375249501","-0,00898203592814371","-2,04590818363273"
"1018","5,19960079840319","0,199600798403194","-27,8003992015968","1,8812375249501","1,99101796407186","-0,0459081836327345"
"1018","4,19960079840319","-0,800399201596806","-29,8003992015968","1,8812375249501","1,99101796407186","-0,0459081836327345"
"1018","4,19960079840319","-0,800399201596806","-29,8003992015968","2,8812375249501","-1,00898203592814","-1,04590818363273"
"1018","1,19960079840319","-0,800399201596806","-27,8003992015968","2,8812375249501","-1,00898203592814","-1,04590818363273"
"1018","1,19960079840319","-0,800399201596806","-27,8003992015968","-2,1187624750499","-0,00898203592814371","-0,0459081836327345"
"1018","3,19960079840319","1,19960079840319","-28,8003992015968","-2,1187624750499","-0,00898203592814371","-0,0459081836327345"
"1018","3,19960079840319","1,19960079840319","-28,8003992015968","-0,1187624750499","-0,00898203592814371","1,95409181636727"
"1018","3,19960079840319","1,19960079840319","-28,8003992015968","-0,1187624750499","-0,00898203592814371","1,95409181636727"
"1019","3,19960079840319","1,19960079840319","-28,8003992015968","-3,1187624750499","-1,00898203592814","-0,0459081836327345"
"1019","1,19960079840319","-0,800399201596806","-27,8003992015968","-3,1187624750499","-1,00898203592814","-0,0459081836327345"
"1019","1,19960079840319","-0,800399201596806","-27,8003992015968","-1,1187624750499","-2,00898203592814","-2,04590818363273"
"1019","3,19960079840319","1,19960079840319","-28,8003992015968","-1,1187624750499","-2,00898203592814","-2,04590818363273"
"1019","3,19960079840319","1,19960079840319","-28,8003992015968","-0,1187624750499","-0,00898203592814371","-1,04590818363273"
"1019","4,19960079840319","-0,800399201596806","-27,8003992015968","-0,1187624750499","-0,00898203592814371","-1,04590818363273"
"1019","4,19960079840319","-0,800399201596806","-27,8003992015968","5,8812375249501","1,99101796407186","0,954091816367265"
"1019","3,19960079840319","0,199600798403194","-25,8003992015968","5,8812375249501","1,99101796407186","0,954091816367265"
"1019","3,19960079840319","0,199600798403194","-25,8003992015968","-1,1187624750499","-0,00898203592814371","-2,04590818363273"
"1019","3,19960079840319","0,199600798403194","-25,8003992015968","-1,1187624750499","-0,00898203592814371","-2,04590818363273"
"1019","3,19960079840319","0,199600798403194","-25,8003992015968","-1,1187624750499","0,991017964071856","-2,04590818363273"
"1019","4,19960079840319","1,19960079840319","-28,8003992015968","-1,1187624750499","0,991017964071856","-2,04590818363273"
"1019","4,19960079840319","1,19960079840319","-28,8003992015968","1,8812375249501","-1,00898203592814","1,95409181636727"
"1019","4,19960079840319","1,19960079840319","-29,8003992015968","1,8812375249501","-1,00898203592814","1,95409181636727"
"1019","4,19960079840319","1,19960079840319","-29,8003992015968","2,8812375249501","0,991017964071856","-1,04590818363273"
"1019","3,19960079840319","1,19960079840319","-27,8003992015968","2,8812375249501","0,991017964071856","-1,04590818363273"
"1019","3,19960079840319","1,19960079840319","-27,8003992015968","1,8812375249501","-0,00898203592814371","2,95409181636727"
"1019","4,19960079840319","2,19960079840319","-28,8003992015968","1,8812375249501","-0,00898203592814371","2,95409181636727"
"1019","4,19960079840319","2,19960079840319","-28,8003992015968","-2,1187624750499","0,991017964071856","-0,0459081836327345"
"1019","4,19960079840319","2,19960079840319","-28,8003992015968","-2,1187624750499","0,991017964071856","-0,0459081836327345"
"1019","4,19960079840319","2,19960079840319","-28,8003992015968","-0,1187624750499","-1,00898203592814","0,954091816367265"
"1019","3,19960079840319","-2,80039920159681","-27,8003992015968","-0,1187624750499","-1,00898203592814","0,954091816367265"
"1020","3,19960079840319","-2,80039920159681","-27,8003992015968","-0,1187624750499","-1,00898203592814","-0,0459081836327345"
"1020","6,19960079840319","1,19960079840319","-26,8003992015968","-0,1187624750499","-1,00898203592814","-0,0459081836327345"
"1020","6,19960079840319","1,19960079840319","-26,8003992015968","-0,1187624750499","-1,00898203592814","1,95409181636727"
"1020","3,19960079840319","1,19960079840319","-26,8003992015968","-0,1187624750499","-1,00898203592814","1,95409181636727"
"1020","3,19960079840319","1,19960079840319","-26,8003992015968","-1,1187624750499","-0,00898203592814371","-0,0459081836327345"
"1020","4,19960079840319","-0,800399201596806","-27,8003992015968","-1,1187624750499","-0,00898203592814371","-0,0459081836327345"
"1020","4,19960079840319","-0,800399201596806","-27,8003992015968","-3,1187624750499","-0,00898203592814371","-1,04590818363273"
"1020","4,19960079840319","-0,800399201596806","-27,8003992015968","-3,1187624750499","-0,00898203592814371","-1,04590818363273"
"1020","4,19960079840319","-0,800399201596806","-27,8003992015968","-4,1187624750499","-1,00898203592814","-0,0459081836327345"
"1020","2,19960079840319","0,199600798403194","-26,8003992015968","-4,1187624750499","-1,00898203592814","-0,0459081836327345"
"1020","2,19960079840319","0,199600798403194","-26,8003992015968","-1,1187624750499","0,991017964071856","0,954091816367265"
"1020","3,19960079840319","1,19960079840319","-29,8003992015968","-1,1187624750499","0,991017964071856","0,954091816367265"
"1020","3,19960079840319","1,19960079840319","-29,8003992015968","-3,1187624750499","-2,00898203592814","-1,04590818363273"
"1020","4,19960079840319","-2,80039920159681","-29,8003992015968","-3,1187624750499","-2,00898203592814","-1,04590818363273"
"1020","4,19960079840319","-2,80039920159681","-29,8003992015968","-1,1187624750499","2,99101796407186","-1,04590818363273"
"1020","4,19960079840319","3,19960079840319","-25,8003992015968","-1,1187624750499","2,99101796407186","-1,04590818363273"
"1020","4,19960079840319","3,19960079840319","-25,8003992015968","-1,1187624750499","-0,00898203592814371","-0,0459081836327345"
"1020","4,19960079840319","3,19960079840319","-25,8003992015968","-1,1187624750499","-0,00898203592814371","-0,0459081836327345"
"1020","4,19960079840319","3,19960079840319","-25,8003992015968","-1,1187624750499","-1,00898203592814","-0,0459081836327345"
"1020","4,19960079840319","-1,80039920159681","-25,8003992015968","-1,1187624750499","-1,00898203592814","-0,0459081836327345"
"1020","4,19960079840319","-1,80039920159681","-25,8003992015968","-3,1187624750499","-0,00898203592814371","0,954091816367265"
"1020","6,19960079840319","-0,800399201596806","-28,8003992015968","-3,1187624750499","-0,00898203592814371","0,954091816367265"
"1021","6,19960079840319","-0,800399201596806","-28,8003992015968","-2,1187624750499","-2,00898203592814","-0,0459081836327345"
"1021","2,19960079840319","2,19960079840319","-27,8003992015968","-2,1187624750499","-2,00898203592814","-0,0459081836327345"
"1021","2,19960079840319","2,19960079840319","-27,8003992015968","-1,1187624750499","-3,00898203592814","0,954091816367265"
"1021","2,19960079840319","2,19960079840319","-27,8003992015968","-1,1187624750499","-3,00898203592814","0,954091816367265"
"1021","2,19960079840319","2,19960079840319","-27,8003992015968","0,8812375249501","1,99101796407186","-0,0459081836327345"
"1021","1,19960079840319","3,19960079840319","-25,8003992015968","0,8812375249501","1,99101796407186","-0,0459081836327345"
"1021","1,19960079840319","3,19960079840319","-25,8003992015968","-0,1187624750499","-0,00898203592814371","-0,0459081836327345"
"1021","3,19960079840319","0,199600798403194","-25,8003992015968","-0,1187624750499","-0,00898203592814371","-0,0459081836327345"
"1021","3,19960079840319","0,199600798403194","-25,8003992015968","-0,1187624750499","3,99101796407186","0,954091816367265"
"1021","4,19960079840319","1,19960079840319","-29,8003992015968","-0,1187624750499","3,99101796407186","0,954091816367265"
"1021","4,19960079840319","1,19960079840319","-29,8003992015968","-0,1187624750499","0,991017964071856","-0,0459081836327345"
"1021","4,19960079840319","1,19960079840319","-29,8003992015968","-0,1187624750499","0,991017964071856","-0,0459081836327345"
"1021","4,19960079840319","1,19960079840319","-29,8003992015968","0,8812375249501","-1,00898203592814","0,954091816367265"
"1021","1,19960079840319","-0,800399201596806","-26,8003992015968","0,8812375249501","-1,00898203592814","0,954091816367265"
"1021","1,19960079840319","-0,800399201596806","-26,8003992015968","0,8812375249501","-2,00898203592814","-2,04590818363273"
"1021","1,19960079840319","-0,800399201596806","-26,8003992015968","0,8812375249501","-2,00898203592814","-2,04590818363273"
"1021","1,19960079840319","-0,800399201596806","-26,8003992015968","-1,1187624750499","-1,00898203592814","-1,04590818363273"
"1021","1,19960079840319","-0,800399201596806","-27,8003992015968","-1,1187624750499","-1,00898203592814","-1,04590818363273"
"1021","1,19960079840319","-0,800399201596806","-27,8003992015968","0,8812375249501","-1,00898203592814","0,954091816367265"
"1021","1,19960079840319","-0,800399201596806","-27,8003992015968","0,8812375249501","-1,00898203592814","0,954091816367265"
"1021","1,19960079840319","-0,800399201596806","-27,8003992015968","-0,1187624750499","0,991017964071856","1,95409181636727"
"1021","1,19960079840319","1,19960079840319","-29,8003992015968","-0,1187624750499","0,991017964071856","1,95409181636727"
"1021","1,19960079840319","1,19960079840319","-29,8003992015968","-1,1187624750499","0,991017964071856","0,954091816367265"
"1022","3,19960079840319","1,19960079840319","-27,8003992015968","-1,1187624750499","0,991017964071856","0,954091816367265"
"1022","3,19960079840319","1,19960079840319","-27,8003992015968","0,8812375249501","0,991017964071856","-0,0459081836327345"
"1022","3,19960079840319","1,19960079840319","-27,8003992015968","0,8812375249501","0,991017964071856","-0,0459081836327345"
"1022","3,19960079840319","1,19960079840319","-27,8003992015968","-2,1187624750499","-1,00898203592814","2,95409181636727"
"1022","3,19960079840319","-0,800399201596806","-24,8003992015968","-2,1187624750499","-1,00898203592814","2,95409181636727"
"1022","3,19960079840319","-0,800399201596806","-24,8003992015968","1,8812375249501","-1,00898203592814","-0,0459081836327345"
"1022","4,19960079840319","1,19960079840319","-25,8003992015968","1,8812375249501","-1,00898203592814","-0,0459081836327345"
"1022","4,19960079840319","1,19960079840319","-25,8003992015968","1,8812375249501","0,991017964071856","0,954091816367265"
"1022","1,19960079840319","4,19960079840319","-32,8003992015968","1,8812375249501","0,991017964071856","0,954091816367265"
"1022","1,19960079840319","4,19960079840319","-32,8003992015968","1,8812375249501","-1,00898203592814","0,954091816367265"
"1022","1,19960079840319","-7,80039920159681","-29,8003992015968","1,8812375249501","-1,00898203592814","0,954091816367265"
"1022","1,19960079840319","-7,80039920159681","-29,8003992015968","-0,1187624750499","-2,00898203592814","0,954091816367265"
"1022","1,19960079840319","-7,80039920159681","-29,8003992015968","-0,1187624750499","-2,00898203592814","0,954091816367265"
"1022","1,19960079840319","-7,80039920159681","-29,8003992015968","-2,1187624750499","-0,00898203592814371","0,954091816367265"
"1022","2,19960079840319","6,19960079840319","-27,8003992015968","-2,1187624750499","-0,00898203592814371","0,954091816367265"
"1022","2,19960079840319","6,19960079840319","-27,8003992015968","1,8812375249501","-1,00898203592814","-1,04590818363273"
"1022","3,19960079840319","6,19960079840319","-30,8003992015968","1,8812375249501","-1,00898203592814","-1,04590818363273"
"1022","3,19960079840319","6,19960079840319","-30,8003992015968","-3,1187624750499","0,991017964071856","-2,04590818363273"
"1022","6,19960079840319","-3,80039920159681","-30,8003992015968","-3,1187624750499","0,991017964071856","-2,04590818363273"
"1022","6,19960079840319","-3,80039920159681","-30,8003992015968","-4,1187624750499","0,991017964071856","1,95409181636727"
"1022","1,19960079840319","6,19960079840319","-28,8003992015968","-4,1187624750499","0,991017964071856","1,95409181636727"
"1022","1,19960079840319","6,19960079840319","-28,8003992015968","2,8812375249501","-2,00898203592814","0,954091816367265"
"1022","1,19960079840319","6,19960079840319","-28,8003992015968","2,8812375249501","-2,00898203592814","0,954091816367265"
"1023","1,19960079840319","6,19960079840319","-28,8003992015968","3,8812375249501","-2,00898203592814","1,95409181636727"
"1023","2,19960079840319","5,19960079840319","-28,8003992015968","3,8812375249501","-2,00898203592814","1,95409181636727"
"1023","2,19960079840319","5,19960079840319","-28,8003992015968","0,8812375249501","0,991017964071856","-0,0459081836327345"
"1023","7,19960079840319","0,199600798403194","-25,8003992015968","0,8812375249501","0,991017964071856","-0,0459081836327345"
"1023","7,19960079840319","0,199600798403194","-25,8003992015968","-0,1187624750499","-1,00898203592814","0,954091816367265"
"1023","4,19960079840319","3,19960079840319","-27,8003992015968","-0,1187624750499","-1,00898203592814","0,954091816367265"
"1023","4,19960079840319","3,19960079840319","-27,8003992015968","-1,1187624750499","0,991017964071856","0,954091816367265"
"1023","1,19960079840319","7,19960079840319","-30,8003992015968","-1,1187624750499","0,991017964071856","0,954091816367265"
"1023","1,19960079840319","7,19960079840319","-30,8003992015968","4,8812375249501","0,991017964071856","0,954091816367265"
"1023","4,19960079840319","1,19960079840319","-23,8003992015968","4,8812375249501","0,991017964071856","0,954091816367265"
"1023","4,19960079840319","1,19960079840319","-23,8003992015968","-1,1187624750499","-1,00898203592814","-0,0459081836327345"
"1023","4,19960079840319","2,19960079840319","-27,8003992015968","-1,1187624750499","-1,00898203592814","-0,0459081836327345"
"1023","4,19960079840319","2,19960079840319","-27,8003992015968","0,8812375249501","-0,00898203592814371","-1,04590818363273"
"1023","2,19960079840319","0,199600798403194","-28,8003992015968","0,8812375249501","-0,00898203592814371","-1,04590818363273"
"1023","2,19960079840319","0,199600798403194","-28,8003992015968","-2,1187624750499","-2,00898203592814","-2,04590818363273"
"1023","3,19960079840319","-4,80039920159681","-26,8003992015968","-2,1187624750499","-2,00898203592814","-2,04590818363273"
"1023","3,19960079840319","-4,80039920159681","-26,8003992015968","-1,1187624750499","0,991017964071856","-1,04590818363273"
"1023","5,19960079840319","6,19960079840319","-29,8003992015968","-1,1187624750499","0,991017964071856","-1,04590818363273"
"1023","5,19960079840319","6,19960079840319","-29,8003992015968","0,8812375249501","0,991017964071856","-1,04590818363273"
"1023","3,19960079840319","-0,800399201596806","-27,8003992015968","0,8812375249501","0,991017964071856","-1,04590818363273"
"1023","3,19960079840319","-0,800399201596806","-27,8003992015968","3,8812375249501","-1,00898203592814","-2,04590818363273"
"1023","4,19960079840319","-3,80039920159681","-27,8003992015968","3,8812375249501","-1,00898203592814","-2,04590818363273"
"1023","4,19960079840319","-3,80039920159681","-27,8003992015968","-0,1187624750499","-1,00898203592814","-0,0459081836327345"
"1024","2,19960079840319","1,19960079840319","-27,8003992015968","-0,1187624750499","-1,00898203592814","-0,0459081836327345"
"1024","2,19960079840319","1,19960079840319","-27,8003992015968","0,8812375249501","0,991017964071856","-2,04590818363273"
"1024","4,19960079840319","-1,80039920159681","-28,8003992015968","0,8812375249501","0,991017964071856","-2,04590818363273"
"1024","4,19960079840319","-1,80039920159681","-28,8003992015968","2,8812375249501","1,99101796407186","0,954091816367265"
"1024","6,19960079840319","1,19960079840319","-31,8003992015968","2,8812375249501","1,99101796407186","0,954091816367265"
"1024","6,19960079840319","1,19960079840319","-31,8003992015968","-0,1187624750499","-0,00898203592814371","-0,0459081836327345"
"1024","5,19960079840319","1,19960079840319","-24,8003992015968","-0,1187624750499","-0,00898203592814371","-0,0459081836327345"
"1024","5,19960079840319","1,19960079840319","-24,8003992015968","-0,1187624750499","-0,00898203592814371","-0,0459081836327345"
"1024","3,19960079840319","2,19960079840319","-26,8003992015968","-0,1187624750499","-0,00898203592814371","-0,0459081836327345"
"1024","3,19960079840319","2,19960079840319","-26,8003992015968","0,8812375249501","2,99101796407186","-0,0459081836327345"
"1024","4,19960079840319","3,19960079840319","-28,8003992015968","0,8812375249501","2,99101796407186","-0,0459081836327345"
"1024","4,19960079840319","3,19960079840319","-28,8003992015968","0,8812375249501","-1,00898203592814","-1,04590818363273"
"1024","2,19960079840319","-2,80039920159681","-27,8003992015968","0,8812375249501","-1,00898203592814","-1,04590818363273"
"1024","2,19960079840319","-2,80039920159681","-27,8003992015968","-2,1187624750499","-0,00898203592814371","-0,0459081836327345"
"1024","2,19960079840319","-2,80039920159681","-27,8003992015968","-2,1187624750499","-0,00898203592814371","-0,0459081836327345"
"1024","2,19960079840319","-2,80039920159681","-27,8003992015968","-0,1187624750499","0,991017964071856","0,954091816367265"
"1024","3,19960079840319","1,19960079840319","-28,8003992015968","-0,1187624750499","0,991017964071856","0,954091816367265"
"1024","3,19960079840319","1,19960079840319","-28,8003992015968","-1,1187624750499","-0,00898203592814371","-0,0459081836327345"
"1024","3,19960079840319","0,199600798403194","-27,8003992015968","-1,1187624750499","-0,00898203592814371","-0,0459081836327345"
"1024","3,19960079840319","0,199600798403194","-27,8003992015968","-0,1187624750499","1,99101796407186","0,954091816367265"
"1024","4,19960079840319","-1,80039920159681","-23,8003992015968","-0,1187624750499","1,99101796407186","0,954091816367265"
"1024","4,19960079840319","-1,80039920159681","-23,8003992015968","0,8812375249501","2,99101796407186","-0,0459081836327345"
"1024","2,19960079840319","2,19960079840319","-28,8003992015968","0,8812375249501","2,99101796407186","-0,0459081836327345"
"1025","2,19960079840319","2,19960079840319","-28,8003992015968","2,8812375249501","2,99101796407186","-0,0459081836327345"
"1025","4,19960079840319","-1,80039920159681","-27,8003992015968","2,8812375249501","2,99101796407186","-0,0459081836327345"
"1025","4,19960079840319","-1,80039920159681","-27,8003992015968","-1,1187624750499","-0,00898203592814371","-2,04590818363273"
"1025","3,19960079840319","0,199600798403194","-29,8003992015968","-1,1187624750499","-0,00898203592814371","-2,04590818363273"
"1025","3,19960079840319","0,199600798403194","-29,8003992015968","-1,1187624750499","-1,00898203592814","1,95409181636727"
"1025","1,19960079840319","1,19960079840319","-27,8003992015968","-1,1187624750499","-1,00898203592814","1,95409181636727"
"1025","1,19960079840319","1,19960079840319","-27,8003992015968","0,8812375249501","0,991017964071856","0,954091816367265"
"1025","5,19960079840319","1,19960079840319","-28,8003992015968","0,8812375249501","0,991017964071856","0,954091816367265"
"1025","5,19960079840319","1,19960079840319","-28,8003992015968","-0,1187624750499","-0,00898203592814371","1,95409181636727"
"1025","1,19960079840319","-0,800399201596806","-29,8003992015968","-0,1187624750499","-0,00898203592814371","1,95409181636727"
"1025","1,19960079840319","-0,800399201596806","-29,8003992015968","-3,1187624750499","1,99101796407186","0,954091816367265"
"1025","5,19960079840319","-0,800399201596806","-27,8003992015968","-3,1187624750499","1,99101796407186","0,954091816367265"
"1025","5,19960079840319","-0,800399201596806","-27,8003992015968","-1,1187624750499","-2,00898203592814","-0,0459081836327345"
"1025","3,19960079840319","3,19960079840319","-28,8003992015968","-1,1187624750499","-2,00898203592814","-0,0459081836327345"
"1025","3,19960079840319","3,19960079840319","-28,8003992015968","0,8812375249501","0,991017964071856","1,95409181636727"
"1025","4,19960079840319","1,19960079840319","-26,8003992015968","0,8812375249501","0,991017964071856","1,95409181636727"
"1025","4,19960079840319","1,19960079840319","-26,8003992015968","-2,1187624750499","-1,00898203592814","-1,04590818363273"
"1025","5,19960079840319","-1,80039920159681","-29,8003992015968","-2,1187624750499","-1,00898203592814","-1,04590818363273"
"1025","5,19960079840319","-1,80039920159681","-29,8003992015968","-4,1187624750499","-0,00898203592814371","-0,0459081836327345"
"1025","2,19960079840319","4,19960079840319","-27,8003992015968","-4,1187624750499","-0,00898203592814371","-0,0459081836327345"
"1025","2,19960079840319","4,19960079840319","-27,8003992015968","-2,1187624750499","1,99101796407186","-0,0459081836327345"
"1025","4,19960079840319","1,19960079840319","-29,8003992015968","-2,1187624750499","1,99101796407186","-0,0459081836327345"
"1025","4,19960079840319","1,19960079840319","-29,8003992015968","-0,1187624750499","-1,00898203592814","-1,04590818363273"
"1026","1,19960079840319","1,19960079840319","-32,8003992015968","-0,1187624750499","-1,00898203592814","-1,04590818363273"
"1026","1,19960079840319","1,19960079840319","-32,8003992015968","-0,1187624750499","-1,00898203592814","0,954091816367265"
"1026","4,19960079840319","-3,80039920159681","-25,8003992015968","-0,1187624750499","-1,00898203592814","0,954091816367265"
"1026","4,19960079840319","-3,80039920159681","-25,8003992015968","-1,1187624750499","-0,00898203592814371","-2,04590818363273"
"1026","3,19960079840319","8,19960079840319","-29,8003992015968","-1,1187624750499","-0,00898203592814371","-2,04590818363273"
"1026","3,19960079840319","8,19960079840319","-29,8003992015968","1,8812375249501","1,99101796407186","0,954091816367265"
"1026","3,19960079840319","0,199600798403194","-31,8003992015968","1,8812375249501","1,99101796407186","0,954091816367265"
"1026","3,19960079840319","0,199600798403194","-31,8003992015968","0,8812375249501","-0,00898203592814371","0,954091816367265"
"1026","6,19960079840319","-9,80039920159681","-26,8003992015968","0,8812375249501","-0,00898203592814371","0,954091816367265"
"1026","6,19960079840319","-9,80039920159681","-26,8003992015968","-2,1187624750499","-0,00898203592814371","0,954091816367265"
"1026","4,19960079840319","6,19960079840319","-28,8003992015968","-2,1187624750499","-0,00898203592814371","0,954091816367265"
"1026","4,19960079840319","6,19960079840319","-28,8003992015968","1,8812375249501","-1,00898203592814","0,954091816367265"
"1026","2,19960079840319","3,19960079840319","-27,8003992015968","1,8812375249501","-1,00898203592814","0,954091816367265"
"1026","2,19960079840319","3,19960079840319","-27,8003992015968","2,8812375249501","-5,00898203592814","-0,0459081836327345"
"1026","3,19960079840319","0,199600798403194","-27,8003992015968","2,8812375249501","-5,00898203592814","-0,0459081836327345"
"1026","3,19960079840319","0,199600798403194","-27,8003992015968","0,8812375249501","-1,00898203592814","1,95409181636727"
"1026","5,19960079840319","-3,80039920159681","-28,8003992015968","0,8812375249501","-1,00898203592814","1,95409181636727"
"1026","5,19960079840319","-3,80039920159681","-28,8003992015968","3,8812375249501","-3,00898203592814","-1,04590818363273"
"1026","2,19960079840319","0,199600798403194","-26,8003992015968","3,8812375249501","-3,00898203592814","-1,04590818363273"
"1026","2,19960079840319","0,199600798403194","-26,8003992015968","2,8812375249501","0,991017964071856","-1,04590818363273"
"1026","1,19960079840319","9,19960079840319","-29,8003992015968","2,8812375249501","0,991017964071856","-1,04590818363273"
"1026","1,19960079840319","9,19960079840319","-29,8003992015968","3,8812375249501","1,99101796407186","1,95409181636727"
"1026","4,19960079840319","1,19960079840319","-27,8003992015968","3,8812375249501","1,99101796407186","1,95409181636727"
"1027","4,19960079840319","1,19960079840319","-27,8003992015968","-0,1187624750499","-0,00898203592814371","0,954091816367265"
"1027","3,19960079840319","1,19960079840319","-27,8003992015968","-0,1187624750499","-0,00898203592814371","0,954091816367265"
"1027","3,19960079840319","1,19960079840319","-27,8003992015968","-3,1187624750499","-0,00898203592814371","-0,0459081836327345"
"1027","2,19960079840319","6,19960079840319","-29,8003992015968","-3,1187624750499","-0,00898203592814371","-0,0459081836327345"
"1027","2,19960079840319","6,19960079840319","-29,8003992015968","-0,1187624750499","-0,00898203592814371","0,954091816367265"
"1027","3,19960079840319","1,19960079840319","-25,8003992015968","-0,1187624750499","-0,00898203592814371","0,954091816367265"
"1027","3,19960079840319","1,19960079840319","-25,8003992015968","1,8812375249501","-2,00898203592814","0,954091816367265"
"1027","3,19960079840319","0,199600798403194","-28,8003992015968","1,8812375249501","-2,00898203592814","0,954091816367265"
"1027","3,19960079840319","0,199600798403194","-28,8003992015968","-1,1187624750499","-2,00898203592814","0,954091816367265"
"1027","4,19960079840319","1,19960079840319","-30,8003992015968","-1,1187624750499","-2,00898203592814","0,954091816367265"
"1027","4,19960079840319","1,19960079840319","-30,8003992015968","3,8812375249501","-0,00898203592814371","-0,0459081836327345"
"1027","5,19960079840319","-0,800399201596806","-25,8003992015968","3,8812375249501","-0,00898203592814371","-0,0459081836327345"
"1027","5,19960079840319","-0,800399201596806","-25,8003992015968","-0,1187624750499","-2,00898203592814","0,954091816367265"
"1027","2,19960079840319","1,19960079840319","-26,8003992015968","-0,1187624750499","-2,00898203592814","0,954091816367265"
"1027","2,19960079840319","1,19960079840319","-26,8003992015968","-1,1187624750499","1,99101796407186","0,954091816367265"
"1027","4,19960079840319","0,199600798403194","-27,8003992015968","-1,1187624750499","1,99101796407186","0,954091816367265"
"1027","4,19960079840319","0,199600798403194","-27,8003992015968","-0,1187624750499","1,99101796407186","1,95409181636727"
"1027","3,19960079840319","-1,80039920159681","-30,8003992015968","-0,1187624750499","1,99101796407186","1,95409181636727"
"1027","3,19960079840319","-1,80039920159681","-30,8003992015968","-1,1187624750499","-1,00898203592814","0,954091816367265"
"1027","5,19960079840319","1,19960079840319","-26,8003992015968","-1,1187624750499","-1,00898203592814","0,954091816367265"
"1027","5,19960079840319","1,19960079840319","-26,8003992015968","1,8812375249501","-1,00898203592814","1,95409181636727"
"1027","4,19960079840319","0,199600798403194","-23,8003992015968","1,8812375249501","-1,00898203592814","1,95409181636727"
"1027","4,19960079840319","0,199600798403194","-23,8003992015968","0,8812375249501","0,991017964071856","1,95409181636727"
"1027","2,19960079840319","-0,800399201596806","-30,8003992015968","0,8812375249501","0,991017964071856","1,95409181636727"
"1028","2,19960079840319","-0,800399201596806","-30,8003992015968","1,8812375249501","-2,00898203592814","-0,0459081836327345"
"1028","6,19960079840319","-0,800399201596806","-28,8003992015968","1,8812375249501","-2,00898203592814","-0,0459081836327345"
"1028","6,19960079840319","-0,800399201596806","-28,8003992015968","-3,1187624750499","-1,00898203592814","-1,04590818363273"
"1028","3,19960079840319","-0,800399201596806","-26,8003992015968","-3,1187624750499","-1,00898203592814","-1,04590818363273"
"1028","3,19960079840319","-0,800399201596806","-26,8003992015968","0,8812375249501","-0,00898203592814371","-1,04590818363273"
"1028","2,19960079840319","2,19960079840319","-30,8003992015968","0,8812375249501","-0,00898203592814371","-1,04590818363273"
"1028","2,19960079840319","2,19960079840319","-30,8003992015968","0,8812375249501","-1,00898203592814","0,954091816367265"
"1028","6,19960079840319","0,199600798403194","-23,8003992015968","0,8812375249501","-1,00898203592814","0,954091816367265"
"1028","6,19960079840319","0,199600798403194","-23,8003992015968","3,8812375249501","-1,00898203592814","2,95409181636727"
"1028","2,19960079840319","2,19960079840319","-30,8003992015968","3,8812375249501","-1,00898203592814","2,95409181636727"
"1028","2,19960079840319","2,19960079840319","-30,8003992015968","-1,1187624750499","0,991017964071856","3,95409181636727"
"1028","2,19960079840319","1,19960079840319","-28,8003992015968","-1,1187624750499","0,991017964071856","3,95409181636727"
"1028","2,19960079840319","1,19960079840319","-28,8003992015968","-1,1187624750499","-0,00898203592814371","1,95409181636727"
"1028","4,19960079840319","1,19960079840319","-29,8003992015968","-1,1187624750499","-0,00898203592814371","1,95409181636727"
"1028","4,19960079840319","1,19960079840319","-29,8003992015968","-1,1187624750499","-4,00898203592814","-0,0459081836327345"
"1028","2,19960079840319","3,19960079840319","-28,8003992015968","-1,1187624750499","-4,00898203592814","-0,0459081836327345"
"1028","2,19960079840319","3,19960079840319","-28,8003992015968","-2,1187624750499","-1,00898203592814","0,954091816367265"
"1028","3,19960079840319","-2,80039920159681","-26,8003992015968","-2,1187624750499","-1,00898203592814","0,954091816367265"
"1028","3,19960079840319","-2,80039920159681","-26,8003992015968","-5,1187624750499","0,991017964071856","-1,04590818363273"
"1028","3,19960079840319","0,199600798403194","-30,8003992015968","-5,1187624750499","0,991017964071856","-1,04590818363273"
"1028","3,19960079840319","0,199600798403194","-30,8003992015968","-2,1187624750499","-0,00898203592814371","0,954091816367265"
"1028","2,19960079840319","1,19960079840319","-29,8003992015968","-2,1187624750499","-0,00898203592814371","0,954091816367265"
"1029","2,19960079840319","1,19960079840319","-29,8003992015968","0,8812375249501","-2,00898203592814","0,954091816367265"
"1029","3,19960079840319","0,199600798403194","-27,8003992015968","0,8812375249501","-2,00898203592814","0,954091816367265"
"1029","3,19960079840319","0,199600798403194","-27,8003992015968","-1,1187624750499","0,991017964071856","-0,0459081836327345"
"1029","4,19960079840319","6,19960079840319","-27,8003992015968","-1,1187624750499","0,991017964071856","-0,0459081836327345"
"1029","4,19960079840319","6,19960079840319","-27,8003992015968","-0,1187624750499","-1,00898203592814","-3,04590818363273"
"1029","5,19960079840319","10,1996007984032","-26,8003992015968","-0,1187624750499","-1,00898203592814","-3,04590818363273"
"1029","5,19960079840319","10,1996007984032","-26,8003992015968","-6,1187624750499","-2,00898203592814","0,954091816367265"
"1029","2,19960079840319","-26,8003992015968","-28,8003992015968","-6,1187624750499","-2,00898203592814","0,954091816367265"
"1029","2,19960079840319","-26,8003992015968","-28,8003992015968","-14,1187624750499","0,991017964071856","-2,04590818363273"
"1029","1,19960079840319","35,1996007984032","-31,8003992015968","-14,1187624750499","0,991017964071856","-2,04590818363273"
"1029","1,19960079840319","35,1996007984032","-31,8003992015968","9,8812375249501","-1,00898203592814","-0,0459081836327345"
"1029","11,1996007984032","21,1996007984032","-21,8003992015968","9,8812375249501","-1,00898203592814","-0,0459081836327345"
"1029","11,1996007984032","21,1996007984032","-21,8003992015968","14,8812375249501","-2,00898203592814","-0,0459081836327345"
"1029","-0,800399201596806","-13,8003992015968","-26,8003992015968","14,8812375249501","-2,00898203592814","-0,0459081836327345"
"1029","-0,800399201596806","-13,8003992015968","-26,8003992015968","-12,1187624750499","0,991017964071856","0,954091816367265"
"1029","-1,80039920159681","5,19960079840319","-30,8003992015968","-12,1187624750499","0,991017964071856","0,954091816367265"
"1029","-1,80039920159681","5,19960079840319","-30,8003992015968","-4,1187624750499","0,991017964071856","0,954091816367265"
"1029","9,19960079840319","8,19960079840319","-26,8003992015968","-4,1187624750499","0,991017964071856","0,954091816367265"
"1029","9,19960079840319","8,19960079840319","-26,8003992015968","8,8812375249501","-0,00898203592814371","-1,04590818363273"
"1029","-0,800399201596806","5,19960079840319","-33,8003992015968","8,8812375249501","-0,00898203592814371","-1,04590818363273"
"1029","-0,800399201596806","5,19960079840319","-33,8003992015968","-2,1187624750499","-0,00898203592814371","-2,04590818363273"
"1029","6,19960079840319","-1,80039920159681","-24,8003992015968","-2,1187624750499","-0,00898203592814371","-2,04590818363273"
"1030","6,19960079840319","-1,80039920159681","-24,8003992015968","-5,1187624750499","-1,00898203592814","-0,0459081836327345"
"1030","3,19960079840319","1,19960079840319","-27,8003992015968","-5,1187624750499","-1,00898203592814","-0,0459081836327345"
"1030","3,19960079840319","1,19960079840319","-27,8003992015968","2,8812375249501","0,991017964071856","-0,0459081836327345"
"1030","1,19960079840319","-13,8003992015968","-25,8003992015968","2,8812375249501","0,991017964071856","-0,0459081836327345"
"1030","1,19960079840319","-13,8003992015968","-25,8003992015968","-0,1187624750499","1,99101796407186","-4,04590818363273"
"1030","10,1996007984032","-1,80039920159681","-29,8003992015968","-0,1187624750499","1,99101796407186","-4,04590818363273"
"1030","10,1996007984032","-1,80039920159681","-29,8003992015968","6,8812375249501","-0,00898203592814371","1,95409181636727"
"1030","-12,8003992015968","5,19960079840319","-55,8003992015968","6,8812375249501","-0,00898203592814371","1,95409181636727"
"1030","-12,8003992015968","5,19960079840319","-55,8003992015968","3,8812375249501","2,99101796407186","2,95409181636727"
"1030","28,1996007984032","11,1996007984032","-16,8003992015968","3,8812375249501","2,99101796407186","2,95409181636727"
"1030","28,1996007984032","11,1996007984032","-16,8003992015968","-0,1187624750499","-4,00898203592814","1,95409181636727"
"1030","35,1996007984032","3,19960079840319","1,19960079840319","-0,1187624750499","-4,00898203592814","1,95409181636727"
"1030","35,1996007984032","3,19960079840319","1,19960079840319","2,8812375249501","-2,00898203592814","-2,04590818363273"
"1030","-23,8003992015968","-5,80039920159681","-32,8003992015968","2,8812375249501","-2,00898203592814","-2,04590818363273"
"1030","-23,8003992015968","-5,80039920159681","-32,8003992015968","-4,1187624750499","7,99101796407186","0,954091816367265"
"1030","13,1996007984032","-9,80039920159681","-13,8003992015968","-4,1187624750499","7,99101796407186","0,954091816367265"
"1030","13,1996007984032","-9,80039920159681","-13,8003992015968","-4,1187624750499","-3,00898203592814","1,95409181636727"
"1030","35,1996007984032","38,1996007984032","-12,8003992015968","-4,1187624750499","-3,00898203592814","1,95409181636727"
"1030","35,1996007984032","38,1996007984032","-12,8003992015968","13,8812375249501","-8,00898203592814","-1,04590818363273"
"1030","1,19960079840319","36,1996007984032","-37,8003992015968","13,8812375249501","-8,00898203592814","-1,04590818363273"
"1030","1,19960079840319","36,1996007984032","-37,8003992015968","9,8812375249501","2,99101796407186","-1,04590818363273"
"1031","-3,80039920159681","-18,8003992015968","-18,8003992015968","9,8812375249501","2,99101796407186","-1,04590818363273"
"1031","-3,80039920159681","-18,8003992015968","-18,8003992015968","-18,1187624750499","1,99101796407186","2,95409181636727"
"1031","-3,80039920159681","-18,8003992015968","-29,8003992015968","-18,1187624750499","1,99101796407186","2,95409181636727"
"1031","-3,80039920159681","-18,8003992015968","-29,8003992015968","-11,1187624750499","-0,00898203592814371","-1,04590818363273"
"1031","8,19960079840319","3,19960079840319","-43,8003992015968","-11,1187624750499","-0,00898203592814371","-1,04590818363273"
"1031","8,19960079840319","3,19960079840319","-43,8003992015968","3,8812375249501","-4,00898203592814","-2,04590818363273"
"1031","1,19960079840319","3,19960079840319","-25,8003992015968","3,8812375249501","-4,00898203592814","-2,04590818363273"
"1031","1,19960079840319","3,19960079840319","-25,8003992015968","8,8812375249501","0,991017964071856","-2,04590818363273"
"1031","-17,8003992015968","7,19960079840319","-43,8003992015968","8,8812375249501","0,991017964071856","-2,04590818363273"
"1031","-17,8003992015968","7,19960079840319","-43,8003992015968","-1,1187624750499","5,99101796407186","-1,04590818363273"
"1031","7,19960079840319","-22,8003992015968","-24,8003992015968","-1,1187624750499","5,99101796407186","-1,04590818363273"
"1031","7,19960079840319","-22,8003992015968","-24,8003992015968","-12,1187624750499","-1,00898203592814","-1,04590818363273"
"1031","13,1996007984032","-18,8003992015968","-17,8003992015968","-12,1187624750499","-1,00898203592814","-1,04590818363273"
"1031","13,1996007984032","-18,8003992015968","-17,8003992015968","-6,1187624750499","-3,00898203592814","-1,04590818363273"
"1031","-6,80039920159681","-18,8003992015968","-30,8003992015968","-6,1187624750499","-3,00898203592814","-1,04590818363273"
"1031","-6,80039920159681","-18,8003992015968","-30,8003992015968","-2,1187624750499","-1,00898203592814","-1,04590818363273"
"1031","5,19960079840319","34,1996007984032","-15,8003992015968","-2,1187624750499","-1,00898203592814","-1,04590818363273"
"1031","5,19960079840319","34,1996007984032","-15,8003992015968","14,8812375249501","-0,00898203592814371","1,95409181636727"
"1031","16,1996007984032","0,199600798403194","-44,8003992015968","14,8812375249501","-0,00898203592814371","1,95409181636727"
"1031","16,1996007984032","0,199600798403194","-44,8003992015968","3,8812375249501","-3,00898203592814","0,954091816367265"
"1032","-4,80039920159681","-20,8003992015968","-46,8003992015968","3,8812375249501","-3,00898203592814","0,954091816367265"
"1032","-4,80039920159681","-20,8003992015968","-46,8003992015968","-19,1187624750499","4,99101796407186","1,95409181636727"
"1032","21,1996007984032","59,1996007984032","-15,8003992015968","-19,1187624750499","4,99101796407186","1,95409181636727"
"1032","21,1996007984032","59,1996007984032","-15,8003992015968","18,8812375249501","-6,00898203592814","3,95409181636727"
"1032","8,19960079840319","57,1996007984032","-27,8003992015968","18,8812375249501","-6,00898203592814","3,95409181636727"
"1032","8,19960079840319","57,1996007984032","-27,8003992015968","22,8812375249501","-0,00898203592814371","5,95409181636727"
"1032","3,19960079840319","-29,8003992015968","-25,8003992015968","22,8812375249501","-0,00898203592814371","5,95409181636727"
"1032","3,19960079840319","-29,8003992015968","-25,8003992015968","-25,1187624750499","3,99101796407186","0,954091816367265"
"1032","38,1996007984032","24,1996007984032","-13,8003992015968","-25,1187624750499","3,99101796407186","0,954091816367265"
"1032","38,1996007984032","24,1996007984032","-13,8003992015968","-11,1187624750499","-3,00898203592814","0,954091816367265"
"1032","-10,8003992015968","84,1996007984032","-37,8003992015968","-11,1187624750499","-3,00898203592814","0,954091816367265"
"1032","-10,8003992015968","84,1996007984032","-37,8003992015968","31,8812375249501","2,99101796407186","0,954091816367265"
"1032","0,199600798403194","-13,8003992015968","-26,8003992015968","31,8812375249501","2,99101796407186","0,954091816367265"
"1032","0,199600798403194","-13,8003992015968","-26,8003992015968","-14,1187624750499","-0,00898203592814371","-1,04590818363273"
"1032","20,1996007984032","-3,80039920159681","-19,8003992015968","-14,1187624750499","-0,00898203592814371","-1,04590818363273"
"1032","20,1996007984032","-3,80039920159681","-19,8003992015968","-7,1187624750499","-1,00898203592814","-2,04590818363273"
"1032","-18,8003992015968","20,1996007984032","-50,8003992015968","-7,1187624750499","-1,00898203592814","-2,04590818363273"
"1032","-18,8003992015968","20,1996007984032","-50,8003992015968","5,8812375249501","-1,00898203592814","-0,0459081836327345"
"1032","14,1996007984032","-19,8003992015968","-14,8003992015968","5,8812375249501","-1,00898203592814","-0,0459081836327345"
"1032","14,1996007984032","-19,8003992015968","-14,8003992015968","-5,1187624750499","-6,00898203592814","-0,0459081836327345"
"1032","27,1996007984032","9,19960079840319","-8,80039920159681","-5,1187624750499","-6,00898203592814","-0,0459081836327345"
"1033","27,1996007984032","9,19960079840319","-8,80039920159681","-0,1187624750499","-2,00898203592814","-0,0459081836327345"
"1033","-32,8003992015968","39,1996007984032","-40,8003992015968","-0,1187624750499","-2,00898203592814","-0,0459081836327345"
"1033","-32,8003992015968","39,1996007984032","-40,8003992015968","2,8812375249501","-6,00898203592814","-1,04590818363273"
"1033","9,19960079840319","-6,80039920159681","-44,8003992015968","2,8812375249501","-6,00898203592814","-1,04590818363273"
"1033","9,19960079840319","-6,80039920159681","-44,8003992015968","-5,1187624750499","-1,00898203592814","-2,04590818363273"
"1033","34,1996007984032","-90,8003992015968","0,199600798403194","-5,1187624750499","-1,00898203592814","-2,04590818363273"
"1033","34,1996007984032","-90,8003992015968","0,199600798403194","-24,1187624750499","-9,00898203592814","-3,04590818363273"
"1033","-33,8003992015968","78,1996007984032","-73,8003992015968","-24,1187624750499","-9,00898203592814","-3,04590818363273"
"1033","-33,8003992015968","78,1996007984032","-73,8003992015968","10,8812375249501","-0,00898203592814371","-0,0459081836327345"
"1033","-6,80039920159681","59,1996007984032","-45,8003992015968","10,8812375249501","-0,00898203592814371","-0,0459081836327345"
"1033","-6,80039920159681","59,1996007984032","-45,8003992015968","26,8812375249501","3,99101796407186","3,95409181636727"
"1033","36,1996007984032","-43,8003992015968","13,1996007984032","26,8812375249501","3,99101796407186","3,95409181636727"
"1033","36,1996007984032","-43,8003992015968","13,1996007984032","-18,1187624750499","-12,0089820359281","2,95409181636727"
"1033","-34,8003992015968","-18,8003992015968","-57,8003992015968","-18,1187624750499","-12,0089820359281","2,95409181636727"
"1033","-34,8003992015968","-18,8003992015968","-57,8003992015968","-10,1187624750499","2,99101796407186","2,95409181636727"
"1033","-9,80039920159681","41,1996007984032","-36,8003992015968","-10,1187624750499","2,99101796407186","2,95409181636727"
"1033","-9,80039920159681","41,1996007984032","-36,8003992015968","15,8812375249501","2,99101796407186","4,95409181636727"
"1033","21,1996007984032","35,1996007984032","-10,8003992015968","15,8812375249501","2,99101796407186","4,95409181636727"
"1033","21,1996007984032","35,1996007984032","-10,8003992015968","12,8812375249501","-12,0089820359281","2,95409181636727"
"1034","1,19960079840319","-7,80039920159681","-32,8003992015968","12,8812375249501","-12,0089820359281","2,95409181636727"
"1034","1,19960079840319","-7,80039920159681","-32,8003992015968","-11,1187624750499","-3,00898203592814","3,95409181636727"
"1034","-31,8003992015968","11,1996007984032","-27,8003992015968","-11,1187624750499","-3,00898203592814","3,95409181636727"
"1034","-31,8003992015968","11,1996007984032","-27,8003992015968","-5,1187624750499","-2,00898203592814","7,95409181636727"
"1034","-30,8003992015968","63,1996007984032","-46,8003992015968","-5,1187624750499","-2,00898203592814","7,95409181636727"
"1034","-30,8003992015968","63,1996007984032","-46,8003992015968","17,8812375249501","-4,00898203592814","5,95409181636727"
"1034","-48,8003992015968","35,1996007984032","-55,8003992015968","17,8812375249501","-4,00898203592814","5,95409181636727"
"1034","-48,8003992015968","35,1996007984032","-55,8003992015968","-0,1187624750499","-6,00898203592814","6,95409181636727"
"1034","-15,8003992015968","-29,8003992015968","-12,8003992015968","-0,1187624750499","-6,00898203592814","6,95409181636727"
"1034","-15,8003992015968","-29,8003992015968","-12,8003992015968","-17,1187624750499","-16,0089820359281","2,95409181636727"
"1034","-19,8003992015968","14,1996007984032","-30,8003992015968","-17,1187624750499","-16,0089820359281","2,95409181636727"
"1034","-19,8003992015968","14,1996007984032","-30,8003992015968","1,8812375249501","-12,0089820359281","3,95409181636727"
"1034","-42,8003992015968","41,1996007984032","-44,8003992015968","1,8812375249501","-12,0089820359281","3,95409181636727"
"1034","-42,8003992015968","41,1996007984032","-44,8003992015968","13,8812375249501","-11,0089820359281","3,95409181636727"
"1034","-10,8003992015968","-27,8003992015968","-21,8003992015968","13,8812375249501","-11,0089820359281","3,95409181636727"
"1034","-10,8003992015968","-27,8003992015968","-21,8003992015968","-7,1187624750499","-17,0089820359281","6,95409181636727"
"1034","-6,80039920159681","-30,8003992015968","-17,8003992015968","-7,1187624750499","-17,0089820359281","6,95409181636727"
"1034","-6,80039920159681","-30,8003992015968","-17,8003992015968","-17,1187624750499","-16,0089820359281","1,95409181636727"
"1034","-27,8003992015968","13,1996007984032","-30,8003992015968","-17,1187624750499","-16,0089820359281","1,95409181636727"
"1035","-27,8003992015968","13,1996007984032","-30,8003992015968","3,8812375249501","-16,0089820359281","1,95409181636727"
"1035","-28,8003992015968","-7,80039920159681","-28,8003992015968","3,8812375249501","-16,0089820359281","1,95409181636727"
"1035","-28,8003992015968","-7,80039920159681","-28,8003992015968","-1,1187624750499","-15,0089820359281","4,95409181636727"
"1035","-22,8003992015968","-18,8003992015968","-39,8003992015968","-1,1187624750499","-15,0089820359281","4,95409181636727"
"1035","-22,8003992015968","-18,8003992015968","-39,8003992015968","-7,1187624750499","-13,0089820359281","7,95409181636727"
"1035","-1,80039920159681","-6,80039920159681","-18,8003992015968","-7,1187624750499","-13,0089820359281","7,95409181636727"
"1035","-1,80039920159681","-6,80039920159681","-18,8003992015968","7,8812375249501","-26,0089820359281","8,95409181636727"
"1035","7,19960079840319","-3,80039920159681","-21,8003992015968","7,8812375249501","-26,0089820359281","8,95409181636727"
"1035","7,19960079840319","-3,80039920159681","-21,8003992015968","2,8812375249501","-21,0089820359281","11,9540918163673"
"1035","41,1996007984032","1,19960079840319","-11,8003992015968","2,8812375249501","-21,0089820359281","11,9540918163673"
"1035","41,1996007984032","1,19960079840319","-11,8003992015968","3,8812375249501","-15,0089820359281","10,9540918163673"
"1035","63,1996007984032","-15,8003992015968","9,19960079840319","3,8812375249501","-15,0089820359281","10,9540918163673"
"1035","63,1996007984032","-15,8003992015968","9,19960079840319","-2,1187624750499","-16,0089820359281","11,9540918163673"
"1035","16,1996007984032","0,199600798403194","-13,8003992015968","-2,1187624750499","-16,0089820359281","11,9540918163673"
"1035","16,1996007984032","0,199600798403194","-13,8003992015968","-1,1187624750499","-3,00898203592814","11,9540918163673"
"1035","-38,8003992015968","14,1996007984032","-36,8003992015968","-1,1187624750499","-3,00898203592814","11,9540918163673"
"1035","-38,8003992015968","14,1996007984032","-36,8003992015968","9,8812375249501","6,99101796407186","12,9540918163673"
"1035","0,199600798403194","-12,8003992015968","-39,8003992015968","9,8812375249501","6,99101796407186","12,9540918163673"
"1035","0,199600798403194","-12,8003992015968","-39,8003992015968","2,8812375249501","-6,00898203592814","9,95409181636727"
"1035","17,1996007984032","2,19960079840319","-7,80039920159681","2,8812375249501","-6,00898203592814","9,95409181636727"
"1036","17,1996007984032","2,19960079840319","-7,80039920159681","1,8812375249501","-18,0089820359281","8,95409181636727"
"1036","-22,8003992015968","28,1996007984032","-37,8003992015968","1,8812375249501","-18,0089820359281","8,95409181636727"
"1036","-22,8003992015968","28,1996007984032","-37,8003992015968","10,8812375249501","-5,00898203592814","15,9540918163673"
"1036","45,1996007984032","-34,8003992015968","-14,8003992015968","10,8812375249501","-5,00898203592814","15,9540918163673"
"1036","45,1996007984032","-34,8003992015968","-14,8003992015968","-6,1187624750499","-16,0089820359281","19,9540918163673"
"1036","100,199600798403","-68,8003992015968","10,1996007984032","-6,1187624750499","-16,0089820359281","19,9540918163673"
"1036","100,199600798403","-68,8003992015968","10,1996007984032","-19,1187624750499","-28,0089820359281","14,9540918163673"
"1036","95,1996007984032","-39,8003992015968","-11,8003992015968","-19,1187624750499","-28,0089820359281","14,9540918163673"
"1036","95,1996007984032","-39,8003992015968","-11,8003992015968","-2,1187624750499","-10,0089820359281","19,9540918163673"
"1036","92,1996007984032","21,1996007984032","-0,800399201596806","-2,1187624750499","-10,0089820359281","19,9540918163673"
"1036","92,1996007984032","21,1996007984032","-0,800399201596806","15,8812375249501","-0,00898203592814371","20,9540918163673"
"1036","61,1996007984032","6,19960079840319","-15,8003992015968","15,8812375249501","-0,00898203592814371","20,9540918163673"
"1036","61,1996007984032","6,19960079840319","-15,8003992015968","5,8812375249501","9,99101796407186","13,9540918163673"
"1036","46,1996007984032","8,19960079840319","-27,8003992015968","5,8812375249501","9,99101796407186","13,9540918163673"
"1036","46,1996007984032","8,19960079840319","-27,8003992015968","-0,1187624750499","19,9910179640719","11,9540918163673"
"1036","18,1996007984032","15,1996007984032","-34,8003992015968","-0,1187624750499","19,9910179640719","11,9540918163673"
"1036","18,1996007984032","15,1996007984032","-34,8003992015968","2,8812375249501","21,9910179640719","6,95409181636727"
"1036","-47,8003992015968","-39,8003992015968","-71,8003992015968","2,8812375249501","21,9910179640719","6,95409181636727"
"1036","-47,8003992015968","-39,8003992015968","-71,8003992015968","-9,1187624750499","22,9910179640719","7,95409181636727"
"1037","9,19960079840319","1,19960079840319","-59,8003992015968","-9,1187624750499","22,9910179640719","7,95409181636727"
"1037","9,19960079840319","1,19960079840319","-59,8003992015968","10,8812375249501","7,99101796407186","1,95409181636727"
"1037","117,199600798403","14,1996007984032","-8,80039920159681","10,8812375249501","7,99101796407186","1,95409181636727"
"1037","117,199600798403","14,1996007984032","-8,80039920159681","14,8812375249501","-15,0089820359281","-2,04590818363273"
"1037","148,199600798403","47,1996007984032","23,1996007984032","14,8812375249501","-15,0089820359281","-2,04590818363273"
"1037","148,199600798403","47,1996007984032","23,1996007984032","14,8812375249501","-6,00898203592814","-6,04590818363273"
"1037","50,1996007984032","62,1996007984032","-35,8003992015968","14,8812375249501","-6,00898203592814","-6,04590818363273"
"1037","50,1996007984032","62,1996007984032","-35,8003992015968","15,8812375249501","36,9910179640719","-2,04590818363273"
"1037","24,1996007984032","21,1996007984032","-43,8003992015968","15,8812375249501","36,9910179640719","-2,04590818363273"
"1037","24,1996007984032","21,1996007984032","-43,8003992015968","-4,1187624750499","46,9910179640719","-1,04590818363273"
"1037","41,1996007984032","-22,8003992015968","-23,8003992015968","-4,1187624750499","46,9910179640719","-1,04590818363273"
"1037","41,1996007984032","-22,8003992015968","-23,8003992015968","-13,1187624750499","32,9910179640719","-3,04590818363273"
"1037","-15,8003992015968","51,1996007984032","-52,8003992015968","-13,1187624750499","32,9910179640719","-3,04590818363273"
"1037","-15,8003992015968","51,1996007984032","-52,8003992015968","-13,1187624750499","32,9910179640719","-3,04590818363273"
"1037","-36,8003992015968","59,1996007984032","-41,8003992015968","-13,1187624750499","32,9910179640719","-3,04590818363273"
"1037","-36,8003992015968","59,1996007984032","-41,8003992015968","8,8812375249501","31,9910179640719","-8,04590818363273"
"1037","-21,8003992015968","42,1996007984032","-48,8003992015968","8,8812375249501","31,9910179640719","-8,04590818363273"
"1037","-21,8003992015968","42,1996007984032","-48,8003992015968","-5,1187624750499","16,9910179640719","-9,04590818363273"
"1037","-3,80039920159681","-39,8003992015968","-33,8003992015968","-5,1187624750499","16,9910179640719","-9,04590818363273"
"1038","-3,80039920159681","-39,8003992015968","-33,8003992015968","-16,1187624750499","9,99101796407186","-14,0459081836327"
"1038","-4,80039920159681","-40,8003992015968","-19,8003992015968","-16,1187624750499","9,99101796407186","-14,0459081836327"
"1038","-4,80039920159681","-40,8003992015968","-19,8003992015968","-17,1187624750499","7,99101796407186","-18,0459081836327"
"1038","-29,8003992015968","14,1996007984032","-52,8003992015968","-17,1187624750499","7,99101796407186","-18,0459081836327"
"1038","-29,8003992015968","14,1996007984032","-52,8003992015968","5,8812375249501","7,99101796407186","-17,0459081836327"
"1038","7,19960079840319","1,19960079840319","-20,8003992015968","5,8812375249501","7,99101796407186","-17,0459081836327"
"1038","7,19960079840319","1,19960079840319","-20,8003992015968","2,8812375249501","-4,00898203592814","-18,0459081836327"
"1038","13,1996007984032","-17,8003992015968","-2,80039920159681","2,8812375249501","-4,00898203592814","-18,0459081836327"
"1038","13,1996007984032","-17,8003992015968","-2,80039920159681","-7,1187624750499","-13,0089820359281","-20,0459081836327"
"1038","9,19960079840319","-34,8003992015968","-57,8003992015968","-7,1187624750499","-13,0089820359281","-20,0459081836327"
"1038","9,19960079840319","-34,8003992015968","-57,8003992015968","-8,1187624750499","-2,00898203592814","-16,0459081836327"
"1038","7,19960079840319","25,1996007984032","-3,80039920159681","-8,1187624750499","-2,00898203592814","-16,0459081836327"
"1038","7,19960079840319","25,1996007984032","-3,80039920159681","5,8812375249501","-2,00898203592814","-14,0459081836327"
"1038","-84,8003992015968","-53,8003992015968","-55,8003992015968","5,8812375249501","-2,00898203592814","-14,0459081836327"
"1038","-84,8003992015968","-53,8003992015968","-55,8003992015968","-11,1187624750499","9,99101796407186","-7,04590818363273"
"1038","-59,8003992015968","-1,80039920159681","-8,80039920159681","-11,1187624750499","9,99101796407186","-7,04590818363273"
"1038","-59,8003992015968","-1,80039920159681","-8,80039920159681","-0,1187624750499","1,99101796407186","0,954091816367265"
"1038","-72,8003992015968","22,1996007984032","-23,8003992015968","-0,1187624750499","1,99101796407186","0,954091816367265"
"1039","-72,8003992015968","22,1996007984032","-23,8003992015968","14,8812375249501","-8,00898203592814","-0,0459081836327345"
"1039","-162,800399201597","34,1996007984032","-36,8003992015968","14,8812375249501","-8,00898203592814","-0,0459081836327345"
"1039","-162,800399201597","34,1996007984032","-36,8003992015968","-5,1187624750499","1,99101796407186","7,95409181636727"
"1039","-185,800399201597","25,1996007984032","-62,8003992015968","-5,1187624750499","1,99101796407186","7,95409181636727"
"1039","-185,800399201597","25,1996007984032","-62,8003992015968","3,8812375249501","-5,00898203592814","11,9540918163673"
"1039","-170,800399201597","-61,8003992015968","-48,8003992015968","3,8812375249501","-5,00898203592814","11,9540918163673"
"1039","-170,800399201597","-61,8003992015968","-48,8003992015968","3,8812375249501","-5,00898203592814","11,9540918163673"
"1039","-144,800399201597","-60,8003992015968","-46,8003992015968","3,8812375249501","-5,00898203592814","11,9540918163673"
"1039","-144,800399201597","-60,8003992015968","-46,8003992015968","-26,1187624750499","-23,0089820359281","7,95409181636727"
"1039","-90,8003992015968","15,1996007984032","-30,8003992015968","-26,1187624750499","-23,0089820359281","7,95409181636727"
"1039","-90,8003992015968","15,1996007984032","-30,8003992015968","10,8812375249501","-44,0089820359281","3,95409181636727"
"1039","-21,8003992015968","5,19960079840319","-8,80039920159681","10,8812375249501","-44,0089820359281","3,95409181636727"
"1039","-21,8003992015968","5,19960079840319","-8,80039920159681","5,8812375249501","-56,0089820359281","1,95409181636727"
"1039","9,19960079840319","5,19960079840319","-7,80039920159681","5,8812375249501","-56,0089820359281","1,95409181636727"
"1039","9,19960079840319","5,19960079840319","-7,80039920159681","-0,1187624750499","-53,0089820359281","1,95409181636727"
"1039","22,1996007984032","-22,8003992015968","-18,8003992015968","-0,1187624750499","-53,0089820359281","1,95409181636727"
"1039","22,1996007984032","-22,8003992015968","-18,8003992015968","-0,1187624750499","-53,0089820359281","1,95409181636727"
"1039","68,1996007984032","-16,8003992015968","-1,80039920159681","-0,1187624750499","-53,0089820359281","1,95409181636727"
"1039","68,1996007984032","-16,8003992015968","-1,80039920159681","-5,1187624750499","-30,0089820359281","10,9540918163673"
"1040","99,1996007984032","-20,8003992015968","14,1996007984032","-5,1187624750499","-30,0089820359281","10,9540918163673"
"1040","99,1996007984032","-20,8003992015968","14,1996007984032","-1,1187624750499","-20,0089820359281","11,9540918163673"
"1040","86,1996007984032","26,1996007984032","13,1996007984032","-1,1187624750499","-20,0089820359281","11,9540918163673"
"1040","86,1996007984032","26,1996007984032","13,1996007984032","8,8812375249501","-2,00898203592814","10,9540918163673"
"1040","-22,8003992015968","-28,8003992015968","0,199600798403194","8,8812375249501","-2,00898203592814","10,9540918163673"
"1040","-22,8003992015968","-28,8003992015968","0,199600798403194","3,8812375249501","24,9910179640719","7,95409181636727"
"1040","-147,800399201597","-32,8003992015968","-94,8003992015968","3,8812375249501","24,9910179640719","7,95409181636727"
"1040","-147,800399201597","-32,8003992015968","-94,8003992015968","3,8812375249501","24,9910179640719","7,95409181636727"
"1040","-137,800399201597","52,1996007984032","-112,800399201597","3,8812375249501","24,9910179640719","7,95409181636727"
"1040","-137,800399201597","52,1996007984032","-112,800399201597","-5,1187624750499","46,9910179640719","5,95409181636727"
"1040","28,1996007984032","-30,8003992015968","-25,8003992015968","-5,1187624750499","46,9910179640719","5,95409181636727"
"1040","28,1996007984032","-30,8003992015968","-25,8003992015968","3,8812375249501","-22,0089820359281","-1,04590818363273"
"1040","64,1996007984032","-28,8003992015968","-25,8003992015968","3,8812375249501","-22,0089820359281","-1,04590818363273"
"1040","64,1996007984032","-28,8003992015968","-25,8003992015968","-19,1187624750499","-24,0089820359281","-1,04590818363273"
"1040","176,199600798403","18,1996007984032","15,1996007984032","-19,1187624750499","-24,0089820359281","-1,04590818363273"
"1040","176,199600798403","18,1996007984032","15,1996007984032","6,8812375249501","-26,0089820359281","-7,04590818363273"
"1040","104,199600798403","1,19960079840319","16,1996007984032","6,8812375249501","-26,0089820359281","-7,04590818363273"
"1041","104,199600798403","1,19960079840319","16,1996007984032","6,8812375249501","-2,00898203592814","-4,04590818363273"
"1041","31,1996007984032","17,1996007984032","-56,8003992015968","6,8812375249501","-2,00898203592814","-4,04590818363273"
"1041","31,1996007984032","17,1996007984032","-56,8003992015968","-9,1187624750499","43,9910179640719","0,954091816367265"
"1041","53,1996007984032","-48,8003992015968","-0,800399201596806","-9,1187624750499","43,9910179640719","0,954091816367265"
"1041","53,1996007984032","-48,8003992015968","-0,800399201596806","-4,1187624750499","37,9910179640719","-9,04590818363273"
"1041","10,1996007984032","-68,8003992015968","-16,8003992015968","-4,1187624750499","37,9910179640719","-9,04590818363273"
"1041","10,1996007984032","-68,8003992015968","-16,8003992015968","-4,1187624750499","41,9910179640719","-11,0459081836327"
"1041","-58,8003992015968","83,1996007984032","-76,8003992015968","-4,1187624750499","41,9910179640719","-11,0459081836327"
"1041","-58,8003992015968","83,1996007984032","-76,8003992015968","29,8812375249501","41,9910179640719","-14,0459081836327"
"1041","-38,8003992015968","-7,80039920159681","-41,8003992015968","29,8812375249501","41,9910179640719","-14,0459081836327"
"1041","-38,8003992015968","-7,80039920159681","-41,8003992015968","29,8812375249501","41,9910179640719","-14,0459081836327"
"1041","-38,8003992015968","-7,80039920159681","-41,8003992015968","29,8812375249501","41,9910179640719","-14,0459081836327"
"1041","-38,8003992015968","-7,80039920159681","-41,8003992015968","0,8812375249501","24,9910179640719","-16,0459081836327"
"1041","-33,8003992015968","-11,8003992015968","-69,8003992015968","0,8812375249501","24,9910179640719","-16,0459081836327"
"1041","-33,8003992015968","-11,8003992015968","-69,8003992015968","1,8812375249501","2,99101796407186","-14,0459081836327"
"1041","39,1996007984032","-3,80039920159681","-36,8003992015968","1,8812375249501","2,99101796407186","-14,0459081836327"
"1041","39,1996007984032","-3,80039920159681","-36,8003992015968","-6,1187624750499","-15,0089820359281","-14,0459081836327"
"1041","67,1996007984032","18,1996007984032","-9,80039920159681","-6,1187624750499","-15,0089820359281","-14,0459081836327"
"1041","67,1996007984032","18,1996007984032","-9,80039920159681","3,8812375249501","-24,0089820359281","-13,0459081836327"
"1042","27,1996007984032","-16,8003992015968","-46,8003992015968","3,8812375249501","-24,0089820359281","-13,0459081836327"
"1042","27,1996007984032","-16,8003992015968","-46,8003992015968","-0,1187624750499","-16,0089820359281","-7,04590818363273"
"1042","74,1996007984032","20,1996007984032","-33,8003992015968","-0,1187624750499","-16,0089820359281","-7,04590818363273"
"1042","74,1996007984032","20,1996007984032","-33,8003992015968","-2,1187624750499","-13,0089820359281","-4,04590818363273"
"1042","115,199600798403","27,1996007984032","-16,8003992015968","-2,1187624750499","-13,0089820359281","-4,04590818363273"
"1042","115,199600798403","27,1996007984032","-16,8003992015968","6,8812375249501","-23,0089820359281","-4,04590818363273"
"1042","118,199600798403","-11,8003992015968","5,19960079840319","6,8812375249501","-23,0089820359281","-4,04590818363273"
"1042","118,199600798403","-11,8003992015968","5,19960079840319","-11,1187624750499","-10,0089820359281","-3,04590818363273"
"1042","103,199600798403","19,1996007984032","-15,8003992015968","-11,1187624750499","-10,0089820359281","-3,04590818363273"
"1042","103,199600798403","19,1996007984032","-15,8003992015968","-4,1187624750499","3,99101796407186","2,95409181636727"
"1042","85,1996007984032","-26,8003992015968","2,19960079840319","-4,1187624750499","3,99101796407186","2,95409181636727"
"1042","85,1996007984032","-26,8003992015968","2,19960079840319","-8,1187624750499","0,991017964071856","-1,04590818363273"
"1042","50,1996007984032","-23,8003992015968","-54,8003992015968","-8,1187624750499","0,991017964071856","-1,04590818363273"
"1042","50,1996007984032","-23,8003992015968","-54,8003992015968","-12,1187624750499","11,9910179640719","-0,0459081836327345"
"1042","141,199600798403","-12,8003992015968","27,1996007984032","-12,1187624750499","11,9910179640719","-0,0459081836327345"
"1042","141,199600798403","-12,8003992015968","27,1996007984032","5,8812375249501","0,991017964071856","-3,04590818363273"
"1042","70,1996007984032","-9,80039920159681","13,1996007984032","5,8812375249501","0,991017964071856","-3,04590818363273"
"1042","70,1996007984032","-9,80039920159681","13,1996007984032","-1,1187624750499","11,9910179640719","-5,04590818363273"
"1042","-3,80039920159681","8,19960079840319","-58,8003992015968","-1,1187624750499","11,9910179640719","-5,04590818363273"
"1043","-3,80039920159681","8,19960079840319","-58,8003992015968","0,8812375249501","41,9910179640719","-1,04590818363273"
"1043","-3,80039920159681","8,19960079840319","-58,8003992015968","0,8812375249501","41,9910179640719","-1,04590818363273"
"1043","-3,80039920159681","8,19960079840319","-58,8003992015968","0,8812375249501","41,9910179640719","-1,04590818363273"
"1043","-3,80039920159681","-73,8003992015968","-35,8003992015968","0,8812375249501","41,9910179640719","-1,04590818363273"
"1043","-3,80039920159681","-73,8003992015968","-35,8003992015968","-18,1187624750499","27,9910179640719","-1,04590818363273"
"1043","-64,8003992015968","49,1996007984032","-77,8003992015968","-18,1187624750499","27,9910179640719","-1,04590818363273"
"1043","-64,8003992015968","49,1996007984032","-77,8003992015968","29,8812375249501","26,9910179640719","-2,04590818363273"
"1043","-32,8003992015968","19,1996007984032","-10,8003992015968","29,8812375249501","26,9910179640719","-2,04590818363273"
"1043","-32,8003992015968","19,1996007984032","-10,8003992015968","8,8812375249501","4,99101796407186","3,95409181636727"
"1043","-52,8003992015968","7,19960079840319","-56,8003992015968","8,8812375249501","4,99101796407186","3,95409181636727"
"1043","-52,8003992015968","7,19960079840319","-56,8003992015968","-0,1187624750499","4,99101796407186","5,95409181636727"
"1043","-27,8003992015968","-1,80039920159681","-35,8003992015968","-0,1187624750499","4,99101796407186","5,95409181636727"
"1043","-27,8003992015968","-1,80039920159681","-35,8003992015968","-2,1187624750499","-0,00898203592814371","8,95409181636727"
"1043","-0,800399201596806","-20,8003992015968","-10,8003992015968","-2,1187624750499","-0,00898203592814371","8,95409181636727"
"1043","-0,800399201596806","-20,8003992015968","-10,8003992015968","-4,1187624750499","-9,00898203592814","5,95409181636727"
"1043","-29,8003992015968","44,1996007984032","-20,8003992015968","-4,1187624750499","-9,00898203592814","5,95409181636727"
"1043","-29,8003992015968","44,1996007984032","-20,8003992015968","2,8812375249501","0,991017964071856","6,95409181636727"
"1043","-35,8003992015968","60,1996007984032","-2,80039920159681","2,8812375249501","0,991017964071856","6,95409181636727"
"1043","-35,8003992015968","60,1996007984032","-2,80039920159681","11,8812375249501","-1,00898203592814","9,95409181636727"
"1043","-73,8003992015968","52,1996007984032","-32,8003992015968","11,8812375249501","-1,00898203592814","9,95409181636727"
"1044","-73,8003992015968","52,1996007984032","-32,8003992015968","3,8812375249501","2,99101796407186","4,95409181636727"
"1044","-112,800399201597","64,1996007984032","-65,8003992015968","3,8812375249501","2,99101796407186","4,95409181636727"
"1044","-112,800399201597","64,1996007984032","-65,8003992015968","-3,1187624750499","3,99101796407186","5,95409181636727"
"1044","-102,800399201597","3,19960079840319","-46,8003992015968","-3,1187624750499","3,99101796407186","5,95409181636727"
"1044","-102,800399201597","3,19960079840319","-46,8003992015968","-13,1187624750499","-11,0089820359281","-5,04590818363273"
"1044","-72,8003992015968","-27,8003992015968","-36,8003992015968","-13,1187624750499","-11,0089820359281","-5,04590818363273"
"1044","-72,8003992015968","-27,8003992015968","-36,8003992015968","-24,1187624750499","-18,0089820359281","-11,0459081836327"
"1044","-35,8003992015968","-8,80039920159681","-11,8003992015968","-24,1187624750499","-18,0089820359281","-11,0459081836327"
"1044","-35,8003992015968","-8,80039920159681","-11,8003992015968","-9,1187624750499","-26,0089820359281","-15,0459081836327"
"1044","-9,80039920159681","-8,80039920159681","-14,8003992015968","-9,1187624750499","-26,0089820359281","-15,0459081836327"
"1044","-9,80039920159681","-8,80039920159681","-14,8003992015968","-3,1187624750499","-27,0089820359281","-20,0459081836327"
"1044","-9,80039920159681","-8,80039920159681","-14,8003992015968","-3,1187624750499","-27,0089820359281","-20,0459081836327"
"1044","-9,80039920159681","-8,80039920159681","-14,8003992015968","-3,1187624750499","-27,0089820359281","-20,0459081836327"
"1044","-46,8003992015968","-30,8003992015968","-27,8003992015968","-3,1187624750499","-27,0089820359281","-20,0459081836327"
"1044","-46,8003992015968","-30,8003992015968","-27,8003992015968","-11,1187624750499","-21,0089820359281","-24,0459081836327"
"1044","-48,8003992015968","-18,8003992015968","-36,8003992015968","-11,1187624750499","-21,0089820359281","-24,0459081836327"
"1044","-48,8003992015968","-18,8003992015968","-36,8003992015968","4,8812375249501","-25,0089820359281","-26,0459081836327"
"1044","59,1996007984032","-4,80039920159681","2,19960079840319","4,8812375249501","-25,0089820359281","-26,0459081836327"
"1045","59,1996007984032","-4,80039920159681","2,19960079840319","3,8812375249501","-33,0089820359281","-26,0459081836327"
"1045","9,19960079840319","-0,800399201596806","-40,8003992015968","3,8812375249501","-33,0089820359281","-26,0459081836327"
"1045","9,19960079840319","-0,800399201596806","-40,8003992015968","3,8812375249501","-19,0089820359281","-22,0459081836327"
"1045","9,19960079840319","-0,800399201596806","-40,8003992015968","3,8812375249501","-19,0089820359281","-22,0459081836327"
"1045","9,19960079840319","-0,800399201596806","-40,8003992015968","3,8812375249501","-19,0089820359281","-22,0459081836327"
"1045","25,1996007984032","-17,8003992015968","-33,8003992015968","3,8812375249501","-19,0089820359281","-22,0459081836327"
"1045","25,1996007984032","-17,8003992015968","-33,8003992015968","-1,1187624750499","-12,0089820359281","-24,0459081836327"
"1045","-34,8003992015968","18,1996007984032","-85,8003992015968","-1,1187624750499","-12,0089820359281","-24,0459081836327"
"1045","-34,8003992015968","18,1996007984032","-85,8003992015968","10,8812375249501","2,99101796407186","-25,0459081836327"
"1045","55,1996007984032","24,1996007984032","-66,8003992015968","10,8812375249501","2,99101796407186","-25,0459081836327"
"1045","55,1996007984032","24,1996007984032","-66,8003992015968","15,8812375249501","-14,0089820359281","-30,0459081836327"
"1045","154,199600798403","2,19960079840319","7,19960079840319","15,8812375249501","-14,0089820359281","-30,0459081836327"
"1045","154,199600798403","2,19960079840319","7,19960079840319","2,8812375249501","-26,0089820359281","-29,0459081836327"
"1045","154,199600798403","2,19960079840319","7,19960079840319","2,8812375249501","-26,0089820359281","-29,0459081836327"
