Timer,AX,AY,AZ,GX,GY,GZ
"1003","12,5669914013698","-0,34259848367157","-25,3516087877804","0,0317658731078191","-0,091394424201021","0,00485142510612492"
"1007","13,2156643736925","-0,421843605056717","-26,1711419128","0,0334305219881797","-4,95749932288967","-1,49055261691301"
"1015","8,5773750828814","6,82255927340291","-26,3700275275519","0,0338474853588654","-3,91259100045412","-1,32377594931204"
"1015","9,78974158754021","4,1640936478741","-26,4217261603899","0,0339590125505824","1,18045606619912","3,79453876661613"
"1023","11,8707988400465","0,0421688265118441","-24,6964454450559","0,0339889821017786","0,486577267699564","3,62661941801052"
"1023","11,6810394804505","1,27896145743801","-25,2457663703947","0,0339970382086635","-1,37340591423899","3,51266486802938"
"1035","14,8282102978789","-0,306878555490215","-20,1729318049864","0,0339992038209841","-1,22013105964522","3,42978626639177"
"1036","14,0539273741427","0,399490525824565","-21,8477887147857","1,76518304619288","-2,69499695369589","-1,22936004650736"
"1043","8,92077454510757","5,97480647939879","-27,5016303128893","1,23055424399946","-2,36657576052228","-1,19690318671861"
"1043","9,92157326416324","4,00712066734689","-25,9785461039775","2,81802032970369","-3,76167605113298","2,22141214876033"
"1056","15,1429472346201","5,45762998472668","-22,1031276740304","2,2447577904997","-3,39693899012149","2,19443083383443"
"1056","14,1765081580111","4,72620334640707","-23,0907776500067","3,821838480787","-1,68620792104669","1,05160728954062"
"1064","12,1895790824201","-0,853752213571204","-28,5651047112024","3,24578417343402","-1,90722134444729","1,04617742901407"
"1064","12,4157327036896","1,11307453837433","-26,995127102874","-7,29616841801494","5,71537432825145","-0,0722077240577872"
"1072","12,5038124258182","5,1069322470832","-30,062565372344","-4,13002176537926","4,18634643249286","-0,0635991541367485"
"1076","12,5381167071597","3,84642683567275","-28,8638520622654","0,183457978190242","0,400805011781185","-1,16582526514296"
"1085","18,9936029602914","-0,0166498469639955","-19,8568371402456","-0,657006451519117","0,677047220609299","-1,14731272266108"
"1085","17,5078118073721","1,26807071383939","-22,5039939731084","0,848245897171252","-0,741812010746698","-2,23824377541472"
"1093","10,4870170723005","3,32078899509292","-21,4567167239834","0,252882929064593","-0,387893874053775","-2,21236489202499"
"1096","11,7526383525112","2,70086614645858","-22,1831433879742","-1,6383438624286","2,86255774658631","-1,08370355292881"
"1105","17,07715239367","0,771240460513018","-32,8055625693067","-1,14673728643673","2,34266077107594","-1,07437847539909"
"1105","16,1508831373755","1,41395488430218","-29,5803871483317","0,71659804979196","-0,983369818275781","1,1432824932389"
"1113","15,7901303965847","3,34780061205235","-21,7827894683314","0,21749378367309","-0,497887955873973","1,12885757777019"
"1113","15,6496285510321","2,70586756263998","-23,7458743993199","-10,3037733484134","-0,276822314314194","1,1159732912244"
"1125","13,9843760478473","4,40185057119355","-22,5199015541412","-7,13206609799026","-0,176159402549656","1,10445511833985"
"1125","14,3358125761027","3,71587534339072","-23,1996487448755","-1,08590831439587","-0,13032223973494","-1,11305964710361"
"1134","12,8621545962657","-1,85566452565105","-23,3772146251307","-2,46059987887606","-0,109450148335306","-1,10084577528378"
"1134","13,2882111650207","0,11272045855029","-23,423598990172","-2,8301399861571","-0,0999459780803613","1,11676034163228"
"1146","10,2330838902509","0,477182627771733","-26,9132688488631","-2,92947855374402","-0,0956182252689415","1,10522251848834"
"1146","11,0432079115889","0,544665703419912","-25,8248523150472","3,96855060916846","1,4509993908474","2,19804273063384"
"1154","11,358725736554","7,81652884998276","-37,7119685528561","1,82285633327052","1,15525642294933","2,17814075032851"
"1154","11,4816100051952","5,16297227337288","-33,8171616117372","-2,21630872726866","-3,61335191848985","-0,045792052232219"
"1162","13,1400010163098","2,85680309321825","-18,8895341482536","-1,30210391825165","-2,78475221989819","-0,0405602154311744"
"1166","12,7858921527119","3,42979748774121","-22,9900883736982","-4,51871687668623","2,2264940533629","-0,0358687749783137"
"1175","12,6479778883518","-1,90863412086392","-29,2775789032266","-3,38339629165811","1,50838027447087","-0,0316614990955352"
"1175","12,5942646202885","0,102912715792133","-27,9200186303636","-1,34701985289853","4,27067890414464","1,07503666328352"
"1183","10,9628135382196","7,7347347632451","-25,8266155159989","-1,79960777364542","3,52849998056444","1,06782934903452"
"1187","11,3274146568221","5,14782744625768","-26,2797696124071","6,73464530736913","-2,98804129085869","-2,24731744311819"
"1195","11,4694153244869","4,66884093706796","-33,3532504247068","4,02879541391627","-1,9553681643921","-2,22135827653202"
"1195","11,524720118105","4,58015276703606","-31,2010092150701","-0,160948854609537","1,60415660376763","-1,09519780261374"
"1203","11,5462595956825","-0,880794642466387","-28,9000168351907","0,712777742340523","1,22499702534015","-1,08489076315682"
"1203","11,554648544704","1,10806741711743","-29,2989437554295","-7,70826621191027","-0,492301401789183","-1,07564449472572"
"1215","8,33685286921319","5,10600513867225","-29,4031528065521","-4,97198380986389","-0,274278459932585","-1,06734968197091"
"1215","9,08362266498301","3,84625517416076","-29,4303746504161","2,68830774295632","-0,175001050725506","1,14579728141877"
"1223","10,984997465446","5,42784445645347","-17,266049515223","0,747522359075413","-0,129794780711258","1,13131630978875"
"1223","10,7255231450757","4,72068831843592","-21,0884430024144","1,95699001398112","-1,65385692898619","1,11832500838238"
"1236","13,845528965974","-0,854773364958669","-30,7808246115017","1,2821151682304","-1,34784326025416","1,10667004869971"
"1236","13,0606730976869","1,11288546405565","-28,3127016028983","-7,55521878012363","-1,20849900613593","-1,10947382956142"
"1244","12,7549964235597","3,29205520916115","-10,2802042070743","-4,9308420979171","-1,14504817651705","-1,09770104232691"
"1244","12,63594497363","2,69554585696506","-15,569693715917","0,968184065666618","1,97313827303554","2,22138567931814"
"1252","15,8106410857551","4,39993942511667","-32,6004215062788","-0,446058941513916","1,39301394987975","2,19913240773333"
"1256","15,0470853656923","3,71552147946142","-28,0492463233627","-4,28859765524424","-0,415794384549667","-0,0265124341484781"
"1264","1,86545280024445","5,40363807084147","-28,5991494031528","-3,32153639233497","-0,239440757106355","-0,0232717082799737"
"1264","4,73162152627341","4,71620631319814","-27,7427969617583","-4,7927573928081","-0,159137596862063","1,08247489686186"
"1273","20,3426871763571","-0,855603243953142","-22,3027678904935","-4,18824622855617","-0,122571308781068","1,07450746961053"
"1277","17,4227062222902","1,11273180534511","-23,881704936766","1,16780626770862","-3,19521465980903","-1,13831767323213"
"1285","14,6749340310629","3,29202675802613","-20,8166070822427","-0,392397151579115","-2,59435214832184","-1,12357912365658"
"1285","14,6047631900058","2,69554058901064","-22,0159317634984","-2,54298920947181","0,768546343913836","-0,00751813767304776"
"1293","6,52477658636284","6,21478047901781","-25,8067766250743","-2,12110435931775","0,299852393142105","-0,00623079738933941"
"1293","8,37787594920037","4,86639579544082","-24,7970340530299","1,45467186798716","4,72037206032747","-0,00507584591005348"
"1305","20,3733200397641","0,987047565103552","-21,0557124768188","0,415900382654669","3,73326912597553","-0,00403966813993912"
"1305","18,0451682127081","2,26875531915464","-22,0783916904248","0,136661216540047","0,194494883295748","-1,10594776869068"
"1314","18,7489577585455","-2,93845236199575","-24,0843160319776","0,0615970537348546","0,58310327656718","-1,09453815988246"
"1314","18,0230616499091","-0,902608369225533","-23,6083104320844","0,0414185500670291","-3,87388359262834","0,0185357170861393"
"1326","6,46662777221597","6,73371249034719","-23,4839666252933","0,0359942304575618","-2,90338610954575","0,017143736814522"
"1326","8,96576026871766","4,14763816428241","-23,4514851118599","-5,15901369220242","-0,916820170290492","1,11873244466816"
"1334","19,6022824911168","1,85396386069664","-16,4878938268924","-3,55551879536099","-1,01223133212129","1,10703648273634"
"1334","17,7448733394443","2,42927178120918","-18,6688407537686","-1,39328926352657","-1,05567709464215","-2,21196917588933"
"1342","2,52668781441614","2,53579462829611","-33,1487678571604","-1,81204576585336","-1,07546025464984","-2,18965661309596"
"1346","5,5996832196838","2,55551818249539","-28,9312638162345","3,26893525033894","-2,6291155374063","0,0360363084801651"
"1355","8,40704972679291","-1,07051390284396","-29,5683296101201","1,63478801202852","-2,33657719240225","0,0328446135381492"
"1355","8,50043067942804","0,25809735455925","-28,7347461102745","-2,26686464061218","2,43057191426239","-1,07285630070719"
"1363","19,81051979876","7,76346843604227","-23,3006648196019","-1,31569419415308","1,60130774868113","-1,06484975817655"
"1367","17,215443767315","5,15314771480342","-24,8811555654126","0,671179604362725","-0,320947170202368","2,25084571030624"
"1375","1,7099601949209","4,66982602719544","-30,5103465150976","0,205284545157246","-0,19625178978611","2,22556356966915"
"1375","4,67106204730768","4,58033516432501","-28,9808229800691","-1,65113910490336","2,94982255211138","2,20288138015267"
"1384","13,8769753495722","0,934081159150388","-18,1486160941608","-1,15017686182876","2,38239706549393","2,18253176916783"
"1384","12,4623890213594","2,25894816691334","-21,3189900552144","-2,74669308214883","0,579371184877573","1,06143744051494"
"1396","15,1325150476755","-1,12542620509815","-25,6247191342824","-2,17586337065357","0,758357870239152","1,05563355986859"
"1396","14,1724451497539","0,247929904107668","-24,7494763741601","4,90231824546905","-3,7940808807521","1,05042653539712"
"1404","8,96693376129481","5,94674382224462","-33,214725415812","2,80505196506214","-2,86704770215015","1,04575498792369"
"1404","9,93955080774972","4,0019246426959","-30,4260466513384","5,70363819346234","-0,900273366040325","-2,2669483917645"
"1416","10,3183545550015","0,0121418114319507","-33,1751316469609","4,48282669907551","-1,00469669451562","-2,23898192261687"
"1416","10,4658866998009","1,27340171888093","-31,8932570085628","-4,50126416036928","0,492400786211878","-0,00821662772664178"
"1424","16,9654716443214","1,50693404386329","-15,9094120474269","-1,91633819283213","0,174108674158961","-0,00685746393439212"
"1425","15,496855544634","1,55017441524873","-20,7340575346405","5,70326621641972","1,57382035427735","2,20003675036896"
"1433","13,3143443134859","5,18786477327634","-30,6882508305539","3,75154344717347","1,21118332193441","2,17997967583872"
"1437","13,4643248368673","3,8614121379859","-28,2885191640054","-3,69784534144526","2,59070240782212","1,05914780787355"
"1445","11,9122060796557","3,61580885981234","-22,4453233060034","-1,70036576366468","2,2188706163253","1,05357938750636"
"1445","12,3077046435","3,57033345522966","-23,9189437487614","-6,35695958658076","5,13884980140726","1,04858360908085"
"1453","17,2933332551571","1,7470712922957","-26,0426644966682","-4,60872996573147","4,46847119796748","1,04410158357919"
"1457","16,2350787832507","2,40947977016167","-25,5974300759284","1,05477319952038","1,07391834198235","-1,16559434296096"
"1465","19,0439848596656","6,16181403830436","-22,0035712449321","-0,422782332679999","1,5281983820143","-1,14805086250537"
"1465","18,1379654261204","4,85658863676337","-23,0647711799413","-0,819973996607526","0,190409218206496","1,07336331245567"
"1474","1,67978481800112","4,61491575011434","-32,0358643889714","-0,926745765556595","0,58124285655131","1,06633300644664"
"1474","5,26984114075861","4,57016808885037","-29,3793239636874","0,775735453648588","-0,785436819096087","3,26570049930943"
"1486","13,1101809726918","-2,69748541452218","-23,4690436455748","0,233390907893652","-0,407758563123775","3,23889073513168"
"1486","12,1637467300356","-0,0431493889218426","-24,9251400567909","-3,37476690229543","-0,235781621396967","2,11200060754133"
"1494","19,8477976294984","4,07800614173102","-20,0891767641802","-2,34470012856672","-0,157471398295657","2,10099694218154"
"1494","17,8404937635002","2,84107093670563","-21,8259099340422","4,85693209831843","-4,75575348236104","0,988287455180134"
"1502","9,00605477651939","4,42688455356668","-36,1897980043039","2,79285140886432","-3,8495952048051","0,990006130005172"
"1506","10,5653186663174","3,72051058476534","-31,9419818512538","-2,95555781152956","-0,347679357610828","2,09438547082453"
"1515","12,783134360511","-0,0399642444595472","-22,1384698819775","-1,50082644842771","-0,753071333289553","2,08519330050865"
"1515","12,6469038150321","1,26375386731114","-24,5775630387492","-1,1097703032705","-2,48231476223483","-1,23156580094988"
"1523","15,8149092097858","1,50514766724506","-19,9983815096998","-1,00464786448624","-2,26973101325932","-1,20723798667683"
"1527","15,0487476657542","1,5498436533792","-21,8021920879009","0,754794065238479","-0,628283396341463","-1,18541198181662"
"1535","5,08716312110494","7,00264555938469","-30,9672725827082","0,22776151209343","-0,880845235159676","-1,16583050676839"
"1535","7,207439269017","5,01227529490309","-28,3614061780409","-1,64509691988705","3,63809084608964","1,05741208014886"
"1543","19,3069403136859","-2,61562574141978","-8,55415039405544","-1,14855262133959","2,69580212499671","1,05202215757252"
"1543","17,0193153972844","-0,0279924179684363","-14,3800314618045","0,716110057378179","-0,822565829472645","1,04718652067426"
"1556","6,46516872465193","2,26597054640975","-31,5508772851893","0,217362603142417","-0,424665370844184","1,04284816815048"
"1556","8,35466056194794","1,69071607374375","-27,0363042128998","1,81447419578182","-0,243480187676971","-1,16671885946748"
"1564","13,9221525620941","1,58420312295162","-29,3345452092059","1,24380453033358","-0,160976963849352","-1,14905973670919"
"1564","13,090515578285","1,56448140113021","-27,9348995631633","1,09039897024962","-4,75734975229031","-1,13321663239863"
"1576","7,93502477019056","5,19051382574892","-17,1366198225199","1,04916098742081","-3,85032207116891","-1,11900279190205"
"1576","8,9271232593684","3,86190263116599","-20,3158563482087","1,03807552724025","-0,348010338418737","-3,31192548597312"
"1584","-24,5076461105547","-3,64346843868536","-40,2728898313726","1,03509556995365","-0,753222046406378","-3,27933368982892"
"1584","-16,5294371350786","-1,03314771529281","-34,4861342051991","-4,15925526719102","3,696204452971","0,0584186804462732"
"1596","7,51473321445563","-18,698246320335","-12,1091790982383","-2,55558373476231","2,72226433251364","0,0529252417029688"
"1597","3,87918128902023","-11,9690801301736","-18,2637945418038","-7,31803975330661","-6,9891040257354","1,15083414398292"
"1605","7,29484252629721","31,0182453000794","-25,0878539505645","-5,59826766296108","-5,41120512322775","1,1358369383246"
"1605","5,62513514325178","15,9776912423552","-23,8704580309451","15,6382349658713","-6,23735102301537","2,22521941646405"
"1613","-14,3515408077068","53,1193374196045","-49,6340945399785","9,34696240881617","-5,61353906937204","2,20257262204091"
"1617","-10,1318277515139","37,9964092540598","-41,3641595665937","-9,65606956391568","-5,32948440034161","-1,12625746472935"
"1625","57,5434073576259","-90,0278214580779","9,48188553414703","-4,76440270228315","-5,20013924347704","-1,11275928701208"
"1625","42,9007828004333","-44,7325282165397","-5,23593709332983","-29,417189628472","-11,3198293760643","-2,20348663694119"
"1634","53,3032556355465","3,58078100681097","-10,8193535211358","-21,0442714851394","-10,1064488773872","-2,18204641117646"
"1637","47,3546916092304","-9,47362469982814","-11,2778726093333","24,4860905452649","-6,46463845807123","0,042863777320495"
"1645","49,8695073858547","62,5177712324005","-34,0017441778174","11,7254141171836","-6,8063290151556","0,0389699645276629"
"1645","47,8489490307502","34,84755201072","-26,9377514359049","8,29513065720264","2,30596291550535","0,0354765813575102"
"1654","67,9989140026101","-115,463171973446","-7,70470526863016","7,373013034196","0,455272740934699","0,0323424486647489"
"1654","62,8466915694884","-63,2944006000673","-12,6805833314857","-44,8103653680984","-1,93209161554133","0,0295306220607389"
"1666","68,8927202560953","-31,8568324072566","-0,0701864688311105","-28,8381311239483","-2,01918523113046","0,0270079564220824"
"1666","66,2474582599438","-38,0359160770867","-4,77605557751333","17,0038710419953","5,66439122991123","1,12758212519385"
"1674","45,89083447192","76,9698672053653","-30,3482109973233","5,32696869974964","4,16313112398369","1,11497609692541"
"1674","49,9625697963169","34,2641046561456","-23,0282566805361","40,2740535397207","17,3813504184841","1,10366643995462"
"1682","-17,7044698720532","46,3200546478987","-57,6304215947973","27,6684150202219","14,4003067480989","1,0935198388148"
"1687","-1,05865344845715","37,5523098831734","-45,6693171658083","-41,5051554676524","11,4982324918435","-0,0184207221531919"
"1695","16,698088652536","-112,888154348037","-16,4631478346592","-22,100169301732","11,1767641590425","-0,0160121957463988"
"1695","16,6137811867726","-58,7434054155179","-23,8338126393715","-4,76550133909889","3,30714777306738","-0,0138513559572206"
"1703","55,233700967895","71,0615003547463","-3,15510719819768","-7,10565237798674","4,72369403374914","-0,0119127313354076"
"1707","46,274944985748","29,0959132934382","-10,7533452133736","61,5126061743436","2,2794287573899","2,19550135017087"
"1715","2,52250497525347","104,808383702163","-47,5137146366418","39,9583428632528","3,16642513499415","2,17591068471594"
"1715","10,4823057644824","72,8271510793554","-37,1163837526358","-12,5777519435813","14,3828503564091","3,26117208256653"
"1724","20,0245236217549","-139,986420394169","3,85272743609096","0,299666225936965","12,4902836708327","3,23482800907858"
"1727","19,7409173397167","-65,3905494245857","-7,44518156498957","-53,3677157016218","5,44990983563448","5,41686791189678"
"1736","38,956839056942","11,9409416920478","-41,694438488747","-34,7944064498856","6,24405421211248","5,37451248257118"
"1736","34,4408361551966","-8,74051634196956","-32,6411462304635","44,63929013132","1,97172938540731","2,02800054586796"
"1744","76,1663443178462","125,358141084608","32,3197428392391","22,9923976317998","3,02631329077746","2,02563522930209"
"1744","65,4171173282579","74,1875763666511","13,2890479089075","18,9045337792131","14,319050002306","7,53770020581456"
"1756","-196,454401063654","-22,3994789624833","-129,045565623686","16,8056475376244","12,4612319856847","7,48291869633692"
"1756","-138,44512066592","7,71665787735804","-87,2266989732667","-39,156432487007","28,6063854733123","4,12525854538107"
"1765","-152,89455398741","-86,5234109519698","-79,7801851301413","-22,1999765010363","24,958130183539","4,11289146804254"
"1765","-135,522153778916","-48,9727108545755","-75,8349813787899","-36,6848130918829","-4,50675924369446","-15,749277191269"
"1776","43,5707152161799","-58,3534776901053","-0,0370084979993734","-29,5785796690815","0,0763138035776959","-15,5688718684797"
"1777","6,32175456788146","-51,090401440936","-23,2368034223505","34,6542921426192","-42,6315318159984","-24,2297182419161"
"1785","54,625182702413","124,479249831634","26,343717822527","15,9211634565788","-33,078679119956","-23,9999056058159"
"1785","34,4378486423731","60,9873701769105","7,29531073583735","71,476798878919","-21,0055238074207","-20,4852140759704"
"1793","86,1651807755696","71,0094469360826","-46,3663236232236","51,4110837792567","-20,5079758421633","-20,3319643200375"
"1797","69,3113496287801","60,8651143309615","-32,383998827743","-54,3915453530455","-14,1028280211143","-10,2689376820014"
"1805","49,8630608822865","-207,794968016078","18,2154796429669","-24,8330633854568","-15,1862244937646","-10,2407666402803"
"1806","50,2885641349198","-110,539523670237","4,43324803918272","-101,715228225745","-6,41167060600825","4,1213936945999"
"1813","23,0752495563863","-110,680323249158","-46,1139614053349","-73,3824412771486","-8,41615082489584","4,00658665849601"
"1817","29,4765194857351","-100,706393413466","-32,3180759082027","53,6855310141347","-4,6949561025809","11,6234479507043"
"1826","117,327779822704","187,885399824939","-2,63261880671581","18,843529306836","-6,00049877602361","11,4570109552183"
"1826","98,5430824824002","83,3204706202241","-9,87808242487575","45,8322643548274","1,12825320331709","0,279315809180119"
"1834","36,4689642917623","-286,305071133043","23,0047646155177","32,0872881745056","-0,625647916619727","0,251105881839301"
"1834","46,2930477132194","-161,744186361158","11,5945341057251","-134,338817812854","24,8347062100681","0,225796990362777"
"1846","-46,5126680154181","-213,089268910309","-45,288159473682","-85,0769413672749","19,4281558427901","0,203090799735917"
"1846","-22,6575752145331","-181,596220200282","-29,1472507570188","75,3160527024039","24,6895015046339","1,28555706495408"
"1854","-50,408990331616","272,500950028177","-89,2656012813648","33,4323747684731","22,085271242455","1,25670530303426"
"1854","-38,2172936368139","109,580660566069","-67,9699219109401","145,087352269003","2,36366354894302","-6,4890412884839"
"1862","114,699882487123","-209,145212275272","66,2624756430212","104,102079521374","5,38336954622258","-6,43823536193832"
"1867","82,2563127862205","-109,159848098602","27,3271204923564","-180,442402761346","-2,50947991450782","-5,28981677528207"
"1875","-113,980022858543","-246,723175488659","-74,9988649957913","-98,9327233728237","-0,10351290502768","-5,25949858168463"
"1875","-76,4079032459319","-186,194122030269","-48,7288080302793","26,8494385565839","24,1617558959517","5,79607586750477"
"1883","-32,7851782711435","262,390243738661","-69,686879537115","0,66178949729145","20,2110197934138","5,71472367416935"
"1887","-33,7954989867705","104,449214589989","-59,1616184787236","190,977002442941","-20,2041339162786","8,95024975972447"
"1895","110,758843699981","20,7599132641769","40,9593150689117","128,136917893315","-13,6072969909389","8,85304272262205"
"1895","77,0582134168124","35,2641720617981","11,1132469125296","-131,121205041258","-12,148054208074","13,177181845489"
"1904","-48,8043238256392","-299,610866263507","-45,3689893095061","-60,8141289219324","-10,4835835718497","13,0566377004385"
"1908","-27,8238232471579","-175,615648796268","-32,1234717557111","-112,892923385309","5,72080779835079","19,5655144631154"
"1916","-56,6948016184901","103,235780177855","-61,7001876483681","-85,8925752274589","3,09952665844755","19,4050351974458"
"1916","-44,939139596883","13,8673448921344","-50,4263182806456","168,924776319671","-15,0851982433382","20,3638966138277"
"1924","217,32435358396","60,8395377961045","46,4126161069724","94,4239465050965","-12,3656679958295","20,2241512055906"
"1924","159,467735037481","34,5368137133028","17,7092129328233","-55,4418681920765","-49,7434956502239","9,0704027530997"
"1936","98,2816470273793","-278,856490283454","36,2928608528957","-20,7283081993629","-41,7636030743212","9,06367690336342"
"1937","98,4515902723773","-166,883758480928","26,1473447643558","-118,730084118638","-21,1388181688347","6,85196790257459"
"1945","211,254979575482","68,000244770792","-54,7478480353489","-83,0746022074173","-22,7472596776336","6,86770532712219"
"1945","185,188351632309","-6,50910983837613","-30,8795662883872","141,17691228808","-23,4796684071686","0,264799895630459"
"1953","266,836512795912","268,254771923866","79,6819829990736","77,459473748285","-23,8131729481573","0,340920157252784"
"1957","241,635903437604","160,129494691273","48,5632481064678","22,2451278456712","22,3743735671022","0,409212408320603"
"1965","-95,1168263447479","-340,823899987756","-65,6310658763515","29,4025872820214","13,4060132496931","0,47048166116487"
"1965","-23,2714224972331","-168,579413959351","-34,4612941713601","-169,49062574953","51,0277110612574","4,93679978277248"
"1974","-25,8899951168792","-202,021287517885","20,627947819416","-106,956451233767","41,1588655026116","4,94381331647426"
"1977","-7,90984678860164","-172,213316962226","8,01854756005694","43,1548926927709","25,8525279582584","2,7444307765156"
"1986","-126,528597939374","174,496167885719","-90,9080353518041","6,50733506750049","25,8827406371979","2,77122704058699"
"1986","-94,7268705215935","50,6921925209111","-61,7499748475824","147,268801500766","19,7179102294962","-0,513244583765968"
"1994","-1,81452529052881","-4,89825684911204","-85,4311853936485","98,1078402719505","20,9107359667059","-0,459949653019884"
"1997","-15,6280892541039","2,8087283555053","-73,6172720056106","-77,8386754221735","-37,2426917159002","-4,82348507495746"
"2006","154,539890515205","-68,3579430760262","47,7056067597005","-31,1360444941351","-25,7230317557008","-4,73828581561708"
"2006","111,814966233678","-41,5350195394141","11,3979830676959","-16,8504121584487","-54,4597527172056","-12,3817100975104"
"2014","175,701524762027","97,729768719297","12,3462412660709","-14,010195020066","-45,5451059459564","-12,239104422648"
"2015","150,583329844271","49,515754302564","6,59394850782026","40,4199839025582","-30,6732657195211","-5,4941394859826"
"2026","73,1582619296545","-122,747237403343","27,6954106163661","24,0517272536557","-30,9013280727334","-5,44280927401054"
"2026","85,003633276805","-64,6431033734774","20,2076065401588","-54,7892142714587","16,8788788239188","1,22026673196567"
"2035","-132,636307765227","-93,8111844722184","-105,20152095625","-32,9829792891016","7,63574125171709","1,19812925878906"
"2035","-79,4002192336423","-77,2118871775317","-66,9613210988256","-15,002815443492","42,0430244837459","11,103805036106"
"2043","-131,140352632748","2,08497025532277","-157,821127749653","-17,1694463823021","32,7104854768039","10,9908067720872"
"2047","-106,291507176384","-25,2325845399106","-123,555836429126","65,3449233439236","-17,8785233458148","0,963892266787715"
"2055","254,482193434953","145,749029292426","69,7053782325201","39,5261673616585","-10,9143822673362","0,968119679602639"
"2055","176,992202178458","80,4076379357962","14,1897320751723","74,1340517002406","-61,8058830864935","-11,1592991538748"
"2063","117,822721760576","71,9388425684175","41,4183837026459","59,4372304071568","-49,9794826579965","-11,0395656444138"
"2067","112,778070233103","68,3707776039615","24,5311449766879","-55,3092497347072","32,6380527568775","-4,31512075889846"
"2076","-249,945708478651","-222,664602752948","-158,974185732644","-22,1550246542472","20,2581986058296","-4,28220036916298"
"2076","-167,215211305222","-116,552123180312","-103,910074285151","-117,113609387447","54,7818153710425","6,77570867305329"
"2084","-115,667907387474","-131,38655035401","-115,607688055307","-82,6400667370502","44,5022491920061","6,69645098924442"
"2088","-107,591853861639","-115,133262785916","-103,663378633063","70,315209109338","-55,9466940747592","3,31683173033252"
"2096","410,923580128906","359,735090576588","163,750796046614","28,4321479965338","-39,686425683704","3,28476376282626"
"2096","292,869032472569","187,660751232517","81,6056390926196","107,194809402246","-29,1929691308943","-3,361030878016"
"2104","-147,689706735608","-161,797539377489","-127,640470598008","76,3675314132466","-26,4147417970241","-3,32338921053723"
"2104","-74,2734784830301","-51,5025273094191","-74,3004532557522","-158,704363843071","69,0737970672083","14,3557800455059"
"2117","-259,880850119532","-317,825567327276","-183,819929715124","-90,8956248039431","51,5547934554038","14,2168693241332"
"2117","-199,169083345268","-209,137400966334","-141,428981003128","-25,9255525403327","-19,7530634739182","8,57805677152019"
"2125","320,519927927352","177,585169275218","106,118143253685","-35,4605094028707","-11,2233128511992","8,51912509734849"
"2125","214,92245170911","47,1899356031407","34,7832476078707","235,503289363351","-64,4912025275023","-5,87063252621086"
"2133","1,46869060763287","24,8610607774092","-77,7450329741432","150,342894881125","-51,7468979876169","-5,78058474509502"
"2137","25,3351645554843","19,7266916267716","-53,1400543401921","-187,624997890791","35,9225487363064","2,02006462550213"
"2145","-136,085928614611","-670,863948881819","-156,255582939775","-96,4764256433906","22,843097754005","2,01851541843272"
"2145","-92,9543671240766","-418,732310459425","-120,191773119514","-201,812907804673","-6,28237441370056","-0,188549292213637"
"2153","456,92993058553","-12,7094061387327","271,759787747157","-155,129117727156","-4,54474668571839","-0,168645184293163"
"2157","340,092568682951","-135,531029118979","154,146711696776","404,474176219796","-23,8339231080105","-7,87064983334817"
"2166","-204,676659445386","529,552697519073","-318,225830718224","238,904910373733","-19,6173082171015","-7,78060027241116"
"2166","-106,847138828439","273,698250685715","-187,620597839931","-34,1190702940976","47,1779125392027","4,43140033501404"
"2174","229,20270128038","-726,467304868338","176,864098455579","24,4875128019166","35,593319319937","4,3875504289339"
"2178","175,083544013459","-386,655929493872","82,0760343332945","-368,317305430769","-43,824814525853","-7,78300157648326"
"2186","152,395303048624","-174,920098407421","88,6131514245534","-237,909816813571","-31,9881031464468","-7,7019655352741"
"2186","144,558946820491","-217,715521600011","72,3207994537959","290,533127976849","36,7323047447779","2,29627365942758"
"2194","217,201910872414","516,630954672311","28,0729941564584","147,587438598594","27,0243513385802","2,26631983068798"
"2194","198,494060485298","243,601058005998","39,5144314965762","100,505327840845","-23,7356035717288","3,34228378612561"
"2207","-95,4666575577542","-362,294264567129","-79,2111583879178","92,8488682320198","-16,849303313833","3,30759839512216"
"2207","-31,9551111021376","-168,480612948427","-40,225062033303","-264,101884233716","14,0900397309591","-0,0320322701346223"
"2215","60,4229596259758","-245,114676338603","-45,689970229522","-155,056222478392","10,178363619719","-0,0282239673871956"
"2215","54,4013125483769","-197,304084002048","-38,11753219315","54,3001358746692","-20,9511222398993","2,18086751938869"
"2227","188,951243973396","199,924622523966","26,4565230844786","6,57862999273884","-16,1260282372876","2,16278175918992"
"2227","156,354210178891","59,474683726166","7,32477811122175","189,373998451672","-3,11637829334572","-2,26479374831104"
"2235","30,9214890566519","31,6544160448082","-25,4933069952578","125,512453808627","-4,19239465140824","-2,2370488579979"
"2235","52,0693894946763","27,5032717367333","-18,0661591521402","-121,901971892374","4,58551979395589","5,50770468972281"
"2243","81,2427404341932","-238,232281997927","-7,43213131186757","-55,411111672392","2,58256981518867","5,45600784143195"
"2247","79,6048430171775","-141,435337868977","-9,65427427934899","-73,892103694753","-6,05271434877002","4,30678995311522"
"2256","74,1353391301712","3,52632992676931","-27,6225159296217","-57,8601037545961","-4,98481723787153","4,27575465596988"
"2256","75,0051394019659","-39,6328618355918","-22,316241315705","100,524876216971","-7,58784096422683","8,65926058844093"
"2264","78,5649621567207","161,082703170911","-52,2280967471067","54,101410475788","-6,7731357293396","8,5919781240542"
"2264","77,951401150329","83,2467898744371","-42,0417736730897","10,460707025871","2,86572453980575","7,4287774040343"
"2276","132,470507860683","-176,168823834899","-20,2543251357143","16,7293553165874","1,25480885855238","7,38519723338275"
"2276","119,703985100236","-89,2016924359456","-25,5629334966048","-97,5748053771416","-7,20196129653154","7,34609873460879"
"2284","63,1948195222522","-180,174714597929","23,4748547767817","-61,3016774238192","-6,05277728913794","7,31102102418401"
"2285","73,186276948345","-138,019094769443","7,28467313163872","26,352393266884","-0,895551976518542","6,17671320463862"
"2297","94,7934813381389","272,68128475708","-59,5405385326045","4,91527495148253","-1,54719375616766","6,1590546634091"
"2297","92,2088078228247","126,725733593922","-40,996848310923","111,679530439283","7,42396094327001","5,04037467081442"
"2305","99,2548160541687","5,32911440501076","-83,0997701699367","75,3795497353648","5,50900350150634","5,03673683128791"
"2305","96,9990146376999","34,8515627467452","-67,0980390603672","-41,7118548144332","4,63702181030818","5,03347309775635"
"2317","123,499485650952","-228,278740965472","39,6698064430027","-11,1879846729748","4,23996229702494","5,03054499812813"
"2317","116,820585574447","-128,999414029214","8,56006730494818","-86,0794537515899","2,51451308015613","7,23359283670147"
"2325","85,2297979048943","-137,839685761293","49,1192195827765","-58,2115344545154","2,72882453513233","7,2100849414283"
"2326","90,9261797527356","-124,476532535599","31,7142197163354","98,1615890195111","24,4514693575939","16,011693817298"
"2334","-87,2347814966681","398,857424208263","-108,456947616987","54,1973025697821","20,3429416986928","15,9081680324542"
"2338","-44,6228720933094","208,756877634798","-67,0729381693703","42,3789663328019","18,472111142248","15,815288571193"
"2346","83,0997966206918","-36,9634291961433","-47,5685830902423","39,2019996926171","17,6202227623937","15,731960593171"
"2346","63,8437587424811","33,5394974324602","-47,4735889135197","-93,221949754914","-19,8392142577897","13,4515270285706"
"2354","37,0177602176914","-274,633362931887","-19,6283487977394","-52,8197243756695","-12,8964827546327","13,405607345453"
"2358","38,5698775674752","-154,694024380257","-28,3545201751686","-61,0019456302876","-11,2797358244884","13,3644099236157"
"2366","37,5638470018462","384,743678504371","-82,79729808252","-52,2014636882689","-9,54354519610121","13,3274491379393"
"2366","38,1720297398528","199,624868886919","-67,0190262697491","171,755710248671","-16,4762003202984","16,602801533763"
"2375","120,546001922177","279,683693606866","27,5190103156158","103,959148038958","-14,6330059013789","16,541325172331"
"2378","101,628073126267","231,507223128247","0,214558767595659","19,9493332702559","-18,4276426029019","17,5890082906952"
"2387","94,2601348979031","222,586965619173","-6,91800322029794","35,3660885887295","-17,1555419579023","17,5289503906559"
"2387","91,3905547064016","220,935308840715","-8,78119539691698","39,5103705218688","-16,5762870629322","17,4750686895072"
"2395","72,5570974905477","-494,418268122797","-63,1699790513289","40,6244228880476","-16,3125215859899","17,4267280429516"
"2395","76,222058285678","-232,871684762847","-46,3776026755931","-203,17294059734","-8,46918037080523","16,2805212132762"
"2407","101,807417043577","436,231723876593","20,6049163506817","-127,709753497833","-9,89769111036399","16,2521873253001"
"2407","96,7721095272207","218,121553205451","2,10231849479503","212,844917356078","-1,28028605294315","19,5352794510083"
"2415","73,8741067310627","161,403138352275","-89,6698226575222","119,391714364322","-3,35632446934326","19,4807468856852"
"2416","77,9560548674013","159,901271757018","-63,6428544680839","-78,8483969949934","-1,21236095047142","19,4318223081411"
"2424","26,3983073044111","-274,124055817884","-27,284799040357","-32,1386578156653","-2,23610064604856","19,3879290074375"
"2428","39,3181863072446","-115,487304701933","-34,7872237588518","-161,539325097399","-1,15761666714036","17,1428747600755"
"2436","52,4027300698579","-29,8543428791865","-5,44905415036697","-114,324390856941","-1,66652570953017","17,1286960768436"
"2436","52,4987483089208","-44,9987174434751","-15,7852373922886","97,4538486259609","5,82497581490281","14,9103006726531"
"2444","94,4099621874457","184,496960645781","-39,3506095023045","39,383384938271","4,23625380282106","14,9200393062071"
"2448","84,7330617330709","98,9899146840852","-33,506436402796","91,2892191691421","-1,12111647611199","16,0316138539192"
"2457","21,3745495952679","-74,7336529758412","-28,5022483905879","66,2423764051371","-0,560611315170295","16,0288769541118"
"2457","33,6984019731638","-19,8999562256676","-29,1950373252649","-91,103577725275","7,41785121699845","9,40939704993336"
"2465","102,919412989824","-29,7103225320483","26,2648408113237","-46,4008044428745","6,05086837979982","9,4706473147124"
"2465","89,8788195283378","-20,5267900491134","8,75225939047203","29,6698299733745","-2,29482621336366","8,42276135088937"
"2477","78,3577927346238","327,808441786474","-61,8959472314151","13,1188900603527","-1,09506361125989","8,48263726557149"
"2477","77,8707151766538","201,305486434761","-42,3509127954703","147,164380979594","5,62983977890368","5,22784346623643"
"2485","-18,9508734299676","123,437195055757","-112,012685515396","103,198053095395","4,69204497647629","5,30776423134085"
"2485","3,34016319874581","139,019260242526","-87,2099714501677","91,3791680866517","4,26501726297037","5,37946615195593"
"2493","79,664141884187","-228,323370166451","28,8120032003795","88,2020539274296","4,07056889576884","5,44379443276222"
"2497","67,3899309155325","-92,3397861627808","-3,88034074956326","-99,6197994395425","13,2499080051031","16,5298814598777"
"2506","4,63037948091266","192,361068489786","-94,1428460227778","-42,1094580919543","11,4297479671165","16,4759040099817"
"2506","16,1875082132065","102,075700992419","-70,7215255985797","85,8771962722505","4,4223447189624","27,4558515613297"
"2518","86,7204359397867","252,324112259194","-33,3053497814672","55,2821516865029","5,23150235245775","27,3066497444539"
"2518","73,1907927722642","188,143803189514","-41,5313686818604","28,0146756464269","-5,21257398491672","22,7614418159553"
"2526","96,9109884804294","-74,1878926404877","72,817834012584","31,6847215814632","-2,96831588760824","22,6836512987794"
"2526","88,1492586223612","15,2393029106227","35,6885228652767","-145,640584227471","7,32149562225146","21,5110231469034"
"2534","84,7368404309042","31,7974609638209","25,9894775334117","-90,3085951656597","6,00699256688019","21,4589850370709"
"2534","83,4078108782909","34,8633359074","23,4558598216166","-75,4344301512647","5,40842960547457","21,4122983916753"
"2547","31,3531891540118","31,8013230317482","-112,830554328616","-71,4360055757753","5,13587214179833","21,3704128799743"
"2547","43,0795512995222","33,2343669414503","-70,4317564009124","114,875446523021","9,64570315449625","8,09878584569626"
"2555","76,6361666839192","66,1668629711757","3,23975942452321","57,9590840277803","8,6992684127656","8,19197856223905"
"2555","71,7054128985804","54,2645771059644","-13,5155158666552","-14,4700346128114","8,26830647663875","7,17275017117104"
"2567","-7,5204703851967","-24,1625912222766","-14,4148328655363","-0,940194293929512","8,07206664920958","7,25833658804888"
"2567","9,62354001785646","3,31599344270258","-16,6497555201813","-38,8515449008389","26,5184717760069","8,43795892949276"
"2575","13,0795299211133","-85,9679131070105","-29,4050057590268","-25,0427506465029","22,9180984142767","8,49627196455289"
"2575","16,4255292849839","-50,4995400594871","-25,736975743469","-4,01888298503884","8,9214817757083","8,54858823811763"
"2588","122,413235279697","-18,5244996718821","-14,3461408987804","-8,36731538120505","10,5480798497049","8,59552444160761"
"2588","98,6921130659273","-26,604066080819","-17,3705881585719","16,4315020639992","-2,61306642009812","9,74047125750476"
"2596","76,5692304501174","-26,2852201718892","7,92100423426979","8,09783936898512","0,39396562554383","9,76767470825611"
"2596","75,9530635163537","-27,2261833104274","-0,472239713618174","2,39524479993904","18,7543433746625","11,9977554466084"
"2608","0,0181075554571137","-50,9933565166216","-94,8199107129425","2,86229190834083","16,1147971850451","11,9985004577159"
"2608","17,4438306391426","-42,3940380766397","-66,4657312170672","13,3749415397399","18,0021657267247","13,1020062638204"
"2616","9,73581859516655","127,978503000423","-71,2303918314009","10,2009177608599","16,8615847284193","13,0920303908944"
"2616","15,733790349042","66,5243369684213","-65,4750327326562","73,4014675854512","13,2529237828555","14,1859178209124"
"2628","-33,4671948271909","178,554866287908","-83,0981406646711","53,3908334663945","13,6097090535635","14,1673127007852"
"2628","-20,6294310034614","131,298211752603","-76,7017090433793","3,00087528768556","4,50429054662809","10,8421086529954"
"2637","-15,6295257884674","122,548265497006","-75,0308113525779","15,4552109129366","6,35811055558242","10,8588599772344"
"2637","-13,6822199724253","120,928143204629","-74,5943337571898","18,8031448364343","7,2022531309371","10,8738886386744"
"2645","181,950500283015","-166,116875981479","73,3156944151483","19,7031255253585","7,58663601821015","10,887371791496"
"2645","137,143291462162","-61,2655492321167","26,9532565985494","-92,5818563841566","-10,7740975944679","7,59095614177329"
"2657","97,1448526251684","134,188186496059","-49,4924313497051","-57,765939369042","-7,1347134484038","7,63353533978378"
"2657","95,5667187944898","73,3780035682665","-32,4618347650845","95,2813724385299","17,6921955944186","12,0830854433897"
"2665","88,5099594909439","92,9708279979411","-28,0130442220119","53,4230521329353","13,9972040829857","12,075055338632"
"2669","89,7615737029504","79,5985956095252","-26,8509159784245","-53,0442443504326","16,9486193503037","15,376363259079"
"2678","74,1437235343505","-109,806108821581","25,6159567752803","-26,6644360945081","15,2925552624531","15,3381732233426"
"2678","78,0610621318531","-41,8758995341515","9,3215322770838","-23,0354685075313","20,7170492896902","13,0982357319499"
"2686","79,5867423010386","-29,2980798335971","5,06504711802313","-20,0599412648674","19,1871091315466","13,0886476107558"
"2686","80,1809467387478","-26,9691962620735","3,95315354293498","-19,2600697264925","18,49044623062","13,0800455071121"
"2694","12,770049624639","156,761060053809","-67,6271392106102","-19,0450508657244","18,1732186613298","13,0723280215279"
"2698","28,5156255165051","89,78018146855","-45,3255874939727","71,0342792326061","31,9305907699939","9,75689195214355"
"2707","-70,0365124155553","-243,848901272638","-27,3284639502921","43,2491112490726","29,1950519721743","9,78240674118768"
"2707","-43,4194703170321","-128,622985197867","-29,6271939374766","-90,5963849292812","23,3154751843587","5,3939480153705"
"2715","-23,3897809005921","34,2696898798045","-42,3991121454194","-53,5762951104685","23,6381920243492","5,45678701885112"
"2719","-21,5888468794463","-13,5694329617162","-38,7354361936153","74,0957863747759","14,5172603539431","4,41032641195644"
"2727","-78,8665720550243","-16,9827017789716","-6,48041967268103","40,4161793326618","16,3640163967622","4,47148110355205"
"2727","-65,1744444182007","-20,6146957066115","-16,0546542127344","10,5883380050815","11,0263545307862","-2,09067765500459"
"2735","-58,231259917219","-86,6215013868063","-16,816891835373","14,5701148858294","12,5958339774672","-1,97800100275834"
"2739","-56,5271079424838","-62,8431875786175","-18,0160061476826","-1,67134940914877","-23,7610258436895","-4,0825865456172"
"2748","155,116226076199","81,3023930091348","-108,745625471107","3,96267307775222","-16,3162324619153","-3,97074196210446"
"2748","106,544647724113","30,9920961954313","-80,4463261727561","78,1868894919614","-17,560164050877","-8,28174882592286"
"2756","198,75421600959","183,197684340473","17,3624959303458","56,1396015077143","-15,1265920805667","-8,14942290933184"
"2759","165,666942530599","122,379762169864","-9,08754986580141","51,94410464551","-1,66128200181694","-6,92786763727044"
"2768","41,6538199247084","11,302527507092","-61,2051123640909","49,8162848489708","-3,52981213261615","-6,83193394557162"
"2768","62,3546093333158","45,7356921465088","-48,8194398492341","-103,099835461375","21,8783453255859","7,59102050386723"
"2776","51,0905382492456","-138,44714604126","65,6976894326424","-56,2062486849497","16,4480270466726","7,53075567303691"
"2777","58,7035368579906","-67,5500665969726","31,6122446414188","13,5285800435731","26,3324907998772","14,0937127813825"
"2785","61,6685603596106","-54,4229072388585","22,7083284638402","-0,725530510813245","22,8334114115478","13,9817523787006"
"2788","62,8233437527221","-51,9923090511188","20,3824171024676","-4,55727406665264","21,2400949773915","13,8813056938541"
"2796","71,325752830382","325,944877672316","16,297281424739","-5,58731088457241","20,5145734965643","13,7911886859213"
"2796","69,6371737344514","187,922960216245","17,2301483457569","155,135840990973","30,9967338102499","20,3273635377408"
"2809","-72,7472426314182","-378,455822664226","-149,448717451548","105,34091500268","28,7698173673025","20,1913750964282"
"2809","-40,2014942983384","-185,32536874714","-96,989139432933","-145,216901137027","29,3004311575051","15,6580217141724"
"2817","-33,9680748192645","334,997096003979","-27,6446186610262","-75,5710368928412","28,5420477595576","15,5908666524067"
"2817","-27,5403539958717","164,338947684373","-41,5302063624841","208,021975921514","29,7413625350834","11,119268003223"
"2825","-89,4582170557854","350,521274775517","-43,4186703669763","131,256525610627","29,287474163172","11,1075169777246"
"2829","-73,5732771757031","264,994416639006","-44,911981377097","8,48087514225231","18,2682659884856","3,37711252718498"
"2833","-67,3865927315259","249,158437146522","-45,3020691738856","34,4767248165473","20,2506360556876","3,44168284866686"
"2838","-64,9770737342386","246,226279319724","-45,4039692390242","41,4648444251325","21,1533142907649","3,49961292552404"
"2846","-15,7226982638523","-117,285038934222","3,25515655078768","43,3433679693036","21,5643515685989","3,55158562331556"
"2846","-26,5396682473279","15,4079430531735","-12,0339406001964","-203,710859381341","-12,2307144935311","-6,32732310661295"
"2858","9,51074851804021","261,387833898639","-92,5339806050708","-127,123171814432","-5,61940053757662","-6,1903104490327"
"2858","-1,44874806853083","184,93297131939","-69,5624756969019","250,088632014382","3,56966920878048","8,26949851183045"
"2866","-39,5382877993386","274,222739784821","-18,3535895170981","145,489480071004","3,75394004593632","8,24229816992237"
"2866","-33,372965469975","233,755452117717","-30,9766295599983","-74,7898648099496","-10,0639743147979","3,80654540068841"
"2879","-109,887807572649","-339,968101889386","-100,347573501502","-23,0046405766759","-7,35600361546326","3,82695395768614"
"2879","-90,6879319016585","-134,197590889326","-80,4688881505545","-144,116199470403","-9,212214848682","13,7708004416281"
"2887","-83,2101842337058","-96,0975406436597","-75,2761101431256","-98,6730141210295","-8,05744627527306","13,6920475076267"
"2887","-80,2978367193905","-89,0430126567905","-73,919634955839","-86,4571251004625","-7,53161889570675","13,6213933213887"
"2895","-296,585315207325","-194,812490299518","-301,345024947206","-83,1732896163185","-7,2921818002848","13,5580050286698"
"2895","-245,822485050784","-155,396552141328","-229,753861227307","-13,0432093311952","-14,9063881947702","16,8096476538283"
"2907","-780,074779431127","-51,9117494657539","185,388488940022","-34,1910696499628","-13,3735402182012","16,7268997731382"
"2908","-644,14924391514","-85,7507134045609","65,8333899907086","166,134839175273","-154,783073619595","-8,71259896004269"
"2916","28,8440864658481","1688,3437634502","790,970615069113","100,985797274694","-127,174334437028","-8,53596553155643"
"2920","-94,0461794379144","1035,83149660603","545,393434952705","646,107203032318","-281,424482897373","-28,2285700075527"
"2928","598,936396010746","2748,00409902144","-167,320741309231","467,644963188746","-243,662756808119","-27,8960380428907"
"2928","408,831312326407","2055,02650356444","19,501630002696","251,746549297969","-275,896542807987","-43,0374265443568"
"2936","334,791361727436","1926,71617825245","68,304007218151","290,709441125873","-258,574295230515","-42,6217138683804"
"2936","305,955129794783","1902,95849879845","81,0523306933039","301,183318756386","-250,686557148959","-42,2487520073096"
"2944","165,881808170484","626,355312539592","-951,928355383591","303,998872414556","-247,094851640482","-41,9141445780638"
"2948","191,327655213073","1090,98205718899","-625,76709441787","-1646,28779166743","-155,869833899215","15,7335980102963"
"2956","1333,44162417777","-550,718209539307","808,724495458048","-1043,55749819332","-172,330244812395","15,4529960579597"
"2960","1075,25909145262","97,3079005836625","407,447282616318","1562,89725609773","156,907494487547","103,428243284427"
"2969","106,62866222581","3278,93360352883","-191,188271036533","851,555930676921","88,8268997233169","102,356343941154"
"2969","268,377576990782","2181,03696219755","-63,5658927249488","116,743930212862","272,532121521599","79,3379277499401"
"2977","-1016,64113499295","-5588,32377211641","707,013333786913","233,214162445966","217,182852598979","78,6866658623573"
"2981","-680,115504799964","-2857,88283928025","484,3066683193","-2212,79993176296","263,033154966299","70,3825161904632"
"2985","-549,049356794428","-2352,31993705344","426,130473358152","-1439,32947085393","237,911229501146","69,9323437631601"
"2989","-498,003214653166","-2258,7109360184","410,933489230842","-1231,40766170897","226,471884388034","69,5284659023387"
"2997","-502,28031968045","-1774,96408181659","-700,637005559311","-1175,51479843491","221,26294382341","69,1661217946844"
"2997","-488,946117558073","-1942,39449596245","-354,005242550294","401,037437895145","229,703565630924","68,8410402165936"
"3010","411,702622980999","5746,94242098467","-548,616271296144","-77,1589267287477","226,547028424386","68,5493891860356"
"3010","206,476978743435","2916,68444051759","-435,453228179028","-72,4050045009181","166,413105106414","-29,8647986987827"
"3018","-591,748982916009","-6255,08265332714","619,985795120733","-148,127070617078","177,030940359769","-29,1583263933114"
"3018","-456,632887873622","-3188,30843611161","305,691177625415","-1880,62267211409","-34,3847705879026","-54,9926037102128"
"3026","-745,442086917871","268,757765181488","167,949214539543","-1357,34649481262","9,34644288061964","-54,17015085837"
"3030","-645,924185846223","-683,138872428435","163,967789008387","1909,83586659861","-63,4192337983288","-101,957122968096"
"3034","-607,165093578639","-859,390122159785","162,927747447721","982,10918371114","-36,5533058293239","-100,829806633848"
"3038","-592,06964625479","-892,024445892519","162,656064242937","732,720719578566","-24,319823875571","-99,8184205916763"
"3047","301,212386624511","4100,00799765579","-367,741765203084","665,680925219274","-18,7492706869576","-98,9110428706014"
"3047","98,1176414632067","2270,32259454734","-201,294095767742","948,88539306642","-125,882636573203","-124,565075364497"
"3059","-459,309215438813","-4669,03870228457","-77,8303446268702","851,015495363424","-103,666140337757","-123,580913600414"
"3059","-379,409443100769","-2316,91675792615","-91,5787223329227","-714,315488233146","-62,6568520403952","-90,7156755928962"
"3067","347,45859305725","3659,31008358653","-60,394588696542","-246,102663011033","-63,9831479754984","-90,2302135414265"
"3071","198,550830498264","1712,85611797465","-72,2485629172265","2258,40657994211","-172,712368110961","-77,6634636398804"
"3079","343,4829038302","-709,205893639846","340,222506099055","1557,66059432695","-152,222548958143","-77,3890457504499"
"3080","273,929387752329","-21,6699806080987","208,969605973863","-1244,79837827432","-113,54415527893","-44,0577259857356"
"3087","246,840480950966","105,632773828868","174,683275608013","-488,146268189824","-114,931831162649","-44,154112817832"
"3088","236,290203796446","129,203893504315","165,72688341527","-284,745513315198","-115,563713593835","-44,2405874777566"
"3096","259,560237401146","-3459,81894383325","335,526146332165","-230,067985119383","-115,851443179342","-44,318169307623"
"3096","251,623183563013","-2144,35512917308","280,881689094979","-1574,34860786526","-134,518225249239","-9,09697570272955"
"3108","225,984510391359","4119,04449247657","-780,136228613168","-1150,7137448756","-131,018201198336","-9,497838425616"
"3108","229,99905362049","1961,76285607373","-455,298948948706","1561,67246931333","77,5582381273288","38,6673685761185"
"3116","-174,291334379984","-3161,70883622107","415,483171404553","789,807293791578","38,5341536963856","37,8793904372103"
"3120","-79,7497241035179","-1507,36045768021","190,951847728118","-1624,94164202893","53,2020044207808","29,4525840591832"
"3128","214,75629200352","-1652,94033438376","480,054326985048","-999,066583111482","38,8810548278335","28,8923686237263"
"3128","169,45712199222","-1430,89560892824","355,574662946651","242,512731084322","1,46702769090699","11,8472031425527"
"3137","151,814520096417","-1389,78225815934","323,057660419625","-43,7299630437039","4,43043672241841","11,554918332651"
"3137","144,943281581977","-1382,16979356249","314,56345808135","-120,676791430246","5,77983403154572","11,2926913355847"
"3145","-9,12280633573447","1982,14199523621","-320,570104575334","-141,361387125464","6,39428619745254","11,0574310837314"
"3145","24,8732983589462","752,07113883581","-122,481860695885","1430,18619551684","73,0938981696677","-13,416058633358"
"3157","-240,508229642579","-2468,36079107025","118,790074312413","941,64449619499","60,4657691999853","-13,3727580540412"
"3161","-170,865987585225","-1415,64943197339","72,8159523220564","-1516,39399070982","25,367220039538","-40,9048456443975"
"3169","-301,574607261924","56,9172556353216","-100,89978738621","-833,155887866871","28,3849890050242","-40,6056046547995"
"3169","-254,481503364669","-374,425284773832","-53,2784055782994","974,35984901616","6,58943486449578","-30,4116001434525"
"3178","18,3237490284366","1970,33715692087","-134,732521521057","522,250340075145","11,6647630438233","-30,2659206536804"
"3178","-33,4271858815209","1068,48861238717","-102,0102435844","449,18886619624","-72,5244006447215","-34,5465721053671"
"3186","-53,5825472738867","901,504166006973","-93,4624185032843","401,548718840328","-54,8601922047073","-34,3870124486077"
"3186","-61,4324265768152","870,585664777569","-91,2295264730045","388,742249651404","-46,8167412050786","-34,2438614936915"
"3194","59,5212142719015","-1704,95545566273","119,74572438574","385,299656330657","-43,1541313461012","-34,1154318122194"
"3198","29,6288529507001","-765,837422965259","53,8573991987256","-1128,67993809553","-52,2988795401634","-26,2803476364898"
"3206","-62,539854242253","712,919185282404","-279,811512968755","-661,662999752062","-49,4629684237761","-26,2510032246008"
"3210","-48,4366666529535","267,722758017523","-184,973644582424","1260,84719401639","-51,2609215992432","6,86044578426442"
"3219","68,1827516174266","571,852443226387","72,7962897881198","739,650120295145","-50,0796250421745","6,56679913538735"
"3219","44,602346929022","415,164478567802","6,13183147734619","-392,424385849248","-38,7291893395799","0,789163297289998"
"3227","243,177078511378","-1833,39934884061","355,599374370362","-123,744966014384","-40,5607339452559","0,605684564762204"
"3231","191,515690565406","-1026,73886410198","235,888478202299","-901,530419596383","-55,2965559945103","-1,7646005101401"
"3235","171,395204898935","-877,379245707841","204,617189487953","-619,612171012387","-53,0065573509215","-1,89113160695463"
"3239","163,558908594274","-849,724121862187","196,448396761825","-543,827825986886","-51,9637995086172","-2,00465057348706"
"3247","89,6435337036407","-650,41545811598","16,9593048495692","-523,455725281127","-51,4889765558913","-2,10649554351431"
"3247","104,855820091026","-720,511870394779","72,0725518978247","609,020937571073","-15,7458843846784","-1,09502963059167"
"3259","12,5381084854078","304,598860917069","-78,7143535672914","262,449624192077","-22,4701587312661","-1,18758025246716"
"3259","37,5832635427048","-77,5937163354501","-23,1034234521461","-500,682467997049","23,8966252511185","-25,5330362283091"
"3268","15,126934603617","-1133,81894026682","220,941963096159","-318,825150547668","13,0098812591176","-25,3748685660886"
"3268","26,3809008150358","-786,387459326935","152,69233157926","-107,20763273163","11,141863215942","-30,747153506647"
"3280","-56,2047318201089","550,146511182219","-80,7443669622109","-144,321301094136","8,29125552255282","-30,5669665780839"
"3280","-34,3692381130808","96,6164289267701","-17,7234977705352","-154,298076497904","6,9932226455743","-30,4053096065718"
"3284","-25,8650001198614","12,6417192471654","-1,26097131216524","-156,980000755161","6,40215942995729","-30,2602770193201"
"3288","-22,5528669107076","-2,90686758682105","3,03942601444491","730,396064584282","20,0348396448034","-19,1017851076106"
"3296","23,8319854974302","558,630058741643","-183,625081060951","455,937607179811","17,2425220141603","-19,0908036037163"
"3296","13,8974265381423","351,60309649099","-124,386220441955","-244,529760571492","-8,74331967711353","-29,0064880993285"
"3309","-54,3930298439351","-1200,30784815879","153,643621667721","-70,8271160757883","-4,57605166947338","-28,9024692829378"
"3309","-40,9900146216058","-653,656529369676","75,2715255772327","193,996153390623","-15,0356492024651","-14,4722611620901"
"3317","15,767044750279","1536,44349522505","-134,727748870392","139,185081829373","-11,7984587287542","-14,5260182702922"
"3321","5,87213415974956","790,957971398319","-80,5844757955284","124,450948160201","-10,324394207823","-14,5742471367173"
"3329","5,23944062292477","-494,054777896711","-26,4491237514963","120,490166354679","-9,65317444812277","-14,6175162714315"
"3329","2,99302639084364","-99,9851308735206","-35,3077023971274","396,414763214188","-30,9725899406045","-13,5534983103885"
"3337","2,11811870534331","-27,019994718169","-37,6217705337268","310,587914311901","-26,6804505807704","-13,5989012006631"
"3338","1,77736968086869","-13,5099181761518","-38,226259307269","-533,064643973412","-30,9045997211401","-20,2566594353535"
"3346","66,0659167990664","-976,504379409899","22,4730146635731","-285,852575864567","-28,8280788705776","-20,2297510567171"
"3346","51,1042837930527","-622,810479642569","3,32908609777709","-179,580618253496","-27,8825287901466","-22,4112846860668"
"3358","-17,533528356832","898,182072588112","-74,7003729441862","-174,01293686861","-27,4519696872313","-22,368475047125"
"3362","-5,26579728046177","377,805967001519","-53,0834944480116","519,95705239858","-25,7112663304089","-20,1243930205558"
"3370","83,2597336981035","-881,859557491553","161,216530899343","306,507803788831","-25,9186317663956","-20,1110865774485"
"3370","65,737643564438","-474,09666976128","97,1967146473667","-71,1398305278067","-9,0219396799892","-28,921847814565"
"3378","66,9659978589974","-460,300749940732","80,4732398298002","12,3421628838779","-12,3279795846726","-28,8265331858419"
"3379","62,4444032205196","-423,746325422887","76,1046766825239","-434,367142636532","-26,1905705890131","-32,0495326967021"
"3387","60,6833843294238","-416,977982359235","74,963505712978","-283,45008265797","-24,5029435351295","-31,9410872854026"
"3387","59,9975228617889","-415,724769692601","74,6654051389834","350,91480725883","-9,83265478048941","-28,5352818892993"
"3395","-27,238297103355","1419,31256424885","-280,122889723764","178,442710049754","-12,1524942089549","-28,4797206991286"
"3395","-7,21390509606251","748,084353151209","-168,801898538028","341,552497082133","2,23762946385687","-20,7100114077837"
"3407","50,5114408135552","-1171,07766727148","161,08610034941","264,399138580457","-1,20978398611913","-20,7393188964895"
"3411","41,9936473733405","-537,425812408065","74,2605688967356","-457,470195456789","-4,32422113893945","-11,9429131988848"
"3419","0,0234798566893097","841,215089532536","-191,849015014149","-246,520757805214","-4,74238956212145","-12,051107080617"
"3420","7,67741972332016","401,481441253131","-121,363068408661","-189,814017300762","-15,745332549591","1,08587433634434"
"3427","46,0900805371245","176,688730976274","-12,5341063679245","-174,570296082833","-13,7555560799553","0,871882609038894"
"3431","39,0506037062552","214,066568914357","-36,1054336121826","376,581380992745","5,68625821162522","15,0167835668601"
"3436","36,3089488977726","220,987373535944","-42,2628161331579","208,740179036762","2,5391474384058","14,7070595453342"
"3436","35,2411605848806","222,268815675254","-43,8712686024115","-70,088085868349","-3,52783989929044","16,6348615600194"
"3444","-34,4275618835084","-735,730506571651","84,3780334904276","-10,0417915492176","-3,29046102278121","16,3644134085027"
"3448","-18,5613379503179","-385,111717006177","43,8797537308986","-376,491842428156","-1,63772286918155","6,19624075434206"
"3460","201,8187405548","883,048411986484","-142,315780494338","-253,999751121224","-1,88514352780661","6,07373664046744"
"3460","154,649849377802","454,858367987213","-89,9544131874301","229,035820898422","-3,54245423741249","-0,653193927679395"
"3468","26,7629110502488","-226,951985360766","31,5277502963848","98,8838695202921","-3,29711570606215","-0,688344378882458"
"3469","44,9549710808577","-21,1946067855924","1,26173550197894","302,800135655697","-15,5425757459227","-10,6454167388111"
"3481","-55,8654011372554","-719,922852010854","111,592351863501","219,616241908971","-13,1185831924499","-10,5785295659647"
"3481","-28,1317649489343","-443,297955964118","72,4132918841079","-306,519309523904","28,1460101626956","-16,0327079467856"
"3485","-17,3303859772773","-392,078651568359","62,1788041692032","-156,953354181328","20,9359681615976","-15,9259927491916"
"3489","-13,123588610458","-382,594989106025","59,5053163713432","-120,209887905219","20,7421475445049","-7,00755258604874"
"3497","67,4308678730033","762,51146505234","-68,1237521784519","-108,332629020107","18,6538907374367","-7,00626171061056"
"3497","49,8042949427694","344,537052334174","-28,46345289676","381,322672581333","5,3458209677786","-2,59375394542001"
"3510","50,9919564744293","-393,456740394182","-59,8338923287342","231,950215340678","7,28595095121995","-2,63501705044966"
"3510","46,4545132847375","-166,102173441351","-44,0285855435936","15,2157057363376","12,8033359179387","6,15066251544907"
"3518","-95,4289145848824","280,704109338892","-12,0794439694135","58,9538410387269","12,3156939314096","6,03284554961501"
"3521","-63,688046990423","140,433853952306","-19,7335802066106","-344,772597917771","9,00435074932236","12,5441690354611"
"3530","-162,452647728948","798,657143163985","-150,402487322496","-213,301023798227","9,49652056726121","12,3858848782871"
"3530","-131,918353210815","543,532431658679","-110,536265042047","183,858037363229","31,3456890397871","25,4779271739996"
"3538","-120,026205910583","496,294057802182","-100,122274446471","81,6210421429508","27,2947743094836","25,2236177482827"
"3538","-115,394588588414","487,547496359976","-97,4018962937124","298,234865613667","6,91441444653246","30,5096478952965"
"3546","-400,265318069819","63,0698079647374","-374,895523959997","215,464287858061","9,6341556413259","30,2520763927578"
"3547","-333,21350698263","217,474380576124","-287,383356103205","-326,140806640975","-9,20781242893633","37,7408547465008"
"3558","85,8707390997314","481,99308171653","86,7097417865345","-171,733323461876","-4,78755985573923","37,4595065302078"
"3559","5,09087122553597","400,970827630594","-17,5683828903484","-221,978719618157","-101,632189898257","48,2354655358868"
"3571","653,273926943424","513,007853534241","97,7714098570075","-182,485523301055","-81,7306865260246","47,9032528270504"
"3571","483,720839431729","463,752401893275","45,9008640229151","307,668671588368","-137,543648829503","70,7647896229682"
"3579","1264,82478951947","-1140,61378133724","574,849358624026","162,430325215872","-120,958250845589","70,2753051859508"
"3579","1043,04020951942","-558,674968076055","401,023088995804","-80,8917983067647","-186,004446619811","48,8822472704907"
"3587","956,66209154082","-450,924358343895","355,61559780093","-28,30085874892","-168,623429559179","48,6891960232455"
"3587","923,020531494027","-430,973474104727","343,754098034396","-720,48630309531","-74,2087008145064","28,6649242860903"
"3595","-566,939140978913","-586,985507444261","147,651395295922","-498,557338934437","-87,2166671278617","28,699896791716"
"3595","-230,231568758123","-527,872378941426","207,424778243544","217,219336987275","262,1289168422","57,4050454756956"
"3608","-274,642488501807","1631,84585067059","-926,292339602375","30,6320908324582","191,20449026187","57,1582310150694"
"3612","-182,939144857074","847,734895338782","-561,445793025557","981,09823853403","157,364190098635","44,8055868042195"
"3620","-108,570822023768","-1509,74193167292","175,469227700915","658,599451507173","142,954906569172","44,7232565307856"
"3620","-103,606699434342","-727,247556923151","-1,03131645403358","-406,212162549858","68,4291292484917","-1,66977833097334"
"3628","-225,684251755428","934,845450084744","159,777023243444","-127,451351223082","78,493590040846","-1,29187364505602"
"3632","-196,229618601611","406,595218368856","82,7839263685745","-691,322400485928","79,9871789299139","7,86986758180917"
"3637","-184,757965443506","308,785477445122","62,6715269257913","-473,900378718491","82,6672891699853","8,08943906972381"
"3637","-180,290117363625","290,675224301469","57,4176973259314","896,783210508765","29,8250418881918","13,8006174445582"
"3645","-637,551495352801","1862,60484801726","-535,138765989585","507,245906941279","40,7631639860634","13,9244730272208"
"3649","-530,640419546705","1285,66014722","-349,928386960067","418,112407528621","34,9313424022976","29,4753153626838"
"3661","400,011444144722","-2011,65805030091","308,763482626045","385,151830635328","39,2758047195936","29,4269493488976"
"3661","210,47107266769","-864,18279648994","129,829220056509","-1072,70891140291","-110,12133331079","23,8693701206528"
"3669","-95,2654696123527","1970,72812527412","-210,7658419046","-627,606286009514","-80,1497741725979","23,8833179461648"
"3670","-70,340236304556","1050,63447864936","-130,737245997287","20,0556452599982","-95,8504258807619","61,3923033537581"
"3681","217,989299558624","1431,98378309954","163,156021222501","-110,841984617667","-83,9997653547446","61,0439618499402"
"3681","157,284584765101","1198,59364643753","82,9278231604788","1117,7343195344","-27,6301813629785","93,8165651844669"
"3686","133,642007737018","1155,37960235293","61,970339548402","717,996198613413","-34,9621199694016","93,2189188727934"
"3690","124,433967629589","1147,3781776447","56,4957541786679","-331,223793093177","-58,3811509870131","95,9912451899436"
"3694","161,111011974983","-2496,49130273186","46,3717813692445","-69,2716926474863","-56,0450779378655","95,4784726489361"
"3698","150,395567121116","-1164,18278119623","48,7271626520376","-983,89785645157","-50,3473990927957","95,01843230797"
"3710","323,380698290181","1225,83319760019","-53,2453753232912","-660,764681728854","-50,7529437138542","94,6057013241688"
"3710","280,752965869205","487,363706163018","-20,8829895926247","305,540020641597","-27,7679052788105","97,5439267558018"
"3718","6,46577230666949","278,036512536067","144,060716165855","57,2989022749299","-32,3015981694552","97,1799926940209"
"3722","59,6395377435721","279,277914152799","97,1478737220577","537,621443271654","-9,65167763484393","82,5165983384408"
"3731","-72,651441222418","-771,285765410562","-141,147815512892","350,740183733664","-15,3379674799675","82,3611494803405"
"3731","-29,1746164973898","-386,8060044045","-73,3962284475712","-341,765616359385","57,7604642321309","71,1933124800985"
"3739","-12,241760771205","-315,616512083277","-55,6979277264711","-156,922769186532","42,0460572788065","71,1739469123727"
"3739","-5,64694606573429","-302,435210150264","-51,074717230863","-117,621016822363","28,7118664692522","47,9969872392699"
"3747","222,395930340168","402,349278307765","-122,895643120925","-101,056047806582","26,6401021577877","48,20348607085"
"3747","171,21145792267","145,845743968043","-99,6569504131764","339,655074269356","-2,10692731107599","43,9773994573812"
"3760","-291,619433896053","-491,471589450512","85,5075287745163","206,125602160806","2,80302545001696","44,1859126457185"
"3760","-196,877508545104","-284,47597359511","30,876825753053","-30,5866134160925","56,0121370662734","49,8871699278632"
"3771","-195,410200578921","173,079423348891","98,3285067766056","21,7811800590232","47,2410677581027","50,0021246773128"
"3772","-172,838730278262","26,7994521276367","68,9484650182865","-223,818969062937","80,3186617481851","63,3393066981779"
"3780","-141,500412200062","580,463998880536","-114,342725144214","-139,840400924336","71,3806447036254","63,3049274631884"
"3780","-143,295123012648","362,97940280313","-61,2226751724946","197,809797140567","25,6052235378013","62,1712462896735"
"3788","-143,99410642397","322,710396335992","-47,3464744893586","106,575823237155","31,76124638564","62,1541499518197"
"3788","-144,266338477111","315,254268816628","-43,7216860055153","149,566750706692","-7,1410578401731","56,6246247070227"
"3796","-57,4036658027839","-147,096168067544","-107,10954015829","122,123431754059","2,14465969562365","56,6637415169842"
"3796","-77,5733869430107","21,2959632889863","-86,6679316802402","-357,866821330725","-33,7878815812902","60,0073478855507"
"3808","-132,134271071505","814,70876092004","-164,789381211563","-213,896237238922","-24,1498734607722","60,0071064350816"
"3813","-124,384019301371","541,615464452935","-137,196532784862","79,2894050472173","-39,8415876598583","71,0352639148512"
"3821","33,2454795385423","924,797308872517","29,9788113434645","11,1026141357945","-33,9868574119189","70,9293142422214"
"3821","-1,36278868417033","756,746481592456","-18,3510749116874","553,67623884381","-15,8744185921534","76,348447209565"
"3829","163,927370752532","-1296,103489206","68,1342928470681","375,529112799779","-17,6268645268075","76,2102905780485"
"3833","117,302688876639","-562,20502394056","33,7262956748937","-191,714794649949","-66,3089018916582","61,7494552865658"
"3837","99,1438418017452","-426,317873415755","24,7381212639121","-44,1994536307086","-57,4764155640655","61,7757348430371"
"3837","92,0715420278377","-401,157284381042","22,3901996793464","-549,867586646418","-54,9991630311211","57,3879622379456"
"3845","121,52773278816","-296,682289162111","72,2013886534111","-370,799646572812","-52,8711385611819","57,4514168032735"
"3846","112,999992585007","-332,337911058993","56,2132373779082","106,670261675345","-45,723548308252","61,9196955054888"
"3861","-20,7743417401911","190,994038903736","-47,0735075782708","-12,9778333035374","-46,4688713630553","61,9284679987665"
"3861","8,12476272934484","-4,10687924125048","-17,0544234788183","309,751323587415","-15,9153172668969","47,5994520214292"
"3870","-65,978112104381","-241,678834578572","-200,478160627648","191,506324012036","-22,0026635484178","47,7439949351899"
"3870","-41,8388510472753","-174,667175722899","-138,392735031908","-141,505798437293","37,0113232499607","37,9481367399763"
"3882","-92,0270319175873","266,043285959685","-198,680738226444","-57,0250321588914","23,883521498608","38,1596592303814"
"3882","-74,5737497658077","111,644340708936","-170,42937610533","-77,5947692831393","13,2717961899084","25,1153803755971"
"3886","-67,7762453368711","83,0561453288424","-163,04945890696","-58,1242589956274","11,4397148185919","25,4125413736841"
"3890","-65,1288311680294","77,762813086429","-161,12165175836","198,131312585749","1,33758923363296","23,4734682843524"
"3894","140,439747991689","396,19490758787","103,675978024124","122,017100394707","2,73755564533778","23,7338044493472"
"3898","93,5022436951636","279,155148009949","20,8473182852253","20,19071273476","-16,7053758835684","15,1446690373239"
"3911","-121,26327521674","-501,119664613586","-113,809945037758","39,8180749793766","-12,5587738477608","15,4388180652962"
"3911","-82,9076896764975","-227,593765503466","-83,9855747727898","-193,80905109066","1,68656967769039","12,3942053390457"
"3919","73,7573723887625","-124,31784624184","-62,2845383140329","-118,611933906289","0,173230147586432","12,6626927000456"
"3923","46,7734863773655","-134,195486609685","-64,615719532912","-63,7740247105416","19,564536882457","11,8007321062101"
"3931","47,5378316927024","257,79630990371","124,301969480818","-69,0326766359085","15,3944273397831","12,0274133073752"
"3932","40,8355201515869","113,37671547526","64,6516927349271","78,4354698966011","-17,3973839290105","12,2307832009145"
"3939","38,2251806183891","86,636276442278","49,0696439346859","32,077376560054","-12,3292348537384","12,4132390613283"
"3940","37,2085354748777","81,6850710154347","44,9992479858552","99,2499748346601","2,33573791697208","3,75423235353783"
"3944","-43,7139885131273","118,879998481508","-3,01100261503334","71,3070938380275","1,01347783906754","3,98569546883378"
"3948","-25,2307662988521","104,766935771278","11,447595926567","23,9783646736322","8,13461749747769","-2,42366894321871"
"3960","-0,316286620938499","-188,220934969223","-83,8857451672986","34,2556099082755","6,37725008406917","-2,17391091932693"
"3960","-1,61288043736286","-82,4699745538152","-51,7890457763271","-39,1537578763345","-2,14620731235936","-7,46402441379019"
"3972","-3,72839439990625","-113,704918144776","-6,89032810283975","-14,8874249384554","-1,02738954299319","-7,21011633782512"
"3972","-3,55232054771104","-91,4883169148551","-16,1617318913438","-48,1814433234086","-0,517932471312297","-10,2908317408022"
"3981","-9,92587113498733","46,9235740531816","10,9755623809494","-34,1314328655681","-0,285949645339922","-10,0547343507598"
"3981","-8,40816861739206","-1,44836109510409","1,06445897498768","-16,5050887667104","-6,35890340335437","-17,5627784748879"
"3989","-7,81707122405106","-10,4048104457561","-1,52455327040099","-19,7668323770108","-5,12424135447066","-17,2987147870516"
"3989","-7,58685738150691","-12,0631684321563","-2,20086388206714","84,9585350862015","-6,1066811987487","-22,5759937749989"
"3997","-1,05507051635486","203,595974855678","-12,8101915772306","52,110467146711","-5,55403816775008","-22,3105710599267"
"3997","-2,51114498082377","124,526984188699","-9,58159635357437","74,4416551987028","-11,4809783268298","-26,4837933694693"
"4009","58,1219550522647","-24,4115798366714","-38,29741369541","62,4446524103475","-10,179828541895","-26,2278523053036"
"4013","43,7366403837025","22,0112578901476","-28,7986574711168","-48,1137048012559","-1,86411122916494","-25,9982315572918"
"4021","-74,603188963764","46,9403945812977","-1,97448772708751","-15,8336421606157","-3,07752407702338","-25,7922244122901"
"4022","-50,6928302767009","42,556222942212","-8,96738659060847","-40,0487028045891","2,54853253768501","-23,4017276885043"
"4029","-49,4331549039848","-43,55311675899","-94,255371727927","-27,5581165082911","1,11037451635152","-23,2570634564295"
"4033","-43,9425509676824","-12,4969473559603","-68,5345901822739","-1,69505544032538","9,72338665469545","-19,818763889273"
"4038","-41,8041334339495","-6,74665005173183","-61,8157198754011","-7,74263163223568","7,64534790924236","-19,7340501444406"
"4038","-40,971287065567","-5,68193667198732","-60,060593651089","-31,8737037168482","-5,65806903500372","-30,6864222418167"
"4046","-5,21522762113931","-43,5964791186246","-50,9082306493009","-25,3605398896781","-3,71582037336978","-30,5124807592353"
"4046","-13,2893671256086","-29,6166588578775","-53,5174191608829","-18,4161426364083","-7,46535242441928","-28,1507521481964"
"4058","128,513840325673","165,345071398603","157,931743487307","-19,549372393335","-6,1727132397409","-28,0318975906626"
"4062","93,7417294014945","95,4437897361004","91,1672151547749","28,6191277066211","-22,5752226262302","-38,9536398280912"
"4071","-98,5699054477391","-44,5379317768583","-112,322337665005","13,5676269586954","-19,0441551271801","-38,7522183810283"
"4071","-62,4692383213794","-0,45666326660551","-58,4785728973169","66,6505790912213","2,64413767977902","-40,7771854139213"
"4083","-6,5353461783681","-397,004437578572","-133,090926969527","47,9201653262","-0,480032273786445","-40,5939100817965"
"4083","-10,7508545129415","-247,428418753837","-101,581420655026","-92,1471776169722","22,8117188141581","-41,5323197201558"
"4087","-12,3926624161937","-219,733226643596","-93,3503999146592","-51,799624373174","17,4176884621973","-41,374225741778"
"4091","-13,0320949536824","-214,605241074453","-91,2002645951104","-155,211621616607","-6,66355710262007","-44,5409019687041"
"4095","93,0139421254114","-150,136282647045","-120,197800912476","-117,010497773918","-3,62902546019784","-44,3819254141135"
"4096","68,3155380342826","-173,199341131799","-110,77263628011","130,430710248462","-14,6044179397941","-51,9591594667178"
"4111","-36,3250692691196","414,168851314536","242,922308218138","59,9470495648497","-11,6020962626646","-51,7571703943143"
"4112","-18,0792944862353","196,924753878753","133,315708320007","155,257956597146","17,5686653308787","-49,3702785349476"
"4120","-10,9731391042581","156,700277652054","104,683898350092","114,87912407924","12,851660280599","-49,2288484523716"
"4120","-8,20551509740179","149,252395261644","97,2045992666864","-48,3195088396755","26,1502273018611","-52,4104749032144"
"4132","20,2514221132408","-331,244935264231","-209,035071709982","-4,19003359973647","22,2057702130561","-52,264911130234"
"4132","14,3345040826451","-156,212845908819","-114,032043359522","-84,0800045374061","18,8650027286404","-45,5172922985996"
"4140","12,0300506183132","-123,804259437246","-89,2150281722533","-52,5557662237367","18,3437741010853","-45,4635811113435"
"4140","11,1325384773962","-117,803551333073","-82,7322427968947","-97,7482041995706","-22,0543899173621","-49,8267430835126"
"4144","-97,1226216650743","-310,880569533394","-82,7775640721459","-78,8966881281793","-14,4498166844776","-49,7412087790106"
"4148","-72,2846015221783","-239,630318411228","-81,7894030502895","-80,7538180337159","-14,0763450719002","-48,5616331908408"
"4161","-768,023750615073","-260,919765058724","-392,772281563063","-77,2530456439372","-11,9062836380284","-48,5033621010692"
"4161","-600,992265660899","-245,861675797196","-295,008290067572","55,257948210161","9,16227092067386","-51,7595956892774"
"4173","-304,022226695189","-83,3674519681549","-15,6086647757735","14,8791218246779","5,7559012722068","-51,6809666488875"
"4173","-332,361737305516","-141,280351234293","-88,6229414301419","64,6160313184499","-82,2954293004753","-71,4614969955387"
"4181","795,24665241297","846,159729978209","683,447367797396","42,986145273507","-66,3898702893581","-71,2078488327206"
"4182","527,414652824626","478,992131598529","430,130208043895","153,160948084828","-199,710099077762","-90,8313585701963"
"4190","423,102513275155","411,008124177551","363,95783533165","115,777779600018","-169,417870454012","-90,4368373909685"
"4190","382,47621591669","398,420343323761","346,672062371662","432,922193859858","-322,44608384144","-98,9055870280847"
"4198","1555,22576372361","1528,55104165157","413,446453905648","329,175921966846","-284,127945902931","-98,5034323864987"
"4198","1273,97482535715","1113,80374837419","389,889488276158","164,523709785994","-181,724082493474","-120,199382486872"
"4210","489,623752154595","-2262,37282807663","6,42133768347293","199,262438584858","-190,094172056005","-119,664177271222"
"4214","603,14367983525","-1069,49883168062","123,250479108452","-1029,19523917223","184,532987599154","-71,762002543353"
"4218","647,356121052395","-848,628703212971","153,768986017135","-644,425229490258","110,120603344811","-71,7859633983334"
"4222","664,575476264447","-807,732838438733","161,741134511724","-25,0999982055399","270,862215065327","-54,1620616208897"
"4230","-633,248603936843","-360,96887201553","909,758802721956","-156,615007445194","218,056396500964","-54,3505562565049"
"4234","-328,710261889203","-520,246962612912","676,158530021586","1189,51579635904","320,672157305108","-51,2111543619634"
"4239","-210,102156499767","-549,738570644115","615,136669813409","753,378293013144","285,398555865262","-51,3946004272363"
"4239","-163,908030106739","-555,199176939708","599,196331301722","-800,744873936985","434,613839040376","-51,5591813742801"
"4247","-2529,50342223098","-1710,44978235808","520,264948395069","-388,519199961794","395,559471741128","-51,7068372429929"
"4247","-1970,82842088728","-1288,35364010164","542,646223262218","-786,673915340366","649,633811981066","25,3593101360893"
"4263","-517,964455285266","1176,31809357273","-887,736725696999","-599,704568642648","589,327335012279","24,5001745192755"
"4263","-719,119638537423","317,671710209473","-435,38623965757","1126,3413159262","2,7043976555089","7,18682903399548"
"4271","363,729922719212","2458,09133945054","-1826,47978105835","622,331346734861","97,5838602189827","6,65394315702595"
"4272","64,4657672728693","1587,40709443679","-1321,86598193294","329,307352504695","-98,6327670491887","-114,03341980759"
"4279","-465,994791912126","-3707,9951343897","964,295149171281","341,537597119835","-32,9806046329412","-113,309606944016"
"4284","-415,592494801409","-1859,48106509357","322,493959527763","-1530,04617705168","50,9769506837887","-55,3126838001557"
"4288","-395,962385412285","-1517,21395122134","154,840463137787","-950,159229145159","54,2072786677461","-55,2800140209457"
"4292","-388,317075243534","-1453,84046698108","111,04544482784","182,111448427495","3,16022166861703","-58,5592161472444"
"4296","-680,066723420972","2134,94727851666","412,584946624088","-77,5152372431988","13,9157891177851","-58,5011936199761"
"4296","-610,694034798885","828,439934728498","311,354124044765","1698,13411633191","-19,8028045730698","-82,7115609993493"
"4313","-350,148493826668","-3164,74878831879","-1175,6620709727","1109,45839005856","-10,1566686904342","-82,4321969020426"
"4313","-393,674200722563","-1837,11950888081","-724,105514684092","-298,701813081449","-327,050839228817","-125,192220875334"
"4320","-410,626094516778","-1591,29836566467","-606,148370476162","44,7611492420167","-263,349562913455","-124,554914731256"
"4321","-417,228323950931","-1545,78262163282","-575,335202832112","-1813,95378835543","-72,1550622616227","-112,954773400321"
"4333","920,162484773632","2718,44953988677","839,384177882061","-1186,60748173091","-90,0940652962673","-112,547560559606"
"4333","609,034138968335","1163,00611348655","399,94200110631","656,087919090997","-360,852628172208","-89,0226388225482"
"4337","487,85943439487","875,003365123243","285,149416445322","184,43529278605","-314,143362688742","-88,9169591076119"
"4341","440,665698348539","821,677360681679","255,162905842644","1636,48630206262","104,100112216817","-23,7547400302738"
"4345","-729,244766776565","96,7558663678731","-522,948301380039","1114,82192323776","37,5485496739204","-24,2936347933383"
"4349","-469,888095005022","356,530873567463","-283,209165610544","-995,496743250665","204,958904373419","-29,1884606547405"
"4362","715,010839236621","-3442,83481538852","885,278219513099","-424,785731239907","153,18971819271","-29,5799153021073"
"4362","503,491704744119","-2026,31765628424","554,514480780189","-1422,60592324095","21,4911746738646","-23,3140893073439"
"4370","-1247,39893106164","-845,728146821412","-1227,1959251126","-1025,83669611158","31,5218426138629","-23,692624629454"
"4373","-893,31576183147","-1133,13258902534","-717,620395996243","1114,96184319221","134,946743232452","11,2585647608717"
"4382","-285,136320157719","4060,36049440786","-323,690849517658","515,444331280772","118,041586066316","10,6154643575353"
"4382","-340,269557080495","2130,97713455543","-370,787229418207","1167,9401184793","2,21848412078788","-32,9721602563268"
"4386","609,408247821272","-1467,57143738629","571,498440523846","873,341910002581","19,4780826311019","-33,0773464464212"
"4390","376,277882010641","-347,871388414798","268,645518019452","-1421,76559108103","-8,18958682705052","-44,2000896612552"
"4394","-795,185668064633","-2703,10694493853","-66,0669141201187","-758,728911498767","2,21185579539667","-44,1789987716719"
"4398","-580,433874031012","-1727,19758109343","-6,50163758107128","-691,289280157412","74,9126505781183","-47,4685890445775"
"4411","203,786377351955","3034,16109826403","-333,480780720516","-609,1603781951","64,0171784404724","-47,4198863738242"
"4411","74,215498687391","1391,7646090854","-221,895388045216","1376,07906048462","-84,5962752587889","-72,7414525898164"
"4419","128,436261409112","746,471506562994","-192,746671075007","775,744657993149","-59,2678630785842","-72,459014518765"
"4419","84,553543049095","814,990345196395","-185,132343781454","157,332339775426","85,1051450097534","-55,6630604972822"
"4431","-325,50707016824","-2141,40440563066","142,007918784578","255,092755331255","64,8458330327149","-55,5943588860119"
"4431","-241,212781119179","-1052,80445826747","40,4646142755816","-1248,99360857543","40,1742241430529","-68,7667712906253"
"4435","-102,087730956476","-1255,95127364989","191,294337843628","-769,317204238281","38,9399320512279","-68,5845669199677"
"4439","-113,902899906771","-1070,56552573927","128,694592819412","571,456124643982","-49,6669833652067","-57,3927258747833"
"4447","253,528229206997","2999,96879631373","-270,188775573811","231,878442345525","-33,0144116012698","-57,3518247759267"
"4448","165,631096951867","1529,66067102985","-154,386449934743","947,325674559865","-19,253024593858","-51,8009427900943"
"4460","279,566822357386","-711,682199540045","187,104837957368","673,64986842104","-16,9867351953304","-51,8208991309547"
"4460","231,941203710016","-41,6846970867174","97,310357245402","-925,091220596485","-36,035183919189","-48,5302909833785"
"4468","41,0656577066943","-1946,62270792454","164,270319233995","-473,85959105531","-31,7089529391595","-48,578080455056"
"4468","73,7256362683211","-1181,33716431124","129,761828951768","-503,173918092805","33,5915348757593","-34,2840690511135"
"4476","-140,639264319656","2281,52246757445","-439,138658045789","-424,054099973752","22,3263104687224","-34,4600167586025"
"4480","-83,1276505431469","1092,69852981641","-265,748784175466","1001,20425417828","65,0807120791442","-14,7667970793804"
"4484","126,092962695206","407,978742485315","9,06321988665495","573,337561099891","53,54905879503","-15,0987771067229"
"4488","91,5778108025596","537,197416168302","-51,1494508369042","-64,4975132288617","-11,9431460439058","-24,2193164479567"
"4497","2,4402664465074","-1536,8341023131","160,901322956962","66,0417403133066","-2,76522056643676","-24,4019231454457"
"4497","14,7239966196876","-764,857569432807","85,2939495404185","-871,792114012354","19,9497392226553","-33,3884503231928"
"4505","43,6660949587034","-930,443106162278","133,355820450899","-561,897555039297","18,293065199732","-33,4508263209979"
"4509","39,9381319275276","-791,102588119568","106,910706342683","482,213998917526","39,1637510983841","-40,1238121928006"
"4517","-33,9877078287379","2098,51814167994","-301,654768485342","207,888664880488","34,667281354185","-40,1105654805153"
"4517","-17,7794971773582","1055,55445208814","-177,381635721589","605,027268646681","15,6286836222107","-46,7157054858712"
"4525","-43,6775380085191","-458,763585519322","-68,4124141134222","439,784774136063","17,9594002813347","-46,6415900003243"
"4529","-33,7640103247102","-11,1516403497185","-83,9471022749531","-662,388145625642","5,11887654928273","-53,1921208194114"
"4537","69,9499470170673","-1273,07066463815","198,893010553809","-347,670678766091","8,27190504195114","-53,0690120148743"
"4538","48,3432712206408","-765,725030356946","107,777469791748","-252,682255202186","3,52905830614121","-48,5472137609062"
"4546","109,181003112788","1382,61523490072","-107,289467338062","-233,147776675335","5,36938863015287","-48,4904255279629"
"4546","89,8753861169131","648,397558778422","-53,4699863983693","634,232680800358","-4,60514008857289","-37,4111031497167"
"4558","-107,686256000166","311,003838566296","-188,945864565577","369,399069240551","-2,14707205602623","-37,4711495895127"
"4558","-66,6303015728146","359,532702006545","-138,335335663084","-89,577689173027","34,4990967899193","-35,3193461889403"
"4570","71,7600917939239","-847,425951752996","106,142605608901","11,0416740891659","28,1860411518737","-35,3888286769329"
"4571","49,6587971292276","-400,903966796012","37,0059675126669","-491,652233544378","0,597020708421876","-28,8341413057607"
"4574","52,3247581988541","483,933314762136","-41,9113215547027","-320,784771894295","4,03427639874934","-28,9535210072636"
"4578","46,3630661813049","205,76799021082","-27,5263650467719","275,663538540404","4,05479426340061","-29,0606240094562"
"4587","-33,2643351171624","597,084918349545","-107,229953869191","117,99882997647","5,0641371354291","-29,156712816299"
"4587","-16,2767033516296","425,540366662355","-80,0503972658912","266,04607513763","5,52374447988246","-29,2429200991152"
"4595","103,076646652772","-343,048338309633","36,5924643015178","195,843653207592","5,73302808105452","-29,3202620482426"
"4599","79,5610223826761","-79,3586632214278","4,06231055027586","-375,275392499216","-1,89490879868245","-40,4180244517343"
"4607","-85,8191246213228","-712,915021107482","-39,2108589617135","-209,801753520093","-0,368313040303562","-40,3745217127472"
"4608","-53,2294900724563","-454,223030654648","-30,5148239365849","-80,491689389428","18,8625905066705","-40,3354926827658"
"4615","143,063733236318","931,214428930382","32,6139645915166","-94,7309792737498","15,6194408848778","-40,3004772971429"
"4615","105,513769579516","450,739217472133","14,1046821071358","386,172573523372","-4,39310068088886","-41,3719002130977"
"4628","40,9627647553634","363,590244378525","-72,4528754617342","235,447499684485","-1,50587230656985","-41,3331407713506"
"4628","46,8221787401568","346,45391737235","-48,0637359580476","-40,5108466869796","32,2464220838992","-41,2983672502062"
"4636","-71,6856228353304","-513,32444799319","-116,460115025559","21,3069297814675","26,6156319172587","-41,2671697479132"
"4636","-42,840684047744","-200,519265371831","-91,3268505133063","-387,946498494152","31,7748693049354","-36,8278308759157"
"4644","42,4779591990696","62,4762567767054","21,3039184761448","-251,960671635086","29,1241437297789","-36,8450221156701"
"4648","29,7068871621658","-1,82802604037112","-10,2742877863562","132,562430173301","6,29207033274949","-32,4490958128143"
"4656","-20,3619244013631","534,347816296292","-121,111073271391","34,9286775307878","9,89541631835747","-32,5052351855379"
"4657","-11,8621516591902","331,625047199089","-91,0642365173379","261,435845963991","19,259445668082","-30,3499265105516"
"4665","-53,646638226675","-27,1377285276081","-50,1785441319826","176,324764966256","18,5233848923824","-30,4162641974724"
"4668","-41,9203814706848","83,4344839578923","-58,4982440774795","-217,027735779288","18,1882173810731","-39,2984791685625"
"4677","35,1205421159774","-465,95258676476","114,944890937048","-108,767473390712","18,0355978361306","-39,2672701568756"
"4677","20,1255586358247","-253,675981905896","59,252298400994","-116,020150817076","-8,2928962697594","-51,370482109227"
"4685","32,0013302070501","451,675748230713","-97,8755908683668","-96,9697919318283","-3,28165608053119","-51,2290310915993"
"4689","25,6265696978477","215,277243209092","-56,9210741760827","223,22661647363","15,9913439381184","-53,3078013502872"
"4697","-18,7300168056235","209,617858359334","-44,4840190130131","127,300771702696","13,7673630726461","-53,1727962595664"
"4697","-10,0055120728052","187,56997814517","-42,2351690318503","-24,8620791905966","22,0225483905761","-51,9488373327036"
"4706","33,6556944441293","-177,665926445087","17,4706872349207","7,23399901618378","19,7815721149118","-51,8507471718377"
"4706","25,6603610787839","-46,2922653640111","-0,932745292773133","-162,449913416451","9,49325499251211","-52,8655817590725"
"4714","3,22005277165568","130,479345586159","-108,327971434463","-105,063789884757","10,8084385217552","-52,7760533857678"
"4718","6,48025851531558","79,2100183461974","-77,3821188071837","64,4378708488017","20,6751931033289","-50,4900570584765"
"4726","51,2343553553153","-6,50627147526274","-50,1717951346769","21,0027550091834","19,1680497898743","-50,4391466727757"
"4726","41,6646683954295","19,6226742458819","-54,0638215515607","-28,7593629899543","-0,0539960271820217","-50,393471779283"
"4734","103,969365925074","-320,359328755918","127,491031801204","-20,1362534132883","3,19318698884982","-50,3524939735396"
"4738","87,235085903601","-193,309706504589","69,9174100041902","-126,882762462559","12,395036447899","-51,4185676292164"
"4747","59,7807012919214","37,1065350698045","-85,9630715579176","-92,5780112188577","11,5851265660704","-51,3750090312638"
"4747","62,0880820258888","-34,2300612250868","-45,6827027685676","89,7620060617189","32,8413890899228","-56,8501169367572"
"4755","135,46064965987","146,749496504278","-132,532016353953","38,7780553985533","28,5204928338839","-56,7621789257256"
"4759","119,03695691928","73,2593041507458","-99,2190903522837","123,750161619496","35,8208413556072","-67,7116583320876"
"4767","193,167017863465","-107,313457427478","41,6300465425033","89,5920863538323","33,1450772427742","-67,535121635344"
"4767","172,038344941281","-48,747943524113","2,42313861675973","-63,2783865780621","45,8284825680841","-77,3022762053531"
"4775","-6,90694267372714","-333,723322593747","42,605897427083","-21,3725290220923","42,6039097313789","-77,0650018962174"
"4775","29,3994962801445","-223,48878548035","24,1025747749197","-51,6559311313565","98,287528236462","-73,5436160324658"
"4787","-851,915775938377","-233,930296786102","-657,115019145817","-35,796616615612","86,6432331608368","-73,3843603705874"
"4788","-639,160353897832","-218,863625830465","-446,065003137922","89,6494607161521","87,5195558507641","-61,1102706383985"
"4796","-860,689253681793","214,043649334071","-434,40321262517","53,3714664903673","83,9185920510122","-61,0984165044954"
"4796","-757,967792258298","57,1998819026855","-406,356879920932","237,511859208691","-24,3017580492489","-61,0877814190209"
"4808","-793,655992318176","592,574879322736","-244,279404847384","175,011879604635","-4,58022337930409","-61,0782400181917"
"4808","-760,555423717849","380,703827405931","-290,940973849411","229,18935231581","-182,502244875256","-68,7895417003801"
"4816","632,561662384688","91,0260133399028","1526,06290279533","202,753164006524","-142,519578118207","-68,7078330897683"
"4816","318,136948824075","175,389857132042","948,706854519428","-121,159862258104","-354,465746439222","-42,1664293408127"
"4824","728,764323846138","152,898812633231","5,00581355871338","-25,2331065904198","-301,976078347861","-42,3544748114234"
"4828","557,690770693299","169,734416475018","214,489008016795","-42,7259701408834","-278,074748451682","-54,6543936829799"
"4837","310,683479818299","-308,081475048007","-1226,13694317409","-22,4283447244761","-267,191205240633","-54,6894207544552"
"4837","326,481909299871","-131,552895888284","-742,462169123637","-293,961324513954","-109,31530165003","-19,4300486123071"
"4845","503,351234750297","-46,236803551537","543,64898990367","-206,953935419867","-136,426029121038","-19,7966589798282"
"4849","466,236273829879","-59,4398490268284","212,611334686571","-97,0057296627518","-46,8242818644949","69,2042621241207"
"4857","1666,12187999329","1360,95165284101","1178,09638491375","-117,449811229364","-72,0238539264663","68,0525590132556"
"4857","1379,43958282899","839,948460919432","825,303683676698","685,517058976356","-74,2306738891076","19,597285436992"
"4865","-379,787831785409","616,441625126217","286,280387443868","434,367996761913","-81,2355560662392","19,1250266966261"
"4866","-41,951575679206","645,05755297426","402,47488301768","-233,865666448455","295,557901881829","17,5984964119642"
"4877","-324,281563688842","-1360,48894836566","-333,972869869651","-66,4980625233788","221,131948139149","17,2289505480784"
"4878","-177,240213713957","-623,831868688432","-85,3502644155865","-869,786645101239","199,5990395869","20,2059200537438"
"4886","-41,0561916556619","-429,358993779456","-608,110706040199","-595,724064558457","181,793964233104","19,8767457257684"
"4886","-37,0167985465971","-425,350790906066","-406,667972101694","308,916509337712","68,6503757271636","-11,2980246471498"
"4898","-190,05460153326","1361,19591664012","-107,140138341671","72,0990408714541","85,130098825984","-11,2668623772678"
"4898","-153,658012201236","707,989279561397","-170,896455708618","811,707572433677","1,50002014301383","-13,44457957453"
"4906","185,844668172966","879,232430913413","735,739269940349","546,526728062107","22,418809639532","-13,398345975492"
"4906","116,070283585032","749,939465313187","441,573747360902","-125,47891310875","16,4977744076175","-27,6937532501616"
"4915","-329,842822499209","-1471,77385531073","-396,853319727623","40,874719991018","23,8016130190837","-27,5190578656693"
"4918","-243,511951730552","-672,141785223742","-177,870098651731","-631,116507293682","95,0919044009204","-15,2311161919514"
"4927","294,207552002094","43,9620213487245","-212,821713717903","-397,758999500002","83,5541552527674","-15,2068346143097"
"4927","190,632385472489","-136,445651019275","-168,951893849815","203,369398723392","-127,137639664104","-10,7737004511846"
"4935","159,956304646596","837,387756731453","-331,369728663617","53,9627761099406","-90,0767888307736","-10,7964583236211"
"4939","142,008936039187","462,70077430568","-273,797069594144","342,724593689074","7,1206241919322","28,8852709249528"
"4947","31,9449874439023","26,7264030742619","278,524222614039","230,34860463382","-0,620238378065035","28,4862339128944"
"4948","53,0785413774005","148,002273221977","113,803474917644","-314,021370294355","83,8998130851044","51,2878184438594"
"4955","-123,901721260737","-261,474935741753","209,876686291312","-163,357133263557","65,3862753989261","50,744547077541"
"4956","-77,8299668855544","-99,2929047993744","154,973258339044","-50,1463671196935","-52,7138544654416","61,285518431565"
"4968","57,6823284348118","556,856891043315","-292,324172911924","-61,7134178333627","-35,4911075384957","60,742483592554"
"4968","37,4601051077014","333,348255713558","-160,168733946677","234,67186895854","-61,6309105164167","45,918406719805"
"4976","364,574727540502","-187,154445373425","-28,2751503608808","141,34519605793","-51,5337492485827","45,6187995184352"
"4977","283,975584033856","-19,5296692480131","-49,8214584756346","-347,699689279784","-40,7573883342967","42,0414909156452"
"4984","11,005034728748","-698,095839320622","146,248225652281","-211,163141928","-39,8503396396028","41,8320634643718"
"4988","54,6915916906697","-432,737774353619","81,4662174705591","-122,524334391113","19,2592722476762","33,924311119704"
"4996","-86,1259509300322","933,970699738604","-83,2523697290049","-128,696738956037","8,17501367118576","33,8297715451604"
"4997","-42,9699545570858","461,027667333328","-41,2807210472111","569,042051691187","44,833230779671","23,8194174855184"
"5005","159,049065785306","545,868487982741","70,5322983375664","352,60591998874","34,5256613545909","23,8385023106508"
"5008","122,729119975963","466,577442166294","41,7404767334186","-81,2425027727335","5,11772691776867","1,79887630160071"
"5017","97,3099233021235","-1528,09658094301","-10,9888124308667","19,1317778051732","7,72673459302675","2,02574834890527"
"5017","94,4099457238191","-806,426375260176","1,23706275727264","-539,025876420875","21,2719298532226","8,84631392252003"
"5025","-54,8883980625917","584,882141843469","-181,618347363502","-351,067998415289","19,4397756825882","8,96547019774245"
"5029","-21,0354069916572","149,494003481201","-122,384461442534","431,748744175095","37,141262241206","16,792234620303"
"5037","-62,6088011928021","1163,22816298817","-136,470385675327","219,182990309159","33,2016879454395","16,8141148608908"
"5038","-44,8003305997449","747,929122786794","-123,149958860324","419,988062424888","32,9524377771148","27,8621190943038"
"5046","-144,159567384866","-5,9028816592442","38,5583180131113","324,967827638827","31,8389409554272","27,7739751865757"
"5046","-116,856864903417","227,519114152501","-10,199694202341","-529,811982976682","6,61755542191709","34,3119202300851"
"5058","53,2192928537971","-872,611421249475","-54,2344070902843","-280,591106583921","11,1329208643909","34,1775199385338"
"5058","20,4586067866955","-446,309358684229","-47,7373050239778","-163,392048125686","-5,34675728656547","43,9824777149581"
"5066","62,4574194298694","485,599619896791","-113,852396799883","-160,886979094241","-0,850828818952933","43,7791190283997"
"5066","44,8146359390258","188,149995243404","-92,1232066382561","414,539267138149","7,37499371603971","51,3165350925385"
"5074","-184,31001390272","310,92934523044","14,4020086707452","237,223475770396","7,12064700792315","51,0788228104751"
"5078","-135,546858212775","235,662920517304","-15,771111154463","-18,1839685161675","25,5405929899964","46,4542066037876"
"5087","-65,0181363337368","-315,466498618304","-39,3020257514766","33,1582344908597","21,9281713762994","46,305173950085"
"5087","-69,5494175465877","-121,512503455827","-36,448851542863","-157,319746255252","-26,0561646062691","34,0402559183886"
"5095","52,6967128762382","431,62960304856","-157,417896823121","-90,5234164154096","-17,9059778337447","34,036630291054"
"5099","23,3077355906559","249,04827299493","-119,017843540979","199,228326877834","-35,8198229662652","31,8277026938246"
"5107","-17,1279128373338","376,762825043521","-209,835892734829","120,118446427627","-29,9769467925422","31,8459354895934"
"5107","-14,876326051874","311,410192329073","-175,559693388928","3,63730692091035","-25,7717284079828","47,3020170120049"
"5115","3,71644217046627","-145,326665703615","26,3982536458361","27,3252265228567","-24,8568694357392","47,1686351417517"
"5119","-0,0422594170936761","15,1048645213924","-31,8456024103887","-239,834018913584","-29,0742265043771","56,9745066076655"
"5127","-62,7063506987803","-151,192898071563","88,5643126878276","-153,650896801414","-27,9946128633087","56,7719676491361"
"5128","-49,1120432394879","-73,984254324411","42,0182015119489","20,1295127463679","-25,9583605498801","67,6186313726256"
"5136","200,983292878162","110,906692226593","59,418469550499","-20,1554037782247","-26,0311468702202","67,3498522915445"
"5136","146,387559888352","51,1407246898747","46,963826931974","81,5422480057337","-56,9572295568133","63,8002015249973"
"5144","266,851007043083","27,3706852190119","17,6287338711515","43,880279402387","-51,0395153011654","63,615587649721"
"5148","225,767730696448","29,9694729472443","24,9657207793497","-42,4159516484265","-11,2733390719781","56,8329345271713"
"5156","-91,4022950520597","-69,3656524024978","-160,90555800562","-21,6138233052047","-17,1656898654899","56,7477918847394"
"5156","-27,9300439306044","-32,7583426310003","-101,459487586344","-40,2584285578559","34,2138539173974","57,7742425011462"
"5164","-16,0938501809592","44,7986317017881","6,22437692061976","-31,2704105931735","22,6096853357339","57,6951355946589"
"5168","-3,48402500680069","20,1589236824999","-18,6460766081366","24,8124001165326","8,0578101394382","48,8014645574705"
"5177","-5,01502054085885","48,2638418746165","-11,2326086229513","8,88839855995337","7,43156954158767","48,8223956152254"
"5177","-1,61129514599846","35,4676914936209","-17,2960372233535","2,8765770875738","5,60176202131576","49,9440115872218"
"5185","25,4828520939344","-141,126452556903","1,98537233070141","2,26049882735863","5,76855360566329","49,9502834776325"
"5189","20,0351702344468","-77,824265905938","-4,97787208325817","-46,3782445540906","-0,334085182359437","48,8530729730678"
"5197","-40,0656628313135","-89,6963078660459","-29,4009301934908","-31,4531530729279","0,887059697888895","48,868696755028"
"5197","-27,4730469207083","-78,8945110633867","-22,7808047571238","-11,860389286364","1,44311173051068","49,9855512377266"
"5205","-62,8319054479799","-7,93047517395949","-99,2964194784006","-15,5935263632932","1,69631171356261","49,9875512980667"
"5206","-51,6030686796912","-32,7909182963383","-74,284089403998","40,5319914132631","-1,27768682604997","52,1950204974011"
"5217","5,91774802379796","100,533966731713","-6,89310261686762","22,6194702312445","-0,631906099875626","52,1754792815996"
"5218","-4,67970310901657","49,2201318866652","-24,2889991306952","54,1591330736391","-21,9629053335897","46,6437605837707"
"5226","63,6668384167354","43,348650416782","32,0239660230314","41,6375224749689","-17,676040665532","46,6809095097292"
"5226","45,2856665937857","40,2614988228445","11,7342309032711","-17,1263603515391","-9,54541596707","44,5085633163379"
"5238","-29,5155427292744","-118,201368451043","-59,6394332826523","-0,923075865807641","-9,84311129938363","44,5596155791195"
"5238","-16,6482609906056","-60,5420313860039","-40,2839053466265","-74,470608345676","2,37850791203129","45,7082551694314"
"5246","-30,963236919819","-166,015835418929","-47,3992244220981","-49,2414163910018","-0,0563406351330965","45,7387716392408"
"5247","-24,5384697862072","-121,545150935159","-42,2579123463067","-7,83572204773708","-7,34364416415153","45,7661498743324"
"5254","39,1639701682116","169,804307330841","-58,302647148297","-16,7051782042955","-6,66193997424296","45,7907126026366"
"5258","25,9740668571074","67,7499817864931","-52,4939075130491","84,78155898529","-14,0747587030805","41,4013997235401"
"5267","40,1633918314787","174,077909990081","-2,29078425538957","52,0628930078956","-12,4502082408854","41,4634724126524"
"5267","33,6896876031353","124,765373404473","-17,1765531201707","74,4288664737146","-11,7104642504617","40,4163242971743"
"5275","31,1683834277311","26,7075047645134","31,098233200321","62,441214586965","-11,3736195761335","40,4768621817886"
"5275","30,1864147555946","57,551308796451","13,7087375819112","-39,4587126545091","-8,13094240847221","33,914150047083"
"5287","65,2356608242716","41,4841806078635","-11,6991248508567","-9,85111908058869","-8,6543795047751","34,0263302309503"
"5287","56,886239741798","50,5092237575665","-6,33625335947642","-19,2039348273086","-1,16949337384625","36,3326489152738"
"5297","52,023871396189","81,2177549014795","19,4075264642351","-11,7181282825726","-2,76122772546615","36,4017917594443"
"5297","51,1301318647378","70,903684211114","12,1324044597656","23,1866637488517","5,78185296412046","43,0808485926582"
"5308","33,0662024386007","-67,1192003853868","-62,7966444394744","13,5696562143596","3,6719707209345","43,0730485198363"
"5308","37,0308701033789","-17,6752376067601","-40,3698662281571","-61,7252532628002","10,4344642325798","43,0660505863014"
"5316","-41,9515892261966","-115,595973524534","-84,9359877712037","-39,9657854991546","8,51378620621597","43,0597723021266"
"5316","-22,7127728495504","-74,7267782760402","-67,5777020867886","-16,8046436901637","19,996375315197","43,0541396604356"
"5324","4,10651844205891","99,805945676163","55,1934965255015","-20,5785410137555","17,2250071647702","43,0490862650276"
"5328","2,55178883591813","40,1220706630425","19,2642078851534","68,4285016327633","2,061233608027","37,5303654976664"
"5336","-88,2434908473836","34,5156515703073","2,92353017345837","40,3550848302095","4,15636323201651","37,5791756805876"
"5337","-67,6053964423636","30,4775783882301","2,65496259216566","10,3030980382386","9,74432775614607","36,5201289407054"
"5345","-86,9465425265247","-115,457465392073","32,1440084534574","15,2246208655699","9,28882438559499","36,5699918246319"
"5348","-77,4793105769391","-62,4785019517357","22,847237621038","-52,6997217333339","-4,82041310507122","32,2033772986808"
"5357","-28,6972408096376","-141,596284027532","-177,801827640097","-30,9589221965915","-2,24509727836363","32,2858141010895"
"5357","-37,6981590087332","-107,245572002584","-116,216061021457","-7,80279871953099","-16,5188889967716","24,6399114461806"
"5365","-5,77204155568818","116,895779644474","-240,969320605881","-11,5780450547614","-13,0185034377925","24,7802936174894"
"5369","-15,3378230002003","38,3973374643019","-192,557792694865","101,66520057028","-25,3264148813447","20,4948896098501"
"5377","-386,26456542321","-6,98958929068917","-306,842259154585","66,1068808849152","-21,9308597643502","20,650185451202"
"5378","-302,728864602281","1,60665945526914","-263,696037387182","18,4621775634286","2,78502098902073","22,9951858904635"
"5386","-648,669228238475","-394,25208098911","-311,543638137556","27,654483654684","-0,960527591459871","23,0990325580795"
"5389","-548,402118792542","-248,548482051713","-290,042551647092","-91,0572986498351","-69,0858938323287","27,6035495433989"
"5398","1027,09577334012","1774,75593288589","1038,7830192196","-52,9690131768123","-57,1069864021435","27,644833668603"
"5399","686,702647188777","1049,38687245419","624,903368391828","504,323665228623","-263,268988115256","34,2988967013552"
"5406","699,0780619815","2366,95263266355","-575,163383483616","338,133267241243","-220,145482179286","34,2686731257774"
"5406","613,897896791476","1810,91043508128","-260,648914672848","431,953166603017","-118,642773768769","16,596159104277"
"5418","500,196328994067","-693,081214614278","-800,972390714397","377,17352626119","-125,42320699893","16,741040653109"
"5418","505,913144664687","166,284772890596","-584,117532546038","-1559,16557482243","22,8647042726844","40,030608568906"
"5427","736,835130970049","-3144,57472480956","1167,83720694307","-969,685942907675","-7,61194464136389","39,9251376399959"
"5427","684,771981299916","-1845,60675066034","650,488801131427","-719,471236238667","83,546413977555","47,5503749383146"
"5435","-258,339500854603","2892,08607204858","256,267573872099","-705,209334052831","57,0556496304186","47,3914525821643"
"5438","-52,651758868643","1291,30766087815","302,287759923977","1973,3026380132","275,145396719452","63,7914345396597"
"5447","-1107,96752780574","2187,2619919866","-165,593028440198","1148,33149909456","225,45322589216","63,5048848284394"
"5447","-813,979826288815","1696,15507777014","-11,8144442442444","54,0490833332028","278,513445952852","33,4711930770962"
"5455","60,689982586045","-4142,38198866911","-574,999353975704","263,887649768928","253,674578422332","33,5260883984929"
"5459","-70,6536384028726","-2056,43366371917","-375,116437512113","-1656,71551142367","-32,5830344081859","-54,6516543735661"
"5467","362,96212000077","797,98145495807","141,351008943343","-1031,00579541897","15,0686915725173","-53,7614264584388"
"5468","230,841819106816","-33,5008341462135","9,26439733695745","754,120614922832","18,2312862961038","-56,2712595064509"
"5476","-737,007279546354","2790,69936262364","-585,125779419895","299,992480170923","31,6713834154986","-55,5229878242486"
"5479","-544,954061098637","1672,62253989427","-418,394409271598","1242,59293846879","144,372012776736","-29,4864060336028"
"5488","-368,691891706193","302,287963532033","94,6294069172497","880,979722444772","126,690586885098","-29,1273588798146"
"5488","-363,043320813929","689,55959419946","-41,3567615360033","-1108,41126532446","-26,5575184411744","-35,422259665452"
"5496","20,8525743922167","-1748,66050308704","91,7817966623888","-550,192868732465","-2,33950896533145","-35,069809158026"
"5497","-66,6320493466895","-817,116388408637","29,5607050634136","-502,274230409633","-71,6334067026657","-28,1365792878816"
"5508","-160,294222368021","1558,58465305433","-769,14236549987","-430,392898186374","-51,18659364089","-27,9163448205853"
"5508","-159,772692743945","784,464636869863","-527,782306525408","1024,08092842033","-122,19771712709","-39,8499702056081"
"5517","165,757780275076","537,684149928305","9,95260013400355","586,067843456029","-102,53284802919","-39,5563724640083"
"5524","90,5416603990212","548,990775759055","-122,578452959771","-347,06472152354","-141,462445900758","-12,8248697135049"
"5525","310,879722841304","-1601,31835910232","552,222181222814","-126,906377266421","-128,189156609509","-12,8423654715323"
"5529","241,694467729389","-813,465234880401","320,495905099396","-639,01460371414","-78,8950090893301","-2,93252532103001"
"5537","-47,7676399515273","1945,78457300537","-326,004133587498","-446,677868573521","-84,4487691973201","-3,04178746521625"
"5537","2,49597374248924","1016,68166807437","-157,885079355634","957,07959057638","22,692243469226","24,431121876762"
"5545","88,1038599019767","1492,54946409226","-228,727701265875","553,433096958713","0,479229218430851","24,078788376578"
"5549","80,4454388818182","1223,66017952209","-181,23345265484","55,4099286185355","-18,903416096552","3,9116145608367"
"5557","53,3047529751145","-1689,9475369937","-147,961523937038","146,532963187047","-21,7293625500078","3,81838066752311"
"5558","57,7343094877052","-651,425229185375","-151,270117203629","-1385,30538872411","-29,1947536993119","-6,19080198376491"
"5566","-25,8986846189995","-310,317499746983","232,135226790282","-898,089183379539","-28,5941422485585","-6,17066621487975"
"5566","-5,4711052618176","-329,158684775754","111,289678811294","489,721734957399","21,1080507440213","-12,7696256163739"
"5578","-24,8942403356479","2277,09555777926","-234,996570003004","136,788544196136","11,7400953820533","-12,6899651242588"
"5578","-15,4589405186867","1321,66430444627","-144,454645342086","1174,10804469117","41,4566015719946","-34,6752449110283"
"5586","-213,100619718949","386,154624190999","-190,354038412648","798,956892972713","32,9881029823552","-34,3996154661863"
"5586","-165,075837218041","630,937550229304","-162,344034465369","-785,514069614056","19,8640646471055","-55,1062418297599"
"5594","80,7132399746994","-2229,30102884176","144,042407515479","-354,44639118134","19,8879939035276","-54,6834523680635"
"5599","35,4403545811366","-1157,89699984642","52,0777191874694","-676,557546725452","-38,7976943442084","-71,9495400397438"
"5607","50,0186187899133","1610,29830945264","-130,174279988798","-510,146418041616","-27,5204008500295","-71,4400279742668"
"5607","35,6963941598178","706,851735410177","-86,7827690022499","1092,65261178377","-11,5727222575643","-54,4403516598257"
"5615","-84,2293950557129","1586,73525203795","-171,080602820305","623,511824668795","-11,3108983410313","-54,1888780285661"
"5619","-59,9367178530566","1172,65269842482","-138,101170568938","189,248306884691","5,79944054304265","-48,4490782441822"
"5627","-150,328434301069","-2413,92247157809","136,546647249934","250,511002971095","2,59068535700947","-48,2995446035989"
"5628","-123,533164709435","-1144,0054518013","55,2910872357598","-1031,40800235994","-17,4061945978998","-44,8568763852933"
"5635","123,650873672327","238,109969052446","-82,4327987867965","-626,009292566272","-14,5118346614769","-44,7682432500811"
"5639","72,9212817852866","-137,980344355859","-51,4095021657993","256,807584147676","-61,0779348499903","-28,1461637667887"
"5648","70,8795473653901","1543,70609469459","-229,354585728773","47,1235405118548","-51,2819500982278","-28,2334558865346"
"5648","59,0843560288114","890,083743094657","-168,83800755183","716,122744308593","-36,0087899437333","-19,4890718306934"
"5656","97,9748492530359","121,161750409602","81,705178884673","476,960930509626","-36,0541100479803","-19,6439375832857"
"5660","86,1214731164586","335,789714621198","12,1529248230936","-605,265524876243","-31,4408058130285","-17,5772025229626"
"5668","-2,2426796460267","-983,786887020324","140,041481143339","-308,186114453657","-32,3401237085217","-17,7230051434195"
"5668","15,3422622268703","-479,117012757016","89,4489661423377","-268,143410241137","-6,49063251326614","-22,2651634400551"
"5676","126,875588462337","1111,57131120907","-184,58347147799","-234,379260963686","-11,7199881336755","-22,3402179416102"
"5677","105,31431090242","581,099933283033","-106,167159748861","624,708087431705","-23,3690728732252","-26,818903672655"
"5688","38,9377391425145","103,576945309688","-209,136121035771","364,645149309917","-22,6735190142046","-26,8370129628714"
"5689","49,0861522265498","224,159757896279","-165,034024402051","-325,027728818968","0,812907960289207","-46,7043333207607"
"5697","-66,1406876507627","-1267,09162566476","215,10711246381","-152,423344794063","-3,49247613505688","-46,5285499092102"
"5697","-37,017917479912","-709,208705641194","102,408877162347","-391,669634278433","19,2614055033878","-52,987868068485"
"5705","-56,2756121344556","1052,8533785005","-85,2592098909093","-290,98304229449","13,6224546628617","-52,7829266778308"
"5709","-44,775878477885","465,113218238972","-43,2825078576403","670,922158753543","18,777976062882","-45,9820364689367"
"5717","-75,7287859070749","1029,59483574104","-162,725454663428","389,498380776039","16,1255584014522","-45,8805321948861"
"5718","-65,783969769265","763,11310653242","-118,926748731198","185,739396617705","-2,07334461004328","-50,2008159975228"
"5725","58,8790823384767","-453,171534518218","57,6982745491097","204,965570393043","0,639729592117786","-50,0768130033892"
"5729","32,4314200281945","-35,3763304427822","8,83686572148184","-653,726558080739","-16,660627352782","-34,525838415869"
"5738","-56,7851537946781","-346,394412561273","-87,3881544313372","-385,557378227348","-12,5383974682639","-34,5740857780571"
"5738","-42,5322031130603","-189,981889495817","-64,5243824862845","65,660120495585","-12,2059745224599","-14,7662981263021"
"5746","-53,0864416660497","858,920356335634","-89,8498085639831","-32,0450616750749","-11,0546047237617","-14,9954920546771"
"5746","-47,1969856132628","491,132967631327","-78,4654027666838","454,120394041924","-15,164265868751","0,238607467068681"
"5758","34,0128135026493","174,400843076814","51,4391615019391","288,809807801387","-14,0356125615311","-0,0939283498329147"
"5758","16,6414759148465","252,75536564035","12,3732749752216","-273,252239584717","-30,5127934157201","-3,70077927461818"
"5767","-9,45049112750608","-850,679360018814","7,3846805806469","-125,343927826946","-27,0157277964345","-3,93671099200718"
"5767","-7,6124916032719","-438,989094616379","3,08154293332277","-274,282672530557","-20,7893874559715","-6,35405492266028"
"5779","43,0298264623615","410,36134396435","-137,144664428141","-205,319900602796","-20,9542044583525","-6,52280546438218"
"5779","31,7534164638937","141,625347580959","-93,7750327244559","296,218576099666","-27,2078422241933","-0,0571776773970312"
"5787","37,0247981753997","315,092305442383","-96,3560822731927","152,040515271366","-26,0554551874225","-0,256458306112637"
"5787","33,0778355479104","224,211095342659","-89,0303128420731","45,7668916554395","-23,9860652870821","-12,5664569412135"
"5795","-32,8806403946062","-425,996153321129","126,75287000328","56,198762420556","-24,0437623065076","-12,6105271994568"
"5799","-18,5693921403316","-197,387208014966","60,1204892130152","59,0030239300392","-24,0700348196604","-12,6500653864838"
"5808","70,7520245029822","226,058386534699","7,93901960742114","59,7568563720462","-24,081998088374","-12,6855375687605"
"5808","53,5399068022384","94,4627135212992","14,3079980896762","-189,330890034408","-16,3642107955405","-18,2315489337334"
"5816","6,57304200058465","340,50818812031","-93,5712006852423","-112,289846434377","-17,8498928952353","-18,2072228540477"
"5819","13,280925439004","237,065468895777","-58,7517730403825","161,172831591389","-16,9817557940142","-11,5683739453339"
"5828","41,6619383091191","-88,7960780315475","-77,4765487704953","88,684177689751","-17,5864469264618","-11,6122470638385"
"5828","36,7154501359845","19,8680592118201","-66,3678985699795","-195,673024577814","-14,7725009500064","3,78811535566984"
"5836","-11,9164635778539","-132,421902432828","-21,7354209459823","-119,113001185822","-15,4911620972589","3,6047443907441"
"5840","-1,85706431888828","-65,6196026881868","-34,0763728685446","-29,2850548191168","-0,371937027668366","13,3657675110103"
"5848","-38,2025310530993","248,013152434909","0,952966509315566","-45,1377989583158","-3,48735194067814","13,1229922945427"
"5848","-27,3579471489983","140,084756917018","-11,8965499489022","-49,3992819856839","-4,9059655899341","12,9051834525513"
