Timer,AX,AY,AZ,GX,GY,GZ
"1006","-0,719368222527209","-0,677500404473333","-29,5006193274299","-0,220416848604867","1,00670976050255","-0,143887192441126"
"1006","-0,724739676089717","-0,714079425691902","-29,6729444141212","-1,96540019111646","-2,22890249341616","1,39603246004034"
"1018","0,950183554732186","4,45195229554559","-38,4496773766474","-1,42772869052928","-1,54451143886512","1,17096391850542"
"1019","0,494059182432507","2,87420823358548","-35,6711693425744","-3,00415955724563","-1,24616886621016","-0,317692272583334"
"1027","3,69173556014832","0,714927298090548","-31,4738885272195","-2,43946942301506","-1,10964562849265","-0,256333737024985"
"1027","2,73661499513789","1,11897068763352","-32,4091010838103","-0,559705245824254","2,02652807334018","1,12796838715605"
"1039","-2,595146275064","-9,11349631928806","-22,1684802770669","-1,04052545539778","1,48019373891164","1,03491523090246"
"1039","-1,33748088568007","-5,93768497277975","-25,5705586460806","-2,89713081083223","-0,309443605899295","-3,04812923468441"
"1047","2,41993570842446","7,0068284849296","-28,1799368917434","-2,40991504651663","-0,139178991001971","-2,74066649410465"
"1047","1,64780064143657","3,57954961349898","-27,8419046151674","-0,55154324671224","3,01248294578548","1,48144489674193"
"1055","1,39547898464231","2,63361126803929","-27,7561499121129","-1,03827112430358","2,47371827968906","1,26899994770442"
"1055","1,31302421560368","2,37252969661","-27,7343949803927","0,551102771010373","3,76028569391543","-2,89011574786517"
"1067","2,95929493556133","-1,14752405942963","-25,9825639309929","-0,00992085586778593","3,35678964926396","-2,63673853597034"
"1068","2,497270445655","-0,119068526951518","-26,5381455666633","-1,88867798361009","1,63335267561112","1,5493434349434"
"1076","0,673072424000573","1,88878527786668","-33,6643382574101","-1,40758042207654","1,83429855800978","1,31389734133546"
"1080","1,07695305595532","1,44295842147761","-31,4721672147769","2,17290703557585","0,391104967624062","-1,52075266686283"
"1088","2,88215057467843","3,04390625333691","-22,1844794854024","1,1618180796058","0,72198285870289","-1,39281573184845"
"1088","2,47206087568957","2,48577223511785","-24,8283053609017","4,33017178609587","-0,660969070155355","1,37083191433802"
"1096","7,3576969238554","-1,11626880897025","-28,991636204136","3,20525374317543","-0,302160742141283","1,19600656414388"
"1100","5,95424633294335","-0,110441992310473","-28,047822920399","-0,553053408567893","-1,67216300645097","-0,259029464287335"
"1104","5,49562064132107","0,167168961026337","-27,8083888973894","0,408922720891139","-1,30735069746803","-0,219968054157"
"1105","5,34574894196947","0,24379034368991","-27,7476473795888","-4,49680115136227","3,47087118693354","-1,53374843772621"
"1117","-1,39608937698991","1,98893531894433","-29,4785500768101","-2,85173524165333","2,6862454275373","-1,4013986712601"
"1117","0,400783358067377","1,47060010682521","-28,9176591711353","-0,673571567074601","-0,75025860043248","4,04431774795315"
"1129","2,66118889825321","3,05153543412041","-35,7606162720041","-1,07197467866989","-0,343558929608972","3,64079188470974"
"1129","2,39985405748824","2,4878779098875","-33,4965917834483","-2,90581690992084","4,45408360638088","-0,644437939539844"
"1137","-1,03197737546906","-4,56368216497958","-22,4443636171193","-2,41231409974249","3,67846203563584","-0,47450052044643"
"1137","-0,153446185744936","-2,50993203868701","-25,6405469102741","-5,72362226756334","1,78249282456619","-1,70184741927327"
"1149","1,80685970782621","-0,219094120773544","-26,4513799821779","-4,63818746464175","1,90344587932213","-1,51241503784663"
"1150","1,44745699856947","-0,586816587704759","-26,657078532665","0,833020104076388","-2,64955580814432","3,97100002341819"
"1154","1,33000981719297","-0,688308994665179","-26,7092617688189","-0,655862302892538","-1,76050898274809","3,59237120411345"
"1154","1,29162991615715","-0,716321176669132","-26,7225000251364","0,656721995012753","0,188048700240054","3,34231617835113"
"1166","-0,394127683133388","-0,724052615543456","-30,2184825830763","0,0192505958725689","0,0914777585084792","3,17717419041568"
"1170","0,0549931125052416","-0,72618651382596","-29,1053711050355","1,56698995537457","0,046703618278327","1,72853328162747"
"1178","-8,16431948045964","9,61720810843036","-46,2861090378541","0,994467097521842","0,0259445410921317","1,77181809962173"
"1178","-5,85026221832152","6,47201332366523","-40,6446546023334","-0,887466054893956","3,08904003678713","-2,21832785657677"
"1186","-1,74763321948837","-3,01605536218926","-28,7356132786043","-0,407245693996595","2,50921327734438","-1,85351038632417"
"1190","-2,4069582614646","-0,634788278808398","-31,714433429304","1,44919401382254","-2,36869788194441","1,06657813107826"
"1199","5,74366287311707","0,0224479513432724","-18,4996274098048","0,961932503023054","-1,63029204640114","0,995070554875897"
"1199","3,4071583172776","0,203846949061199","-23,1471908388633","2,55115901176368","-2,82429776632176","0,947845336144153"
"1203","2,64362519054024","0,253913568738381","-24,3262215096394","1,99009467752054","-2,37788643989943","0,916656734841966"
"1207","2,39411451264821","0,267732092751383","-24,6253273408668","0,11132630662677","2,43816800348897","-0,443518331309945"
"1219","-2,70706861711792","1,99554330718984","-33,4327673059889","0,592420762863407","1,67108292735594","-0,341808672332158"
"1219","-1,37405543954712","1,4724239296604","-30,6671083770481","5,8967128346672","-0,220928424341332","1,06494009343026"
"1227","4,08119935224075","-2,11995297779742","-31,7118062191166","4,36172928078165","-0,0981403481247738","0,99398875780871"
"1227","2,8638912532314","-1,11145883298665","-30,9768334352684","0,490164278713374","-0,0412108987010321","-0,392446516356548"
"1239","-2,55355292945982","-0,83311168978236","-32,5366918091576","1,42085920963893","-0,0148161353693356","-0,30807969198781"
"1240","-1,32388891506598","-0,75628711670115","-31,9324090259219","-6,94111530211926","1,53378164555979","2,42679288329061"
"1248","5,77080863563367","0,98891393966447","-23,0475493564915","-4,25064690706908","1,25177334119998","2,23296451474792"
"1248","4,0892447758942","0,470594206085471","-25,7935678421559","-0,0599433144732142","-5,02441742001421","0,765378472160767"
"1256","3,5397360199936","0,327536541496659","-26,4901995431615","-0,90249391296315","-3,93430977702237","0,796151495809315"
"1256","3,36016515739299","0,288052234664868","-26,6669265861073","0,588603693834389","-1,8925322798707","-1,8626801227463"
"1268","-0,0449470869599988","-1,44684280605307","-28,4580721871079","0,000436693818011962","-1,94588279776931","-1,61863258856383"
"1268","0,842315515492579","-0,92567858395809","-27,9124641780169","-0,162011813244076","-0,434258109785928","1,22169673477795"
"1276","1,13225904990368","-0,781835832756356","-38,2519225373492","-0,206879202006054","-0,733408614673268","1,09751438500028"
"1280","1,22700805985229","-0,742134839871404","-34,8749181588064","-5,39068774472821","0,664253395835218","-0,32407585344067"
"1289","1,25797055365121","7,88880906280381","-30,5255887906596","-3,82242729937419","0,3122652483737","-0,262926161655591"
"1289","1,26808861211713","5,27097319417502","-31,4222164966335","1,78213406985003","3,22178973632154","1,11703588549386"
"1297","1,2713950352943","-4,07154298797366","-33,3959921950127","0,330083252893229","2,57076133264849","1,02839399576902"
"1297","1,272475522649","-1,65010301533885","-32,8967152343308","6,82425664987639","-0,803801632800086","0,969852889310527"
"1305","1,27282860900882","-0,981778957840198","-32,7700547037449","4,61791180719203","-0,368383614929307","0,931191020119535"
"1305","1,27294399210605","-0,797319689438247","-32,7379224579742","0,560920490723909","-0,166506455596326","-0,433919560972654"
"1317","-0,400233950712047","7,8735778933378","-29,2371467232658","1,44040168823117","-0,0729081528443051","-0,335469427558268"
"1318","0,0529976798126853","5,26676934972997","-30,3490422302915","-3,48810683283012","-0,029512246606052","1,06912667388705"
"1330","-1,47210896380371","-2,34870599653876","-41,1089891988167","-1,84933391844847","-0,00939217366809907","0,996753670120244"
"1330","-0,970489949750464","-0,450598028023289","-37,8386576983353","-3,12051927837986","1,53629641053422","2,28853431275326"
"1338","2,53986259102056","5,24527675651417","-28,2774536916201","-2,47161371909871","1,25293928654121","2,14165543140426"
"1338","1,68699087061527","3,81735378094034","-30,8518917933184","-0,568584082500585","2,65792373833682","2,04465330006154"
"1346","-0,264929909907211","-1,74874865912071","-28,0123714523473","-1,0429777099029","2,30933056670486","1,98059090117471"
"1350","0,0972129230818337","-0,285008161414696","-29,2920194607284","5,72121925327357","-2,46137147873539","-0,740872172823835"
"1354","0,215555534016014","0,118988220741133","-29,6166506944294","3,58945344205215","-1,67325922207481","-0,538187866705617"
"1354","0,254228047419427","0,230492327548854","-29,6990057148756","-3,89455049764358","0,228501169164826","-0,404330572160525"
"1366","11,9793751571052","1,98526503010608","-24,4809619297396","-1,96159143468443","0,110233136511606","-0,315928190910146"
"1370","8,81096975500117","1,46958709706395","-26,1572072875412","-6,59913513374643","-1,48096075635602","-1,59712267053782"
"1379","7,77558444946264","1,32725857665127","-26,5824504754527","-4,87999932763497","-1,21870170839773","-1,44325244799102"
"1379","7,43723673353802","1,28797551560703","-26,6903295326704","4,21384393430286","1,97561227803247","-2,6812104862608"
"1387","-31,1572899142912","15,069111395308","-51,1660663518258","1,72551368340013","1,45662364442365","-2,49878594109887"
"1391","-20,7693772875931","10,8727426032459","-43,375264965275","1,0382504837896","-0,320360301420445","2,9800009867439"
"1399","27,8020525082225","40,746484087448","-1,23365483276191","0,848432148635923","-0,144240932087826","2,59831564363842"
"1399","16,6744357096234","30,9917184715418","-13,5428376722123","0,79600536311775","4,54649537964711","1,00666461122549"
"1407","13,0381046671115","28,2993764725465","-16,6655285878784","0,781525371827428","3,72130781948084","0,955502312875516"
"1407","11,8498085844858","27,5562827145853","-17,4577175318537","-2,67008486616993","-10,4885230885196","-1,75744124330593"
"1419","6,44184507476265","-112,292591579992","20,7601796030081","-1,62340072732377","-8,07676744353489","-1,54913045515924"
"1420","7,67460722472691","-69,8912635113351","8,4555981986605","7,28471506364812","-8,49494145177684","-1,41155730477626"
"1428","-60,524386971742","102,143364597822","-87,2204659547952","4,74508790153141","-7,6888236004844","-1,32070088838668"
"1428","-41,8107510830519","56,6253926421002","-58,4923270747017","-44,2228964351568","3,43944559806899","-3,93985207704895"
"1440","-17,2900555792124","-33,5175690348484","-73,906402573613","-29,7475857650804","1,59895503932365","-3,66959869055539"
"1440","-20,277075993519","-13,3972730885195","-64,8167672307676","25,9645799902601","-0,790729905905359","-2,15153983961723"
"1448","87,5058296101717","0,775969961745007","19,5658314462889","11,3519753250862","-0,898683156904714","-2,14897948041363"
"1448","57,7275965520538","-0,31217617843773","-6,02732313058286","9,03985934588732","6,7330659899038","-2,14728856135521"
"1456","47,9965359646673","-0,612507490292264","-12,5199971238796","7,40126556390908","5,2714492796758","-2,14617184020996"
"1457","44,8165776383766","-0,695399754069552","-14,167110044509","-15,4607762062138","-21,5243364930269","-2,14543433233809"
"1469","-70,001247060197","-57,6101879577785","-46,018580236015","-8,7751470462033","-16,9479315025788","-2,14494726547868"
"1469","-39,5219154784045","-40,318825220667","-36,0989132617664","-0,0333909674808339","-2,53524669595233","-3,48420300480048"
"1477","-29,5617468644171","-35,5463617961152","-33,5824136410408","-1,61896577183087","-3,85295118289237","-3,36867774980142"
"1481","-26,3069196201634","-34,2291488334954","-32,9440081020695","-21,0187530468081","10,8997096207043","4,7450821940725"
"1490","394,733834691433","-61,4495506759772","230,911072676836","-15,3768681400629","7,73963156559029","4,10359255669436"
"1490","281,323364666857","-52,9624560594281","146,847917676809","34,4479428107037","4,73813322650838","2,34036089917743"
"1498","-5,04653384956814","257,975515532017","226,808212250738","20,209282963037","4,34651888450303","2,17588287987873"
"1502","50,3722644912091","164,795246416477","189,09317257156","-16,4756609400725","33,3557930588057","3,40683528953577"
"1506","68,4822605840512","139,077237199692","179,525322834801","-7,60784171279628","27,805649574293","3,21978406897579"
"1506","74,4003239181932","131,978996291474","177,098074995108","12,0794561528639","-99,2127876968353","3,09625121729604"
"1514","153,302174226302","52,4399854998887","-340,426065947866","7,51698009805983","-77,1036012295446","3,01466733135053"
"1514","133,086064234369","75,4870009029511","-175,71568562766","78,6566789930905","2,28330463759908","12,337829354986"
"1530","-121,156160099977","324,931654435236","-133,930652855756","56,3050745644544","-5,90975952850073","11,4950561723474"
"1531","-56,2385405770479","252,779061289861","-123,330295061943","-160,172583836562","57,8914542516253","4,24058267728421"
"1539","-28,3316157685801","143,216890444312","15,5712303129294","-97,9625285607002","43,4722416129571","4,44956449735743"
"1539","-23,2120694345572","164,977431529218","-27,1911314849529","45,0573477471003","-26,2038452160169","1,90842599382587"
"1551","378,359458117557","-318,631822571559","202,951642049006","11,5586550046643","-17,5084580367154","2,23020071994256"
"1551","270,586749446507","-168,10929985663","123,336082153136","157,448991831502","11,1048321218295","5,12186283675101"
"1555","235,368314702648","-126,564671758205","103,138576853621","107,743104577788","8,37109465415229","5,03158182342355"
"1559","223,859481333773","-115,09824073708","98,0147138693316","-142,146739139135","-52,8144195892609","-20,4800125735912"
"1563","-4,11232217851838","93,2222000132754","19,8771199671655","-74,1649466221489","-42,1824643205969","-18,3284458386922"
"1563","55,39005978403","31,7192116243832","44,0545567773258","-51,9411365692791","56,464901258711","-30,3032766543106"
"1580","-413,74446217325","411,263589277875","-449,257176356788","-47,8030418373074","41,2017544009321","-28,2117254450074"
"1580","-275,050282833969","286,018875942351","-288,404400810409","125,720424466506","8,00702879045959","-25,4908403674548"
"1588","11,2158580006975","-253,680205960366","115,634918174411","73,646656370894","9,61663005627417","-24,6939063954832"
"1592","-39,2368467268566","-109,638629180349","10,1348101186698","28,2356680683237","30,3355869075045","-33,5446350620328"
"1600","61,4010942372439","73,2090130204805","2,58014074339403","33,6934015797906","26,9417216603165","-32,3898562177645"
"1600","24,287998540806","40,6754625384298","-10,3363875702018","-130,284527582536","-19,1862529910923","-39,6646786373968"
"1608","12,160019620678","31,6961135937015","-13,6131546921864","-79,5743343598812","-11,5730218114258","-38,4691357068058"
"1608","8,19678589072578","29,2177887174886","-14,4444309075157","-15,5780977859974","-9,57958430571063","-36,3399947379877"
"1612","-165,439548640213","188,865509823285","-126,419289150387","-26,9026874200128","-7,65534717163539","-35,9338619433506"
"1616","-119,181185667318","139,928717644101","-90,8259573410123","92,3597113881958","28,5730885762598","-28,9677556245448"
"1629","148,590886371222","-140,797546808782","31,7139263526016","54,2993333569518","22,3700363268994","-29,3671816422408"
"1629","85,0946093601428","-63,2787638638717","-2,19918619046411","-26,8887591403525","-20,4513091128094","-39,0080134726017"
"1637","-69,51223222078","-83,2593020160354","11,899524156551","-8,31246604168926","-14,304992748727","-38,3750366067145"
"1641","-40,035328729298","-64,7739852127163","2,47619657237784","-72,1340144066194","0,835565585190852","-32,598694747963"
"1649","100,108082631261","-35,5360255031889","50,7286627545996","-49,761176845153","-0,144667703929192","-32,783868092716"
"1649","67,9047564705385","-41,4662686284021","33,9697302382015","23,646491870121","-14,4263839957292","-30,2270059342323"
"1657","57,381213405584","-43,1030319560857","29,7181916098621","4,92128829591938","-12,0479572817566","-30,5383964034098"
"1658","53,9422842065553","-43,5547831127052","28,6396276446109","-17,4885651885542","1,34565713154915","-24,0461586573952"
"1665","-176,412047847201","37,3484037402398","-118,324206234775","-13,6780440983392","-0,444529034421869","-24,7585381855952"
"1666","-114,688238929699","12,6779046624937","-71,6071546621703","51,155203433547","23,3072311137836","-15,851967854233"
"1678","29,3000939249404","-54,4711248214853","4,8579438799995","32,0617916461609","18,3194944356498","-16,9698676015556"
"1678","2,35322794235009","-38,0044406785772","-12,7437847889522","-49,0591449738184","-8,57478107431572","-19,0477312581278"
"1690","-14,8186644316206","-4,15163731428499","-60,8669327689258","-27,4643037893027","-5,04403985423533","-19,4199993573662"
"1690","-15,4301701500782","-11,8081709645867","-48,0751937875773","-0,814261155358572","-14,1615682156559","-18,3262762106291"
"1698","21,180743610691","80,8984543198694","32,0076475798982","-5,4536652040307","-11,3888180082626","-18,6039567365295"
"1699","11,1446173324902","51,4857365433873","8,32369654112278","-20,5254869908414","0,651260387906051","-14,7686110010005"
"1707","7,86496831217293","43,3677459639835","2,31536441050953","-16,6882416981015","-0,766479060151729","-15,2356620340315"
"1707","6,79323033296568","41,1271583532738","0,791123166611642","-32,8664702631266","0,112560502409399","-20,9024227243806"
"1715","-157,532130392315","14,6487910824263","-79,9259143779184","-27,3348084684737","-0,479881696700946","-20,6448795004972"
"1715","-113,231086879793","22,3406892709506","-54,4028512442679","46,5928360672977","-8,43636210881014","-24,4935243651943"
"1727","-61,9434548312844","-185,863991992429","-28,7185256552656","25,0112469695047","-7,12530376478406","-24,0352563775028"
"1731","-67,1834592374032","-121,329053668414","-33,2027226780984","-61,9683270242093","21,1370372603828","-26,4117606643849"
"1739","-114,072633182276","87,8464621807651","-29,1013730076192","-38,9916094249251","16,2405857771875","-25,9812577823873"
"1740","-102,395281495879","34,5794768586307","-31,0609101657701","19,0685984061162","-18,2931668551664","-27,0365213630246"
"1748","-122,004324769324","21,6016404354364","-31,5580210595214","5,10451011419329","-13,3043919225601","-26,7334412708426"
"1751","-114,412253264683","17,0197220753189","-31,6841320851064","39,1714257168889","7,44492449991811","-25,1937029218888"
"1756","-111,931283099286","15,7551000718136","-31,7161249280998","26,5805213984113","5,06513516082424","-25,1768249324402"
"1756","-111,120540871973","15,4060609388447","-31,7242411256967","-28,6111816337452","-8,32911101983476","-17,1282138712487"
"1764","89,9302747862959","129,093544607402","18,916750391587","-13,8548280123049","-6,53921776640618","-17,8127293025105"
"1764","35,6305352582904","94,4716011484887","2,76375788460461","21,2492946065777","-37,972914300137","-20,9439535755709"
"1772","16,2130144259873","-101,275854484061","9,14381143010378","12,9448611905635","-31,5468297173163","-21,011884822114"
"1776","10,8676724674096","-47,3026878030104","4,76235390427525","-13,4820544840401","-0,912958519716408","-23,7359029705049"
"1789","-131,42921608916","-108,261825744793","-38,2606589827899","-6,78102399010808","-4,70987402866706","-23,5349060932363"
"1789","-93,9296125780336","-81,0867146007171","-25,1750773693982","-70,4348439635613","-0,324835031436935","-22,0625858055448"
"1801","7,0051004028421","160,877318330526","21,8023786854371","-50,0156807381482","-2,29175605906451","-22,0902322267764"
"1801","-13,0110148424642","91,6600534323115","8,71999150969215","19,4047828720223","18,305342526534","-18,0897583200735"
"1805","-19,551968088281","72,5558989422054","5,40114799897632","1,57833506504945","13,8549789271939","-18,4477549784969"
"1809","-21,6894492548123","67,2831000340352","4,55919751236772","29,4070716883621","-3,57198829530486","-20,0237614684012"
"1813","-39,1201011343705","-116,915916875344","-9,62489183938708","18,0932164699553","-1,65182535825137","-20,064591757457"
"1817","-34,8161654101313","-61,7553495102096","-5,22322387681238","-41,9171890039935","-13,0524421640377","-26,7894440491299"
"1829","-127,109782864023","-160,314701422537","-59,9885606709404","-25,4917346299161","-10,33822281834","-26,2306884218129"
"1830","-101,269892818165","-121,517352208387","-41,8818647132135","-64,0502508043188","18,5746796109909","-27,2012509921192"
"1838","-56,0150768385795","265,022225876882","-65,229408167582","-49,6999019865283","13,9798543418106","-26,8422324392578"
"1838","-63,2265111332573","153,708206999373","-55,1523977599057","33,558637538058","7,2404297388762","-23,9259736579022"
"1850","-149,243877425165","-263,190153902363","-19,4160523748351","10,5541905792219","7,11576369718986","-24,0000104783063"
"1850","-127,353006711659","-154,255242143724","-29,3501734656835","49,0194304725779","2,44888320032049","-28,0676382948832"
"1858","-120,199412715399","-124,188908452796","-31,8703399210958","33,6433192563531","3,28513126772572","-27,753991595596"
"1858","-117,861730138354","-115,890518092714","-32,5096756917092","-89,5460560816969","11,3546498043498","-24,8676974113236"
"1862","16,7594398039782","-134,288106817005","4,00068635967133","-54,5702874802965","10,0960004432706","-24,9615235285634"
"1866","-19,248468439034","-127,365891640649","-7,73707605782033","-62,1482262917838","-16,6056815712002","-26,3630658252672"
"1875","-238,494029771468","288,304002048008","-103,269345084973","-54,241211526419","-11,9856463251937","-26,2886760198614"
"1875","-186,140048414602","163,030029977477","-74,5047271192671","108,256571565054","5,51998743989757","-20,8812376747362"
"1887","-110,469038865901","-173,245450263748","58,5269790081992","60,1375700967183","3,63629744953284","-21,3100432336844"
"1887","-120,740937061137","-91,0584028588841","20,2755150108005","-22,1048536831422","19,662904915847","-18,9140812932826"
"1899","-100,672613579611","-123,542465359773","3,58633256319335","-4,81976111561273","16,0934793437625","-19,3317339013334"
"1899","-108,114599499163","-100,508155486301","3,35248868429595","-94,8550140792897","-14,7522909171545","-18,2679837094848"
"1903","46,7357468876968","288,576769669333","-87,5150631616124","-64,7222582913918","-10,0536202653573","-18,5654590519041"
"1907","3,33841695638094","173,965273547305","-58,5670628255235","74,6094598344114","-23,2387303081932","-13,4036088511045"
"1916","34,3336711269395","-73,1674709594633","9,89761800515358","37,092117983036","-19,3518732000669","-13,9946063685784"
"1919","17,4624351696712","-16,3767845976707","-7,73371994290831","-9,46988145643499","-9,86797064142228","-3,66829520594666"
"1928","70,5117269507631","-30,0103532707518","90,825835797964","-1,3300509228573","-10,4708551584839","-4,84856603532974"
"1928","52,8474053784333","-16,7732555259192","56,8292038832693","-100,786397106377","-3,06857588650116","-0,269733917107567"
"1936","0,224943353742614","97,2160445645286","-12,9162537603518","-69,2556957152981","-4,63658398289381","-1,24576974711455"
"1936","11,0287462113431","64,6774032638253","4,39016658993439","-5,38531342316577","17,681826663819","12,8449856434642"
"1944","166,821883912039","-283,930811769457","-29,6382696307214","-19,7446633211492","13,0295319889636","11,1508388237267"
"1944","126,732643429089","-183,147632909521","-16,2708726269173","-80,5962177612061","13,9452628570319","10,0319859919739"
"1952","232,430417986884","-207,05111772185","41,2559491033362","-64,4030841289543","12,3698322105537","9,29307030619209"
"1956","195,970796731533","-183,648544929906","24,8498084981669","-78,8924894155886","46,9756823943463","8,80507369466367"
"1965","8,36871997113145","-18,5816225216539","-7,25322446468592","-71,8943838723768","40,0203347621317","8,48278970821497"
"1965","52,0632969222869","-65,0227003144442","0,602624074898868","36,9143938389825","79,8136414378729","1,57205903654184"
"1973","-147,829602042653","-36,464630511801","-53,2864288546066","4,96678286109472","70,2634055322676","2,00805638258009"
"1973","-85,1514734585892","-52,5825251114907","-34,9574302713283","51,3048026186538","104,244538161974","-5,74146557627556"
"1985","-81,4013983198432","-108,751026039612","-53,0096419779109","32,1031101225079","94,9995465553991","-4,85942494519264"
"1985","-70,1759324464594","-94,2536859725994","-44,5892699060263","0,942625645966606","89,1768396026664","-16,3331020700022"
"1993","-212,07738725163","2,8434718067544","-124,529791330645","7,33627033802763","87,4772004260559","-14,9105776418658"
"1994","-171,448562178376","-24,3574469886541","-97,8097354424677","36,6830475661972","83,6164596833951","-32,7251941035773"
"2005","-405,807613847663","185,358680266626","-143,420542791074","28,7884668564108","83,8264662929957","-30,4903692599226"
"2006","-334,392484633829","117,240905171687","-124,991453356088","76,5983855447772","86,9965539649628","-29,0144404468684"
"2014","-301,015844036344","107,060199195502","-48,7174205708888","60,8032234793581","86,4663330457245","-28,0397037164313"
"2014","-296,108880173724","99,2502964916985","-70,3676203131334","28,8597985960536","30,911537307156","-27,3959655596451"
"2026","-187,419559683257","35,030840473458","-65,3821418031168","36,0371994318736","41,1541182507066","-26,9708263383943"
"2026","-215,901590540145","53,3060949082127","-70,1173861603959","-6,79938399795275","-14,0150572287091","-25,3504773831998"
"2038","116,126919703168","80,762079565283","5,51907136792242","7,36938605269259","-0,593687352905097","-25,2803623283381"
"2042","20,6286411992511","75,340006450114","-19,292873511159","-31,8124139836774","-45,0708888047427","-17,1965923064841"
"2047","-10,5787018388339","73,843499435554","-25,5873640459485","-17,6342127580669","-32,6922933301807","-17,8578879658581"
"2047","-20,7767732046624","73,4304594050974","-27,1842002184308","1,79597808627511","-59,2166451935226","-3,55927105638601"
"2055","-57,5736563096403","152,620333370773","-32,8282345142463","-1,83750952097435","-50,5143926168023","-5,11614143330469"
"2055","-49,5983019030398","128,476955248523","-31,2600578004164","38,5302724073022","-44,9433211249587","11,2701725195802"
"2063","132,041993475361","28,7174645743966","79,1554311064743","25,6796328907598","-43,3603501842657","9,09206443271292"
"2063","84,3991996597666","55,1835722067142","44,1665061433423","-31,307613053696","-45,6991419526523","18,3702119213452"
"2075","149,144631279231","24,5603505163377","-32,8159325982825","-16,0471785597497","-44,7834990970399","16,4977101228797"
"2075","122,302425182444","38,1082575447646","-13,3454468852782","-48,0322449629988","-35,1408098540971","17,9402224525651"
"2084","-30,3657334834925","-21,9403818164898","-104,453184721788","-35,8663452871327","-36,6700745312568","16,8928901824831"
"2084","5,74470124769201","-1,51397057306683","-72,5661166685889","-22,1633575353357","17,9298615441285","20,2199405191666"
"2091","-14,2460710617426","-128,624014511556","-13,8337023970469","-24,3786672985365","7,24456957702466","19,4171997219785"
"2096","-1,77874263268808","-86,7067344112221","-27,9339987454707","-62,9142441133452","26,8722039026926","8,17043229079035"
"2104","-29,4957121093964","-176,853288994199","71,5213395725106","-51,5575595699549","19,9723580062563","8,74281300664802"
"2104","-19,553184013461","-142,733984699763","37,7519568710606","-51,8685163844096","13,7005940228111","-2,93537052161708"
"2112","-71,5202378053522","25,2907849241162","-101,788333839965","-49,9544009550631","12,7927540965347","-1,64790674226975"
"2116","-55,5022577932377","-20,333918944501","-62,1880190876472","22,9740970691638","33,8808849211974","-15,5329880797222"
"2124","-46,9214012815558","82,581354646958","-95,7997000044581","1,11654917202949","29,6581834522578","-13,703009468975"
"2125","-46,1173116485719","43,9862517340355","-79,3265772170381","67,4794438596839","27,7003706326842","-24,5506469374118"
"2133","-79,3188607032497","-1,14604754606882","-43,7139275117937","43,8085122467709","26,7926505239621","-22,7146717775195"
"2137","-70,1686073895487","6,39731437080674","-52,6794287016087","11,413648381039","14,0809143506339","-26,8604619430398"
"2145","-60,4855851988701","-39,7926204936196","13,1523033650594","17,4663642401042","16,1872464647464","-25,5984354247385"
"2145","-61,3213250689087","-24,5411688917043","-9,14698186220244","-36,0236838571354","20,2365462738077","-22,0858097834054"
"2153","3,66097849953497","88,2801011105601","35,8390094867989","-18,7973424538161","20,1139631678957","-21,765992457123"
"2153","-14,1038215509474","56,4190803097919","18,2514117843368","30,7794210496386","-15,2791539152254","-13,5173134142684"
"2165","-70,1055496664076","35,5573705491125","-150,363685284983","18,4722518542947","-8,68881461695731","-14,06969943076"
"2166","-58,4060380878095","36,7994815775988","-99,1392975031229","16,7968845369409","-2,56055023680955","0,300843867219104"
"2174","35,7708242229484","-73,1935172763475","44,8291170328904","15,3341572511919","-1,71924244997175","-1,20852469786061"
"2174","12,5463491269055","-39,5518859005034","6,35216377597737","-52,2982534222347","-9,01097918479285","9,85085088754713"
"2182","18,3426792726223","111,101072050899","-36,5889038638084","-31,9779551780323","-7,39171915928443","8,15471236341919"
"2186","12,2368292620586","70,6817006314614","-28,482533731585","18,4533422753074","-9,71368586059377","21,7698956671613"
"2194","20,2808269134742","44,0098681564044","-10,70923682849","6,38219068106794","-8,79024223283194","19,7616702977607"
"2194","16,9094794718026","45,6483694192467","-15,2003662150116","25,457675795503","-2,21665647262932","23,7937025336652"
"2202","129,586439961606","-90,0951836055467","51,7664599001969","17,7262204065383","-3,16887993276348","22,456547708772"
"2206","98,4075074570775","-48,560775634284","29,7551343141262","-46,4661622522086","-5,14672882335822","20,2338830458419"
"2215","-15,5206499798997","-43,9931544522318","-82,3539102102564","-28,1957470935569","-5,06373845372601","19,7659850908455"
"2215","9,24941094128345","-38,7324785089896","-49,7946198387048","-19,7019474554784","24,1655813940653","23,4757069390506"
"2223","17,3438792432427","-4,52456953939811","-1,36954340651564","-19,3560064719619","18,7174598601016","22,9256910528966"
"2227","19,9890248203934","-14,0830930710695","-12,0846867886914","3,14901166838587","-0,708467851465901","21,2228707271462"
"2235","2,44804487292019","-14,9972744538949","-60,2071033999091","-3,63522546460033","1,28489727615051","21,0982897160816"
"2235","7,71592711100142","-16,2495910167519","-46,4151788791466","3,11003272046289","25,2545025916169","27,7139006483944"
"2243","-17,3340617778541","95,4645883457893","18,204588695877","-0,026963877643884","21,3677676215798","27,082999559515"
"2243","-9,52000615927731","61,2980074994613","-0,402157274923281","2,55422577066649","19,565722270613","32,0246478650243"
"2255","-150,86304080505","-25,7119391739277","-111,647501099192","1,26713622773134","18,7302221729795","31,288224041381"
"2256","-111,051732761981","-4,72692251469796","-78,8691002988424","14,702092913231","19,8792111204796","41,5184923861334"
"2264","-37,8062569336493","-90,3068554939994","-42,6126228021612","10,412754436136","19,4119282229104","40,2747927101464"
"2264","-49,8707815934446","-60,9271511426889","-49,4147926626919","-42,4861015352832","25,3407176981183","50,1700446222837"
"2272","-100,66331761391","76,4815224413007","-42,4088605134438","-27,0964761017077","24,0895409631525","48,7050925259348"
"2276","-89,2615235731927","39,4066923001403","-45,6315402019676","18,5253855574434","6,60948425169236","53,0959147042976"
"2284","-60,4373609752084","-51,8539336635893","-16,7617896244871","7,12589411320364","9,50503278423782","51,9957128627275"
"2284","-66,0180756846998","-30,0421161183376","-26,437882827286","-4,64161040684663","-4,51607658895428","56,6274243493174"
"2292","-96,2864319431214","-30,917983854804","-72,5503928799622","-2,8917307656483","-1,01682211344724","55,6863112487636"
"2296","-89,177657122817","-27,1597257464399","-59,2485793573418","-26,5417001892151","-10,1489489854719","57,7439337152922"
"2305","-40,0045826012894","-3,71047179390543","-69,8445667236917","-19,0736923356896","-7,38296722984286","57,1028340753629"
"2305","-51,9355913181879","-10,2384135459277","-64,5326406537797","3,67459623168772","-23,0005090443831","59,3585922088084"
"2313","84,7156561815773","77,6077143982667","34,6084076141197","-2,0424509404843","-19,241424320928","58,8483458393385"
"2313","45,371145517257","49,8534860575684","3,75929332552245","11,8927811595569","-25,1803632950776","53,1530579729913"
"2325","-10,9896317501546","26,6772677240314","-35,5003716730965","6,74161601454249","-22,9338922726246","53,3917612053962"
"2325","-3,4074518159381","29,2805680539215","-27,4600741848152","-5,02394044317982","-38,7922999832741","53,5494062125546"
"2333","99,4632248315532","16,2071079555644","2,52064549016706","-2,27352275782596","-35,1448902959705","53,6535185365963"
"2334","73,0797522181334","20,598797199476","-5,87360827994127","-17,0281216892714","-15,0174843003366","60,4201637137607"
"2346","-15,8563048918647","-76,4569286017537","-28,9588740410288","-12,1032611796652","-17,6856161176421","59,8890090521537"
"2346","3,0807833345729","-46,2445744670252","-22,8153269524962","-7,29543071121463","-6,6317875167931","70,2548417886933"
"2354","0,903049194419829","-96,52178904106","-9,03259870491206","-7,96753424339909","-9,5067917056291","69,1006718995398"
"2354","5,19139975505618","-76,3984378217798","-12,536087128702","-59,8673297158832","-0,0852375030539054","73,6967416683286"
"2362","48,4231568184856","5,01154178831254","19,7550498388514","-44,2017692391784","-2,71702920469621","72,7320899721668"
"2366","37,5506185272563","-16,5190811018776","8,94692101180481","-7,12272319006828","-3,93723280417458","74,7741670184021"
"2374","-22,8916888896656","-0,0496274952356508","-84,6031991229928","-15,8816935610741","-4,50296785959362","74,1228008317288"
"2375","-8,64328913967336","-8,50401323943401","-56,3357339398566","12,7276252426543","5,989255616314","73,6926238872179"
"2383","-7,33356635972664","-76,3493428681337","-17,7310021170796","2,62936255127509","3,85386889245009","73,4085253150556"
"2386","-4,90556945005548","-57,0748394702435","-25,9374482364476","-24,292998953678","7,47289878707971","65,1834357443342"
"2395","-55,9818231482479","-50,0310265334473","-68,1845024141294","-17,7288078870994","6,1508253879164","65,7514007811258"
"2395","-41,6727436049383","-49,0869148910436","-55,9020694545251","6,49365690106101","17,828740357721","60,7681880850468"
"2403","4,83363088356999","-124,682217110805","22,30525504463","0,183769134646169","15,243087500645","61,4771618461884"
"2403","-4,96881367504058","-101,546727351946","-0,854491955849091","0,1648181319336","7,89883524604244","47,2100326322062"
"2415","-33,2703338892269","94,4784301604973","-48,6413299252994","-0,840416031319185","8,49374698204687","48,7876981945562"
"2416","-27,5188278271274","38,5819099580887","-36,7642731589763","29,9104422859617","5,69685155853194","49,8296241725347"
"2424","-52,4107760181403","123,146158761736","-12,795462371449","20,4036610901125","6,40009928858297","50,5177356262509"
"2424","-44,5450751725624","88,486122799037","-18,7148647654368","64,3206878822602","12,8715934482956","42,9347155195452"
"2436","-55,360412406026","13,4079620114621","-95,3079653146741","49,4503303762993","11,8720362503444","43,9267177351849"
"2436","-50,8946953732674","30,6861842205017","-71,7387092078633","5,69569314923343","9,87224155103501","44,5818584084386"
"2444","9,12717875987129","76,8309551594356","25,0487546848371","16,610901764504","9,94505696845867","45,0145281091556"
"2444","-6,25861200823356","65,5670381905161","-2,39743551396049","-23,4695141374224","-3,84842394310632","46,6398503631086"
"2452","-84,9079361923688","27,9782210089874","-68,7348131777623","-9,53950569681658","-1,24363183403664","46,7132498968207"
"2456","-66,6093046147032","37,6036046240109","-51,5638041271818","18,4411630174598","9,18221437297689","52,1200342441485"
"2464","-12,1063443578754","-9,73568381932583","-31,4909178871386","12,1692706112325","8,01605249985722","51,6907967702806"
"2465","-23,2956298196423","6,19854305018281","-35,3986692520717","-29,210517604518","-1,74278735132306","56,7656282828701"
"2473","-85,5146609035788","98,5202937263325","-76,5551965252482","-17,6393886870624","-0,267374728702663","56,1171616578873"
"2477","-70,8468666454241","73,0013495049422","-63,9961100702491","6,24215946664312","-2,65603482321255","59,7076318772568"
"2485","-30,916132394182","-32,3097929681011","-24,137467818419","0,83811239122541","-1,76351291254329","59,0788595214396"
"2485","-38,8673932853402","-4,37595642158482","-35,025812016893","-16,1687050874028","-10,5678648528454","62,6823362810739"
"2493","-53,1782504590417","-29,4220891239309","-37,7880533418207","-11,8658950167998","-8,64991356586746","62,0621537382747"
"2493","-50,8548146441273","-17,3348902759114","-38,4888005810756","-29,639342609482","-4,6879546216621","60,3129937673603"
"2505","40,2580928258494","10,1371713727246","48,6490326214597","-23,5482715815206","-4,85103243603164","60,1578090077834"
"2505","16,032365233244","3,7195355512144","20,754847743508","-1,18028543101725","-20,2902429741587","52,0178570311496"
"2514","11,4622078416399","-99,7675880703548","-112,056040029785","-7,00237004978445","-17,4484767583791","52,6420488583961"
"2514","7,9687519208405","-69,3303173303223","-73,7485570847776","-3,43898154865167","-11,521840251753","45,0168147863795"
"2526","-53,4086181432635","-91,9614980818672","-51,8062270487482","-5,45479314285006","-11,7740151888226","45,9809379456838"
"2526","-37,4657822343148","-80,2077658881263","-53,2397231170287","-23,2496039931889","-2,67277285190818","42,5989344324889"
"2534","-62,3737946038515","-61,447728268452","-25,6623903656005","-18,1644333800965","-4,45307390981567","43,3653829104771"
"2534","-52,5133432804395","-65,2699065580235","-34,6663543505055","5,64953405174097","2,40330809365256","34,4945209350115"
"2542","-30,885729956053","166,414792417052","-5,51693363935785","-0,773178449267334","0,582200250964993","35,6360032872458"
"2546","-34,818164355051","95,3604032227131","-16,1220779093822","57,786095015474","-9,48029867362596","29,6919769731759"
"2555","7,40038447233762","-15,6226575916713","-69,455525333781","38,9598459207829","-8,14567450860225","30,7664077155238"
"2555","-4,80325441553595","6,74571397428576","-53,9855763489919","26,8649170473573","-9,06324963135476","24,7780990035407"
"2563","46,4249037518835","24,9874265743017","-16,8811076268041","27,5243638737597","-8,4886740549046","25,8232846499355"
"2567","30,1654642120845","23,022189161169","-26,4681523623778","-25,7314701475006","-17,4404385967485","30,5322810901488"
"2575","-18,651473051845","84,5436797623854","-49,8560147751463","-9,44044009797247","-15,5908336712616","30,6422087188907"
"2575","-8,60408425207351","65,5237794909079","-43,7892327999149","14,0209134501568","-5,51512236250492","38,7522718639299"
"2583","-38,7850677801198","-91,4375242547042","8,39288696164912","9,50081092390712","-6,84362073926558","38,108340777088"
"2584","-28,6477409187555","-46,7592735340806","-7,36913993607556","-26,2237260970157","-2,8504852249176","45,7205385961438"
"2595","14,8221544255411","-13,7399869276068","-48,0403294669877","-16,0906477440506","-3,99910833792012","44,7478060008857"
"2596","5,02743599806159","-16,6265734835654","-37,3581186926437","-25,3585852520382","10,8319453342894","58,8407429223151"
"2604","-34,9840689748323","125,668493641584","-24,1702984091219","-20,9183388792825","7,70821333969198","57,1480368348337"
"2604","-26,0592026915928","81,9423214869403","-26,8247077932441","19,9555587244558","-4,49459421161099","61,3884451323258"
"2612","3,62875432293906","-214,585770222965","-32,7370356308579","8,24470558810343","-3,15230249017652","60,1889065658706"
"2616","-2,66968588805995","-131,428334834739","-31,2369217459447","-20,8468500457682","0,542757719789345","58,0571267888634"
"2624","6,98459194775373","-92,9606797731001","-32,6026730701083","-13,8817785281627","0,255935007215282","57,6492512656856"
"2625","3,13945887234296","-91,3435017287158","-31,9491476743653","-58,50081162567","-16,7770087170887","49,3424166003031"
"2632","33,6740268687095","-39,177238243769","-42,2612286970103","-43,824344419999","-13,6741607710065","49,8563953298998"
"2636","24,6522458786287","-54,7792067952062","-38,8772790190367","24,0100179725029","-4,55375612937155","40,8187966291229"
"2645","23,377284673991","-12,5374666742423","-10,077818506184","5,74549768806622","-5,32517277853965","41,8501622812587"
"2645","21,9606473031745","-27,8786308276005","-18,7717434488423","40,3484629774257","0,462608159331377","21,0980609087596"
"2653","-82,2416578107121","24,7790756048137","-13,9920387860391","26,9056126492385","-0,853945757539971","23,392904357428"
"2657","-54,2933405425101","6,31274665146373","-16,7794854813416","33,5356037763204","18,5083288439829","14,1918515388651"
"2665","-83,6442277091645","82,2438607446882","-52,4128687415421","29,3667710475194","14,4854515958038","16,1152683990687"
"2665","-70,2356383464185","56,2010559816853","-41,4526274040304","28,2153622589161","-8,88875636806634","9,34807188924713"
"2673","71,3497619900373","155,901000982285","-1,99959283461553","27,8973494518026","-5,72597143895223","10,8788624383124"
"2674","35,6176552620941","121,418458581158","-12,9908347998806","51,9427926600297","-15,0140990124638","15,9085633264142"
"2685","23,9409619268665","-36,3625821699667","-75,1537909739046","44,584012501867","-12,3204454039889","16,2302914174863"
"2686","20,1252012642487","6,08941889433797","-56,9237816440763","-0,543579107351515","-12,6079202731151","24,4802323725737"
"2694","64,0550928911601","-78,7375594475775","28,0313073553371","11,9924270201242","-11,7412050881135","23,9286797514281"
"2694","51,4106940507213","-46,1500375562673","3,58338665404003","-69,0116648012573","-3,65756078061867","30,2623089868469"
"2702","-2,91776707440369","26,6321064132094","-41,0376212419279","-42,3845517227222","-4,90966087092871","29,4451808151688"
"2706","9,32854197300494","9,72017728048063","-30,3574316486781","-9,1732067118707","6,80069651568149","39,6221501853096"
"2714","-8,42135928981545","-74,2514355752906","-34,6332449759303","-15,0004149462896","4,23008525697253","38,3432506624267"
"2715","-1,22174926834533","-51,4278304695276","-31,7179671389078","10,9710295738621","9,18368781463441","38,8382139355314"
"2723","34,5952835898453","-84,7803900871109","-22,2468359553782","2,14420043932546","7,48037553025888","38,165098862667"
"2726","26,2997294554958","-70,9857877940524","-24,8441244436846","-15,8079707151929","22,0542531793513","35,0414036438346"
"2735","-51,7058319944396","15,5734288529812","-53,4440185204284","-11,7662621570681","18,8112841232071","34,9784447547904"
"2735","-32,1968288289712","-8,53599052671832","-44,6994659849204","11,7595067648212","21,9167946736866","24,2202460079472"
"2743","-34,1876701164933","-42,7742124628589","-5,80852488541364","5,25719541233481","20,3566332253274","25,1152885200652"
"2747","-29,8382458961555","-36,2240553928913","-16,9423631704451","25,870763729865","27,3150807318486","12,310620721934"
"2755","-10,0115499913512","-22,3482132723489","-37,2300042396114","18,5641185054847","25,5412945271653","13,8541288413699"
"2755","-14,532496021937","-25,5184428828229","-32,3767335792665","9,6508411878698","12,428015569498","5,49645460745405"
"2764","-9,3170078471904","44,29045289509","-22,4139570393433","11,1890427645706","14,3481764336254","6,97685773748881"
"2764","-11,6126679247308","22,5578991266928","-24,8865210428351","35,7471622287411","7,55663901450072","-1,42249245701478"
"2776","-72,5986170506171","52,7635973704949","-63,9326465421562","28,5299804471991","9,40781139275671","0,0303869271578517"
"2776","-56,5278709040954","40,1004527284709","-51,8381766637748","47,2222999920472","19,4842494351336","-1,68925352449957"
"2784","-19,4851052258364","-15,1145277591511","-10,3510899358484","40,3850163693746","18,1560880010644","-0,82494292669188"
"2784","-26,3801090551105","-0,354013441731564","-21,8263174523705","-13,2175681093625","9,85849880814167","3,7645995453368"
"2796","-287,981713884411","148,535699070881","160,371637150599","1,97769136116574","11,0114055165719","3,79563707493825"
"2796","-218,469024746111","105,629667086104","100,593056160493","28,5840100148666","-8,42674245770297","11,8535994163209"
"2804","-518,683985789067","204,12330976377","-26,3360208574254","22,932529642101","-4,43904313127165","11,1752597817495"
"2805","-423,789537231532","167,307824621073","5,46360638773908","64,4667584824473","14,3097745972843","32,1605075113604"
"2813","-198,686501178855","12,3308798183593","-278,103330903446","50,9382852204341","12,0024742756333","30,0196391838729"
"2817","-241,126351456134","53,5568190364221","-183,040835660014","-40,7122841318866","-98,1488504081921","29,94533878592"
"2825","104,746333945763","-286,760150802066","-338,794774430946","-15,0256698918158","-78,21939781612","28,8962691246123"
"2825","2,77211524712942","-176,688565583548","-275,307666230749","-121,702328731121","-147,333674638306","28,2034398210446"
"2833","-94,1336583416569","79,5351346766919","-154,423029026092","-85,1658381873372","-128,377809932581","27,745879697455"
"2837","-87,8009487487003","19,2535769756812","-183,756057597839","12,8394196425389","-139,561796524667","12,7083451531548"
"2845","210,427651383661","300,867228792662","198,230102789825","-11,0920644117263","-131,7471387718","13,7772176313508"
"2845","130,884091163534","205,593367188132","72,1353749358975","142,612099520217","-143,487552916294","9,12481552543566"
"2854","631,953429583578","-191,361891044415","288,122982714027","92,0643485570981","-138,930877169326","10,0522640735711"
"2854","480,695048541654","-85,9226283848197","200,916428347443","22,9415612309915","-144,500021133789","-8,08931168341416"
"2866","96,6230468981267","-434,376504226064","-168,722925648369","35,8502255987926","-142,082098395911","-6,07041814460447"
"2866","171,11432679987","-311,550727326854","-63,4959622382557","-179,507766857488","-44,17036567519","-6,07667265259276"
"2874","660,610861618689","-43,1868489473011","244,355092460504","-111,988465974298","-61,7745812662513","-5,08080327096207"
"2874","542,570669453531","-105,117684271896","161,453184301745","-26,111591122768","2,27232770587688","6,29351064030588"
"2882","214,530674631413","472,568291817149","-65,642853999141","-41,3928681913551","-15,0329708424518","5,80536450125987"
"2886","280,332337561855","287,011201764571","-5,25437419795764","221,576374830359","66,0524892678132","17,5391784469712"
"2895","50,8529440980578","-36,5946304860449","100,873681743128","139,207040833272","45,6469425941017","16,2884542520367"
"2895","125,862669255536","32,0892744283408","75,7970868551544","-26,6187726676128","102,249602284123","32,8769540595669"
"2903","-262,909591438391","-207,553369496877","-70,26950908076","10,5810450120177","85,4928528615582","30,8323740786316"
"2907","-142,954282643684","-123,695394881687","-27,3248390860545","-129,115644943594","174,514442804494","37,5195517263596"
"2915","-153,951234261545","-212,610186612987","-5,95242282743807","-80,6991063145528","152,788402446465","35,935914913084"
"2915","-127,544865967668","-172,150912401391","-6,53049913298149","-67,3267232716709","128,88810257004","25,5130035211466"
"2923","-394,996259976032","-176,500017398586","-176,069422462098","-63,6333442464654","126,806970305801","25,6294773768275"
"2927","-317,395190402727","-168,700382276948","-122,07939823684","21,8532149498542","108,942113108955","16,3293574773948"
"2935","-491,149037320744","-97,5877710834639","-244,595124342899","-3,53586516696604","111,659252789062","17,1873481993951"
"2936","-428,929075557088","-117,960495830202","-197,675883311843","22,20411379371","48,3919022468412","1,67905574348572"
"2944","-326,608998921447","133,292168736505","-192,758287280148","10,3133551381835","61,0586351752476","3,4370290620944"
"2944","-342,172399002835","53,6385915833428","-187,51075260174","115,628937386085","-9,88656803400543","-7,45816232792217"
"2956","-0,902635430893412","362,661461045817","-34,2503649807879","81,7165249353177","7,22040617385659","-5,65359285211854"
"2956","-96,3810169560752","255,952618502968","-82,3700569702872","156,816570297999","-75,4933651265506","-11,159701450167"
"2964","111,687979720986","31,6889951737271","191,817740883639","128,558791893435","-54,8427684642868","-9,79605995528152"
"2964","36,6816719279604","82,7916215503541","97,3758713227154","-27,4931224567999","-149,740816103962","-6,21632548785665"
"2972","7,1511373109335","-139,291538921558","73,4171104542659","15,4061926872485","-125,739335911264","-5,8521879767865"
"2976","0,501020698058601","-63,5870988305689","67,3390623912588","-107,202078008944","-114,611292416916","7,78407075444272"
"2985","140,551196749126","181,427178082079","-138,521379022327","-63,0658114851609","-109,451887621134","6,78976407346358"
"2985","101,317402748227","119,051788868189","-73,7456849475703","-43,9803942896143","-77,8689395772477","38,282959301935"
"2993","118,614294475089","377,675573026855","-102,716988489993","-42,7091064921226","-82,2258252072011","35,0817768848058"
"2997","106,266648026055","289,056445048431","-84,0666580470149","69,6893719094221","-113,436693358068","59,7591918850937"
"3005","73,786964365511","76,6816214883817","7,98030968336158","35,7332166199768","-108,907296649646","56,0567142318823"
"3005","80,1731119941146","127,065589129021","-18,668487097442","19,4594904436443","-77,6164454823548","60,3094013944564"
"3013","334,915567986889","-467,599332145014","236,517848164162","18,9647763205996","-82,1087588743134","58,1179720678897"
"3017","267,161416342205","-278,728477417828","151,255537198205","-236,295070842178","-79,5824941868699","56,6707026346564"
"3026","-225,153177330823","73,3759191734831","-364,580800982391","-158,796443893259","-81,4112171200222","55,7148932060891"
"3026","-105,033882701648","-3,44230401089659","-212,442245500418","-47,7538626537988","-19,2683212561447","57,7628098855971"
"3034","-303,377398914267","-122,912187832376","-325,775684240499","-69,0845093201901","-31,456396221274","57,1153003246585"
"3034","-226,19295629181","-98,8862026362956","-267,527007883251","123,26171204696","19,7380504036587","39,2731640622804"
"3046","-692,895688814425","-557,734226268093","-29,2220756660467","61,3866859051621","6,47383770250339","40,4898142078828"
"3046","-551,406838741044","-414,377536197084","-96,7669945530993","-131,531015871733","1,86037977921353","2,44557257995291"
"3054","679,466182347657","1166,442856505","663,20655422304","-82,8138294920709","-1,27860331755946","6,32029596201805"
"3055","373,696224681495","708,753610009934","411,002658388772","109,917359883454","-122,570050118259","-9,87483291357645"
"3062","785,779375620183","628,978051869184","-487,715598991293","59,1486597990953","-100,805602453118","-6,57046188265777"
"3067","614,441700983788","579,959779556684","-237,709558839666","550,201625875357","-267,396149791063","-33,8588836098519"
"3075","121,741945857832","-1281,69446472708","-458,934918108578","392,827768153447","-229,634171848046","-29,8807737836139"
"3075","221,735375751277","-723,516129629006","-352,057117990925","-448,759963679794","-61,5629214118967","-12,5181886839285"
"3083","438,465385225353","-929,772810144651","228,637419468585","-218,201890197725","-81,638386342102","-12,0515452507796"
"3087","399,289360885055","-777,700218284538","58,9526052573651","-476,874635103517","-15,664526895278","28,4439588926522"
"3095","424,971209074052","2417,46322900123","532,813996231233","-361,318631836465","-34,0764143488861","25,1881046516123"
"3096","410,363635187296","1470,33708240831","357,026903958668","866,918301405831","43,4232667777729","65,9043420556611"
"3103","-305,52654186524","-166,822142059962","-42,0695102503268","512,150621679108","23,3552099517574","60,7942650464562"
"3107","-114,468249327093","179,317432724785","59,6845530063238","145,252076159039","101,62338501849","65,4569192049267"
"3116","-179,19777830953","-2119,77929729871","-241,062031072083","199,916705488249","80,9116326337688","62,5362413439001"
"3116","-124,35037547981","-1365,33628510595","-130,35780458268","-1155,41057310074","128,154162447926","72,6635563877699"
"3124","208,137439364575","1685,76353875441","-191,335396704806","-734,744551343611","113,05768349472","70,3518640260906"
"3124","128,789254416995","878,8754379385","-155,804674841506","210,591534002222","29,2403479469219","66,1460153490824"
"3136","-477,746320695343","661,344106262249","-115,357342583823","-9,31181193171733","40,379288209448","65,3683778696319"
"3136","-328,952655446775","598,304863554628","-123,096343242812","914,245011600033","99,3163492386831","60,8360762829746"
"3145","71,0460721259581","-1387,89901539975","280,084769812935","598,326352725189","91,6419213824331","60,8428419271853"
"3145","-8,24060296685183","-794,096720238146","150,366945285398","-707,659120781738","63,5019886860807","34,0557619258837"
"3157","-189,759302976153","1181,71546233511","-575,826797211274","-361,365162450288","66,4551935526582","36,3649691535722"
"3157","-156,076773696687","676,045030540666","-363,05337279191","-286,406331678264","32,4881344485642","31,1921347269993"
"3165","-252,155651684764","1232,97350251023","-398,137243023442","-253,703112780067","39,7396511029231","32,775878013631"
"3165","-219,552725548931","982,687284528209","-356,037596872057","-244,670662666428","43,1017434439715","33,8218178580253"
"3173","162,555274437203","-834,525622116546","398,571523236068","-242,175949368959","44,6605435472493","34,5125801597986"
"3177","65,4221895269321","-322,081356238763","164,006736684046","204,978693993898","-40,6529010449469","8,17722700312903"
"3185","45,3931268745035","-1518,46721367741","284,370630196428","69,4803597421529","-24,2076166063401","10,7847648438477"
"3185","31,8479426186428","-1072,67298363807","211,90549524374","-759,170250320229","-51,9192095016284","16,5255739678551"
"3194","169,64491845944","1715,66721369358","-202,890877226225","-529,039014594617","-41,7674092193377","17,3169340023671"
"3198","129,674813888372","939,25673704631","-81,1197036282394","522,262508828074","-1,72434704712347","35,254072367179"
"3206","-59,0744338868295","654,281433411128","-291,218896521327","239,626237067433","-6,15878634329509","34,10016375619"
"3206","-15,7547344721394","616,627469916366","-206,518522466708","558,038903859226","-25,1147305396364","37,3568286697021"
"3214","-98,6450421752232","-986,738598968479","83,9009999970298","415,982740131142","-22,9034623094998","36,5076037489941"
"3214","-67,7322976477547","-505,272020784749","3,57692279046165","376,747605014837","-21,8782301636043","35,9467564267553"
"3226","345,614474753046","415,480821734435","126,397266277255","365,911075383209","-21,4028916503238","35,5763601852034"
"3226","239,689731837057","212,611125446341","75,5553029940383","-659,298559593264","0,326535865720334","28,6338550933695"
"3235","-30,8482230128319","960,001259245638","-242,947303684299","-349,455851013828","-3,59883487956479","29,0488678945266"
"3235","21,7442067766102","700,28298103108","-148,747565526441","572,166663524531","-56,118677142171","33,341683951686"
"3247","130,957450505961","-300,634499642307","72,4830352671023","341,713759089897","-47,4689707208299","33,1767566536441"
"3247","111,646629565079","-37,8904628149482","15,6065648608981","-54,6305281794943","24,1412232620831","29,0491027123538"
"3255","23,3485886991284","-651,523300857184","119,926913595331","28,9013484002748","13,3425652994366","29,3231068028469"
"3255","43,4941706503092","-422,887643054176","78,3917252372605","-541,016686664762","22,1631178166488","18,7874460199269"
"3263","83,5417445538583","791,846596400124","-103,283834491697","-354,424929462294","17,2526777632714","19,8294576307127"
"3267","76,6286650327428","459,116569998214","-51,3727282357995","-302,889307119","14,9760019061302","20,5176256382693"
"3276","214,919693272086","544,853890555433","-71,383437621362","-288,655450221298","13,9204441756321","20,9721073366712"
"3276","176,111037293829","465,517625606239","-57,4599127399263","644,40701247837","-1,93255564735466","17,2535250895282"
"3284","83,114624692065","-471,821947769312","-46,9424344147747","363,113759128582","0,717361352358008","17,7976893680608"
"3288","100,724852281084","-199,530234578814","-48,2742772795662","-307,566980566498","11,1641292584385","10,1196032949933"
"3296","-266,647490461888","42,8507578592879","-99,2552002160238","-148,805331027725","10,007667519449","11,048821798839"
"3296","-163,699023351192","12,748574925766","-83,1884442016217","-232,517837054364","67,8531701377083","21,0395405554473"
"3304","-151,808878685231","504,399496637642","13,4420381801761","-181,638773159373","56,6726522663243","20,6376369198519"
"3308","-134,923365467861","350,096496185351","-15,0439763306345","354,726803848153","45,3434777927844","28,4096751352856"
"3316","-129,405443976459","307,50844588804","-22,2705339256154","199,868041323125","44,0908206531235","27,5425047487052"
"3317","-127,602273578656","295,754027485223","-24,1038242461605","157,096898472586","43,5100388420962","26,9698058354032"
"3325","16,8835200369092","-435,017069563453","-129,347633012403","145,283742853152","43,2407652305543","26,5915825353772"
"3325","-21,9007835533804","-214,711891736097","-96,0467153033206","-306,168408762034","-32,1657264354514","22,3230630958661"
"3337","32,3537388665398","265,024275251298","-146,973285889909","-170,857022774402","-18,1271834905363","22,5040364290811"
"3337","10,0832678072786","154,432769896322","-125,892741341256","109,57181316244","20,6452073673998","33,3401745808859"
"3345","-104,280175127267","246,313017584614","-73,394435645801","46,0247231928061","17,6216341703695","32,496605012512"
"3345","-77,6523586952506","200,672217330625","-87,0762499935701","130,177887498495","0,856183884607496","39,9769570683869"
"3353","83,3118190240969","-77,4203470690782","84,0840476825295","94,4205310089757","3,08305245752812","38,9171505526332"
"3357","44,9123935017293","-0,174655703696341","27,5053465329182","-91,2836133210801","-8,17536338279737","47,5942722527888"
"3366","32,3640621232451","21,1453664570951","13,1520138702632","-40,5740818458698","-5,39521399795695","46,3248394460074"
"3366","28,263463787665","27,0297509049808","9,51074685036362","-26,5683867257143","-4,10622585943788","45,4864773430065"
"3374","-43,3516048061504","-43,7540279758915","-134,610589648446","-22,7000903701339","-3,50859954831135","44,9328040709803"
"3378","-24,754288575068","-21,2905446111879","-89,1724308452559","9,39681040937955","2,91392430897446","43,2275683249769"
"3386","-57,1609365542371","43,5253452336004","-103,840000421895","0,261798776300395","1,89166252568268","43,1013921158111"
"3386","-44,7509220078378","27,4147081668138","-92,5609855489558","2,91017496381196","19,8540225819871","48,3763721339823"
"3394","41,2920433136551","124,683966833936","15,0790893737296","0,641641975371704","16,1820891163377","47,8600881035847"
"3398","20,4095379624382","92,5305483544189","-17,6139245731094","31,0435840696764","-10,1021275447162","42,1608128295657"
"3407","120,671263472821","-81,8476204619003","78,8709780907929","21,440434122247","-6,28853871064306","42,3968826878658"
"3407","89,4352264532067","-33,9764721532747","43,3480317650515","-24,3070401419853","-1,44768659384032","37,1944789181596"
"3415","79,2277783432237","-20,7639042447969","34,3362896180774","-11,9422422119397","-1,20327447954601","37,7586939425933"
"3415","75,8921440291598","-17,1171993525166","32,0501195527104","-8,52715268157783","-1,08995527520628","38,1313142907536"
"3423","-38,9765531461677","68,3651671112932","-120,459005657427","-7,58392364003826","-1,03741597244189","38,377401186441"
"3427","-8,5138458937152","42,9585341347655","-72,1487274741785","-76,2756278126389","18,9596248507308","45,2378095780281"
"3435","135,298142006283","-48,5296320153851","65,8414764185822","-55,2479006366477","15,2310505399769","44,7685782614045"
"3435","102,293649251998","-24,7806161841347","28,8479233750617","41,9215325558004","30,4022960538405","40,4399550717956"
"3443","-2,19177881859904","-102,701688773652","0,25367313005442","15,7591983101574","26,4362905652733","40,5812345306589"
"3447","19,664018297717","-75,208118000146","3,99965743746176","-41,4570539356781","18,4520517766134","36,6558064490602"
"3456","60,2704637554285","-43,483855548295","34,6372738463507","-28,2598697290922","18,7502402301533","37,0633650657217"
"3456","53,5400147128745","-48,7278723141111","25,4096668382781","-9,10063041745878","45,0066142607869","40,0116808017658"
"3464","51,3406092852392","-50,1752352890882","23,0687344666268","-12,808953355445","40,1801164727732","39,9588151184277"
"3464","50,6218780082433","-50,574711430162","22,4748682168124","-13,8331718596508","37,9423595978147","39,9239014268773"
"3476","-63,3916562044154","144,126722894325","-148,814372916481","-14,1160554061758","36,9048462597044","39,900843636252"
"3476","-32,6494950775312","84,8648514703381","-94,2683831635296","65,1008654097624","42,5692541595596","38,5460383411519"
"3484","5,84122813852882","4,72051404891404","-12,3245534544611","40,9801454785974","41,1954995816437","38,6512943182394"
"3488","1,41939417466635","19,6004576459694","-30,5363942431695","-72,5578046348949","23,6586108932872","54,7957366546638"
"3497","-6,718454563778","-140,072377290095","95,8168883215726","-41,9163651973084","26,5278098546522","53,4578910882317"
"3497","-5,37777618874597","-89,1425165967768","52,8711889827789","-48,9676165353658","26,3217248125911","56,5930798811009"
"3505","-28,3646825499227","-38,8817931574248","-26,1297872511358","-41,9151335717773","27,2261755675788","55,6636293860871"
"3505","-21,8764438448466","-46,0096959749972","-7,1713801035667","-43,4148873107682","29,1818751266971","59,06853151006"
"3513","-19,7561889653412","-47,9770166545648","-2,3618613444924","-41,8291110870988","29,0886154435867","58,3172057919258"
"3517","-19,0633228489098","-48,520002544708","-1,14174456390867","-41,3911283711993","29,0453765349198","57,8210133146802"
"3525","-77,399452731479","49,5979759122009","-34,0121453201579","-41,2701599416293","29,0253292523176","57,4933165933614"
"3526","-61,4627871211659","19,6788064167595","-23,350968715231","20,8202478621278","27,4796744166181","65,314362731371"
"3538","-64,6210124210291","-698,865838992144","-83,5135921648149","1,9692787501506","27,7630471877631","64,4795582839841"
"3538","-60,6530710284557","-485,18612706068","-62,7761225991293","-161,827359176719","-41,2417751097647","35,7971089732373"
"3546","19,2847255932723","146,157149708502","-150,069817772866","-115,067094306824","-28,2351629209148","37,8545714912089"
"3546","-1,59285335407366","-11,5903785501689","-119,215173193236","144,3520174565","-40,6411001443837","12,42181803206"
"3558","-20,1278289948143","729,289627175307","-158,538149103637","73,002156631516","-34,3929874406059","15,6254531033993"
"3558","-19,1847689950408","478,774535800687","-141,513912828489","398,05680984855","-36,1051935386458","-5,03160988080422"
"3566","-18,8765917443146","409,631685172863","-137,195069843057","287,835126427382","-33,8990405754661","-1,67400093351972"
"3566","-18,7758842411992","390,548069224982","-136,099431575863","257,392500579382","-32,8761800713495","0,543439866074062"
"3575","166,983962346096","131,853341202154","98,1843381553574","248,984413896655","-32,4019411457884","2,00788786371234"
"3575","116,687373401971","207,452888479967","23,6192989460072","103,586292201555","-49,0820263404079","4,31461981356781"
"3587","50,0547657402915","-507,828261360723","177,587946232714","146,428126581344","-45,8155791065253","4,83803770399036"
"3587","58,2802722374072","-278,24781572352","117,64793116028","-393,356944167228","-7,42848110762357","52,0689240279764"
"3595","55,9485921015959","107,5045037723","-108,861888644092","-222,442627102631","-13,6306914411543","48,2612683361144"
"3595","58,1866355198302","26,9731993701668","-45,3246922954714","140,219373401261","24,9754396085291","71,1985772758214"
"3607","-93,3446308994554","-200,409335394603","-79,8491240008059","57,3846335201842","15,874781733273","67,3468942699516"
"3608","-51,8626775723925","-144,167537107513","-59,607555056786","-29,2746708356411","-22,144568779272","70,1614654376947"
"3616","-38,3070243433724","-128,644646902909","-54,4725136584457","-16,209496514829","-17,7718560437952","68,0202718200643"
"3616","-33,8772489898197","-124,360286735865","-53,1698157185975","-12,6009668576691","-15,7444920179932","66,6061791838735"
"3624","67,9632711701955","88,8738718646574","-14,4204711004391","-11,604310711577","-14,8045251960777","65,6722804615609"
"3628","41,2431595367722","24,7270830463262","-26,5902307014315","-47,5289546457126","2,53124218737053","78,4512867406896"
"3636","-138,156550940437","15,6423801470904","-103,022659245139","-36,4511447272284","-0,431204632488695","76,8908311743923"
"3636","-94,7815690402734","8,13497729118537","-80,4126425924316","76,9320359528185","-24,8501148714129","67,8228066109194"
"3644","-85,6269506406965","-400,800440742084","-64,1988821188902","44,2478500445844","-21,1716955840054","67,8340783359886"
"3648","-79,6353646010944","-277,667734965164","-66,0856470487892","-262,997689885786","17,4064090900377","54,4457483450711"
"3657","21,0423152033735","-259,198746656106","31,2291803169596","-174,857226823056","11,2927570692285","55,6037927670411"
"3657","-5,057794461874","-245,101255351717","-0,0832241425227083","-103,970565474582","-36,0962192066308","37,6145077344633"
"3665","-13,5869018805131","-241,210309181018","-8,02680270729216","-111,392057489001","-29,0676386739522","39,7339775080289"
"3665","-16,3740807196712","-240,13639739229","-10,0419925818454","-113,441832974334","-25,8089084105176","41,133723226842"
"3677","-57,4420627069613","272,187192608639","-61,1962723956411","-114,007969747386","-24,298031088923","42,0581469208113"
"3677","-46,8624365800536","116,589905164477","-45,1734949258014","125,444626956315","-22,0611679867586","39,9895023931485"
"3685","77,0663463570503","206,392417444509","-23,6455890739304","52,5801239249877","-22,024069037363","40,6233228149085"
"3685","45,5643333574332","154,178156533163","-28,1842195489365","44,5219851917139","-49,661350571283","28,9857154563885"
"3697","8,49851808789349","213,898760015741","-66,0081690551236","35,2963713662476","-44,4750965780214","30,2999766548805"
"3698","12,3859896714218","187,381809972298","-54,6036478986937","17,2340580621715","-37,461462030011","48,5824507610991"
"3706","38,754589276083","-114,740472934564","-1,06740821960734","21,2453459612662","-37,2096613211754","47,6566096751185"
"3706","32,3714350055359","-27,1270496223857","-16,485911260361","-91,4179194099885","-34,0201962378837","64,4596696271455"
"3714","30,2855200748514","-2,94550507819938","-20,3973991313691","-56,5348968327111","-34,5414330163816","62,5567900127043"
"3714","29,603875716336","3,72866737661877","-21,3896963293917","-46,9003968703977","-34,7830991759438","61,3000853279047"
"3726","-10,7760505505231","-77,1811114375035","-4,17830927391263","-44,2394006990314","-34,8951452461499","60,4701291641981"
"3726","0,028421418981922","-51,512431759078","-9,81198839744443","-126,247110764221","-28,8016538094816","80,0156685035624"
"3734","-88,4677068634963","79,6999970698344","-103,795725267822","-100,89719155301","-29,9764681461278","77,9239842311055"
"3738","-62,3868567803234","43,9149864233683","-74,6382634097429","9,53264573204168","-32,0575190449064","97,9758272333824"
"3747","36,4896019115429","21,9702447292535","-112,64548197803","-19,9672374617341","-32,0223772423856","95,2185173376777"
"3747","14,800881372581","22,91343598094","-96,2874539676364","-7,42927812007128","-59,6605661876558","86,6996405465408"
"3755","-146,222492745128","-164,741942429401","-285,978261530378","-15,9663623553283","-54,4747329064874","86,0735818661049"
"3759","-106,842411679428","-107,535340295126","-223,100526776377","-63,143200574993","-44,3885731855479","70,9247670683594"
"3763","-93,9736174148852","-91,7461615889987","-207,149205419391","-50,1731851482192","-44,7122272616952","71,9201475532791"
"3767","-89,7682968228114","-87,3883050669691","-203,102547981279","-46,5909378569006","-44,862286200043","72,5775193118829"
"3775","115,738245222409","-1136,0998585219","260,696742933544","-45,6015407564416","-44,931859508824","73,0116624717669"
"3776","60,894567353522","-816,547116546668","113,357017488109","-165,994657718314","-49,5731968173954","41,1485225994664"
"3788","459,603208035261","938,755668825024","320,462401975314","-129,246577854029","-48,7251059091286","44,1053852164946"
"3788","340,894952734023","456,224040089997","233,002534911758","432,520791707277","-88,277260152587","-39,6747901074145"
"3796","350,626206271188","2171,16905736594","-84,3117188690236","267,677865291632","-80,6152163612319","-31,0051105458939"
"3796","324,806227650447","1572,49857421777","4,18949005632571","896,157090486637","62,7459832825307","-9,20452939780572"
"3808","-311,087205404668","-1525,25546316136","-743,482452873462","678,739613561926","38,2139532672737","-6,80693311676095"
"3808","-143,887228733912","-679,244052922392","-492,157788315101","-236,317417917381","57,5671280330476","-10,581816006446"
"3816","-89,248892738043","-445,742589012128","-428,399758465717","6,94883701303769","46,5400317380767","-9,07483394412042"
"3816","-71,3939395266791","-381,295546113693","-412,225116882415","74,1376455162884","41,4274300901113","-8,07958894634919"
"3824","526,759119250649","-1720,29383271754","382,957569226642","92,6948267799935","39,0570240546893","-7,42230666651895"
"3825","368,226178835166","-1302,86102331491","131,685805990614","-1245,02424384225","85,5851728686448","21,1429029944196"
"3837","-523,534160736853","570,82878345845","352,59006661074","-835,494931393599","76,1574783913142","19,0080127631865"
"3837","-312,947485257061","67,9722965367678","245,630807646738","934,191882251632","214,667913997021","52,4270956670233"
"3845","-78,4827058418543","-113,917401267322","-46,9429007218467","461,969696777312","185,886876305448","48,4978129778966"
"3849","-100,863284882772","-139,119455510838","30,8346855564886","-30,4546360187731","129,524756080664","3,03634882774161"
"3857","-407,682508926733","829,707159991163","-679,392532849886","43,5404577189898","131,393029193008","5,01257089572434"
"3858","-328,946230173041","531,105956576005","-441,568594242713","289,796014529799","110,750193499403","-29,8508774568302"
"3865","-303,216446358059","448,691207461555","-381,235535395267","226,810451855499","115,179351551289","-25,8754863392936"
"3866","-294,80835563235","425,944511219497","-365,929767560424","209,414184090357","117,232885877047","-23,2500482383206"
"3874","-57,8105324055255","188,650727445345","-37,2328312236264","204,609430122825","118,184986293801","-21,5161496058983"
"3877","-120,363352366405","257,156993888703","-139,84639115739","318,777349979496","29,5175312974371","-25,7293534161422"
"3886","-264,622593057483","-153,210407876877","199,101014897473","283,309904737897","46,4077627410444","-24,5118483917392"
"3886","-237,764255516618","-17,4729335279774","76,0878752424078","-397,046338103425","6,61158409623611","5,76292243482998"
"3898","1,91638835966901","152,738770097847","123,464972344913","-195,957009591057","19,1604884424361","3,75706501759868"
"3898","-57,7597277943034","122,71766599721","90,4839692728382","33,6871152735278","-97,9301482745418","21,1864351953991"
"3906","71,6552439614766","-333,807529513097","-202,531782636411","-3,88643400959639","-72,2180375091318","18,6971850028582"
"3907","24,9460316187751","-199,809732525307","-113,866337461736","-79,7686506550558","-72,5877583816853","30,449002034537"
"3914","9,68219194068449","-162,825973939165","-91,3729856453117","-62,7269036788968","-64,7591757241788","28,2101674842781"
"3915","4,69420798563371","-152,618355381954","-85,6666941476412","-58,0200664134097","-61,1295325683233","26,7315905704003"
"3923","-18,6875905445763","341,538195508826","-204,714610906566","-56,7200637156363","-59,4466852362821","25,7551049743568"
"3927","-13,3283964209851","192,926755565305","-165,915628556627","-35,6753444220796","-12,5756466167971","51,901760012795"
"3935","234,385604643499","-439,421470012675","437,673313628003","-41,8629081060609","-20,844363704439","49,1696016719699"
"3939","168,334663910979","-270,951310374768","250,796533190202","42,6183942525132","-46,1871123593101","32,6298710801935"
"3947","94,8805649640286","-755,444242693987","-49,8270998775721","15,9516676976895","-43,937021407983","32,7066593529444"
"3947","101,876914853237","-581,165617585089","18,9083177972235","-415,469682328379","-78,2300721662406","-3,41121798756017"
"3956","152,68646631474","-127,924883188506","-56,2088780519148","-288,625898546721","-71,1296982446298","-0,264280112121157"
"3959","140,290232653893","-237,829200429958","-22,265202760703","-53,6309048014323","-17,1377978773908","-22,2983646146067"
"3964","136,23933747238","-268,163092686433","-13,6541025878732","-104,726573378684","-25,1049994497374","-18,8501717859047"
"3968","134,915568316314","-276,535329942645","-11,4695705491253","-118,838917453551","-28,7989118632011","-16,5729073446675"
"3976","251,608076645339","314,208968485411","-75,5289283612572","-122,736669666859","-30,5115569863898","-15,0689504626288"
"3976","219,741362338537","133,256011125924","-54,780013206811","289,900105735794","-20,5510867613558","-38,1880967292812"
"3988","95,5491546818781","-106,327199232342","229,89366957819","163,868125228911","-22,9330155008152","-35,4565032019626"
"3988","122,965084605269","-62,4528207900631","142,11194229024","-122,616817048446","63,5351539418346","-72,5002419969437"
"3996","-192,679654258453","504,783746709261","-196,239708573288","-55,7423905121552","46,6252459990391","-67,9647639419188"
"3997","-101,82741564436","339,342591296374","-101,075433026571","157,517978487885","94,0941024136327","-59,6111221375449"
"4009","-82,1776196293204","-363,162577829326","-26,2903559921166","103,419325483894","80,1025574992174","-58,0941883751448"
"4009","-69,7563737757148","-176,055926559746","-36,3182858125739","7,45871636672488","69,0064388892118","-51,7340614127124"
"4013","-65,6973050010043","-124,413978886188","-38,862250408901","27,9549212074952","66,8618357431046","-51,533689886868"
"4017","-64,3708648425843","-110,160660036094","-39,5076234802365","33,6158608330254","65,8675121890408","-51,4013600046632"
"4025","-92,3820709747735","-349,310319260922","-36,1787226560431","35,1793813819687","65,4065041316942","-51,3139663610276"
"4025","-84,5356948135726","-274,31627951962","-37,3342207505594","-276,397573196665","42,1473606706606","-47,2375173966484"
"4038","-172,325266869095","429,085197177776","-156,376578510208","-181,453423159076","46,3634940925318","-47,545338410651"
"4038","-147,013525267293","227,225929250279","-118,576185909339","236,073473666806","19,1274195010889","-28,9945466322916"
"4046","-108,624162527482","-57,7794170964304","-115,971931512559","124,392117939168","25,4996890346536","-30,7431846661008"
"4050","-114,079119508873","-3,44167246176993","-111,31126364752","-4,71057330641119","-26,8548368304976","-31,8980247266224"
"4058","73,2116541574997","-102,228125698948","43,5465550419987","16,6319697979147","-15,1284831338036","-32,6607071912606"
"4058","21,4153482265515","-63,4934570718056","-5,16788799220588","-101,587330550024","-48,1006807631004","-35,8435547390123"
"4066","4,48912596772412","-52,8025825527941","-17,5261534196316","-62,2388544316975","-38,3879066498885","-35,9455791623687"
"4066","-1,04209860140182","-49,851871935351","-20,6612959946471","-51,3710206354928","-33,8846771859207","-36,0129583963585"
"4074","40,6539906165913","31,990403676359","15,2159100351667","-48,3693844077834","-31,7968003992503","-36,0574571646308"
"4074","28,2796201039243","7,57909566537561","3,31752358742597","16,2404535511491","-44,6560184911589","-48,1430418399677"
"4087","176,498493444111","-6,05448119092434","-1,44726533476844","-2,91466273783054","-41,6180648766813","-47,1246349816323"
"4087","133,934101891817","-5,81738570468253","-1,65603469634752","-15,1004229308174","-40,2095484150173","-59,8478301786319"
"4099","66,4818240463318","-69,5398454699146","-22,6647419940316","-14,4660632178655","-39,5565040060033","-58,2505157128839"
"4099","76,4394751537499","-50,1274187095494","-15,9943971209429","-16,0146620080661","-14,6719647172253","-65,2330776108921"
"4107","-17,353027879855","110,390217948954","-66,6915738301445","-15,4423765202697","-19,1344998059331","-63,8445192294448"
"4107","9,99704981342737","64,6935248424025","-49,5528348272887","5,40135126182697","4,91461291342465","-69,6253709521967"
"4115","18,9346272238676","52,0811125189992","-45,2049438837353","-0,841725177830667","-0,935259253088561","-68,4431760235107"
"4115","21,8552876645227","48,6000522102231","-44,1019365006435","-2,5660287294897","-3,6474933062674","-67,6624277859707"
"4123","52,9275954611816","82,1192153209006","-31,5979322555811","-3,04227193538371","-4,90499318828749","-67,1468040122336"
"4127","45,0815394231718","71,3705960477626","-35,4258175039532","51,9879673952216","16,021021335026","-78,8624711072554"
"4136","20,7657676599593","154,603810920363","-17,1874727793327","35,1870183829127","11,723156282921","-77,5997623221749"
"4140","25,8197539460133","127,576405950991","-23,5606251541738","-31,5103087879886","12,8032148601966","-94,1803472356323"
"4148","-104,712718630026","161,492702568639","-103,761460761773","-13,931745596995","11,3039730937669","-92,1305400798481"
"4148","-68,3686880684991","146,853693229981","-79,1074434356196","51,2565488832788","38,2633469014853","-93,4559559461045"
"4156","-16,3348520429589","-26,1384452721046","-79,8382655568945","34,2611991202852","32,7627878486291","-92,3312905262803"
"4160","-23,3310086661393","24,1152511954235","-76,0236662962319","-34,2136259460472","36,3579497506452","-90,2489586667467"
"4164","-25,6172431732756","37,985408914402","-75,0559485676431","-16,1259979476277","34,0248101981533","-89,8737396653325"
"4165","-26,3643488347329","41,8136103935439","-74,8104502758874","-11,1302940666622","32,9430736464879","-89,6259365603308"
"4176","-36,6477851632842","-143,321500036638","-1,4030627078527","-9,75050799031902","32,4415374370661","-89,4622817917369"
"4177","-34,0082512380967","-86,419297044394","-24,7804956949711","-114,521552406833","12,2363237401375","-81,3167360298045"
"4189","-86,6885935980024","160,301500042158","-74,3688700544008","-82,4587415866484","15,868380803834","-81,9372335948723"
"4189","-71,9037051282266","94,3971150652987","-61,9488412965659","76,3679073681553","6,7978265084034","-78,3282919764935"
"4197","-52,0132940994461","0,351444881363619","-51,8127817664832","33,2349587390477","9,59235576630714","-78,9448654031229"
"4197","-54,5134190245441","18,3945826019672","-53,2413859696968","-6,25901320577083","-21,3755514467639","-91,4082611064178"
"4209","-20,1928921152062","-123,165229461476","-53,6038055897189","-1,1670321531261","-14,7335083573056","-90,6393691859693"
"4210","-29,9774809760032","-77,236124898145","-53,6957470670585","-77,3319010805601","-22,4085130806626","-95,4898852289981"
"4214","-33,1749315044229","-64,5595663767935","-53,7190715086406","-53,3682211180609","-18,9669513809314","-94,6932756004692"
"4218","-34,2198083027372","-61,06080154188","-53,7249886375671","-46,7495838373","-17,3713061134057","-94,1671766058028"
"4226","54,1191716650864","100,236612677484","38,8280508246011","-44,9215524363286","-16,6315013265335","-93,8197289447694"
"4226","29,986967971774","51,7551403111998","9,30763832569128","7,29750398848816","-22,4339387845751","-97,6089988881667"
"4238","164,324271528302","196,98186958128","-104,706370792484","-8,27987836011997","-21,1241802150166","-97,1115183611265"
"4238","123,223600192409","145,064844199654","-72,6303469146782","28,7890651954046","-23,5896441354859","-95,4433935733464"
"4246","369,140969424076","-146,827956355031","-50,5225506434564","15,0273045709494","-22,7327315417816","-95,3417262793546"
"4250","294,502917522661","-66,3911679258233","-52,9140699277193","11,2263815883164","-22,3354326861678","-95,274582901665"
"4259","77,6925705690907","-154,526219140805","32,0485227557761","10,1765874584698","-22,1512290908049","-95,2302398982215"
"4259","121,842341878227","-114,851734413337","4,60250564843987","-122,846381265853","57,8249010705136","-73,7677162285437"
"4267","136,269796277216","-103,901468079302","-2,36021717485034","-82,586597350114","42,9050247878636","-75,5933807432033"
"4267","140,984462610988","-100,879164611218","-4,12657580256569","-71,4670653267737","35,9875750776525","-76,7990908317623"
"4275","639,470189310773","-537,940305641888","823,177249199955","-68,3959114259761","32,7803694958646","-77,5953690121069"
"4275","505,367524387565","-404,570376364132","559,054230680107","-67,5476755233693","48,1933423467901","-90,1774457944154"
"4287","-338,25220788662","652,846469306232","-686,711245041623","-67,3133974084612","44,3394112927579","-89,4869335396386"
"4291","-135,933935256167","352,696411800107","-327,746889716499","17,2177770440028","180,824985578192","-110,464142195878"
"4299","-153,48027208953","-207,693067410062","-189,53154494346","-8,4351751113794","154,105141418806","-108,317964682727"
"4300","-109,214140397932","-85,3620968957565","-181,467982466741","172,374416299673","40,3169883194853","-161,823254349782"
"4308","-666,988412934171","41,4974379194921","112,211764264161","113,313036090334","53,5602622065698","-156,159356368978"
"4308","-507,260317030775","22,5110166157518","19,7147665505933","97,0006060496036","59,7003721764487","-152,418790190916"
"4316","-455,063674748129","17,2707123891361","-3,75060383620608","92,4952021309927","62,5471720511363","-149,948435784837"
"4316","-438,006628834114","15,8243740851358","-9,70348469721286","-243,167427311159","42,3580203921953","-165,731464248601"
"4324","-2,41623155198556","882,595804549784","-105,514511276622","-141,875608878459","46,9975244573226","-163,154932796065"
"4324","-117,072105929642","618,827090841681","-75,8206107328156","308,432977717584","47,6122234683603","-153,415868763432"
"4336","153,3318277532","-826,275617958786","-117,184365462327","187,805745329043","48,8972224465833","-152,983970863803"
"4340","57,6956019435575","-429,127919383758","-99,677850108417","282,050768708008","-87,2430510927768","-168,773664645351"
"4349","135,202197018157","599,37647373152","166,710154173778","234,080728473718","-61,3631117355074","-167,201535119252"
"4349","95,5301394491587","350,246500215821","84,2895712532275","-437,662024389945","-95,4549431293733","-146,069604125493"
"4357","-34,5591635423633","974,532846036119","-174,117978202903","-241,193697077193","-81,2612758849809","-147,113599511656"
"4361","-7,07031209542648","744,837585527817","-103,672850346","-52,4733933104677","-91,5804869241811","-123,690684282265"
"4365","1,91261440614739","681,441065182082","-85,8017728195004","-78,3498780531436","-85,3648847342173","-126,221661924232"
"4365","4,84809422015287","663,943452113998","-81,268096443656","493,701816982982","-67,1194824961841","-83,6871222293908"
"4373","223,325397355503","17,7870808245185","57,8406972644907","315,699364989531","-68,6601863175063","-88,5963513289968"
"4377","164,720361241695","211,446154467012","14,1309169376827","-48,920339596731","-50,9381966676177","-70,4052785809384"
"4390","108,758408242947","-107,486820381843","39,7148277612634","33,3736931289943","-54,7215754406345","-74,3914831886707"
"4390","112,470917707278","20,4868059603505","25,2051567260717","-498,962507255291","-59,5484209682309","-66,3074434886218"
"4398","-3,44098766851251","254,067562326593","-83,2544966187633","-323,990852954937","-59,7863390691292","-68,9685610464238"
"4398","28,6808154683683","203,536490159822","-50,7693998120711","-1,57956943115494","3,0941173627722","-43,9344750125815"
"4410","-64,5616521041202","-387,949307452198","-21,5725783382865","-71,5313370975636","-8,75199510609477","-47,4013990577778"
"4410","-33,0318314292147","-216,201005896224","-26,1656976077228","274,595127461568","-9,63524497023402","-68,4451177474448"
"4414","-22,7283794178707","-168,798004764013","-27,3309164532234","158,193363031982","-13,0447548348593","-68,3428649628796"
"4418","-19,3613725311311","-155,714646757074","-27,6265183913103","-184,241152301403","9,95622226141029","-99,0856153274046"
"4426","155,753340045536","-29,6997984068928","50,8825348467027","-98,8196916973377","4,62039261610588","-96,3888221690345"
"4427","108,978087884018","-65,9193554860509","25,7993327805313","-125,217110371836","-7,07167151763211","-113,36188277465"
"4439","-157,289679804766","65,4517233117998","-123,761563488948","-103,507932967877","-6,49257877728199","-110,571275432276"
"4439","-94,301819671855","19,7105004908265","-79,7033552562097","262,763366652281","-24,6604096772847","-130,161533850004"
"4447","-321,354288562494","-260,133778076123","-379,369871657683","154,925495437692","-21,08374068979","-127,099383067134"
"4451","-247,551482431529","-182,371564613586","-277,391645052508","37,2271864146763","25,1289890665844","-137,133266197444"
"4459","-357,291132126343","61,486666115667","-24,5004302872535","55,7195574861768","17,5550537339596","-134,759869289355"
"4460","-313,152332417665","-0,207795007778378","-90,3449855839503","-128,791552710669","-1,32012592488231","-138,550733991621"
"4467","-298,728463366019","-17,2356350736828","-107,048953455163","-69,7525117359311","-0,0714120339415856","-137,054306679365"
"4468","-294,014968667655","-21,9353655199843","-111,286548217331","84,4581860758323","3,58026176154148","-126,688990412026"
"4476","-108,420951055018","566,374560307566","444,711980691464","47,0503369986589","3,27332337678586","-126,843501389107"
"4476","-157,771730313135","386,749709449904","266,762087590736","191,860986236031","-72,1506311803067","-98,8144183340282"
"4488","374,91593988907","-893,76128733824","-684,717622273672","141,856895177961","-58,1201847281908","-101,303378687257"
"4488","220,989934903301","-533,185825925452","-407,096524934185","350,416944705425","-109,996794566378","-50,7036253700598"
"4500","841,648800071905","-2093,87537727761","700,641971265577","279,020089182399","-96,0488599383413","-56,2864051944704"
"4500","643,470405009535","-1561,62996349205","387,66183945132","-247,498140356824","-120,309243462563","-19,7860768311641"
"4509","361,190772372909","129,972775481463","233,171143032","-98,919594343938","-111,557324867526","-25,6804354113006"
"4509","398,94620559787","-299,140240342568","236,978720549057","-1066,30921394304","-165,881270749495","-6,80038701769085"
"4517","411,284090370888","-417,576606761737","237,944656946159","-748,496933496947","-153,068018721108","-11,3315765446444"
"4517","415,315918048914","-450,265367934919","238,189703335646","158,088678464767","-68,7729181241495","15,1466265330538"
"4525","61,911738822962","1726,7409753013","-131,966293622056","-66,5173361823506","-80,6903474546641","10,6334300072653"
"4525","158,424783194282","1059,60068231637","-13,8703962871469","1102,24481845286","119,656512524939","31,765206432292"
"4537","97,9368751870865","-2370,81871195949","206,437122932287","711,050530309984","78,5453074621487","27,721108965446"
"4541","133,170373377745","-1434,6238503953","153,326477887238","-493,335471607236","-34,2334539586257","-8,43913959271072"
"4549","-59,4481798361464","1999,37145311668","-342,129186636178","-189,980295156468","-25,5221858307063","-7,3201846266055"
"4549","-0,392908891120869","1105,16355228532","-191,820300571376","-916,383827079091","50,7256309624615","-15,9582433539428"
"4558","12,2125669516725","-260,514499232103","92,5412513146156","-647,012507848621","39,0771599019792","-14,6630124774514"
"4561","20,3318392039802","11,5546220586337","23,68034019005","718,516674963405","-17,0234196955215","-29,8825416577646"
"4566","22,9850903239675","86,6464439150574","6,21115930145346","346,668363329719","-10,0338859170602","-27,9338625485815"
"4566","23,852131271352","107,371992198397","1,7794392452598","495,641493227906","82,3156274369981","-36,0239527077636"
"4574","-230,193311842407","-1481,60516897355","44,3129675833598","390,787056552019","67,1325451035366","-34,3668310098574"
"4578","-161,211387295863","-995,167212893061","30,1032096558823","-794,846636703017","72,3839434977786","-60,0639785905652"
"4590","276,288306958157","1713,01890903486","-170,834899924584","-451,312175208962","66,8187012405553","-57,0349553699573"
"4590","171,256360953838","967,485688274889","-108,810469755834","-73,7257393240983","-9,50685259852049","-56,3740974165282"
"4599","-318,181091751333","-708,853186626125","-128,001863182071","-133,438431816736","3,10557646700804","-54,937651894826"
"4599","-206,121592475965","-318,527302556204","-112,870487744135","841,257395548764","67,3348860218168","-40,5932167291642"
"4611","156,774749757493","-991,767051216186","308,336747915563","535,46304970951","59,1141556584988","-41,1198276946278"
"4611","80,3635957216777","-724,583063827979","176,191932826121","-126,4705084193","70,666298344954","-44,1467682912992"
"4615","55,3936262804607","-650,839552294362","142,668390360763","25,7070648050964","66,022332441005","-44,1458282421117"
"4619","47,2338310023646","-630,48614134909","134,163872808061","-625,232121828824","54,6510439321099","-26,7307010917655"
"4623","-208,088225287855","1624,94788528315","-456,500793542665","-403,017963356732","55,3788610459786","-28,2293577013974"
"4627","-140,52347795067","942,453847493396","-269,345280530615","499,573441544857","55,7163060882858","1,59117603128425"
"4640","-16,3782212474141","-1495,73280376241","230,42864144421","260,864248763304","55,8727590685853","-1,71466982429384"
"4640","-36,8094940076794","-863,678990379301","98,215245103699","282,848154952847","14,4635737804596","12,1770038025883"
"4648","-18,3878795097826","1015,8028855109","-155,361018451812","237,919989550478","22,2646239135278","9,35137888870504"
"4652","-27,3679841571386","545,545025512541","-93,6902517535969","-660,524936409092","1,29974003826207","28,9185109111356"
"4660","130,326160394695","607,116265833488","-146,151294964838","-394,670508832529","7,57958370853362","25,8410869343699"
"4660","85,8581392033455","513,110096620772","-120,460027575185","-19,5770130747223","-12,5542320388908","35,8648833023979"
"4668","71,3266857228897","487,164136717506","-113,942463547092","-90,9782419895397","-6,88907203816239","33,4848248686311"
"4668","66,5780341166939","480,002980796148","-112,289036325459","601,23278913927","14,173843478895","49,3274868323617"
"4676","49,9673082458021","-554,647878969105","73,2394993096127","379,417688284669","11,9394511876602","46,7903386903665"
"4677","53,5391829593001","-241,214347065509","14,3058464734289","-204,159486800316","-13,6782640499246","30,3793972393184"
"4689","68,0921409079","562,477027118379","22,0571481502302","-62,3403093310378","-9,55565857313352","30,5412407700459"
"4689","64,8478198377789","368,298045289969","11,0235597021943","-378,274555717057","7,71934691141959","31,9877033031793"
"4697","-63,3767627839866","-181,807097000689","-82,5837568135081","-259,533865834363","5,72872845180002","31,9429798366922"
"4701","-29,2785498997468","-45,637621358689","-54,3308016609231","286,955693585453","24,778479846859","37,2717530862046"
"4709","13,6553098108361","-652,829450259566","-36,685495891397","139,893119606116","20,6107043754621","36,7909953210125"
"4709","8,68542332625644","-446,416056310964","-38,2090950815843","99,2752413725766","50,9419198732926","27,0964501672625"
"4717","7,06134219291686","-389,445394834814","-38,5956137816775","88,0568056580867","44,004681110784","27,6939535409607"
"4717","6,53061789250205","-373,721336395862","-38,6936689043659","-327,031172665386","46,9337409987534","17,3719389927514"
"4726","-27,1071274681634","537,441107620067","-9,03123883923252","-202,6762009927","44,2917699856818","18,5550474033627"
"4726","-18,0994162815684","262,924435105777","-18,5062388364617","33,3552019382343","24,6305254604207","0,582315195097115"
"4738","-60,3326597219695","218,189033167223","-148,390714108811","-18,4542160929837","27,5147883278136","2,71271682777878"
"4742","-47,1338228036841","187,841939836276","-108,340835681392","353,368731825572","64,1883302954203","-1,23862744380507"
"4750","24,1079764914056","-336,009122889636","36,2853650605737","232,064195493394","58,1916470421712","0,151815535524768"
"4750","7,3886816944955","-181,593449456695","-4,02471578599592","5,49433347117004","40,0477443545798","-0,269481919095289"
"4758","-23,1731569412509","200,653159900226","-73,6255070321499","54,9169773295494","41,6355074157032","0,452283724460351"
"4762","-18,1602875693828","109,154269908145","-57,2823865652869","-239,993938323768","36,2262172336422","10,3059959256235"
"4767","-16,5221603010825","83,9003259296827","-53,1363344283453","-142,446719528529","37,7182545606636","9,81361006573523"
"4767","-15,9868459435594","76,9301682969231","-52,0845311110356","-10,352577676992","39,9463826899279","21,544624004024"
"4775","-25,851207477484","161,206248920126","-37,847204632446","-34,8688984926238","39,9794317575007","20,2920506209334"
"4775","-23,0747264671823","134,466677751197","-42,2353669793749","120,397542197767","36,9220343915239","30,1814421364361"
"4787","-33,8799254574312","-34,9692598671256","-69,5432720231148","69,2812835268386","37,5045030311687","28,7126197017591"
"4791","-30,4108954054354","12,2659577740747","-61,4709574851145","-87,9126015800831","40,8472789555705","31,7613084119774"
"4799","101,233549891731","285,626593942958","1,69781416538006","-48,3286925103762","40,3971231976735","30,7747313082817"
"4799","66,2528946150875","210,074877439331","-17,2770319345103","-90,8338030475863","10,997570831828","36,8210605479078"
"4807","-97,4408601317186","-10,7612856493059","-18,5980968847929","-71,5734819977595","16,366765780854","35,814192968694"
"4811","-59,9334176689334","44,2873291312474","-20,9332350960827","125,088520658976","32,6833797478948","41,8471219199114"
"4816","-47,6765723963836","59,4808974235009","-21,5256314374426","68,4054896941945","31,2484127561902","40,8314044875104"
"4819","-43,6712271589875","63,6743638417135","-21,675915229451","9,65480990548259","24,4376643628238","36,1418695215267"
"4824","-42,3623430118847","-279,967680754238","-54,8939700480919","18,4281936208334","25,2799297672092","36,0447946900149"
"4828","-41,9346201543039","-174,813825266173","-44,3209890769926","-191,176718836883","28,7431578335003","29,2827972318992"
"4840","1,70875983588389","197,284382085804","-90,5354900036854","-126,068448737893","28,3488484927063","29,8170213521614"
"4840","-10,0292665240424","100,984505374366","-74,2595503331253","22,923315061005","34,3114714193186","26,1511028018537"
"4848","-13,8650698593797","-210,05407263469","31,1555598447928","-11,9259750334676","33,0759812218399","26,7300473754872"
"4852","-15,1185503659168","-130,901571165669","-0,101900766522932","124,972306835872","17,1395575307197","15,0561987671795"
"4861","22,9557917280722","109,892388329189","-41,2114703780341","77,7828632057805","19,7507958978812","16,3465254255957"
"4861","12,3978909291356","49,3521799612151","-32,6404713318081","-95,5645117918511","24,0341903835787","3,80291220743374"
"4865","8,94773416027857","32,6429168138524","-30,466112464211","-50,442108241011","24,0201429064065","5,5188266688925"
"4869","7,82027691698933","28,0311144686938","-29,9145038991419","-1,77963237365685","14,7954692402129","-2,72498652196788"
"4873","-17,6463931905622","80,2021595876612","-85,656554229999","-9,33932281127673","16,5185426109213","-1,16938698689621"
"4877","-10,9685024739406","63,6015107802963","-67,7976386918282","105,791504138683","5,02654722144085","-5,50034354893555"
"4889","-5,43984098835905","77,9836561941833","38,0190533316096","69,5900085673975","7,69839981118706","-4,36060510193789"
"4890","-5,63316092851989","70,9531676779165","6,8634691809215","-31,7703364277407","18,155337931688","-3,6078960840273"
"4897","-2,34990356343622","120,732651532138","-46,4444402069144","-6,76550909009657","17,0035915097335","-3,11079004435971"
"4902","-3,27698643362343","104,471925272399","-33,968012530906","-10,2021454321935","7,25143523666041","-8,14079962289517"
"4910","11,4789982254642","-20,6958881448202","-13,3397727599935","-5,15132558523413","8,7299466326597","-7,46273158010323"
"4910","7,30102310732611","14,75745289332","-18,1066376462344","89,3291786974727","24,7790446440916","-4,33576530803952"
"4918","5,93572621654529","24,5426720200659","-19,3159336548017","61,4241770002872","22,2200465857384","-4,27064614154588"
"4918","5,48956855708883","27,2434192713737","-19,6227174364351","-10,0638342346456","16,4245126748437","-4,22763997290456"
"4926","27,0955746422601","-53,0390385061918","-59,8657227555841","7,19156823161112","16,737472004201","-4,19923772759347"
"4926","21,1560793356011","-28,1972165053283","-47,0748868218169","-55,2709974264999","9,20077185179854","1,177829393953"
"4939","-220,054692482001","-16,1688138739401","125,562266019663","-33,5228162775154","10,7064570667751","0,728965992845669"
"4939","-155,878598195488","-15,8489418380087","72,358225176007","1,78860537465383","20,6227134808172","9,80956832755919"
"4951","-360,790967331753","-53,6885960889985","60,6073151324583","-5,45857318266911","19,2202854551547","8,80660324675826"
"4951","-292,753123053961","-42,1324441914356","56,6262512777405","11,5016559450278","26,2518644674908","2,78591281257715"
"4959","-1,13170085276272","-159,622723130357","-325,079731288425","5,18597842682048","24,5119849456864","2,80971283810585"
"4959","-66,8343834302946","-122,050361570499","-203,913925707456","8,61303926997814","40,6052686809736","2,82543091262474"
"4967","-88,3049919673412","-111,680286982126","-173,175625260377","6,55957472260707","37,0667568865068","2,83581148411965"
"4968","-95,3212508606841","-108,818118023246","-165,377689944844","7,71622452262367","-50,6100048030913","-15,9114166818659"
"4976","119,903979791989","-145,956091367787","-198,325689725473","7,03568486841174","-35,2604484295739","-14,2925096760846"
"4976","60,2362172799508","-134,206273620247","-186,684199055157","-17,2855530657367","-75,7709454852871","-26,6191210099796"
"4988","162,882468503856","951,706990019694","298,251242206054","-10,0029459017752","-63,5532276443171","-24,759893601922"
"4992","123,425657173864","623,422021839273","145,273502648689","79,9225494105026","-59,4249664766963","-43,6256789595373"
"5000","215,944374496791","112,159140018094","137,898516586597","53,7594791598621","-56,5109399474788","-41,0850698014007"
"5000","183,178043565724","215,049185821962","118,027571757876","222,361540441555","-59,7689613730124","-30,0301522542219"
"5008","21,8811110130518","-484,07972543881","-145,467635532904","166,928507207863","-58,2795100490847","-29,7292349675065"
"5012","59,1717974629059","-255,041217761081","-64,3131849784264","53,3612948545616","-74,4889022850065","-14,7951508913527"
"5016","71,3578102622732","-191,825962993458","-43,725281718095","78,9946522216304","-71,0042230223149","-15,9323443957333"
"5020","75,3400085558345","-174,378379720874","-38,502379489557","-327,638867970817","-29,4432237190378","14,1269077373685"
"5025","79,9877599403178","-462,642333881698","-23,2068956297403","-199,948821223592","-36,1738868197192","10,9787169062487"
"5025","79,5065723637831","-372,203973919273","-27,326616238107","-276,728884676763","2,18723245025961","35,6911287470554"
"5041","-19,3703954508196","349,252155526788","43,2270559675268","-232,93511807604","-7,02702265813762","32,0117637979264"
"5041","7,31815871479877","144,37602115539","20,1256698834161","170,464322730139","-3,61731824891208","34,9401377031302"
"5049","-174,707023307738","-122,498018679934","-62,5726043500282","54,8810409527184","-7,03644329186362","32,8741019842049"
"5049","-120,190004424661","-74,1559838409394","-39,5521570188198","103,976428151828","12,8873555924061","34,1888001407479"
"5061","-0,308541206630302","59,8663585185049","-141,983497101272","70,5363054552274","8,12482339758927","33,0570565033082"
"5062","-22,1331549571366","26,8568916943795","-105,969090079047","-105,908804221617","28,9621252616104","28,2908952104013"
"5065","-29,2650972146907","17,7461885371332","-96,8326702932451","-57,6419780389374","23,6231294824344","28,1432146215454"
"5069","-31,5957043423383","15,2316095388806","-94,514871017781","-11,5586407900105","-3,43400375642116","5,27286706671175"
"5081","-60,8019763013751","-364,741819225273","45,7780935375911","-17,8306752014644","0,0212301251147288","7,16877288385779"
"5081","-53,3461289517486","-249,615525170174","1,36872304265084","39,0464092553115","-13,7403867977488","-10,3332118145249"
"5089","-50,9096747085462","-217,840353025822","-9,89739751334127","20,7555487612515","-10,1208212726512","-7,89191789179088"
"5089","-50,1134795880122","-209,070318577219","-12,7554761343073","-103,238864378361","-13,0517266799194","-19,6754063274169"
"5097","3,68960526103011","231,245539982253","-39,6752174296008","-68,485442812732","-11,4106113232015","-17,4574882878045"
"5101","-10,7283885322047","98,7739216473421","-31,5044304400273","54,8844231992668","-12,1860849053647","-22,6906121564715"
"5110","-23,8060415291012","-39,5044460311884","-18,9537280172424","22,9585051343991","-11,5456253871078","-21,1466853793807"
"5110","-23,0796138866432","-18,6696538396014","-21,7697665023278","133,083318813079","-31,221364317233","-20,1270412573708"
"5118","-22,8422287003793","-12,9191941908036","-22,4841614309138","94,4991897682568","-27,3438216340311","-19,4536452446995"
"5118","-22,7646549361612","-11,3320515944976","-22,6653947900076","-28,2048912167459","-34,7641988893728","-20,3484967147089"
"5122","29,1303800505653","-10,8939958955004","31,4243031680371","2,90491302952401","-32,2045817398868","-19,9394768408431"
"5126","15,0888654198882","-10,7730913240583","14,1462058034721","-4,01697851118177","-35,6269214891568","-11,6318864204144"
"5138","69,0628658504402","-136,591521603797","-72,3137067214662","3,07123292060199","-34,2136546937988","-12,1453660323056"
"5138","51,70072459472","-98,3177525997973","-47,2475415610631","46,4002894562799","-38,1674881883745","-4,44701511219951"
"5151","-4,16942092750084","-160,161972725937","-16,4401892072659","34,3675377827479","-37,0006430914805","-5,3628502532633"
"5151","7,57308978353609","-135,231146686326","-22,6247362575703","-27,5652284302537","-25,7051263545911","8,76766303227049"
"5159","-125,793324618471","64,7375230796465","173,139584638781","-10,6707195734958","-27,4680742840492","7,09977322452086"
"5159","-87,3753818995575","7,92942304864781","109,802626812088","-64,6139347127193","-17,530926446283","11,3565707537654"
"5167","-74,820999391003","-7,7497679866742","93,7348061118011","-45,5127555667486","-19,9236683746717","10,1678560062041"
"5167","-70,7184236408053","-12,0772676106358","89,6585941983239","49,4007701297095","20,4486841647872","16,0806889793861"
"5175","34,3616041053386","702,187195214553","58,9372030369574","23,615366577588","12,1669170163144","14,9856574500358"
"5175","6,70011285857135","484,32614117942","68,1435574028411","119,921907518558","-62,3454058766119","11,5833190719431"
"5191","-209,817970005966","-1013,61782398024","-294,500127770547","86,521247154645","-50,8922906253961","11,3363379457735"
"5192","-156,572691365943","-593,054456733843","-177,498447730928","275,533796783451","-51,7276100616109","39,3043516254274"
"5200","339,366707888079","-1164,85272505128","287,015173847394","212,738028748765","-48,1148974681893","36,7750596770661"
"5200","215,431943001058","-923,670611544993","155,856665457776","-170,05257880073","-26,4672183132232","43,1421225915131"
"5208","758,884262417894","-386,452435270884","494,54781143271","-63,7772500455866","-29,4304908591624","41,3470747767561"
"5212","587,475976347989","-511,178748792147","367,469661692565","-694,642081468682","-78,4315457923128","34,8032750113504"
"5216","531,462430692982","-545,603552574781","335,231470989817","-485,883495930568","-70,1503892214323","34,4816018171213"
"5220","513,15808048458","-555,104892604932","327,053031644328","-142,073808572114","-132,3743997333","28,9108519357072"
"5224","-337,79739707864","768,026607569756","-329,888771880184","-213,115454187545","-118,223932754162","29,2318028667648"
"5225","-110,876331217371","364,214521701205","-121,546967533313","575,727998302756","-5,65436388592609","28,1041887028692"
"5241","92,1155271099611","-364,429739340224","-89,648914855905","324,602243473234","-22,4626220246554","28,3594868354155"
"5241","81,4500899523643","-207,537548955852","-69,5567644164836","353,499595997192","57,3169257275828","23,1697818524022"
"5249","692,034934876851","-474,55438267389","506,584423486108","304,480886643272","37,3059059995741","23,7423834424426"
"5249","524,564507639075","-368,251759337208","325,74447952479","-269,294590999514","0,373517045992784","0,00814910096691435"
"5261","-139,212703318006","476,538761420955","-149,72520179279","-102,768238329798","1,25018851266949","2,33352456838913"
"5261","7,87529106556488","236,703256494168","-24,3461133423768","-289,488309619572","-56,7250360350123","-0,14947716885359"
"5265","55,9413459664786","170,508000945258","7,46104604628624","-206,059371611669","-45,6046624239486","1,21069239107172"
"5269","71,6485805604374","152,237929303767","15,5301379569037","182,430004583491","103,969037204295","18,183908007005"
"5274","-145,756222176103","-419,999760313269","-146,576167048328","77,7286445456582","79,3173699617047","17,3934030369465"
"5277","-83,8007097146729","-248,938928287922","-93,700577386084","66,0487565281086","61,7424333552425","4,815139013132"
"5290","75,322281066256","-691,340893604054","73,3887842303257","52,8228353678761","57,5939917842674","5,50816929975113"
"5290","44,3211844636906","-529,445046441563","27,7773358043388","-283,524547747516","74,1069302061897","4,62628474780932"
"5298","168,047763062301","6,57787056274555","30,1767592949885","-183,421854532518","69,762987061989","5,04386826729905"
"5302","128,479672849","-130,478337787207","22,78546403476","95,9015604751475","29,3399588682105","14,6966917220356"
"5310","-309,447334507989","2,36950285923136","-195,632316923742","27,049159293537","35,5982307621888","14,0716343957855"
"5311","-198,555027739035","-59,9641296511163","-127,042268121567","444,155287204751","79,981538347445","23,035874281987"
"5318","-162,317157152903","-77,1683827685765","-109,641801730477","306,357717405252","73,5594099314652","21,9560608114771"
"5319","-150,475188103118","-81,9168036997729","-105,227513711806","-100,595588339154","101,309057375471","19,9033501925085"
"5327","-42,8660477343107","-398,718880181076","21,6268080099806","1,00613538842781","94,1749006997362","19,5476937275286"
"5327","-69,7010645520738","-303,157120059307","-18,1917837503082","-339,826395433023","40,1673373002913","26,0106972099147"
"5339","247,806723272527","474,880994296447","137,606368958622","-219,962475472529","48,1272768662015","25,2790107135913"
"5339","156,563299905471","253,621642568241","82,1304773001182","182,037654316002","22,6269801214078","42,2102947427202"
"5347","-186,144949269781","-171,209966578295","-75,1406769881521","79,0678904922816","29,8040254945857","40,3920972054713"
"5351","-111,136642330039","-77,4646530405608","-33,0384680274005","95,4471474231702","5,47710789294234","32,4934314310841"
"5360","-197,05733414955","677,660152656164","-313,99176485595","73,9710085631783","12,1981786360352","32,2769741171236"
"5360","-159,134871731246","463,076665047332","-218,266220616013","-199,150431608141","75,2323796170598","42,8506400912889"
"5368","-146,742404431552","403,85103536761","-193,98180699619","-119,585078912805","65,4575492531267","41,8337279673661"
"5368","-142,692740037927","387,504599534888","-187,821144766049","104,075676337202","-3,60157683227273","50,5391780929021"
"5376","228,411285170044","153,701302408807","42,5086240694334","48,8495531064371","6,37985795466319","49,2884540182014"
"5376","128,682273494764","222,170952716991","-30,0594973784941","224,938807429096","-1,28323170508722","53,8207572216262"
"5384","-4,30054583285069","-379,57025150646","63,2948207937704","162,573695944766","3,16385429335332","52,8139926451653"
"5388","12,2427497537987","-185,652470233998","22,9776830192326","-209,755133791091","-50,0832634428602","37,4137510732643"
"5400","139,79358219781","-211,434506188574","21,4812728758235","-106,590319248759","-38,7707509377984","38,2430836366195"
"5401","108,475198298464","-172,550418651599","16,1016517082868","-184,972701223876","-1,26225651700085","41,4699484152378"
"5409","-7,17174532038374","-89,4104190165193","-46,384016178433","-144,62148623132","-4,87182251163821","41,6010428122394"
"5413","18,0366431724891","-108,463551646484","-27,2358749097715","183,703505369548","34,9363618587966","51,0646623784889"
"5417","26,2743500658351","-113,72226838166","-22,3782228973323","90,3850715152995","26,3930238458344","50,3146505300297"
"5417","28,9663037732237","-115,173688588399","-21,1458952921159","-25,0268538283178","-31,340612457289","36,4235516692093"
"5425","160,356812680825","-475,889712713259","40,2876543426797","-4,90299609524152","-23,1082289005226","37,2495561715841"
"5425","125,293174965722","-366,448322289522","20,8726033895704","-257,915717476054","2,21767408030498","25,7388715214792"
"5441","-46,7937753844903","522,30843837241","-149,95240856871","-177,796446682018","-0,0402271973828602","27,1369553438839"
"5441","-7,02909790642143","269,607735950544","-98,288649484803","111,521905644973","1,98563994779579","18,6832396189689"
"5450","-15,7864269792751","-227,689670778996","105,165839169529","36,4300514604878","0,924912756152698","20,1002147787013"
"5450","-5,64818508377042","-116,945115640344","47,7797839584695","224,270554313557","38,8421202219171","14,3381301382844"
"5462","-70,9370078542026","129,120342575075","-134,424324942732","155,151073372639","31,4220498960712","15,5327192721063"
"5462","-51,2723734824536","72,0350822767791","-84,6473052237053","-113,891142467589","23,3727290025601","4,26545623920156"
"5466","-44,8462786860692","56,2793942493733","-72,0194769338076","-43,1991303327766","22,6407427965508","5,82430119667517"
"5470","-42,7463314634835","51,9307812463011","-68,8159495185617","-80,5599639648997","14,6195642172586","0,155910575627546"
"5474","8,13636787470689","0,734631503563179","-85,4663741932043","-57,8788217824318","15,9006259105516","1,4123773564564"
"5474","-5,2359622046723","15,6043541020778","-79,690385693533","96,6328561575949","33,3945384806263","2,24217640300633"
"5487","-140,116650981882","-218,203184209697","-135,853386063808","53,3081361449396","30,5054140767628","2,79019443910668"
"5487","-106,193549433103","-144,734704480367","-117,101260462969","-58,6386318230085","16,8750198457149","-2,20619170684588"
"5499","-41,5651099400562","-157,21315108163","57,0481995179704","-31,5577165834808","18,5554254444349","-1,50591798959861"
"5499","-52,4455472330394","-141,657236484565","4,22781271761542","-65,449447299765","16,2618082696015","8,33360045791237"
"5507","62,797207141787","479,827259018384","-59,8151315167267","-50,8101578742403","17,1983958685325","7,83184072246509"
"5507","29,4567359288056","293,358680156641","-47,0620524359724","154,918373964209","-13,0945670840189","11,5191994858984"
"5515","-26,6152308465797","69,4931158130657","-66,5288075289131","94,7394687490244","-7,13959291585121","10,9544145133629"
"5515","-17,9386721629358","107,705607558824","-58,4672880177557","91,9088281911116","-13,5967900783143","14,6001499864376"
"5523","-18,4497398541398","-183,447161370702","8,191369237211","83,1270207577644","-10,5906042222156","14,0078760526492"
"5524","-16,6167487783313","-88,8061221882258","-11,8981350641262","-145,116983210961","7,70314471472997","22,9937668318328"
"5540","-17,6909716259928","173,502688732166","-48,4282170513007","-77,1567281976064","5,18485635128734","21,9282521001576"
"5540","-17,0420108429452","108,9006382222","-39,6954573431817","-44,5960338544857","-5,20088326913098","31,9411813748448"
"5548","19,9808036464729","-5,47355125373196","2,68511623085815","-43,6029482430902","-4,01612638285137","30,5539460671404"
"5548","10,079280080886","18,9588595235218","-9,56344447162634","65,2710812932915","-12,6849865329367","33,6565167591234"
"5560","16,882911010012","-182,90139719938","-37,119125490015","32,3414925124288","-10,7042158480485","32,705524533418"
"5560","13,1062311330135","-117,61538034387","-30,1096687221241","-78,4580025613757","-20,5403723687366","25,3795807375672"
"5568","11,8720712474854","-99,5962610694311","-28,3314542574973","-50,0602168261533","-18,1008068378045","25,5413619564348"
"5569","11,4687671092863","-94,6229348494377","-27,8803427395987","-47,3883202090358","-7,75156626232598","21,6294737002924"
"5576","41,4548552956672","191,209265354851","-76,6626396120765","-43,6503569835184","-8,9532455615706","22,0459743235596"
"5577","33,2538396864097","105,099734647152","-61,0381187381801","84,9436529204062","-1,82859143298838","14,2835762885409"
"5585","-2,89043684766614","-51,4145207518176","-9,92394030665862","46,4606148129268","-3,52531761868557","15,157113268046"
"5585","5,29817917418132","-17,6128834643979","-23,9568910125097","16,8699500698077","1,83345291292881","9,03612977674653"
"5601","84,9420105705498","-51,3834706919926","45,8282266163924","19,6971703824729","0,317992661030496","9,99369400166181"
"5601","64,9683683875856","-35,7042451630193","21,5318675250352","-55,3694075971687","-0,384635154491071","1,24904918290946"
"5605","31,6698443025751","92,751066989532","-59,7232448315616","-32,1023856845368","-0,710401433432536","2,47388819677368"
"5609","36,7884076938489","56,2050845969286","-37,3366847744764","24,3141971375415","8,3567210222669","4,62237696080505"
"5613","-0,0228857950318861","-28,01358888526","-73,5689751231894","10,896148611759","6,56060062658801","5,0412874764817"
"5614","10,9477595236059","-8,25817318834514","-58,7606692755489","10,6377679736843","24,1641689655491","9,33667767236203"
"5626","-8,89222433213327","-73,4895122293882","-39,2871722820923","8,56640465525976","20,325885349661","9,17345039368309"
"5629","-1,37562059598033","-50,4935402774354","-43,3469814545726","-40,2722477700549","23,1553843266683","14,4239610485374"
"5634","-55,8086441554864","169,62907163463","-21,6748488541179","-25,7612163337378","21,4672529043792","13,8915168978248"
"5638","-39,5965044754187","106,38351477707","-29,1768907461554","4,10373322451968","13,002767267845","17,5586109802337"
"5646","40,9960732504744","45,8276364446708","10,8314219644235","-2,6477311230408","14,0782941285055","16,9804427545561"
"5646","22,3324665218183","54,1140483442538","-3,01895264760647","54,0969374087355","29,9405524366859","24,6360718527551"
"5654","-60,7344279226943","-47,0387151400731","-69,3998603905035","35,7695043607464","27,2949280399753","23,6920222553872"
"5655","-41,8793891790585","-14,9571546153605","-50,2398943948782","-38,2446512354376","12,2410700081001","21,7289731652454"
"5663","-114,35899303103","178,365151112867","-26,1698096444091","-18,6869560191578","14,2615010152092","21,4325311994213"
"5667","-91,0441933938851","124,722636423022","-31,0635200580113","-18,4566440320109","29,0254944564003","27,9346412747481"
"5675","62,1444796868419","684,008244516034","-344,894858665697","-15,3930331213861","26,870670664067","27,2287816558488"
"5675","25,2041409212927","505,372602553206","-245,51007625599","126,805168137637","10,5080072515953","48,1958545661133"
"5683","83,4076734876091","-5,96259012795804","-178,385868070878","84,079533242785","12,9216238837582","46,0429831773472"
"5687","60,4276771492551","120,907497680711","-185,357267727958","-113,892044284581","-22,8319699627098","60,6961071886365"
"5695","272,109423857003","-66,4716580244152","139,434532547613","-60,5707107333134","-15,4087620692142","58,373361310329"
"5696","210,28370624094","10,811182332244","34,8302867931988","-331,995358492747","-15,0397870537899","94,3475349196012"
"5704","-343,67576259284","-716,073354861225","584,576442339963","-240,961361017786","-12,8687155204092","90,1056918536854"
"5707","-205,701048534325","-482,695475880217","394,040397684448","-69,2948039321349","37,3014035430262","123,472872917193"
"5716","-413,268633916644","-1044,09354959363","-482,048222834206","-106,881440193135","28,5622717299959","118,509313080213"
"5716","-330,098472758685","-836,040953921734","-230,301317316158","-339,63356932566","52,1649437557394","124,608307898428"
"5724","112,037715199458","-388,994486620327","-257,244398518677","-274,918433814908","45,1080838777892","121,636221857068"
"5724","8,5209027848247","-491,608438527541","-212,079532581476","-182,920832208096","8,03631963180296","72,788179769024"
"5736","-286,328412780151","528,260166508739","-460,822252800044","-200,511598038373","12,8483711540651","75,5278292615872"
"5736","-226,680555243153","201,746691855749","-374,925274576205","482,428311947913","-66,3476559795895","11,6978626224645"
"5745","147,533148638063","-293,511277529028","485,095551989736","272,05257816363","-50,0660928196211","18,5431106890173"
"5745","57,8203312922983","-195,203832103328","223,272441343747","194,986091440024","-39,4445905316183","-27,840074401342"
"5753","185,785857360214","-19,8069434927067","406,573710928078","184,700749500709","-36,5200384420281","-20,4725776646108"
"5756","133,602988847947","-57,396922350891","310,075027613906","-247,367568145954","-93,5457838550878","-47,7567742053049"
"5765","2,77177990836316","933,870551024195","-297,673758820834","-117,702473281016","-81,9851938481093","-41,7758739704523"
"5765","28,0181881009726","626,463085780118","-117,85228059276","318,033185878597","-73,5525230055148","-44,5238393889015"
"5773","118,25588599948","-1240,99538667257","-54,7706240551552","206,380990672512","-71,6428004735495","-41,3386578297657"
"5777","98,7441536143804","-722,419034429473","-48,7675702062987","51,4292713261635","1,4515485079292","-39,2350919725642"
"5785","45,5179866447466","-1256,82146714061","165,805406512329","80,6324543102191","-11,658996003222","-37,8458495593989"
"5786","56,1245081732407","-1011,31800069211","98,2399773434007","-688,738054133726","-59,219290470405","-44,9658269414305"
"5794","37,8387500089763","283,927679714771","95,0699412587996","-450,233978710994","-54,2701398840929","-43,668020849947"
"5794","44,8632503802552","-70,580968705203","86,2657414176865","127,609766999784","-30,4664746571021","-9,32148515678206"
"5806","154,2445486661","1381,44721473553","-57,4190566516983","-9,79295229037269","-33,4301460705246","-11,6382570720092"
"5806","125,988645324527","883,210966109292","-12,8701533250345","807,264682505719","11,2865811364269","29,6981715145533"
"5814","-229,600580912432","-309,389927254317","-212,872397400911","536,931530446201","2,01903935520073","24,9976827728463"
"5815","-138,801575712237","-26,5510367746174","-142,610549464663","-13,5033171605952","-42,2231256558339","39,3078801410195"
"5822","230,532894931773","-643,257626549374","90,0104187582898","110,469589809395","-36,735557913103","35,758657760638"
"5826","148,225620515349","-410,470332634316","26,0235469031704","-539,640543954121","-1,92774020669875","54,8479096696045"
"5835","-2,4890667699748","-85,8968157440051","-35,6132633712188","-322,19740561565","-6,78944764014136","51,4548828702509"
"5835","22,2597318400663","-147,313637050253","-25,2497771857345","-27,7032564485475","-27,4798505020367","62,6098254138254"
"5843","-223,981526576265","183,982599561705","-129,145723250695","-82,3655838668089","-25,0727464865433","59,9768014677972"
