Timer,AX,AY,AZ,GX,GY,GZ
"1001","4,40343830576074","7,8824205419143","-23,292021287659","4,92906750358923","-0,998342840466934","-0,168781073196613"
"1001","2,79223438261474","-2,383539150014","-22,3734856949182","5,01655093754446","-1,00142385644664","-0,170387237382611"
"1001","3,3938999221667","1,61721433161532","-23,1196879403125","-8,94834566669347","-4,23932821215806","-2,84957999053659"
"1001","1,80022325264093","7,81360504972239","-23,3241845264362","-4,46995097281316","-3,48258932724637","-2,67244829017872"
"1001","2,39525961416025","6,03458834234898","-23,3805444173315","-6,83317529092564","3,25499285438435","-1,3478617206479"
"1001","2,54647657388701","5,68403050249694","-23,3960840412507","-5,43036898559405","1,87540913035929","-1,31486669911785"
"1001","2,58490608372557","5,61495246298722","-23,4003687866861","1,91330981097189","-0,272215942682425","2,2138294918206"
"1001","0,848807589815329","9,2072369675882","-21,6772812778183","-0,230914375761001","-0,107737781605467","2,15418789170688"
"1001","1,40760382507084","7,91510299709537","-22,2021725407723","7,96371269270762","1,56720400253892","-0,182450808529791"
"1001","6,78720797902777","2,25164102567962","-22,3469013634236","5,03452647583151","1,21883675640717","-0,18101444500201"
"1001","5,15435484257984","4,13564580480905","-22,3868075946895","-6,18946706831535","-0,527646775979053","-0,179824606211854"
"1001","2,9935245740641","8,11278874091619","-24,1220799248754","-3,02581341351672","-0,207112813146264","-0,178824087393249"
"1001","3,44438150707379","6,8964918066058","-23,6005483989168","1,26824634140811","-0,0824096951060144","-1,30269300681398"
"1001","5,30482491513902","6,65681833961672","-26,9052838456327","0,353371759919802","-0,0338941882691183","-1,28670906424378"
"1001","4,77762910247053","6,6095902580865","-25,8165020439495","3,6167717402021","-0,0150193241838846","-0,152459850404374"
"1001","4,64365008075305","6,60028388090155","-25,5162910867681","2,44144546890686","-0,00767609482337682","-0,154784883023505"
"1001","4,60960129313179","6,5984500427802","-25,4335136021772","0,397139845703284","1,60613270876954","-0,156813908265493"
"1001","2,85508351311802","4,7951404543895","-20,2378824502863","0,880535950659575","1,23398190203131","-0,158590485274262"
"1001","3,40919875814944","5,43979510333893","-21,8052855802253","-2,49190030045911","-2,13270651826616","-0,160150060736356"
"1001","1,80415417160688","10,9756701266835","-30,8588120164811","-1,3441279142463","-1,44251013561017","-0,161521923383249"
"1001","2,39625581894467","9,06652411326819","-28,3551504316656","4,18780704257758","2,04791330076597","2,06797308906056"
"1001","4,29259448299203","5,08442705237811","-20,7677374047353","2,58574828648281","1,4058557867605","2,04037023665097"
"1002","3,77452091895529","6,29974776761803","-22,6756519898027","3,92819802918585","-3,67679125030274","-1,32830888300937"
"1002","5,3887249658818","4,73628064157065","-16,3046475238824","3,26744024331918","-2,65418524812331","-1,31040092801876"
"1002","4,79895105998697","5,42819667288443","-18,5479637274007","-2,14142425054343","-3,86729429553488","-2,40897670387765"
"1002","4,64906874103166","5,56453995338799","-19,1665156757136","-0,508265115029372","-3,33925202377396","-2,38189340831025"
"1002","4,61097836553203","5,59140663850175","-19,3370696583228","-1,84285567221583","1,69903760384684","-0,129546050582474"
"1002","6,34716304374528","9,2025972211052","-24,5569035168049","-1,18011183993631","0,65917443732947","-0,134390631403252"
"1002","5,78838871192816","7,91418872682712","-22,9961738247402","5,9765506886824","0,254617683922838","0,975373963968572"
"1002","0,408790124373352","0,448512639764531","-20,841563233973","3,78506684000232","0,0972256615906574","0,958572263937261"
"1002","2,04164467542704","2,9773879326894","-21,2474701780389","-5,50521032472446","-3,18591126906627","-0,170279588004078"
"1002","4,20247530344445","7,08160374667732","-19,6351223859776","-2,85289910220406","-2,46320934098888","-0,170475614492926"
"1002","3,75161846179682","5,89034674821058","-20,1905480247826","-2,18264985332953","-0,57109161946081","-0,170649270854172"
"1002","5,3829046449853","5,65560744496683","-22,0679650661895","-2,01327528981583","-0,834966880041296","-0,170803120427681"
"1002","4,79747191147885","5,60935164914924","-21,5856272517239","1,5241186203115","0,673324894689181","-0,170939429634391"
"1002","4,64869283730608","5,60023686258749","-21,452631736239","0,418031669091338","0,260122891985776","-0,171060203335456"
"1002","4,61088283515754","5,59844077773807","-21,4159607421584","1,88581539479666","-1,51158448227686","-1,28503477827814"
"1002","1,10954441405982","7,40103508337275","-24,8543872958983","1,25672998857099","-1,20086380901634","-1,27216454839514"
"1002","2,21973101818703","6,75623948668828","-23,8024682844861","-5,89142692630627","-1,07997853214708","-1,26076026531953"
"1002","2,50186853060756","13,8409742807095","-23,5124215434355","-3,69779367631421","-1,03294834902339","-1,25065479272523"
"1002","2,57356960826326","11,2370338307107","-23,4324466489034","0,351138190829561","0,596300587160029","-0,127852064082163"
"1002","6,08352094515485","5,31507806711812","-28,5832019152453","-0,625681150862005","0,230156734138539","-0,13287810625807"
"1002","4,97552318624316","7,14814618627693","-27,0034251099434","7,86395360978994","-4,74514662685042","-0,137331877301849"
"1002","-0,543652415578873","2,10051082655282","-14,4979489813947","5,00931697183873","-3,68077877514152","-0,141278560719924"
"1003","1,05373070080785","4,10586533116836","-18,0498008283331","-2,70124530057359","3,17711921629682","2,0829053114599"
"1003","1,45968200409727","4,50102399111836","-19,0291566929219","-0,649734047898535","1,84517116384487","2,05388698474479"
"1003","1,56284852623702","4,5788907055442","-19,2991955207889","-0,131309262568678","1,32697935057879","0,914333403973932"
"1003","3,33493155664085","13,6089756163437","-29,7192672693807","-0,000301325032945322","1,12537782802566","0,904505359492726"
"1003","2,78528026031109","10,3883698553041","-26,592404668176","5,27469334430817","-2,1749587231727","-1,33187941358349"
"1003","6,13732407743878","-1,06394558298249","-22,2816936518855","3,60770478916543","-1,45894827419576","-1,31367915456896"
"1003","4,98919645688666","2,67935535882005","-23,093096746305","-0,308141937686593","2,04151807474742","2,04396055855578"
"1003","2,9515520120447","7,02287589968538","-19,8682878935979","0,702308530910263","1,40336773644901","2,01937627965597"
"1003","3,43371480095966","5,8787743218562","-20,9791079395413","-6,03153136141246","2,76604851619667","0,883753920760754"
"1003","5,30211412947689","14,6680682145303","-26,4582023536669","-3,73319860602102","2,2961968375673","0,877407085606511"
"1003","4,7769401963708","11,400014156528","-24,9689588486864","0,342191228896529","-1,10850191794539","0,871782757891557"
"1003","4,64347500545261","10,7560383112438","-24,5583281627076","-0,627942082559766","-0,433093382677115","0,866798687552366"
"1003","4,60955680033249","10,6291417293791","-24,4451045295653","2,62149380408966","3,05157687027866","0,862381988359415"
"1003","1,10920742191316","-0,213552831050779","-19,2410784289484","1,44263875261614","2,40728109139255","0,858468071728529"
"1003","2,21964537661506","3,64987498538513","-20,8061668108004","2,89203369946221","-2,67623673829277","0,854999701977972"
"1003","2,50184676606817","15,2288596491937","-28,134786056267","2,25830137808063","-1,65396951629849","0,851926159183565"
"1003","2,57356407712734","11,510519102822","-26,1555139882533","-1,39643752375709","0,35469350334434","-0,264633651396191"
"1003","2,59178997146303","5,36896882478457","-29,0583050942611","-0,320004103346304","0,136159965548422","-0,254088595170665"
"1003","2,5964218130565","7,15876545560519","-27,8586947545999","5,19390322239178","-3,1707639534266","-0,244743948637534"
"1003","7,83519327917336","2,10260337239833","-18,9065802132188","3,58728881457272","-2,45731630714046","-0,236463061253796"
"1003","6,16654959719687","4,1062776710366","-21,4382042070154","-3,80789343937785","-2,1797508804567","0,884711251280184"
"1003","5,74248847468027","4,50110524342033","-22,1362515671257","-1,67668444282975","-2,07176458813212","0,878255464633143"
"1004","5,63471960971982","4,57890671645433","-22,3287249036682","-1,13811973104091","2,80310307325158","1,98637065556989"
"1004","2,11560217791153","6,39718586196951","-20,6575268373736","-1,00202235661447","1,69966090689557","1,96834236237483"
"1004","3,22127050931186","5,75548099078741","-21,1967256278509","7,76885073938229","-0,340583067825146","0,838530272520333"
"1004","3,50225976951707","5,62903190839521","-24,7939373660663","4,98528411064382","-0,134336039511609","0,837331547740677"
"1004","3,57366903584802","5,60411489255836","-23,785800361429","-2,70731849704745","-0,054096032113581","-0,277566780876385"
"1004","3,59181664517018","5,59920495041826","-20,0592877936862","-0,651268768009927","-0,0228788124528556","-0,265549474459178"
"1004","3,59642859178483","5,59823743761589","-21,0317725439078","-5,37358555180749","3,21117005529917","-0,254900170992117"
"1004","5,34346543385154","1,99215033282688","-23,0241857349987","-3,56693316893977","2,46937051130532","-0,245463142353064"
"1004","4,7874490190392","3,28156447645504","-22,5735559304535","-3,11038516193635","0,569822899247672","-0,237100387914535"
"1004","4,64614566737116","3,53564581915227","-22,4493032980639","-2,99501372431207","0,830807575290116","-0,229689616509643"
"1004","4,61023550957598","3,58571299813108","-22,4150429883817","5,770621847726","-0,678608775763296","3,11838570826941"
"1004","2,85524468985104","7,20147527917726","-22,4055963569749","2,98573167653539","-0,265844287302932","3,08532934480094"
"1004","3,4092397188333","5,91396764618139","-22,4029916273106","0,534683064137931","-0,105259061525263","-2,51314428607399"
"1004","3,55002936517682","5,66026198478385","-25,850811308151","0,915293651060965","-0,0427836900749366","-2,47430976655363"
"1004","3,5858089723584","5,6102688344711","-24,8014822736042","-2,48311689586132","-1,62942970208053","-0,212223907114679"
"1004","1,84903704653956","9,20631405025726","-27,9606875553171","-1,34190831411633","-1,24671126381939","-0,207644976249588"
"1004","2,40766213805959","7,91492113460021","-26,8317785673907","4,18836794406881","-4,31971926458028","0,910248761128585"
"1004","2,54962844634616","2,25160518935265","-19,6234275273174","2,58589002844733","-3,51526708280341","0,900885886728576"
"1004","2,58570708476478","4,13563874319729","-21,6358612747454","2,18093769473791","-1,59134458321247","0,892588845008596"
"1004","2,59487593733165","4,50689089473685","-22,1907517593637","2,07860468223389","-1,84284625641124","0,885236305779898"
"1004","2,59720606565904","4,58004678930226","-22,3437522992887","2,05274473631822","-1,9406924958606","0,878720750604437"
"1004","0,851933449307082","6,39741051534515","-22,3859392999065","2,04620982850697","-1,97875938604314","0,872946900519422"
"1005","1,40839821600249","5,75552525913331","-22,3975715661847","-3,19733002739837","-0,38261730161645","-0,246005730837813"
"1005","6,78740986172627","5,62904063155124","-29,2978547146713","-1,52239271989965","-0,761641311271503","-0,237581210498571"
"1005","5,15440614808358","5,60411661147172","-27,2004770818228","-1,09912961912516","0,701852065376986","-2,45778781138782"
"1005","4,7394023966171","5,59920528913319","-26,6221649298793","-0,992169405345719","0,271221332558479","-2,42525485479393"
"1005","4,6339353286047","5,59823750436026","-26,4627063088625","0,782156005319848","4,93654108221913","2,05891889246279"
"1005","-2,37632670357445","7,40099502799332","-17,7973939004573","0,23053486209198","3,75157470615991","2,03263199706519"
"1005","-0,157881159214813","6,75623159370476","-20,4080981495716","5,33302653677814","-4,76419384230436","-0,218334608894987"
"1005","0,405903978345993","6,62917981603064","-21,1279503920802","3,62244581129944","-3,07723712305361","-0,213060059878288"
"1005","0,549181636047618","6,60414403802011","-21,3264360118973","1,44287932850024","-4,0318818091186","-0,208385944705778"
"1005","4,07732310256846","4,79626246624505","-23,1054336045303","1,89209449391358","-3,40328447755314","-0,204243912358177"
"1005","2,97394809617884","5,44001619776402","-22,5959584914105","-1,48897941211527","1,67412590156939","-1,31440944610807"
"1005","7,93113600267365","5,56686901171754","-22,4554803798794","-0,343389794525699","0,649482587748","-1,29819811678493"
"1005","6,19093202195555","5,59186558357422","-22,4167462016808","-1,80119104448013","1,86179902300627","-3,51150432816942"
"1005","5,74868490746249","5,59679120236905","-22,4060659857784","-1,1695830282315","1,33344838702035","-3,47285649531242"
"1005","5,63629434150325","5,59776180428403","-22,403121118557","0,737322900339693","-2,09400927469064","3,2444081416294"
"1005","2,11600237271343","1,9920566084357","-24,1265780700571","0,219205363998952","-1,42745504785364","3,19700588215158"
"1005","3,22137221290427","3,28154600789761","-23,601788677243","3,58286737583995","-1,16813341529523","-2,41418055855164"
"1005","3,50228561598149","3,53564217989029","-23,4570879431824","2,43287770560882","-1,06724483578405","-2,38661167953809"
"1005","3,57367560434484","3,58571228100805","-23,4171894568098","-3,09961756741596","0,582957605329435","-1,24834507943703"
"1005","1,84595353043884","7,20147513786689","-19,9576503192793","-1,49770040538059","0,224965672868211","-1,23965425689184"
"1005","2,40687850802935","5,91396761833593","-21,0037479356438","-2,84018592944713","1,69664153846419","-2,3457888167593"
"1005","4,29529408237688","5,66026197929685","-21,2921895372838","-2,17943718566866","1,26919418714238","-2,32600538372178"
"1005","3,77520698222803","5,61026883338988","-21,3717218450294","1,48212887003585","1,10289662197121","-0,0808019116807635"
"1006","3,64303453470209","5,60041759536797","-28,2907271437302","0,407420697669991","1,03819887592988","-0,0911835421392347"
"1006","3,60944486120318","5,59847639145284","-26,1985117891523","-1,61145834487518","1,0130283429848","2,12728873818652"
"1006","5,34677332629146","7,40104210111838","-17,0002783233927","-1,12163684517523","1,00323579583277","2,09321888938274"
"1006","4,78828967099886","6,7562408695475","-19,4640396859864","-6,23974552751253","0,999426024306121","-0,164644689234781"
"1006","4,6463593066385","6,62918164385189","-20,1433752110543","-4,53311127994297","0,997943840063358","-0,165481988784353"
"1006","4,61028980283733","6,60414439819553","-20,3306891135394","8,12923483183299","-7,05739247292434","-0,166223973457628"
"1006","1,10939370366304","13,8110036739088","-25,5551442024466","4,32905840394847","-5,19130548312847","-0,16688149352396"
"1006","2,2196927173678","11,2311280695129","-23,9956887271323","-0,12585310431891","-1,24340408070505","2,06020794284285"
"1006","2,50185879702059","-1,89787858294729","-21,8414294774967","0,748373620333216","-1,70748067697207","2,03377430704481"
"1006","2,57356713461603","2,51502738289574","-22,2474332972243","-7,76718668929915","-0,277076844617965","3,12418582549676"
"1006","4,33765553249628","6,99049478073155","-22,3593811596438","-4,91910153730601","-0,72058100063529","3,09046920002791"
"1006","3,78597251850344","5,87239356496558","-22,3902486620942","1,04250899621474","3,93973036863241","-0,280917418276599"
"1006","1,89990565257091","11,0609144203978","-25,8472976768807","-0,450969088767401","2,75281549186959","-0,268518689225653"
"1006","2,42058964224009","9,08332165245391","-24,8005134563396","2,66621556040289","2,29104855505101","-0,257531382557934"
"1006","6,04464334844859","1,48184058257478","-17,6148067651954","1,4539401124727","2,11139902153065","-0,247794827519552"
"1006","4,96564301980734","3,98395526289933","-19,6334842628921","-2,34699886299071","2,04150671803131","-1,35300269695294"
"1006","1,19970147020772","-0,931843285953731","-23,6386342290769","-1,30751076358939","2,01431525255562","-1,33239806426407"
"1006","2,24264310112351","1,09948989594605","-22,7429784632885","7,69165264378314","-1,21816740331821","-0,200302928171947"
"1006","2,50769129775322","10,5145088369969","-22,4960183521472","4,96577585491932","-0,475758527622845","-0,197081034527157"
"1006","2,57504937844943","7,36975500897618","-22,4279237796288","-2,71224830831363","1,42402614375458","-0,194225908539596"
"1006","2,59216743883532","12,1589203745938","-24,1334169340145","-0,65251455028095","1,16313369518192","-0,191695798826623"
"1006","2,59651774080868","10,1026338994596","-23,6036743644316","5,1098765533461","-2,16026987609108","-2,41712581376179"
"1007","4,34348808975797","-2,92319858693299","-25,1818768285565","3,56605495207004","-1,45323360665298","-2,38922165851909"
"1007","3,78745477670287","1,51003803122655","-24,617036262383","-5,56055547130259","-1,17816251372968","-0,136821895241118"
"1007","-1,59144722145684","7,79245984747882","-19,2884853473954","-2,86688503364675","-1,07114663712953","-0,140826431855486"
"1007","0,0415843574932214","6,03042220298103","-20,8192383705399","3,05570430755653","-1,02951231735136","-1,25821116129747"
"1007","9,18591911060411","7,48615778897388","-22,965583462696","1,55236541716856","-1,01331456577972","-1,24839722293015"
"1007","6,50981659810039","6,77301306672077","-22,5573974639602","4,66705820288013","3,82584294138118","-0,125864411103796"
"1007","0,592130356041386","4,82953840769821","-27,6176547355724","3,45415305146818","2,70850780860305","-0,131116304468337"
"1007","2,08823788480024","5,44657328101436","-26,0129248225139","-0,346945052487412","-0,948093132244474","2,09190176392456"
"1007","4,21431627877182","3,76521286925739","-23,8461820042974","0,692502834531794","-0,370686654897342","2,06186022861515"
"1007","3,75462767061908","4,43389781963716","-24,2487437164631","-2,53941699223272","-0,146047781829215","0,921402449653808"
"1007","3,63780460690158","6,36861160179994","-22,6354735400737","-1,35613556504528","-0,0586524628068751","0,910769883400622"
"1007","3,60811575237202","5,74985038216849","-23,1906448488727","-1,05711579653339","1,58630045141499","0,901347686527976"
"1007","5,34643555293159","7,4308706143238","-25,0679917635982","-0,981552350757484","1,22626620067134","0,892998075362346"
"1007","4,7882038308931","6,7621186309505","-24,5856346130287","2,53213512904374","2,69714750629024","-0,228237102491945"
"1007","2,90047270762698","4,82739163981752","-17,5555579945706","1,42005747168598","2,26939103294635","-0,221835292685574"
"1007","3,42073375089923","5,44615025659797","-19,617147536733","-2,35556113665767","0,492021270035424","-0,216162239642637"
"1007","-1,6846439485547","9,17397419356061","-25,3583986291549","-1,30967448308249","0,800539001945733","-0,211134984569244"
"1007","0,0178997871233638","7,9085485085105","-23,9414398622194","-1,04537490239432","0,920567228744097","2,02099209457036"
"1007","0,450576107109218","7,6591941340995","-23,5507403234774","-0,978585381643526","0,967263978195593","1,99902263617322"
"1007","0,56053439713925","7,61005841260082","-23,4430123266329","0,785588740364583","-2,23647261059128","-1,36195406619842"
"1007","4,08020823896048","3,99447967690225","-21,6890394293264","0,231402327442872","-1,48288013310257","-1,34033044496148"
"1008","2,97468131093896","5,28202347783423","-22,2054146281435","-1,65593886414122","2,03220743133388","-1,32116837142792"
"1008","2,69372798631197","1,92983981151147","-17,1749884790417","-1,13287724350197","1,39974544863962","-1,30418763272175"
"1008","2,62232785247694","3,26928607777435","-18,7879437590458","0,746598593341111","4,37559120654647","-0,175303860823147"
"1008","6,09591213207901","10,7450192482792","-26,1297613949422","0,221549367302261","3,53333824213934","-0,17492776234582"
"1008","4,97867222320841","8,2181257214745","-24,1541285330744","0,0888674081163841","-0,0162425132265371","-0,174594477434869"
"1008","2,94887743364583","5,91724864535167","-23,6093851955356","0,0553381666275109","0,602799960260774","-0,174299132362862"
"1008","3,4330350964006","6,46385673882457","-23,4591825392018","0,0468651983225717","-3,98921856615919","-2,40170951515183"
"1008","3,55607660859427","4,76861860525662","-21,6934980591323","0,0447240466379942","-2,77573449099316","-2,37556029050203"
"1008","3,58734578987039","5,43456892595303","-22,2066440108533","-1,70311318381693","0,918273009898418","2,10295642349942"
"1008","3,59529239000759","5,56579561715101","-24,0724032294446","-1,14479837555478","0,355419482376611","2,07165646937153"
"1008","3,59731190094978","5,59165406927212","-23,5868509911701","0,743586077413008","1,74739434070162","0,930083525023624"
"1008","5,34368991381696","9,20264597777711","-23,4529691592101","0,220788092938645","1,28893946667587","0,918462739410447"
"1008","4,78750606730369","7,91419833441574","-23,4160537801509","0,0886750311562189","-2,11132538405193","-1,31950728877385"
"1008","6,39202494936188","4,05441098763313","-23,4058750636579","0,0552895522296391","-1,43419184670411","-1,30271564116151"
"1008","5,79978970200142","5,2938330488517","-23,4030684753989","1,79414906646485","-1,17075435385624","-2,40167154191643"
"1008","0,411687517448031","7,34101159042918","-23,4022946118513","1,23356555477838","-1,06826450686122","-2,37552663998988"
"1008","2,04238100504186","6,7444117510024","-23,4020812336372","2,83920009810325","2,19351283868437","2,10298624337006"
"1008","2,45679764671244","6,62685069507355","-26,850560284341","2,24495012377627","1,46250100533772","2,07168289466578"
"1008","2,56211550945006","6,60368508060677","-25,8014130585437","2,09478086929568","-0,432849668760549","2,04394299563845"
"1008","2,58888048724368","6,59912025521129","-23,7878616420187","2,0568325210155","-0,170232182123626","2,01936089724009"
"1008","2,59568241065602","6,59822074827522","-24,2326629813188","-1,44734947895034","-0,0680613569587483","-0,230094979034099"
"1008","4,34327580294921","1,1891988168246","-20,9067706391204","-0,332869750272378","-0,0283119950691335","-0,223481675894332"
"1008","3,78740082714888","3,12334145686524","-21,9897188276462","-3,5458287420163","3,20905628611234","-0,217621205084408"
"1009","0,154403852079304","7,11036414734242","-22,2883212765048","-2,3577558388804","2,46854815349209","-0,212427867142972"
"1009","1,23113138115696","5,8960140361441","-22,3706552453954","4,9316593667861","-1,04144897188383","-1,32166177176892"
"1009","3,2506305483309","11,0655688761147","-25,8418951633812","2,77372263027063","-0,407006563720091","-1,30462486631515"
"1009","2,76385640535672","9,08423882120369","-24,7990238155811","0,481107562587803","-0,160177972098927","-0,175691321469828"
"1009","4,38601473741508","1,48202131230276","-27,9600096820874","0,901754915724345","-0,0641497859976542","-0,175271116001607"
"1009","3,79826229549022","3,9839908760126","-26,8315916566885","2,75535027320102","-1,63774214036836","-0,174898745065536"
"1009","1,90302891769982","0,871111959011483","-19,6233759902319","2,22376095046893","-1,24994520185557","-0,174568763367254"
"1009","2,42138337389819","2,2577136503346","-21,6358470643703","2,08942628369015","-2,71002548750244","2,05339576146034"
"1009","7,79070984763265","7,93979065360013","-23,9150167839741","2,05547939663489","-2,27806689823209","2,02773759750643"
"1009","6,15524479071464","6,05945399949494","-23,5434546601798","3,79419704087635","4,33379349299652","0,891164204204578"
"1009","3,99375074122557","5,6889303286024","-18,2681966144333","3,23357767809671","2,90612498812181","0,883973840477243"
"1009","4,44443898411422","5,61591798243983","-19,8136441367521","-2,14998145103809","0,739741383588698","0,877601999379655"
"1009","4,55897473806141","3,79858254286418","-16,7912341301432","-0,510427552512315","0,89691403293012","0,871955503525965"
"1009","4,58808230662847","4,44047337297453","-17,9578618238868","-1,84340212848626","0,958061748119263","0,866951782476205"
"1009","6,34134434887068","8,17285555357941","-28,6251509682937","-1,18024993153796","0,981851148428539","0,862517665283422"
"1009","5,78690997664947","6,90832807851924","-25,5664538809824","4,22921963921583","-0,619845565814752","-2,48291984992284"
"1009","2,15427910968162","8,46209892531709","-22,998807156751","2,59621340895978","-0,242982574144888","-2,44752596126159"
"1009","3,23109967972078","7,76827222498896","-23,2908272110965","2,18354645270551","-1,70731669066021","-0,18848906625899"
"1009","3,50475770786187","4,02565598909293","-23,3713462093896","2,0792639254077","-1,27701304606055","-0,186612016030632"
"1009","3,57430384994879","5,28816682541646","-23,3935477979094","0,305615176416604","3,72325155773023","-1,29878469526422"
"1009","3,59197797378879","7,33989505105697","-19,951131579678","0,857407314652601","2,66859482924796","-1,28435202591472"
"1009","3,59646959106816","6,74419173493986","-21,0019505166822","6,23873577018854","-2,57457313406935","0,956109792258533"
"1010","3,59761106919557","4,8238591131803","-26,4645007616099","4,59861817186336","-1,61441748773497","0,941526279096732"
"1010","3,59790115898601","5,44545416596213","-24,9706955153669","-4,55232662039622","-1,2408707908681","0,928602895519024"
"1010","3,59797488101756","5,56794057299065","-26,2830759584995","-1,86480557136786","-1,0955431710464","0,917150658925305"
"1010","3,59799361638197","5,59207673662261","-25,6449400054646","0,561637489298452","-2,64995567609374","0,907002099748839"
"1010","3,59799837769785","9,20272926512777","-16,8476413902693","0,174808984800017","-2,25469685430348","0,898008812497447"
"1010","3,59799958771589","7,91421474633583","-19,4219529430565","-5,1648325259063","1,1209816945495","0,890039285574492"
"1010","1,85213511120639","7,6603106763073","-23,5803084746387","-3,51418047626081","0,434282904017385","0,882976978144483"
"1010","2,40844946539282","7,61027842922211","-22,7268962413584","2,14483410599621","-3,05477980090875","-1,35095349102285"
"1010","2,54982853394804","3,99452303156749","-27,6643908126496","0,574888860099875","-2,41219289696488","-1,33058213184981"
"1010","2,5857579340707","5,28203202094787","-26,0258114104534","0,178157657177074","1,05970816381479","-1,31252976780889"
"1010","4,34075364394869","-1,67605495972907","-13,5041215796999","0,0779021560479821","0,410444555413488","-1,29653241364622"
"1010","3,78675985772654","0,952841666392946","-17,0515028053892","-1,69472894793907","1,76880173892529","0,945315971796144"
"1010","1,90010574319442","5,07676686139137","-24,9267017522635","-1,14267964689586","1,29726797354399","0,931961184557664"
"1010","2,42064049231391","3,88939363139082","-23,0981386831346","-2,75047081807979","-2,10808519456568","-0,193709399878412"
"1010","7,79052105526078","10,8672125409604","-27,7667538835787","-2,15676583190894","-1,43293125725235","-0,191238087473013"
"1010","6,15519681192444","8,24220412640472","-26,0540360882136","6,72974646790626","-1,17026392396854","-0,18904809951874"
"1010","0,502008980089963","-3,09274779896453","-18,6847108284929","3,97540231081503","-1,06807370606211","-0,187107411150333"
"1010","2,0653348694582","0,673679831104199","-20,652758984164","-1,96251951268999","0,582635134951134","-1,29922369655858"
"1010","5,95436060003892","1,41586107221195","-22,9196799254972","-0,463055199560848","0,224840216391325","-1,28474105303426"
"1010","4,94269899404077","1,56210920140863","-22,5447404331216","-1,83143095266287","-3,13626307338058","0,955765050450971"
"1010","2,93973536928173","12,408617018544","-24,1656269133745","-1,17722476935653","-2,44389380649758","0,941220781336009"
"1011","3,4307117758989","8,54594061110153","-23,6125556560913","2,48268795614868","1,04737498628381","2,04216822788951"
"1011","3,55548617103677","9,58774160513386","-28,6328635621991","1,4075619808814","0,405646356552544","2,01778816204752"
"1011","3,5871957388942","8,79303033776885","-27,0171183683577","2,88316966431108","1,76693500894015","-1,34532473373097"
"1011","1,84938947275265","-2,18125829024849","-19,6745314665696","2,25606140229966","1,2965417258543","-1,32559413007399"
"1011","2,40775170197137","1,65623868189752","-21,6499522179398","2,09758873212155","-3,71931967423953","0,919562526473623"
"1011","2,54965120769023","7,82126894485786","-18,7460991843225","2,05754207875291","-2,67073084918829","0,909139409813961"
"1011","2,58571286922387","6,03609908668836","-19,9454167175613","0,30012598220707","-0,651827460793065","2,01373887309149"
"1011","2,59487740736641","12,8961211109859","-27,1731815802659","0,856020174159951","-0,866377002934984","1,99259509280246"
"1011","2,59720643924664","10,2479006113734","-25,1661008266753","2,74379292807473","0,661104847137606","-0,253813869926555"
"1011","4,34366311228425","2,51427115817271","-21,1641484430023","2,22084036489658","0,25536870612448","-0,244500501854862"
"1011","3,78749925609039","4,99034576530935","-22,060685881597","-6,64779252545707","-1,51343408908962","-0,236247330848981"
"1011","3,64615843437502","7,28120888322682","-22,3078890973133","-3,88893017281617","-1,20158339496894","-0,228933668259038"
"1011","3,61023875412126","6,73262752153819","-22,376050701313","-1,44445889029035","-4,30216235450004","-0,222452564154757"
"1011","3,60111029842196","6,62452859176818","-22,3948449724408","-1,8267315937737","-3,50843660089904","-0,216709243363848"
"1011","3,59879043636123","6,60322750603414","-22,4000271366872","-3,67062952966294","0,0222647369744757","-0,211619719545598"
"1011","1,85233609369768","4,79608186199251","-20,677187077461","-3,13658963119154","-0,604122737367609","-0,207109567032868"
"1011","2,40850054212166","5,43998060937591","-21,2021465666339","-1,2543395413089","0,763134361847997","-1,31694888595452"
"1011","6,04157108237896","3,76391377162446","-26,5197010300999","-1,77868770293263","0,295063091455129","-1,30044847682233"
"1011","4,96486224880618","4,43364183014573","-24,9859159437525","-1,91119250044394","-1,49799106526215","0,941845697797146"
"1011","4,69123261683611","2,76266470394064","-17,6659279890476","-1,94467697249614","-1,19557531642208","0,928885952855178"
"1011","4,62169369121624","3,43339569914446","-19,6475799719875","3,28874983217067","2,14398281449666","-0,196434559340376"
"1011","2,85815661731696","8,97440911274299","-27,0910587395514","1,61125691772096","1,44323144523912","-0,193653025536745"
"1012","3,40997974214877","7,06627562823587","-25,1434570089891","-2,30724430113624","2,7815574149885","0,922647922907862"
"1012","5,29608221517963","4,88732631530012","-21,1579048392138","-1,29746463288042","2,30223054464161","0,911873576894729"
"1012","4,77540727452808","5,45796049064573","-22,058964326124","-4,53688173265451","-1,10615451587982","-1,32534636703309"
"1012","1,15135586799362","1,96450851176281","-18,8588765252984","-3,3554948951972","-0,432180130444356","-1,30789002179581"
"1012","2,23035678106303","3,27611760661476","-19,9765129330109","-1,30965774361061","-1,78092363395192","-1,29242083800838"
"1012","2,50456891115103","16,1552100951616","-30,6302936583295","-1,79266682545301","-1,30564968496181","-1,27871260505374"
"1012","2,57425587005591","11,6930581003061","-27,5678718803426","-0,167428925292272","0,490206659930751","2,07494329717661"
"1012","6,08369534844375","7,20788668515685","-19,826391314657","-0,756725055936391","0,188881096979677","2,04683224679472"
"1012","4,97556750826065","8,32407570710927","-21,6918246943913","-2,65293860824943","-1,53930096481278","-0,205750859496317"
"1012","2,94808841624202","-0,470718404179842","-23,9304515550764","-2,13211906729669","-1,21164685293176","-0,201908794849975"
"1012","3,43283457929227","2,79625182599432","-23,5477105059326","-0,253209812615254","0,526778279891552","2,0291680112634"
"1012","7,04775521817103","12,4547552377743","-25,1664458546905","-0,778402216145887","0,203109214980735","2,00626783877641"
"1012","5,96643385549136","9,35798045632644","-24,6127814636461","-0,911120356834713","-3,14471747744259","-2,46936968233796"
"1012","3,94576723342279","5,14185904143129","-22,7358500529461","-0,944658741528566","-2,44718297604358","-2,43551829127845"
"1012","4,43224468499517","6,31106484286846","-23,2183217708799","-0,953134020356575","2,6570472756496","0,935987751433657"
"1012","2,81001095320333","4,7385106913101","-23,3513542077097","-0,955275755919221","1,64283818137106","0,923694851987158"
"1012","3,39774423340064","5,42863610813872","-23,3880353821517","-0,955816980734756","-1,97364177368677","2,02663738117115"
"1012","1,80124317348587","5,56462654488382","-19,9496116354537","-0,955953750327632","-1,38062630442879","2,00402528562666"
"1012","2,39551603180846","5,5914237015095","-21,0015314208545","-2,70328446571751","0,461037151163025","0,870151208327897"
"1012","2,54654169301069","7,39965235606301","-26,4643852038743","-2,14484165914994","0,17753275601953","0,865352881122783"
"1012","2,58492263203919","6,75596701782079","-24,9706636525103","-2,00372101370562","1,67818785391916","-0,252735276921816"
"1012","4,3405413642865","4,82617945354558","-21,1102603443638","-1,9680592837372","1,26201481686722","-0,243544691621085"
"1013","3,78670590998874","5,44591139314429","-22,0458272591917","-1,95904742739019","-5,34370423580662","-1,34923637975187"
"1013","5,39182160120983","5,56803067041741","-18,8552542279453","-1,95677009662438","-3,91364645504708","-1,32906048974929"
"1013","4,79973802407487","5,59209449048026","-19,9755141531324","-0,208898453191771","-3,35728524176787","-1,31118134343988"
"1013","2,90340395230241","9,20273276355689","-25,4572114351412","-0,767204565162087","-3,14083398797509","-1,29533748858579"
"1013","3,42147868339792","7,91421543570749","-23,9686856216738","-2,65558682054347","4,99813562568164","0,946374871303501"
"1013","7,04486928511525","4,05441435747298","-25,2825217683868","-2,13278828073057","3,16458600972955","0,93289954312408"
"1013","5,96570043827092","5,29383371288461","-24,6447871980389","-0,253378925424334","-0,770656790340744","-1,30671391381972"
"1013","2,19971606226136","5,53806349393993","-26,1932129136294","-0,778444951603286","-0,301655389315224","-1,29137861352274"
"1013","3,24264680947821","5,5861894052337","-25,620161973104","-2,65842730943682","1,49176063292543","0,949883083653179"
"1013","1,76182745615905","5,59567270136511","-16,8408093172125","-2,13350608320075","1,18948566716723","0,93600839442513"
"1013","2,38549910997251","5,59754140167848","-19,4200691283301","1,49373583631783","1,07188617646424","-0,190122908409831"
"1013","4,28986082443413","11,0067543144021","-28,7525958769693","0,410353822699267","1,02613432209247","-0,188059868039025"
"1013","3,77382620004726","9,07264930755991","-26,3258633432319","0,136579020290523","2,61928658606725","-0,186231676042185"
"1013","7,13441319735976","5,08563403277119","-18,7596620448807","0,0673950745615358","2,23909939254893","-0,184611598207254"
"1013","5,98845669974908","6,29998560524405","-20,6734253622932","-5,19197643422472","0,480236365935412","0,930660109832412"
"1013","2,20549922968707","4,73632750789647","-19,4768404020818","-3,5210398463104","0,795954107802519","0,918973688080111"
"1013","3,244116515981","5,42820590797701","-20,1469047660356","-1,35149158957728","-0,692168449868274","-0,205218451012482"
"1013","5,25393052837397","7,36749000051747","-27,2287380928744","-1,80323839925575","-0,271119652283436","-0,201436993646775"
"1013","4,7646950464977","6,74962936864756","-25,1814194826283","-3,66469270903434","-4,94016723531131","0,915750051007828"
"1013","2,89449829762717","6,6278788358796","-21,1683722722023","-3,13508937378086","-3,75665116561243","0,905760931509149"
"1013","3,41921544292357","6,60388767757515","-22,0618505224875","0,493335732697613","1,53664927513776","0,896908933951858"
"1013","5,29842933199078","4,79621194996493","-20,583941282125","-0,589747285024685","0,59599757217163","0,889064612861831"
"1014","4,77600375956581","5,44000624344147","-21,1764358049113","4,37844192954262","5,06289464998858","0,882113258326858"
"1014","1,15150745584752","7,36981527753875","-26,5126117745901","2,63392245575552","3,80073231728037","0,875953218558429"
"1014","2,23039530487502","6,75008756860653","-24,9839612158363","3,94037182707805","3,30969050328604","-0,243341640065312"
"1014","2,50457870140831","4,82502089765564","-21,1139268955572","3,27051660887686","3,11865163543022","-0,235220389312073"
"1014","2,57425835810505","5,44568309765245","-22,0468382412283","-5,63523914750806","-1,78852746980575","0,885812423777943"
"1014","6,08369598074466","5,56798568438605","-18,855532987091","-2,88575788591796","-0,697656008176732","0,879231285613424"
"1014","4,97556766895058","5,59208562590304","-19,9755910156864","-2,19095339437561","-0,273254576228126","1,98723537171669"
"1014","1,20222367306129","5,59683456210001","-25,4572326285344","-2,01537362658034","-0,108142020097035","1,96910864542735"
"1014","2,24328408169045","5,59777034839588","-23,9686914653505","3,27088451572683","-0,0439052995304463","1,95304539412115"
"1014","4,25371897750574","5,59795474674431","-18,3854476082612","1,60674228353108","-0,0189141276544934","1,93881071994957"
"1014","3,76464128397211","5,59799108276575","-19,8459738772319","1,18620713981228","-0,00919136057945275","1,92619646490815"
"1014","7,13207898672922","5,59799824284318","-21,9729552722195","1,07993629127475","-0,00540873685677506","1,91501816687812"
"1014","5,98786349462634","5,59799965374913","-21,5594301007932","-5,93610337370521","-1,61488904882967","0,791276308708589"
"1014","2,20534847537508","5,59799993177065","-21,4454083681186","-3,70908358643384","-1,2410542507998","0,795456788794119"
"1014","3,24407820400137","5,59799998655529","-21,4139690352304","-1,39901096607546","2,12628932305214","0,799161379525095"
"1014","3,50805600793304","7,40094822468881","-26,5781070632937","-1,81524672849496","1,43634782661918","0,802444254267529"
"1014","3,57514206414975","6,75622237103064","-25,0020203010288","3,32145735272363","2,77887935648019","-0,308482633966539"
"1014","1,84632620951809","4,82622977134824","-19,3946374033563","1,61952223398438","2,30118865115943","-0,292945989548354"
"1014","2,40697321890765","5,4459213083565","-20,8485077891484","-2,30515562392135","-1,10655986252361","-2,50685008235849"
"1014","6,04118293576409","7,37098085156566","-24,6979228932832","-1,29693681611347","-0,432337829772013","-2,4687320704781"
"1014","4,96476360708238","6,75031724703471","-23,759326189347","0,70514010823579","-0,170033052155246","0,906554897778979"
"1014","2,94534276448263","4,82506615619705","-21,7762569850831","0,211072648633133","-0,0679838858297497","0,897612518234941"
"1014","3,43213681248938","5,44569201592826","-22,2294632169941","-5,15566855855616","-0,0282818550762579","-1,33798400305672"
"1015","1,80998353900078","10,9768321237624","-25,8029641361293","-3,51186470645937","-0,0128358568118174","-1,31908903920929"
"1015","2,39773726648636","9,06675308685243","-24,7882893222811","0,398123156745742","-1,61777855548105","0,925327103466809"
"1015","4,292970970983","3,28152394469066","-22,7842430203453","-0,613807869232638","-1,24217840777302","0,914247770112308"
"1015","3,77461659781219","5,14153428697248","-23,2316652149394","0,877769420981462","0,514900037541259","-0,209406389129799"
"1015","5,38874928124876","0,0992079400742139","-23,3550334096462","0,25469674003654","0,198488007771804","-0,205148193416633"
"1015","4,798957239378","2,10560859507818","-23,3890498523911","-5,14464458284482","-1,53556341475285","0,912461319573416"
"1015","2,90320552741483","11,5157145375072","-18,225622413553","-3,50907890538995","-1,21019276631092","0,902846576282159"
"1015","3,42142825664626","8,36999259439904","-19,8019051073362","0,398827139392439","-1,08360794493646","-0,219509716049456"
"1015","1,80726211784873","7,75012250920818","-21,960804143709","-0,613629970109728","-1,03436036504831","-0,214101397472821"
"1015","2,3970456575341","7,62797601010125","-21,5560796572835","-0,869481776413461","2,206703179472","3,13219941987647"
"1015","6,03865999281025","2,19506214391344","-19,7202156039356","-0,934136512080309","1,46763268190556","3,09757055844933"
"1015","4,96412243842989","4,12449683586179","-20,2140108677263","-9,6869557784361","1,18009873449642","0,839211602999713"
"1015","1,19931503693094","8,11059181682178","-25,5229723863824","-6,89882687749765","1,06823420846689","0,837935318361133"
"1015","2,24254489481925","6,89605889881859","-23,9868179582786","4,28952094030401","1,02471353100752","0,836804320928916"
"1015","5,99939590810828","4,85378480703174","-23,5632524738752","1,1168594733373","1,007781895629","0,835802071780869"
"1015","4,95414405178381","5,4513510769837","-23,4464623150893","0,315115716001433","1,0011946756378","-0,278922138751349"
"1015","4,68850874552089","5,56910256976068","-16,5171838697341","0,112511984364853","0,998631930442644","-0,266750544447133"
"1015","4,62100145959124","5,59230571014597","-18,6065665987247","-1,68598291118588","-2,2242689694482","1,97170759054059"
"1015","2,85798069688343","7,39982615742833","-19,1826743073757","-1,14046948976397","-1,47813233012276","1,95534848557951"
"1015","3,4099350345714","6,75600126568792","-19,341525094913","-6,24450460924575","-1,18784931393113","-1,40065652384981"
"1015","1,8043412853744","4,82618620214851","-26,2824009618982","-4,53431391820425","-1,07491526800961","-1,37462716757417"
"1015","2,39630337114239","5,44591272296846","-24,1962160022338","1,13974630776753","0,579973438509878","-3,57923299743492"
"1016","2,54674178366237","9,17392738713784","-27,069527903604","-0,426396846084318","0,223804688539679","-3,53287520016345"
"1016","2,58497348212017","7,90853928522193","-25,8617892316842","6,16701736702897","-1,52571400907308","-0,15028643116566"
"1016","2,59468950306511","4,05329586195791","-22,0802402852131","3,83319850231007","-1,20636087408404","-0,152758218148549"
"1016","2,59715868614644","5,29361331136065","-23,0375497965464","-0,251158808942937","-2,6930690890931","0,958887426815497"
"1016","4,34365097653982","5,53802006342893","-19,8529718744196","0,716708386747189","-2,27147004423165","0,943987718697744"
"1016","3,78749617197036","5,58618084717452","-20,974884837382","-4,28059630926129","-0,496495816960787","-1,29688797239356"
"1016","1,90029286657381","11,0045156969987","-23,0085000275397","-2,54343442963617","-0,805945527377905","-1,28267121849019"
"1016","2,42068804695434","9,07220818403225","-22,5692308937537","-0,357150786931466","0,684615595803532","-3,49774495068791"
"1016","4,2988035725342","6,88849533593622","-24,1723796939747","-0,804668500197019","0,264515517413413","-3,46066343106324"
"1016","3,77609886726715","7,45819084823436","-23,6144176074248","4,32413051170698","-1,50987553985139","1,02754108859774"
"1016","3,64326119409914","3,964553904134","-18,2877633028955","2,62019775154262","-1,20019894827152","1,00482611856631"
"1016","3,609502463338","5,27612655126197","-19,8190392804467","-1,3049849180358","-1,07971986936042","-2,35681122933735"
"1016","-3,38253595506607","5,53457426635338","-27,1383353959306","-0,296893678079519","-1,0328477167666","-2,33577304835232"
"1016","-1,15945914868372","5,58550184675255","-25,1564926514309","1,70515100938291","-2,62556413088522","1,02437838955249"
"1016","2,8972325236869","7,39848544408571","-21,1614991706849","1,21107540339495","-2,24520737082347","1,00202344869869"
"1016","1,9281807380184","6,75573707574713","-22,0599553949402","-5,90296401560488","-0,486278374674249","-2,35929485432805"
"1016","6,9195049052226","1,22023768837613","-24,0319566223073","-3,70070914316099","-0,801970451221101","-2,33797394727578"
"1016","5,18797615049271","3,12945772152589","-23,5756986054261","2,09769759432975","-4,14669371175224","-2,31908012813877"
"1016","1,25620414839447","7,11156936813587","-21,7256251572471","0,562977282276444","-3,44795182617889","-2,30233710680733"
"1017","2,25700242144808","5,8962515270379","-22,2155024495795","0,175147555639488","0,0457962215766932","-0,0598279380038913"
"1017","2,51134050672527","9,26266744677816","-29,2476526046758","0,0771414918101383","-0,594967858802774","-0,0725971628513202"
"1017","2,57597677095971","7,92602567128017","-27,1866348009627","7,04155959522003","0,766696049644311","-0,083912789536224"
"1017","4,33826790594892","4,05674158532814","-23,16981029744","4,80149484076144","0,296448759202503","-0,0939402899367583"
"1017","3,78612814416309","5,29429229725886","-24,0622470307065","-2,75376275254957","1,72445189492459","-1,21666235273729"
"1017","5,39167477056694","5,53815385880379","-22,5840506117554","-0,663005410037648","1,28001375252652","-1,21157816676291"
"1017","4,79970070923773","5,58620721179031","-23,1764659504859","-0,134662986833672","2,71805788736943","-2,32090879792675"
"1017","1,15752968527051","7,39862443751677","-25,0640822009568","-0,00114882405585729","2,27752617625585","-2,30395760804355"
"1017","2,23192576545013","6,7557644646491","-24,5845566251886","3,52718302485729","0,495186231803242","-0,0612639677747318"
"1017","2,50496764533711","12,0379324494365","-22,7280675884004","2,41880605590825","0,801770324199153","-0,0738697206603802"
"1017","2,57435720245441","10,0787930143367","-23,2161759037035","0,39141877894896","-5,52276146537527","-3,42654864480183"
"1017","4,33785631655703","0,677999979067932","-21,6264935826324","0,879090215082887","-3,98330832383977","-3,397571831661"
"1017","3,78602354480409","3,82555704704071","-22,1881687957143","-5,98685794977607","1,44846874617843","1,08345058931681"
"1017","1,89991862015084","8,05168520151542","-20,6187711531389","-3,72190946305027","0,561691107957744","1,05437110237195"
"1017","2,42059293775881","6,88445124585096","-21,1860394820663","-1,40225211443518","0,216691983203987","-1,19907019748569"
"1017","2,55291461792055","8,45739395311425","-24,7909908637923","-1,81606577915355","0,0824707410900342","-1,19598863303722"
"1017","2,58654221668759","7,76734510187607","-23,7849879192421","-1,92063808409141","-1,58069970792985","-1,19325786172408"
"1017","7,83268252581633","4,02547329784006","-23,5076016638475","-1,94706390781924","-1,2277529538591","-1,19083795064016"
"1017","6,1659115263502","5,28813082578123","-23,4311176584092","-1,95374181513045","-2,70139163634843","-0,0748574592120093"
"1017","2,25059675037244","5,53693972992692","-19,9614907570305","-1,95542934799665","-2,27470791514207","-0,0859157826795356"
"1017","3,25557738414065","5,58596796554289","-21,0048068636048","-3,70315194723119","2,72414836445498","-1,20955132371728"
"1018","1,76511357054366","9,20152552095773","-26,4652883451664","-3,14480817121868","1,66894373016943","-1,20527662922267"
"1018","2,38633422736139","7,91397754641329","-24,9709126766135","3,98547206157394","-1,96348546042572","-0,087652495607335"
"1018","7,78180262520753","5,85731570830398","-26,2831358365996","1,78732130525086","-1,37667501040111","-0,0972542826275896"
"1018","6,15298115181983","6,45204684733849","-25,6449565157164","-5,75734445949603","0,462574394461053","-0,105763040107182"
"1018","3,99317547086614","-2,44550146414811","-22,0204527712151","-3,66391052116117","0,178130817550961","-0,113303194215349"
"1018","4,44429278765717","0,801220868728683","-23,0210645221075","2,1069967476665","-1,54348334022902","-1,23382106040905"
"1018","2,81307280037552","15,8645790784679","-16,3998884865669","0,565327214096739","-1,213273997997","-1,22678359487065"
"1018","3,39852235659305","10,832840515938","-18,5742246187254","-1,5715547607374","0,526145242251495","1,00712486030799"
"1018","1,80144092199143","8,03837928528218","-24,3465634475968","-1,11155305596201","0,202862932911428","0,986733993131841"
"1018","2,39556628666763","8,48772574614654","-22,9381765350969","0,751987297562607","0,0770905758248371","-2,37284381861345"
"1018","7,78414881659328","-2,24141910122947","-22,5498405228401","0,222911113588367","0,0281590835962383","-2,34998055093829"
"1018","6,15357740167438","1,64438388744894","-22,442764223652","0,0892115266412656","0,0091223811985165","-0,10204784048118"
"1018","5,7391917829694","7,81893293659722","-22,4132399624814","0,0554251267025079","0,00171618895556631","-0,110010918252631"
"1018","5,63388180425985","6,03563877211965","-22,4050992067373","1,79418332665567","-0,00116517580990378","-3,45857567109243"
"1018","0,36952447802231","5,68423749583175","-24,1271234904022","1,23357421246039","-0,00228616519815458","-3,42595302767424"
"1018","2,03166589191093","5,61499325142357","-23,6019390665713","8,08109074549568","-0,00272228395119482","3,28597230359409"
"1018","4,19993934314034","11,0101932323306","-23,4571294101909","5,81148451450501","-0,00289195510843045","3,23383854395355"
"1018","3,75097398497721","9,07332695243376","-23,4172008905519","-0,00394217037853828","3,21894590348615","-1,26770472812397"
"1018","1,89101129269416","3,2828193365567","-25,1304603004736","1,52647713549606","2,47239569000075","-1,25681007957575"
"1018","2,41832927217178","5,14178954623598","-24,6028591287398","1,9132199813265","0,570999839167176","0,980516472121341"
"1018","6,04406890881308","5,50810292137892","-22,733114157053","2,01095138619501","0,831265461489109","0,963154598845609"
"1018","4,9654970344665","5,58028562130059","-23,217567399413","0,288352334972036","-0,67843063602332","-1,2799029742391"
"1019","2,9455291542093","5,59450935027568","-26,799684089772","0,853044928212647","-0,265774982381691","-1,26761972549385"
"1019","3,43218418068283","5,59731216128408","-25,7873849116315","-2,49884738758425","-1,71618403299476","-2,37057080678136"
"1019","1,80999557692685","5,59786446016172","-18,6111868176842","-1,34588346988696","-1,28046286844269","-2,34796628980266"
"1019","2,3977403257473","5,5979732916346","-20,632486130938","-6,29641351221187","-1,11094639223928","-0,100262874883892"
"1019","4,29297174844895","5,59799473706925","-17,7412832416893","-4,5474314976676","-1,04499633508757","-0,108429146094521"
"1019","3,77461679539367","5,59799896293017","-18,9440888126079","-0,61086470821135","2,20256527590261","-0,115665801218952"
"1019","1,89701976342577","7,40094802298166","-24,4485464927771","-1,61607913728193","1,46602283852631","-0,122078664083681"
"1019","2,41985623617889","6,75622233128389","-22,9662964279556","3,37178776918352","1,17947242804383","-5,69694177930734"
"1019","6,04445696414082","4,82622976351607","-24,2818629934771","1,63224092383547","1,06799054515304","-5,63718447884853"
"1019","4,96559565299103","5,44592130681316","-23,6446055533367","-2,30194156206957","-3,80823706897851","-1,12888549975297"
"1019","2,94555421664933","5,56803262392343","-23,4688938856915","-1,29612461031963","-2,70532398960835","-1,1337934843085"
"1019","3,43219054993144","5,59209487542209","-23,4204447218184","2,45264150895192","-2,27623778957104","-1,13814276327173"
"1019","5,30172676361262","12,8086292940866","-19,9585478969414","1,39996912809174","-2,10930263347732","-1,14199693748233"
"1019","4,77684175306322","10,2306601937599","-21,0039954256814","2,88125092120286","-0,433404899505897","-1,14541236771141"
"1019","1,15172041950597","7,91971858533489","-28,1893335493822","2,25557652853516","-0,781400127986099","-1,1484389988423"
"1019","2,23044942644036","8,46434344487663","-26,1705544261947","-3,14442225690684","2,30511687037097","-1,15112109022994"
"1019","5,99632202363941","-2,24602662514362","-20,4411074958538","-1,50902272277017","1,50592033797687","-1,15349786291896"
"1019","4,95336286949041","1,64347596669408","-21,8613210368785","-2,8430471226063","1,19499447302675","-1,15560407318506"
"1019","4,68831021959003","9,62170225654115","-25,7014559036253","-2,18016022018646","1,07402936672757","-1,15747052078668"
"1019","4,62095100716092","7,19382588965318","-24,7603003500236","1,48194615643183","2,63792006053364","-1,15912449935933"
"1019","1,11210309112645","12,1242532297683","-22,7765255914362","0,407374525239389","2,24634870974521","-1,16059019553873"
"1019","2,22038126813599","10,0958026771187","-23,2295372801078","1,88312229354924","-1,12789523564761","-0,0480529891777095"
"1020","4,24789856603648","-2,92454469140473","-23,3544466719255","1,25604943152591","-0,440638315414437","-0,0621626277293431"
"1020","3,76316211244627","1,50977277895421","-23,3888880705791","-2,39700659931428","-1,78421427445289","-1,18850213418413"
"1020","1,89410872510092","5,98945935171024","-18,225577805283","-1,32014791092873","-1,30692990228325","-1,18662359635474"
"1020","2,41911643882547","4,87218953184146","-19,8018928074507","-4,54261388427564","0,489708593858317","-1,18495890385815"
"1020","2,55253938754523","11,8638224426471","-20,2365318093964","-3,35694343196237","0,188687325337663","-1,18348371338562"
"1020","2,58644685743512","9,24153610152259","-20,3563752808805","9,17375312470235","0,0715755831197723","-2,29601250624638"
"1020","4,3409287236367","3,3159652475626","-27,2864956193738","5,34030834781007","0,0260134863526177","-2,28189541195415"
"1020","3,78680435164087","5,14832100675618","-25,1973450264682","-2,61760250660391","-1,60266429367368","-2,26938535196263"
"1020","3,64598183468265","3,70644172991438","-17,7242255535366","-0,628597192104262","-1,23629823345412","-2,25829938782925"
"1020","3,6101938739203","4,42231686244826","-19,6636544210732","-3,6205602041752","0,51718770798533","-0,0208032991581746"
"1020","0,109369324746995","8,16927778099486","-25,3712220215387","-2,37664076684586","0,199378021532766","-0,0380149348799614"
"1020","1,2196865218267","6,90762307208927","-23,9449756697576","1,4322947664672","-3,14616909103585","-1,16710331938917"
"1020","4,99358679055082","6,65901177521221","-14,9303705411669","0,394827427995746","-2,44774772350401","-1,16766073818502"
"1020","3,95266775043868","6,61002247845881","-17,4447639392904","1,87995159380944","2,65682756174258","-2,28199075609679"
"1020","1,94226878134199","2,99447259601587","-28,4836739461536","1,25524818350458","1,64275270210055","-2,26946984250436"
"1020","2,43135560512001","4,28202208253301","-25,5274442721056","2,84467938179136","2,85918077401352","-1,14453820682937"
"1020","2,55564979071493","6,33868421857923","-22,9880509960565","2,24633475984203","2,3324297623145","-1,14766434898517"
"1020","2,58723732041644","5,74395313825372","-23,2878614035374","-3,14675768740694","0,516546365753037","-1,15043462345536"
"1020","4,34112960811719","9,23265677929469","-21,6462595012838","-1,50961289504151","0,810080442992956","-1,15288954081284"
"1020","3,7868554034617","7,92011201605379","-22,1936188733596","4,14598835134096","-3,90857649531871","-1,15506500006674"
"1020","1,90013002473046","4,05557628908286","-25,7930807373661","2,57518054233866","-2,74436084932791","-1,15699281362469"
"1021","2,42064666310731","5,29406267356805","-24,7855641622919","2,17823136640086","4,15238273332872","-2,27253722596715"
"1021","2,5529282714236","0,129263929034129","-19,3349537233962","2,07792078265238","2,83554748299676","-2,26109246493605"
"1021","2,58654568652354","2,11153118098184","-20,8320511449786","0,305275759075515","-2,5096205270841","-0,023278423390094"
"1021","2,59508905557073","7,91098513888208","-22,9691163425369","0,857321542584833","-1,58914780163266","-0,0402083007374667"
"1021","2,59726022650876","6,05377782175731","-22,5583715886535","2,74412178888182","0,37991226604298","1,05862510580993"
"1028","4,34367678152173","14,7025529644078","-25,8936543891517","2,22092346928759","0,145971276392774","1,03237165393301"
"1029","3,78750272992501","11,4068094376212","-24,81329544162","-1,40588306509489","1,66590892132337","-2,33240136900756"
"1036","5,39202410121643","-3,666208485276","-19,3426000983614","-0,322391027977592","1,25723772189338","-2,31414191018827"
"1040","4,79978948645779","1,36362661365274","-20,8341594880311","-1,7958845753951","-2,12365888653523","1,04354712431584"
"1049","2,90341703070621","7,76360921810796","-22,9696976781956","-1,16824206308072","-1,43899017198712","1,01901009034654"
"1049","3,42148200708089","6,02473713532109","-22,5585318809492","-2,75693053898352","0,438330801389398","-0,116569797983582"
"1057","5,29900534576244","7,48503753631379","-20,7208917581593","-2,15839822823064","0,168698894563605","-0,122879753424274"
"1057","4,77615014495008","6,77279231894826","-21,2141973044452","4,98203780188862","3,28570299162313","0,985364645031765"
"1069","4,64327422556417","4,82949490895832","-24,7987548499238","2,78645345461742","2,49836740600453","0,967450874885361"
"1069","4,60950577509218","5,44656470951055","-23,7871286913458","3,97891699724859","0,581104085038368","2,065412391107"
"1077","1,10919445460269","5,56815940756549","-25,2324608840549","3,28025712165499","0,835196498799491","2,03838630145808"
"1078","2,21964208116481","5,5921198583635","-24,6309838574804","-2,13818537608385","4,15595452968315","-2,44090745869155"
"1090","4,24771071259591","7,39978953500514","-21,0166000753885","-0,507446638994092","3,44788901787416","-2,41029609484498"
"1090","3,76311437227157","6,75599404917451","-22,0200022142144","-0,0953526869855608","1,5614655657824","-0,155497300906528"
"1098","7,13169094469442","8,43208123479798","-22,2966713466972","0,00878503993510834","1,827556170872","-0,157375903042961"
"1098","5,98776487948001","7,76235718586096","-22,3729576190769","0,0351010441262578","-2,90177759719268","-1,27287670599792"
"1106","0,459458629775864","4,02449042014739","-22,393992113606","0,0417511996180918","-1,74171575116387","-1,26139329989988"
"1110","2,05452132699101","5,28793714798958","-22,3997919770191","-6,94575289325773","0,3205560004076","-0,137381065960681"
"1118","7,69747728210619","3,73395333803663","-20,6771222366371","-4,71152205714465","0,122878836066983","-0,141321948787117"
"1119","6,13155111253799","4,42773807359753","-21,202128688005","-0,652331023816795","-3,17593095116014","-0,144814217065397"
"1127","3,98772934320474","6,36739781292368","-24,7954271575545","-1,62655783474856","-2,45932651761358","-0,147908939305212"
"1131","4,44290873482768","5,74961120291879","-23,786211143211","3,36913976202412","1,0413709198774","0,963184682893124"
"1139","1,06685627979306","5,62787525629055","-23,5079389446855","1,6315717622399","0,403310486131486","0,947795792102737"
"1139","2,20888245996527","5,60388697221078","-23,4312106572113","-2,30211066177891","1,76602624307138","0,934158711907235"
"1147","2,49911152992077","0,190315356295404","-19,9615163996885","-1,29616734246668","1,29618817225099","0,922074023102068"
"1151","2,57286895729826","2,12356147294721","-21,004813934082","-8,03114620875178","1,11339857966015","-1,31630709936565"
"1160","4,33747810105283","7,9133557292395","-21,2924834661601","-5,73310127646206","1,04228464225362","-1,2998797486859"
"1160","3,78592742692524","6,0542449507895","-21,3718028903491","5,331400437201","-0,596334031945566","0,942349684167027"
"1167","5,39162376124835","11,0967485583354","-28,2907494904419","2,12744258330574","-0,233835457374146","0,929332567405708"
"1168","4,79968774597353","9,09038283285633","-26,1985179508348","6,55967856816458","-0,0928060881598305","-0,196038785627702"
"1180","2,90339117486627","3,28618022802828","-25,6216247366209","4,67972165151863","-0,0379388848763343","-0,19330230514159"
"1180","3,42147543620143","5,14245181585818","-25,4625573608043","-6,27912761228509","-1,62754483998988","-1,3047133882662"
"1188","3,55313889185287","5,50823342278195","-20,2458907165561","-3,04847097788523","-1,24597796186913","-1,28960581990311"
"1188","3,58659921259182","5,58031133683339","-21,8074937079498","3,00981684092041","2,12437376278512","-0,162381984028245"
"1200","3,59510265842965","14,6092555542576","-25,6866140373163","1,54076947782913","1,43560258160279","-0,163476861008698"
"1200","3,59726368347425","11,3884250175663","-24,7562079865362","2,91683171121402","1,16763748593313","-1,27828315498644"
"1209","1,851948092023","3,54196174151528","-22,7753971997256","2,26456793104361","1,06338618381857","-1,26618430007225"
"1209","2,40840193723226","5,99580224384304","-23,2292261474686","-1,39485394171709","-3,81002838684895","2,08604542936232"
"1217","2,54981645536869","4,67638763731815","-23,354360882994","-0,319603926073054","-2,70602089836069","2,05667055606728"
"1221","2,58575486447833","5,41639465022643","-23,3888644159063","-7,03706872358525","-2,27650892057303","-0,197032504524179"
"1229","2,59488807983947","7,36516257124035","-23,3983781115116","-4,73459791874328","-2,10940811646917","-0,194182903000632"
"1229","2,59720915149788","6,74917074458276","-23,4010013328582","2,83642992356398","-3,65534980628991","-0,191657688868493"
"1237","2,59779901754511","10,2336849178709","-23,4017246364533","0,749657783638596","-3,25679543022181","-0,189419935147328"
"1241","2,59794892328042","8,92031461258277","-23,4019240737182","-3,27226986991669","4,95302105089311","-2,41510902542198"
"1250","6,08971658764224","3,25266798374992","-23,401979064766","-2,28862645957117","3,14703427167838","-2,38743445340457"
"1250","4,97709771718484","5,13584816871725","-23,4019942275058","-2,04005598588521","2,44441860875288","-0,135238138503586"
"1258","4,69434208023517","5,5069321624068","-25,1262673511963","-1,9772412709808","2,17106734424202","-0,139422963734614"
"1258","4,62248391536875","5,58005492116977","-24,601703002403","3,28052070867485","-4,3790871741013","2,08454070196669"
"1270","4,60422222512033","7,39741211774406","-21,0085264342638","1,60917738655767","-2,92741211874534","2,05533712089992"
"1270","4,59958128652485","6,75552557488886","-22,017776060612","1,18682249971449","-0,751688812186125","-2,42588625363809"
"1278","4,59840186059252","6,62904069377143","-27,4688643555676","1,08009179508921","-0,905227868521154","-2,39698484449319"
"1278","4,59810212692847","6,60411662373232","-25,9718986937418","-0,69417561773022","3,86789386186509","2,083970756182"
"1290","4,59802595404903","1,19036060953482","-22,1106008835882","-0,142539818223526","2,72486763787338","2,05483205549405"
"1291","4,59800659583786","3,12357039017825","-23,045921156432","-5,24502778921165","3,89112743093157","-1,31249777091962"
"1299","6,34386646025238","3,50451280438134","-16,4067422326263","-3,5344461277942","3,34485854739038","-1,29650405915655"
"1299","5,78755093397019","3,57957818238215","-18,5761144093718","3,88700905108319","-1,70052210828571","0,945341098522609"
"1307","0,408577215491058","10,8061628575352","-26,0713534644217","1,76243932373112","-0,663417692516254","0,931983450956751"
"1311","2,04159056778225","8,23017417806533","-24,1380236526462","1,22555238080813","-1,87088616016657","-2,42136177514188"
"1319","4,20246155278646","4,11667458774262","-25,3292135226821","1,08987898502816","-1,34064943176076","-2,39297541477301"
"1319","3,75161496727038","5,30610220162558","-24,6576615648109","-2,43899851037079","-1,13436185827238","-0,140148338697403"
"1327","1,89117418886767","5,54048102139422","-22,7482248906852","-1,33075942838772","-1,05410607685252","-0,143774206116611"
"1331","2,41837066982602","5,58666578330403","-23,2217338979717","5,93848146356773","-1,02288272033911","-0,146987319098404"
"1340","2,55234986137948","9,20166302718455","-26,8008329228242","3,77544660037067","-1,0107353338865","-0,14983466397899"
"1340","2,58639869216205","7,91400464225904","-25,7877016805835","3,2288393696515","-1,0060094166852","-0,152357878355498"
"1348","2,59505169912693","4,0543728202503","-20,3355431035744","3,09070961975331","-1,00417080773991","-0,154593859965321"
"1348","2,59725073292084","5,29382552790125","-21,8322136553982","-0,43878860578045","0,607496433928656","-0,156575306253046"
"1360","4,34367436886671","3,73511365373633","-20,5206232660024","0,669293615309726","0,234512456666459","-0,15833119251521"
"1360","3,78750211678441","4,42796671586301","-21,1589770613893","-6,0398743575869","0,089403761818417","-0,159887195614944"
"1368","1,90029437736041","13,5792357766399","-23,0592599710779","-3,73530691324824","0,0329495047882283","-0,161266069462614"
"1369","2,42068843089842","10,3825095671718","-22,5832269866463","3,8362507579252","1,62193801971164","-1,27632403122501"
"1381","4,29880367010791","4,34374431886707","-31,0733146228726","1,74961250779246","1,24013092767931","-1,26444819522809"
"1381","3,77609889206406","6,15379492199963","-28,4142954620869","-2,27228131129717","2,70254155151255","-1,25392425753273"
"1389","3,64326120040091","1,10162391994027","-20,7840455264984","-1,28862935085203","2,27148957580577","-1,2445983233716"
"1389","3,6095024649395","3,1060846681935","-22,6801486454566","2,45453558985224","-2,72906616475466","2,10517414366503"
"1401","7,09265274944713","1,69811898452986","-23,2029631629082","1,40044776962142","-1,67452270246945","2,07362173302578"
"1401","5,97784389929928","2,42067685071683","-23,3471193624973","-4,10781273699186","-1,26425460839212","-1,29584703612411"
"1409","2,20280214335258","11,5777992957903","-23,3868677038044","-2,4997713562577","-1,10464060002011","-1,28174877829757"
"1410","3,24343109136287","8,38222650607401","-23,3978275559729","1,40117919286255","3,79031272442241","-0,155419357031042"
"1418","5,25375633784059","5,94958499585221","-26,8493874133019","0,386964402850078","2,69468484642543","-0,157306831990653"
"1421","4,76465077854888","6,47022867401211","-25,8010896615722","1,87796457710755","-0,953470928940332","2,06869266269373"
"1430","6,38621661561784","1,16397775170439","-27,2363103571342","1,25474605674033","-0,372778876298974","2,04129315987306"
"1430","5,79831359985088","3,11837160127488","-26,632045276762","-5,89192827351169","3,07504211231179","0,903176654848803"
"1438","2,15717717192689","10,7152812831647","-23,0168927416491","-3,69792036868161","2,41641019841402","0,894618841147605"
"1442","3,23183617939541","8,21226580273332","-24,0200829113918","7,34029078793147","3,77112266079462","-1,34063689175906"
"1450","1,75908009434805","9,52199039265229","-24,2966935974152","4,12968920913484","3,29817092370763","-1,32143993353146"
"1451","2,38480090858529","8,78007394479468","-24,3729637542909","-1,92353061997183","-1,71868583796624","-1,30442828126716"
"1458","2,54381860285609","8,63387799357733","-24,393993805275","-0,453202556388013","-0,670484256412273","-1,28935316835965"
"1459","2,58423059893461","8,60506982223396","-24,3997924434648","-0,0816449986441963","-0,262683458765609","-1,27599414681118"
"1471","4,340365494304","3,19054843898927","-22,6771223652506","0,0122490255098762","-0,104029347297171","-1,26415586355403"
"1471","3,78666121523275","5,12360740230521","-23,2021287234678","-1,71131974658132","1,56864666228177","-0,139829150270975"
"1479","1,90008067466296","12,716313007039","-26,7954271673326","-1,14687220553445","1,21939802815882","-0,143491352840961"
"1479","2,42063412151725","10,2124691057517","-25,7862111459071","4,23765431897477","-2,13838034618499","2,08093544222019"
"1491","2,5529250841639","2,50728931718187","-23,7836700025768","2,5983448849815","-1,44471752738645","2,05214226969471"
"1491","2,58654487652861","4,98896998116566","-24,2315072161443","-6,55239568104255","-1,17484934956467","2,02662679829646"
"1499","4,3409536337402","3,67504132784628","-20,906451958767","-3,86482302325886","-1,06985765702017","2,00401590746465"
"1500","3,7868106821754","4,41612935755845","-21,9896309575755","3,80352153870135","-1,02901084213324","0,870142897738841"
"1508","3,64598344349441","8,16805852218796","-20,5640281051451","1,74134170819143","-1,01311946781617","0,865345516578387"
"1512","3,61019428277603","6,90738281498004","-21,1709451235715","1,22022093220268","2,21496690945145","-4,70808601700266"
"1520","5,34696378070474","4,85601620478483","-24,7868288803676","1,08853170745648","1,47084767006858","-4,64706010050567"
"1520","4,78833807217232","5,45179077786646","-23,7838403311526","-4,18663512578351","2,79230145383716","-1,25147297308686"
"1528","4,64637160708117","9,1750856682753","-25,2315541810226","-2,51969007712029","2,30641049217225","-1,24242608347298"
"1532","4,61029292881298","7,9087675265733","-24,6307338512947","-0,351150497710633","2,1173755534513","0,993263050874617"
"1540","1,10939449808354","2,25039260998268","-15,8437243123621","-0,803152204028928","2,04383187621395","0,974450157378344"
"1541","2,21969291925802","4,13539980228294","-18,4208728830242","0,82992137920631","-1,20668401798133","0,957778849432072"
"1549","2,501858848328","9,91568849302046","-24,3042796113964","0,24260535581752","-0,471290938771167","0,943005337388617"
"1552","2,57356714765505","8,05470462602774","-22,9265175682411","3,58878064378788","-3,40709155268997","-1,29775852329145"
"1561","6,08352031982765","5,88504622880353","-24,2708947264359","2,43437201116649","-2,54925910247821","-1,28344266930952"
"1561","4,97552302732549","6,45751119555976","-23,6415812614703","2,14264850890966","-2,21552104712732","-1,27075647564696"
"1569","2,94807711206995","2,96441997736967","-18,2952531659415","2,06892885768377","-2,08568090228098","-1,25951442820453"
"1569","3,43283170650406","4,27610016075565","-19,8211044683022","-1,44429268814193","1,18673702373685","0,978119975867675"
"1581","1,81016013604128","8,14046552073355","-28,8631737752134","-0,332097287476192","0,459864887639627","0,96103091026762"
"1581","2,39778214601339","6,90194556513038","-26,3563531040119","1,6962549218667","1,78802862357844","0,945887196452996"
"1590","6,038847160469","12,066737694416","-29,1136826759659","1,20882732785802","1,30474815582552","0,932467383253934"
"1590","4,96417000432327","10,0844691389219","-27,8739640737457","1,08565249980953","-0,494223109703784","2,03441128209956"
"1602","2,94519190911723","2,4820666968174","-17,1865214958766","1,05452574693122","-0,194109400600885","2,0109142363533"
"1602","3,43209847482852","4,98399981911166","-20,2396616556742","-4,19522856282279","-1,68830267703392","1,99009200156303"
"1610","3,55583858006875","16,2946995399699","-21,0815072195556","-2,52186167171746","-1,26961568084024","1,97164008780576"
"1610","3,58728529843965","12,5234929700113","-21,3136301868398","-2,09899542120668","-1,10672631488551","1,95528866708961"
"1618","15,8163305051287","20,7951111670174","-23,1019026408496","-1,99213549301548","-1,04335452215646","1,94079862757644"
"1622","11,9241615499879","17,4250481955198","-22,594984895062","3,27675688147141","0,592252085632464","-2,52738613691101"
"1630","-1,28602913619031","5,9432819489753","-31,0765566433899","1,60822625294462","0,228581672450722","-2,48693038162648"
"1630","2,35679620061043","9,6807795568043","-28,4151893878314","2,93387829777926","0,0870964016918827","-0,2234078429202"
"1639","-5,44675751572442","-50,8829796437493","-12,1629472953281","2,26887566904367","0,0320518307943923","-0,217555776964667"
"1643","-2,42991532485465","-28,817175753286","-16,6816994021399","-22,3613191980049","0,0106368469657696","-0,212369887102169"
"1651","12,3036887890482","54,8606520214164","-23,1004665260966","-14,5854641886465","0,00230538893271076","-0,207774338475356"
"1651","8,04801645273253","27,3495163169174","-21,8703199707708","18,830855041851","1,61001598571649","2,0239701779758"
"1659","6,96650024439307","21,9283982584042","-21,5311303606241","9,27528745770792","1,23549268341566","2,00166170631687"
"1659","6,69164888919836","20,8601573351648","-21,4376052508448","6,86055877071936","1,08978511713903","1,98189274303059"
"1671","-19,5661722795826","-44,2564776165616","-31,7574311305685","6,25034754250917","1,03309787033801","1,96437420050604"
"1672","-11,2392093335353","-21,0878259635762","-28,6029276299662","-41,0808513182936","4,23294767545682","3,06268595319684"
"1680","65,9491509059961","50,1866823263406","-1,86909890218584","-26,0416273446598","3,4778430523007","3,03597023047965"
"1680","42,565431506789","27,2314505304729","-9,49775204546631","16,1993577766781","-4,87068861272765","-0,329212440213112"
"1692","12,1806979505542","73,1906317786999","-15,0497465269814","4,87381720998436","-3,11866870748171","-0,311315996462583"
"1692","18,4588671256758","54,246969913752","-14,5806038346484","36,9577326053038","4,00675898518074","-0,295456813239794"
"1700","-75,9681921160048","-48,6480647410397","-57,5579701954428","25,0654614465038","2,77889284547656","-0,281402976846373"
"1700","-44,9654332109626","-13,9237137178726","-44,4081648555337","22,0602387773392","2,30119389902737","-0,268948973724118"
"1709","-37,0865403805826","-7,0812187942239","-40,7823551278725","21,3008074483135","2,11534604797935","-0,257912685167225"
"1712","-35,0842362494326","-5,73289304008897","-39,7826067786477","-50,5302460506138","14,9306577763563","5,32104754321428"
"1721","70,1765067844616","115,330328171543","-1,57302836668612","-27,6822295903781","11,9164300141496","5,26492095672081"
"1721","36,9269684498375","72,1860505154527","-13,0374609179836","63,7090635673496","-16,6424323510251","-3,69550482844565"
"1729","-4,69434105248021","-33,6748101531546","-7,57721631069173","37,8039949134647","-10,7532025095034","-3,63591110480197"
"1733","3,72821846768216","-0,534880403416602","-11,0716572928375","-47,3706424807539","4,42560644344619","1,98607897188932"
"1741","-1,11477168560841","-8,42818431904527","-32,7264105132114","-23,8946010011219","2,33089270447486","1,96808388559256"
"1741","1,65445396578494","-1,9835738477789","-26,6972985109402","-14,4675227049168","4,73785224520392","-0,275534818041848"
"1749","-23,82976003546","1,0892962970376","-18,1378093134826","-14,0852637552643","3,67427519846582","-0,263748822959046"
"1753","-15,3061962648055","0,69481080623348","-19,7776923084223","-13,9886654482087","3,26049260583179","-0,253304499042707"
"1762","7,81031886320108","-13,8065090777238","-25,4026658087723","-13,9642546844202","3,0995112885948","-0,244049115742185"
"1762","1,68503942801511","-8,66401986679461","-23,9536456984523","12,2513563073072","-3,40692591913174","-0,235847328749963"
"1770","-12,0926632723217","26,6053330675378","-32,1754505658662","3,87614205145344","-1,93824272864775","-0,228579200820352"
"1770","-8,59406272381172","14,5552215838857","-29,4424575136213","-10,471379881192","-2,97780630884785","0,891697605581405"
"1782","-11,1966746858157","8,57482930058243","-30,4131553930004","-7,09705386579642","-2,38224650877727","0,884446521546415"
"1782","-9,85809003889775","9,39638239994407","-29,6808069454527","7,73402052419414","-8,59435285827981","-1,3496512346422"
"1790","21,907657571776","-82,3920886997347","-8,78764841958363","3,48189007490521","-7,01116081676181","-1,32942811919614"
"1791","11,9804527016537","-49,4791696398507","-15,0267557320888","-29,0439704041554","0,0485847221004332","-1,31150712340137"
"1802","12,9493299159201","-37,584775913609","-23,6441471584333","-19,2633804680966","-1,20483493248317","-1,29562618304216"
"1803","11,195555736028","-38,2409645451147","-22,0202296062758","-16,7917877671601","-1,69247542446509","-1,28155306625886"
"1807","10,7498599560369","-38,3702676781534","-21,5724651028985","-16,1672067838801","-1,88219101457155","-1,26908197755022"
"1811","10,6365929627265","-38,3957470897295","-21,449002523029","3,21088491830453","-6,78885530115891","-1,25803054836266"
"1819","35,0499148071657","163,529433608922","-23,1392289982156","-2,8921967646705","-5,69778355033052","-1,24823717025904"
"1819","27,2541996269476","91,3191484106628","-22,605276931038","51,4790079186357","-5,27330419625634","0,988113475274662"
"1831","-14,8818561665207","-65,3429262517855","-32,803663420202","33,21882049793","-5,10816132467302","0,969886789141743"
"1831","-2,59011180623596","-17,2134657729097","-29,6156753080612","11,1314393613265","11,065606534212","2,06757101049784"
"1839","7,51711243763501","-47,3943312697256","-9,76968960435189","15,5498731820958","7,35797963293143","2,04029919213652"
"1843","6,08571405383269","-31,3415243163431","-15,2975349861277","-56,7200100283903","9,13743842790754","0,902295836476674"
"1852","21,4347283725677","78,1956551629687","-37,5129609512206","-32,982887524361","7,82973342988114","0,893838291662785"
"1852","16,3354534415748","40,7801505517503","-31,6384438375647","42,9074207721688","5,71002139562814","0,886343520372569"
"1860","15,0395481056338","33,4073590430707","-30,0186570235834","22,0851936144788","5,88535152910486","0,879701924267706"
"1860","14,7102129231918","31,9545374068189","-29,5720314930103","16,8233367125295","5,95356337837273","0,873816381252173"
"1872","30,3393003116307","-27,8290351741238","6,76076483657971","15,4936452320307","5,98010106638036","0,868600825226067"
"1872","25,3112018106978","-6,60949412725911","-4,22115482232614","20,3995155393979","2,76852163373475","-1,36369311942893"
"1880","-17,8673699042419","-56,5165927690462","-31,3889763393192","18,6392478380322","3,51906286799153","-1,34187153123544"
"1881","-4,84056555282525","-36,3508750248219","-24,8799884866029","-44,7082400962771","0,5891556144908","-0,208697973050612"
"1892","-53,9059393359499","19,908313996482","-50,6735614706461","-24,7163939831774","1,449280865173","-0,204520420628116"
"1893","-36,3751786995765","1,99428692165007","-41,7856506171557","-17,9170814123285","11,4496225366019","2,02685368265699"
"1901","2,99730062143628","18,2967266317607","-28,9893639045741","-17,1988689699953","9,34023611906002","2,00421696420499"
"1901","-6,99676584255954","10,5091512753515","-31,4610302417474","23,1704376003263","6,9086314793291","3,0979931739169"
"1909","-9,53661008192856","8,97459574663303","-32,1425454138129","10,3719166637945","6,96262039797438","3,06725821653388"
"1909","-10,182073946262","8,67220885945097","-32,3304603126688","10,6322734959995","2,15076887909123","1,92618595193118"
"1921","-15,5837033968863","95,1541378995315","-46,1764258292016","8,69806666904158","3,27872735378769","1,91500885065697"
"1922","-13,956447663977","64,1955553200988","-41,9941885383074","11,7038774697138","-1,11529838681661","0,791268053009282"
"1930","65,0210106039609","13,0214060602694","-13,2527127432112","10,4634574218339","0,175214398670769","0,79544947289104"
"1933","40,0919640186163","27,937449234156","-21,3277952382409","15,3918869636343","7,12109363913746","-3,65618931745157"
"1942","101,845341957107","-80,9061081122914","47,1406803857882","13,637320067591","5,82337452142774","-3,60107111641969"
"1942","78,5390499971422","-40,3539240302346","25,0195655509013","-11,2682118811556","-2,73626026306505","-8,00757156775486"
"1950","-128,158349705886","182,187794781681","-129,367041913098","-3,56193561151226","-1,06636961808569","-7,91245339808842"
"1954","-65,6874380223942","107,040034964792","-85,9362243986117","-31,3185645577642","-3,63860576174814","-17,8526875867163"
"1958","-49,811379389099","92,2320356813048","-73,9609991725484","-21,3327714670257","-2,63932925766772","-17,6613647447255"
"1962","-45,7767137993789","89,3140931729177","-70,6590576613828","51,0825229879815","29,9684760215301","-9,69496896570347"
"1970","135,072709565504","-138,432369215488","80,2627881902711","29,3821464648124","22,654479588373","-9,63543624255957"
"1971","78,032916832613","-57,3102133465967","34,8766282936475","18,6564893805678","-2,74434365745265","-11,8103525966144"
"1983","-172,154649055536","140,772822230672","-137,994757239781","18,9460745757888","1,37429329062462","-11,7376850562923"
"1983","-100,736120148606","78,8054355254198","-92,6607671235216","-85,8185153226565","-16,3547821848597","-19,4701420762785"
"1991","-2,2763768148909","124,288995402745","-50,8482060755495","-52,2929301997143","-11,2522447032066","-19,3223667054693"
"1991","-23,2542886772155","101,251611503545","-56,3191844157345","31,3128487145568","21,3409743874911","-4,71154480454019"
"1999","39,5032117374853","-128,656474248549","52,5255092854332","9,44035066193787","15,0213032259138","-4,76396120679191"
"2003","16,4521026598845","-48,9602700953001","18,5373717445865","58,0792670134614","9,34074351653897","9,66945796245904"
"2007","10,5940040758169","-33,2559917924788","9,16578664996342","39,3705082802766","9,13073275016686","9,45983365537852"
"2011","9,10525492690928","-30,1614359145323","6,58174958467228","-99,8990708161311","-26,3919140893732","-0,750452329118227"
"2015","-15,7151956358396","-182,802247516921","-69,9985831725457","-58,0930291977333","-18,2119311267538","-0,798439652321629"
"2020","-8,02294620038181","-127,880390023721","-47,1141592804249","-59,7595547330794","-2,14190910330851","-5,296308501922"
"2032","-0,830480376658915","272,37887645823","-39,0799439455795","-53,1806921466724","-3,88989812117944","-5,28215771265021"
"2032","-2,00262152110179","135,250674442845","-37,8646612579494","77,781727072447","-11,013757604906","-0,814273579495513"
"2040","100,705518393038","-54,0360213066543","-13,3898048778252","36,8764341969731","-9,78528135654894","-0,85499574342833"
"2040","67,8072737132579","-1,33530024540423","-20,6413268545925","85,9475785407334","-6,08544117967846","-7,57409857776089"
"2052","-13,8796497326199","-70,2802517426023","-41,6077550465512","64,3480454838869","-6,64602551589349","-7,52832526256197"
"2053","7,36082633453237","-39,865976651213","-36,3888504565338","-82,6412280171271","-13,3079275051553","-6,37392654744784"
"2060","12,758779307425","-33,8727898302284","-34,9498363767747","-38,7859828709892","-11,8997275871943","-6,3509400261952"
"2061","14,1305892520533","-32,6918217432596","-34,5530555033121","-27,7035937196606","6,36860114541087","-5,21673414633322"
"2069","-43,134323403966","173,07698802828","-39,6164575221728","-24,9030313492481","2,475859100301","-5,21164178765921"
"2069","-24,687354350011","99,624096752288","-38,0125947135976","113,841077636816","9,01615500990498","0,362051144359379"
"2081","-37,4579777254423","-134,809609416037","-22,0519394401995","69,902247700149","6,56064448188963","0,301256869733419"
"2081","-30,7034428551862","-59,005186788201","-26,6510910888936","-18,0822943895369","-4,0603787455485","6,93039949623524"
"2093","-86,6004155496578","136,227031800036","-43,4376405206407","3,68367336437441","-2,19246728671621","6,80490668823454"
"2093","-67,805804778124","74,6978865535612","-39,0662135413205","-64,2024212884985","6,58899972510168","2,23835527234861"
"2102","13,7886181863818","206,809317599422","-113,728708844564","-39,3574985523483","5,00541247904755","2,19164204762311"
"2102","-9,47536551058243","152,842109275907","-90,3154776038213","40,3073474307133","-3,66543874779003","6,60559068593242"
"2110","-15,3875630320191","142,207775210145","-83,859722602565","18,4389604663482","-2,03881664456615","6,51707283102946"
"2110","-16,8900606260595","140,112260831408","-82,0796704513813","65,3316195525004","-30,4031172813399","4,21095939244688"
"2118","152,076985873083","-74,851503044796","28,7643575525825","47,1815748908323","-23,4381935757469","4,16736480657077"
"2118","98,017462729034","1,78950622532686","-4,67250142736234","-63,9900765594329","-49,7256383006099","0,787224695888201"
"2130","72,0579806507971","-125,54115699911","1,62633858406465","-31,0835805373992","-41,9527178199894","0,791866395587399"
"2134","72,4607620660557","-71,6318899016994","-5,63687560077962","-62,9557939308307","-27,652014602153","0,79597970251144"
"2143","212,232305729432","-15,9352675737986","40,6399610736034","-48,0100248617757","-29,0883536787491","0,79962476680853"
"2143","167,753177166504","-29,9601494128062","25,3999221712879","-26,7602099925798","-2,26097573296724","4,14436305178673"
"2151","32,4930645572026","-66,9797935599803","3,95508070525672","-31,3903000310833","-8,82383623844423","4,10834953050704"
"2151","69,1187066254478","-55,2745800624931","8,04207189746062","28,5950237666662","-11,377104422804","-3,72041672794101"
"2159","78,4265720829517","-52,9680469934275","9,16898229944082","8,75354584264329","-12,3704484708487","-3,6579871319743"
"2159","80,7920284813286","-52,5135405634648","9,47970649588969","-8,49154502751347","27,5168913091752","-4,71650032830406"
"2167","-28,5963071390883","-23,5768076283446","-33,5413407642466","-5,84944582903101","18,0349836919234","-4,65451655981583"
"2167","6,60426456207284","-33,8747731084356","-20,4035796048902","12,2911843339617","40,121296826017","-4,59958877891162"
"2184","-197,445534196112","5,56380376767817","-87,4761174888049","6,87539135975048","32,7139342267398","-4,5509137598115"
"2184","-127,301773874668","-9,66475474762154","-64,9700992651236","35,2108342458176","26,6102102675745","-6,73545181973197"
"2192","-151,376529011992","-27,0891550168515","-110,492559353685","25,371309664259","26,2355682683967","-6,67131068825219"
"2192","-133,494772108536","-22,5226639774735","-93,0445153978739","-6,81921065249544","37,366478064235","-1,04529086268638"
"2200","5,48120041362917","48,692152042867","-81,3364720213677","2,04612103256889","34,6969369885065","-1,05971493081697"
"2204","-36,2001107931003","23,7251577794651","-82,1082008440311","-7,94464861966114","6,27217431193907","-7,75551334078726"
"2208","-46,7927998190479","18,8053673018227","-82,3209904481356","-3,46935454339597","12,213575377909","-7,6890884849239"
"2212","-49,4847751324904","17,8359138670782","-82,3796631506253","18,6291233235444","-48,3020594726977","-6,51638911903268"
"2216","285,037137671208","42,8861565319822","79,6854395911967","12,2134936892183","-32,8455501489718","-6,47718522086338"
"2220","178,050936232387","33,8223512547119","30,3718216969688","35,0543855455274","-62,2731676530113","-3,10093597932704"
"2233","154,353704390642","-41,884564963099","96,0908970744103","26,8263667822421","-51,721925317732","-3,10902562698428"
"2233","146,331403258358","-15,8027470065835","68,2116872030092","-32,9136582660762","-47,6169848976734","-2,00235832760647"
"2241","-70,4487144067478","68,6664434588695","-91,2111437782702","-15,0101924044537","-46,0199657679081","-2,0216696660961"
"2245","-2,54017643023755","41,3112471754015","-47,168969498236","1,7451553623657","4,54086140209552","4,64423364280586"
"2253","-196,531864330677","-57,8324505653517","-240,213178424324","-1,02070380227995","-6,78854659303917","4,55131682619795"
"2253","-124,831983834026","-25,3688919534213","-174,441462227778","22,7424990916996","41,9651829779273","14,4935017745399"
"2261","-106,610519218104","-18,9718901820274","-156,306157390478","14,7475518755912","27,932727157564","14,303907625476"
"2261","-101,979803372423","-17,711349643253","-151,305690615991","-32,7025020238596","12,807715758755","4,11137164485688"
"2265","353,121868443774","38,4284371519062","39,7426770877105","-18,6933131757053","12,9233593320979","4,07911373514057"
"2269","208,779230104689","18,4908816567527","-17,579354518983","5,81441657519587","-64,3573426113177","-12,6570128635171"
"2282","-161,363491212451","-30,5115546795649","152,836226936279","0,00761415988661868","-46,4232502094513","-12,4879648597795"
"2282","-64,4297916386578","-15,1675716243875","91,8250953653978","42,2226166815493","-44,2788820557284","-21,2488490414089"
"2294","-345,321862164606","68,9886576665443","-290,542584325089","27,8905102119674","-40,4446197736205","-21,0124287428782"
"2294","-241,706429175433","40,5717918288625","-183,973228865304","-14,1717835959482","28,7070737956107","-14,1199052772623"
"2302","98,8815623895556","141,346143455001","-366,673827795635","-2,8010870469607","13,6104064106439","-14,0119994814337"
"2303","5,43696518690155","102,203908081784","-294,050057080234","8,80881247784274","80,2299142164199","-3,8918527743029"
"2311","-18,3105977055739","94,4908612155426","-274,025428006816","6,74267874886571","61,1481048584791","-3,92374362886732"
"2311","-24,3456897303063","92,9709916579256","-268,50401586341","9,71515111389968","-50,9875118970664","-10,635020475237"
"2319","541,526635660268","-248,085716299521","536,527736312958","8,46630631508723","-29,6136566789877","-10,5823120516594"
"2319","360,334721291808","-126,291545180763","292,499992378107","-47,7627584716484","-129,231979258109","-38,3815050838011"
"2331","-773,386285443495","474,65164488627","-636,920506856538","-29,9720594459186","-100,988294954334","-38,0161476914635"
"2335","-438,504718353841","273,068565758067","-393,190603645358","37,4263801501191","108,146943722091","-3,16346348515126"
"2343","812,838156750803","-96,5932629256614","193,018252024103","18,4582251051891","66,5106037748034","-3,27827130178382"
"2343","462,848448583433","13,5642184467755","53,6542395072552","101,029707017783","108,306335899215","17,7828751663006"
"2352","-361,105335564715","-287,456787270339","-91,6774214492122","71,8958381340939","88,5668846319242","17,4465038388672"
"2355","-149,501008458638","-167,773510055361","-69,7498739617869","-117,185202536855","-201,029299221956","-31,8603626569085"
"2360","-95,7248970867454","-144,189708122165","-63,7037681124202","-60,9667088736904","-138,696134351094","-31,5543300617451"
"2360","-82,0584934085615","-139,542478145122","-62,0366689549468","-109,662740777766","19,2634734201515","-20,1447744747311"
"2368","-183,337265999167","268,839566138235","-382,291021312393","-85,9684153644243","-2,28264673588673","-20,0340376676096"
"2368","-149,075768745903","123,311971887556","-284,5950924441","122,705585584916","145,597214534805","17,9345191164556"
"2384","-0,699533020151321","-44,1915120357952","-288,694131669548","59,4383083545432","106,129588501139","17,5808852402037"
"2384","-42,991906307347","-0,198370469933176","-271,82436408847","116,836862454964","-120,25991846886","-29,5136065970166"
"2393","463,036088342147","-341,301400043009","143,203163159318","89,3416978776078","-77,3363182242699","-29,2470473432288"
"2393","295,635622055486","-214,516356680723","19,6391419927943","-78,357682073091","58,5734685655428","-4,50643896652932"
"2401","-40,2120153147861","-212,971466094566","280,418693038837","-28,7359604946823","37,4489082101835","-4,58220380792422"
"2405","42,437272824975","-199,667042665995","181,323714331295","-155,980052821376","-4,59955175511756","10,9443608698221"
"2409","63,4413675171564","-197,045382445151","154,000151094225","-108,13512443648","0,0415762345554957","10,7034427006795"
"2413","68,7792476582666","-196,528779651317","146,466196117822","3,55135374854014","-15,8732731774955","-16,2421155782011"
"2417","-221,423627950141","317,413262636333","-298,748267565337","-25,2250435771791","-11,0649145553298","-16,12029784402"
"2417","-128,174398421568","133,686453114584","-164,507722294192","226,102880792979","64,9095570483544","15,1750621372689"
"2433","443,725056846417","-436,189915679271","243,224387878739","141,614414092687","48,4672782596071","14,9078818463092"
"2434","275,064848431106","-252,485064348218","140,648793649831","-30,0036156278914","-41,6990590865458","-3,15026055031076"
"2442","-186,805198226387","48,7476916718565","-196,278624155012","12,6278480793582","-24,7780982119473","-3,15273528346803"
"2445","-64,1826422894436","-38,8938597705624","-110,179977248425","-188,021851582281","-27,8607427223363","-17,6347969979024"
"2454","59,5109010008312","116,91924698333","58,3986848817081","-117,726802548524","-23,0600396059892","-17,4682779606308"
"2454","37,9457863405211","51,6224958731402","20,8810576034143","111,459861289874","51,3005017035502","-1,72701004478526"
"2458","32,4653312686401","38,7556553178154","10,5362825722926","48,3762128799307","35,2303264558768","-1,77766594512149"
"2462","31,0725546352664","36,2202215778307","7,68390681700506","88,348209157783","-1,62983089172754","-4,05022748462194"
"2466","214,034403366587","-2,14130290920037","-22,4151537938703","66,4492863819661","3,0297961950298","-4,06408958719391"
"2470","155,531452310442","11,2994906886178","-13,7143995952632","-15,9656863847855","-41,8749909985562","-12,9870621104905"
"2482","-61,8565227378662","-0,475562925654511","-11,3153314420979","7,20773296211945","-30,345111591725","-12,8942786564979"
"2482","-1,10246272872271","5,20414188646438","-10,653833844056","-4,40921635699768","-11,3608669023341","-8,35671309084815"
"2490","159,244060506972","172,194574702995","-29,4383967834212","2,65513586183704","-12,9750832293351","-8,33568608156142"
"2495","116,993758821486","113,100335507068","-23,617884180752","-16,5272289954774","8,9502361130201","2,82130783068959"
"2503","69,5933088129556","34,7466265078949","12,4723907693678","-9,37468638587927","3,48023919049586","2,70823358736127"
"2503","78,5471852123797","56,3068892549743","2,42360043411969","71,0611155394988","-0,258804465382913","4,83570337658632"
"2511","80,8226805250261","60,5553772483423","-0,347163148075033","46,3875521074799","-0,713472166840258","4,72099040112554"
"2511","81,4009640177722","61,3925493385682","-1,11114871970025","-5,27725226923865","-18,6108310351417","11,3023522189039"
"2519","97,2607092742596","-122,343203605517","-42,7042578974626","7,66685291995586","-14,5737638819341","11,1345177808765"
"2519","92,2912290604412","-56,5486594245157","-30,1727698611115","-74,6796334113845","1,49541669439323","5,41660868555194"
"2532","153,87944135762","212,434920419844","54,3231908968394","-46,4889072787966","-1,25289968685123","5,34960379574949"
"2532","133,531174991727","123,438611645115","30,6213514813496","54,9889899314743","7,34358474790041","3,06255437122191"
"2544","126,614099139948","-18,5016964456402","-27,6420500425967","26,6328449229403","4,68803038807174","3,03585362727745"
"2544","125,85622657439","22,5287142329023","-13,7070793378221","26,4563226112648","5,26584403573973","6,35370055106373"
"2552","-57,6521778556036","-133,454459297614","-28,8317335054447","22,4117147440562","4,49064131763355","6,2938568750227"
"2552","0,711874150012865","-73,1912201472289","-22,0020703880785","-55,4914039630906","-0,643805603526982","-4,89753496783039"
"2560","15,5442351120623","-61,3162420462983","-20,1189201567636","-31,1778217390675","0,358647753946868","-4,8149429304368"
"2561","19,3136603686802","-58,9762565611889","-19,599677152715","-49,4958321258948","29,745785112982","-1,40024468421295"
"2569","-2,42463812183019","-9,83555613521591","-84,9787255586751","-40,124863816595","23,178794055594","-1,37426221013624"
"2569","5,05089469619626","-27,1522940064312","-65,0057596909687","5,9256197532126","48,0101017730592","-0,237401424896067"
"2585","-66,3756300852553","-90,0618794028332","-30,1860206694016","-7,43724590112707","40,6706740064839","-0,229956384794467"
"2585","-42,5276253874545","-69,4583247226185","-37,5851372193739","69,5615295902152","12,0400528807566","-5,79253912603487"
"2593","63,047285126177","-112,275011660537","-5,13992459061395","43,0194163567197","16,9013651152965","-5,72189940090224"
"2593","32,8775878118706","-94,7121157211629","-16,1937718131003","-21,348650815106","17,1816973019338","-3,43162891635347"
"2601","12,9893517806548","71,0140245171972","-10,620316079046","-4,61470900130349","18,2907599968662","-3,40207378514864"
"2605","14,9350506213549","13,6706542275784","-14,0835412375286","-75,5197121196892","20,3331906273571","-8,9450633607989"
"2610","15,4295212164727","2,37104146160211","-15,038459971618","-50,4376791659485","20,1277943132411","-8,85706087872192"
"2610","15,5551836079599","0,144432735673603","-15,3017607236587","53,7492316258436","-7,33829761049976","-11,0067483588439"
"2618","-55,9933372977644","48,385277677334","-122,279035375202","24,077664770427","-1,02392754260977","-10,911723900031"
"2618","-33,1763361113547","30,8912216877954","-89,7759924056644","32,3052110638013","9,4874255897656","-4,14450032976207"
"2634","42,4568587739299","-68,1122691049095","22,6422425639781","25,3843436619639","8,57684719259663","-4,14763078369373"
"2634","21,6779170915331","-34,6210824653267","-6,36055866515073","-49,7510245876391","-20,7745463908562","-8,60574909299136"
"2642","39,0934984514236","33,278654960049","-62,6370621081676","-26,738021175978","-14,1936492867212","-8,55637280804826"
"2643","30,5194109817767","12,6584185829959","-50,1542418950933","26,254449448921","-11,6333639985439","-8,51261732451818"
"2655","110,396078259659","26,6246467255716","23,9826859753833","12,6458506279246","-10,6372899598329","-8,47384279255091"
"2655","83,6955523502697","19,3767167384665","3,42453947080124","44,152828419885","-10,2497692818929","0,471206227496229"
"2658","76,9100084314461","17,9484992863782","-2,24397999790686","32,1147629093454","-10,0990051117662","0,397986168989586"
"2663","75,1855627620784","17,6670665056975","-3,80696686347673","6,35784745521356","-16,4841583406791","-3,00840696743703"
"2671","36,3382951410545","57,2764706788178","-57,6902681126462","12,8489758379334","-14,9682898528512","-3,02702975263948"
"2675","48,4658363938635","43,0815739852122","-41,5475677286939","21,4784935631502","-1,49092867466021","2,52564767388907"
"2683","131,857651774295","88,964046567114","18,0800822846636","19,659205888448","-4,2475873790952","2,44623021597977"
"2683","107,050448787156","71,0052691234881","2,52127725808668","13,9575764350296","-2,09815624670348","9,05886964888631"
"2691","-72,0945487196491","-8,25736535481946","-110,397711899536","15,516752739052","-3,2619242225384","8,9187523057189"
"2695","-18,6216013531895","18,1237920153789","-78,5329841520297","-3,30949509612675","1,11816990091843","12,136093528336"
"2704","101,465509500076","-25,3573562980804","-2,50040031324742","2,93303965488048","-0,177762953270647","11,9871853234982"
"2704","70,9838733534604","-6,92539365062193","-20,5358555937","-21,6988900974945","23,4823358929047","16,3105724549159"
"2712","63,2374161678464","-3,29334273730257","-25,5087907443213","-12,9234735003318","17,6872515805582","16,1418022576623"
"2712","61,2687685978828","-2,57764066643477","-26,8799834105297","-26,4315573475363","15,432685238938","14,8784081401359"
"2724","18,8677111060723","-105,204659262945","-58,294904785276","-20,8451020987889","14,5555505649977","14,7588338229282"
"2724","32,0921092025131","-68,4274952003917","-48,9569742661503","-1,96042183550901","12,6033510824287","12,4251992671445"
"2732","58,1491366612181","-12,5008876902594","81,2136849585227","-7,18819048715649","12,8438516500993","12,3572164594365"
"2733","51,7711449622928","-28,4804505414224","43,1057784361699","-12,0038600420482","19,3812256683838","12,2969725462619"
"2745","50,1502726643531","-31,629251727606","32,5982450850714","-11,2207982635466","17,9245783842027","12,2435865624089"
"2745","49,7383519328365","-32,2497285831034","29,7009918061571","13,4392306047993","1,24835323190206","4,39942545396587"
"2753","18,2081022564463","-30,5690464200367","11,6594396682152","5,6709147623345","4,76050009514028","4,44821268890485"
"2753","28,1951554449611","-31,2378650205232","16,6848234246331","99,8091198910096","35,1240288578041","2,26377407061502"
"2761","30,733217364051","-31,3696569113383","18,0704778003636","68,5982064590381","28,9369009872517","2,32800332368266"
"2761","31,3782282780354","-31,3956267370459","18,4525457462253","-0,444276789316042","-0,856372027369154","2,38492097206363"
"2769","-55,7510909349133","-200,87787750702","-38,342981369282","17,1084221003461","4,55261273884805","2,43535933998002"
"2769","-27,8937192914867","-140,27465545597","-21,0032721021083","-119,986931776495","1,82411199567824","1,36621994967747"
"2782","1,88206206004478","-25,5646341635158","-55,8803614208349","-73,6314550812761","3,7625940596009","1,41878716817819"
"2785","-3,55086331514205","-59,9608211257551","-42,4970581289262","39,4259290853094","4,51675675674115","3,69304244892635"
"2794","17,7646812134492","52,2559322648415","31,8881608928211","9,99596497474974","4,8101622951999","3,70840548392679"
"2794","10,1817117260031","8,36844244282032","11,3984759698594","79,4399305727169","-7,96330432295115","5,94969175859699"
"2802","23,9673951936831","50,2028851411777","-51,1520416286966","52,9886878172292","-4,93279680155685","5,93583884905827"
"2806","18,4708228392056","30,4464362332112","-35,3991619712895","16,6003224157599","-3,75378371261773","3,69589079312698"
"2810","17,0739502367381","26,5533929543924","-31,0556038102303","24,4048424995944","-3,29509095106662","3,71092958386469"
"2810","16,7189557162103","25,7862618752517","-29,8579499266985","29,871667053679","-12,7823490259776","1,49658431107227"
"2818","-74,1562296618571","67,1029065650196","-110,568359869348","29,2531546483446","-10,473348427727","1,53431136515844"
"2819","-45,2508145253437","52,2444246415797","-85,822726525668","30,844150337403","-1,52027653946786","1,56774372029831"
"2835","66,8469564344942","4,24282875604841","27,9050875728125","30,24620106829","-3,03710124029758","1,5973702680708"
"2835","35,3349476685069","19,784029196205","-2,73662201870317","7,38024699634729","-27,7914979722125","-0,604047860376684"
"2843","76,2108504672223","-70,9068575293504","-47,395140797084","14,6019324413323","-22,4221481354866","-0,554865237040476"
"2843","58,5988568534453","-36,7776575228994","-38,7088813905026","-25,5082275427541","-10,6675013615692","7,28557100485821"
"2851","54,1230290525292","-30,0524381620962","75,7636713837262","-11,6442192669924","-12,0943787725422","7,23348292748204"
"2851","52,9855635876438","-28,7272217655099","42,3273093745735","11,079526641595","-28,7590220132585","4,95965224432374"
"2859","75,3927357482828","339,335352851573","-34,1386228406224","5,821904646682","-25,2423692297227","4,94466547239922"
"2860","68,0871872848794","207,862735630367","-16,2226551661116","119,814829453866","-23,8742222669541","4,93138473544487"
"2868","8,61705227567909","8,872793525972","-88,8747688877409","82,6212800620344","-23,341947337653","4,9196158251726"
"2868","26,5035966706195","65,6614726924149","-63,9072130082292","-8,90059214570584","1,02941221017655","11,5922029620301"
"2884","76,4416818780649","-157,531486964665","-24,2617725169827","14,9714786799278","-4,48895750206486","11,5052091127811"
"2884","63,1327079480014","-71,5120553107457","-32,3302932992405","-117,03235329288","-0,192060826134831","5,8589380326481"
"2892","24,833133303428","-106,847272412778","-6,96673197851661","-71,3902294263822","-2,52036148634582","5,85541616910925"
"2892","35,0998626290991","-84,8101395801263","-15,97321040252","-16,1738853189408","1,40667344894404","9,19380338103188"
"2904","-26,8879969049446","-38,9998742622902","14,3045336946421","-27,2205027560747","-0,0655212059968859","9,15216176778858"
"2904","-5,64129497590919","-52,9728802752992","3,65304808260365","55,6054860294907","5,805532048994","10,2290965249289"
"2908","-0,241759792262255","-55,7262858795779","0,71610269460153","27,5359320116415","4,08965396079447","10,1834372794697"
"2912","1,13045224783788","-56,2688493347581","-0,0937043620176982","-2,27220225841585","5,03304684421587","3,45995938148746"
"2921","39,8882048994117","-105,055364563512","16,9256961106968","3,19516754524095","4,40007202059759","3,50185567301624"
"2921","27,7379147405079","-87,6688338713341","11,6184733950604","-9,40157629893019","2,54286245548987","-2,03019761129662"
"2929","-5,02960320157364","278,149806516961","-127,786408163016","-4,58482192566232","2,82031866679883","-1,9325037821277"
"2929","3,64301654901161","149,235018078235","-86,2246635265901","94,4809750121199","-3,51554526856705","-6,30127524680705"
"2941","-32,5619906059305","161,694043268153","-14,4153867412545","63,5152829858309","-1,98050087643065","-6,17272300942716"
"2942","-19,7629579188924","143,149116267465","-29,6153389402137","69,6685027170814","16,3371764534825","1,73804772288689"
"2950","89,9874788424723","9,68253315975014","92,0651949995804","63,2234450134502","12,4636333846947","1,74828753511425"
"2950","56,8789297929734","55,38270636725","52,6162972571106","-55,4740881247561","-0,320024594082553","2,87119774100113"
"2958","151,470903786463","-110,497971543054","-41,0258982776416","-18,4694113559199","1,70651799817445","2,86628028064667"
"2958","116,51005552749","-46,1850531756348","-18,8459598460813","-87,7465140798298","-2,33791532972756","8,43110287193096"
"2966","189,680917653104","13,3645753045153","30,3764615964309","-60,2531044341778","-0,911394292335172","8,36244802115284"
"2970","161,276210503008","-0,901064842114369","18,9486118961501","-23,6013794505434","33,4735815804945","28,350657530131"
"2978","98,1899010279376","26,9379853435836","-42,8275452396089","-31,3393475548699","25,8509899290043","28,0634881526401"
"2978","114,157448143964","15,4237195318986","-25,8611503531814","-1,84343110396733","43,8278105396435","34,4920253245913"
"2991","55,3642319543663","-104,036821734171","-0,491761040933188","-12,3896995515679","37,8216578235805","34,1887631952909"
"2994","76,4228052597287","-62,576733153799","-5,49663250667248","-65,7263706002337","69,3149663505043","40,6030395507883"
"2999","-36,9442749782376","154,735045166903","-32,7406651495925","-50,2047525503977","60,5673771117742","40,2871400000984"
"2999","2,24515760020425","81,5567163053047","-25,2526910711944","21,8621700138657","82,9393753905552","46,6902175283833"
"3007","-69,8510723360816","94,1810202927639","-133,541236405202","1,07375857378446","75,6431580441849","46,3643939807744"
"3007","-41,1732633024491","81,6686617721153","-99,3997514871472","23,7771854847596","67,971722996247","52,7586772207842"
"3019","28,9659101148494","-88,4711057970042","4,84890809877439","13,5144288009866","67,9871660305861","52,4250604919704"
"3019","10,7907441000745","-28,9974485967805","-21,4064987873566","-92,1694823299723","51,8836547690721","46,5602411075781"
"3027","-336,017703308074","-114,637263295049","-113,135108083673","-59,8762132189425","55,6186148636545","46,3630496162299"
"3028","-228,153942994629","-77,5127405917785","-89,4275344956448","-69,1885414203144","71,5702612732241","49,5298137864502"
"3039","-190,266774266603","137,141758560011","-103,581847482034","-61,5418025795804","68,7762184517624","49,3360860212569"
"3040","-186,638310458948","64,4398081277199","-95,4846311649727","39,9864384727374","25,8044512021202","53,6197556741881"
"3048","16,8041249205473","118,625792557909","-51,8695225214623","8,643015546752","35,0863682788798","53,4157892794529"
"3048","-47,4939878243197","91,3032368433069","-63,8434825075703","35,6683350648409","-38,6282126894089","44,3243531863609"
"3056","-7,96672950542421","-81,7549063363532","-72,3178819813421","22,4977372683955","-19,3067278205274","44,2678502984975"
"3060","-29,9214611753636","-22,8563202234797","-71,6545371069381","-101,393958029531","-31,1211647210405","44,2177794763981"
"3068","-9,31295988987154","-110,412401926255","13,0175458762919","-63,7018660194235","-23,7175485431607","44,1734085190807"
"3068","-19,0756139646115","-72,6654830331164","-12,6357311718345","-66,4080024463768","-24,0590898596531","43,0202525229612"
"3077","34,3110249221104","178,170624937947","4,43062882831042","-60,091853531467","-22,1919658481519","42,9983672544773"
"3080","15,8784499261565","92,5983246612527","-4,86364568718442","105,750099996007","-31,1312764697603","44,0928093720586"
"3089","70,5534861550516","41,4801348815508","27,0590130322798","53,658999615279","-28,6090979747602","44,0626645182211"
"3089","50,4483382959219","50,4072049701938","15,8610814679667","-29,3964679631256","-32,4607051134655","48,4912954494641"
"3097","-12,2746256701982","-292,196811465742","-76,8885210684438","-10,3849041189888","-30,959165420172","48,4157885132113"
"3101","4,7852603352219","-168,707540225525","-50,4624670258481","-131,385931831166","-19,0983307661919","47,2350409351195"
"3109","-22,3047879624759","131,477318359816","-56,9701347512553","-89,9633570022831","-21,4838959878378","47,188705001464"
"3110","-11,1893232375822","37,6292768703146","-50,7645008527486","62,0352754100467","-17,5791397194008","56,0583321954041"
"3118","-116,608108818075","244,504882351226","-130,094055171694","19,4459145308622","-19,0600018465847","55,91827603382"
"3118","-81,3987346601654","160,270087131741","-104,967677047121","96,0482268627933","-5,13756098282821","63,5910156872375"
"3130","-32,2959027215364","-370,168773377432","33,0048854122285","65,4059258637951","-8,72106229656278","63,3903209391936"
"3130","-42,8171439214703","-189,692691129515","-4,95179408346174","-134,540078324473","-39,1123513701631","63,2124724892194"
"3138","50,5316012947562","-118,070594652729","39,7589767246406","-75,0672027376116","-32,9360235948806","63,0548696049064"
"3138","19,2548048219585","-123,957333580217","20,0871248254524","-70,5219552149437","-54,6974142377139","66,2567157713747"
"3146","93,3619142439416","190,398613863093","-40,5136218660359","-63,3733536812512","-48,1636411717468","66,0940764064285"
"3150","65,1951405027211","77,3430105536042","-25,223129815227","125,393813816718","-50,4545452027064","72,6329675857577"
"3158","91,2084022708078","156,030304243045","-34,8012178205647","66,0960031953302","-48,345816984392","72,4274971991505"
"3159","78,8192881686446","115,535774950516","-29,4421941517313","45,869329884191","-36,248756809307","75,5869249108754"
"3167","430,081329136055","-2,42358569731098","294,473747423115","43,757971730249","-38,5424189489254","75,3866958406681"
"3170","316,349383783691","35,3323131849721","196,787432420577","-68,6025304012589","-37,8238118330343","80,7784403249625"
"3179","303,158874343641","298,790828270181","12,9438077165043","-32,9964615196608","-38,5442391246813","80,5564098958365"
"3179","290,806701378177","208,70579569059","53,2524107269639","28,4202136522142","32,0573651453706","90,384179015759"
"3187","338,297657970261","362,234461927598","-75,2990399238373","13,9404437265729","15,5247827138291","90,0931936846376"
"3187","321,366782480997","297,487557764016","-29,7446673096681","20,7651270845311","63,8651792698254","97,6321853495317"
"3199","-16,3961229656179","-795,236922651318","-25,8052567053186","16,4897508223635","48,6719170395455","97,3129679561376"
"3199","88,7664281078979","-411,560218548197","-19,719038854842","-257,168853102927","128,141460282927","103,713105331838"
"3208","-359,383285514599","-460,359471561937","111,279291141016","-170,323435028151","106,058932354685","103,384676327011"
"3208","-201,273909778458","-400,975450872871","72,3995991553719","-237,489367615195","129,686806269278","108,662814651298"
"3220","-182,04312683514","357,146841789679","142,719900896642","-203,462457154682","118,879184909635","108,34011053907"
"3220","-165,155907658331","92,5361834533277","115,109392034715","290,884604599991","109,841644922846","101,371125468587"
"3228","-398,301881191899","774,194112689533","-368,401910989375","137,80800876579","109,32560747334","101,195462155231"
"3228","-321,552483531256","501,516015994558","-225,720993715126","279,09646791987","73,6839015447086","96,5844514463207"
"3236","-296,810164428204","-111,129636800071","-319,148142159895","211,800605058299","81,8175647990268","96,4983399990285"
"3240","-293,522269819047","78,1474513031487","-267,908908566878","-208,83072974772","-31,0065885236443","88,6251787647524"
"3249","-16,8400641376252","-656,217004262545","130,731313735206","-84,1258861430239","-2,90060712509019","88,6482671337332"
"3249","-104,525372038318","-372,924822011645","17,6488036522","-368,873096174942","-77,3464819546131","97,5794156416825"
"3257","-406,147662142967","-618,193949283317","50,266394487615","-259,829811519099","-53,3095055478189","97,4938774505164"
"3261","-322,800507983788","-499,524665591433","22,2600772902789","-111,710719447564","-58,4565337839798","104,101092910284"
"3269","-57,1979911975569","122,438138596823","-337,212998499205","-143,280455094732","-51,4589751627693","103,956169037675"
"3269","-129,699038228646","-87,0029883081241","-232,330889702817","198,200981901905","-108,341810090727","93,8032182455308"
"3277","663,703017093397","127,744914648965","132,82080888768","84,494654645972","-93,4719669844368","93,8060393026577"
"3277","400,334419783464","28,0613696020825","38,504472759358","178,071359064625","-219,784941910416","52,5966052433187"
"3289","464,343043224476","376,219988722348","122,851742034927","131,718552243243","-186,92676046365","53,0782905231005"
"3290","405,609888567388","240,825261787511","82,1089037598109","165,434719631807","-146,75716564809","30,1145855287091"
"3298","118,328819316525","-123,005827676298","117,43009934802","147,954924830667","-148,129262489765","30,7649780839694"
"3298","201,320582734832","-7,69938880464645","100,169249947281","-29,4446057226467","-19,7869193586108","42,4796930522493"
"3306","332,40119384901","-75,1254619925639","100,582704523303","24,7258504838218","-49,8555790307942","42,8608511009934"
"3310","302,713393265604","-38,4118892378731","97,696706790632","-113,599832176546","49,6019505636483","42,0847835682476"
"3318","193,908520179273","-16,7538288271052","-151,393780185838","-61,5552642977685","19,2957100602248","42,3970605006572"
"3318","224,257370257552","-20,4860696307452","-76,0757634853245","14,4992597256408","31,6694048334411","56,0398217011525"
"3326","244,191135315134","-219,545819304296","108,497302452742","-2,28146948615962","21,4833668490996","56,1295448081254"
"3330","242,257007003383","-148,7708958431","64,3898290448593","-30,9841704549251","72,292874245428","67,347414725413"
"3339","-215,651096525499","663,881492995722","-118,474596568382","-24,2374534036374","58,0602148112942","67,2882866029569"
"3339","-70,0216713158565","381,016086774328","-69,8959979574489","159,186267880091","126,626815173407","79,4880859807999"
"3347","-198,869260368507","615,551621655114","-46,1557559505838","101,53814784513","107,302518408024","79,2991083443218"
"3351","-136,613970241201","500,767264555577","-45,6098339250859","198,797199954802","67,5653994443609","88,0423316039491"
"3359","-92,8588720943746","-59,1297682315","-21,3195410679446","159,374936560241","72,1057501796285","87,7902608330777"
"3359","-97,7391607765041","128,541528949676","-28,6219529400149","-259,45452089552","51,318837768451","83,1115405900707"
"3367","-217,698219307997","-497,962456923443","-128,918784427804","-131,29433595293","57,2317297053985","82,9654273948262"
"3371","-180,184040556931","-253,416177919478","-99,5737358025086","-289,363044907204","36,9788017936702","70,5837505608989"
"3380","-72,8819387326389","303,203499965469","-103,552277122967","-220,307615720614","43,0994393671807","70,6115549531089"
"3380","-101,612695910168","130,886394191186","-97,6492845271634","183,295406732582","-33,4559832110355","60,6116697217945"
"3388","-4,16230604975203","259,196343498828","-33,9479641957081","64,2874430916053","-14,2397222751295","60,7501319603836"
"3388","-39,396730175016","194,480046460056","-52,3835317990042","123,325776690792","-37,3717598841253","45,279127455572"
"3396","175,119654194164","-182,467956513847","97,7174145133154","87,2449907006992","-27,3712343689436","45,5692810468322"
"3400","101,635821867567","-54,7462287012119","49,104907118899","-133,295597250714","-46,0338763442397","35,8018802171167"
"3408","119,624152732412","168,745869178899","-21,1999460496916","-68,0270522042988","-39,2945411034333","36,1463617505331"
"3408","103,195621081911","102,785383242099","-7,58517753648909","13,1165178727192","-36,6726157646691","29,7686125448607"
"3416","193,297250979594","158,299785201461","-77,9747275641649","-3,37818982472901","-35,6525607835147","30,1168811387948"
"3420","162,195248153999","131,238996515818","-54,383312605455","53,6088994496471","-9,48047941566556","29,3116681569755"
"3429","93,1858665078151","-290,574420379421","2,12537252343621","33,0097561279221","-15,2982817871717","29,5981174432108"
"3429","110,648152398357","-142,693501911195","-11,2934279879415","-190,607745778971","6,60259247046383","23,1689421523506"
"3437","-10,6163302545797","-59,4648579640198","60,8744254468967","-122,116748725416","0,123085235016347","23,4716388036801"
"3441","30,5660942554344","-73,064506137984","36,7733439665733","-43,6534449364003","24,9884283641775","17,0568613419926"
"3449","72,4575647152802","412,854628690387","-42,2913683081936","-58,8254662353083","17,6622420086838","17,3723168304432"
"3449","65,1036626084092","237,605855578648","-22,091965006803","272,821367030563","48,64199400168","15,4241900040991"
"3457","-69,4509464771784","125,54600040462","-138,945457123261","164,62979757999","39,6946065868569","15,6978302473284"
"3458","-27,6460111185581","146,464407298344","-100,165594035945","-19,9672819997242","31,3807870178357","9,25730404436685"
"3470","17,895390838285","-303,75653683119","-13,6049479053363","23,3843258801524","31,1463115968856","9,54994192663199"
"3470","9,46906486072401","-140,473371961423","-33,7374894403455","-171,841502119241","19,7784258470324","6,46775890686839"
"3478","9,07350347249698","117,070393539272","84,8587074844914","-103,175819851819","22,3557718862613","6,73643943815241"
"3478","7,97297739366565","42,8198490692011","45,5593622362872","45,2234736902272","33,0241949836566","10,3160425985257"
"3486","-128,484158192453","253,557176077528","-122,185161573766","7,72454603254065","31,1747243525401","10,488157862127"
"3490","-85,1627218169571","170,083339930546","-77,4375364546688","103,086191953362","33,6770952499781","17,3236965242083"
"3498","86,4663409026215","-401,673381473244","-39,2351923329432","67,184446715913","32,6506378070025","17,3811044416445"
"3499","38,0833298257011","-206,339056957209","-43,7016196027352","-90,4082354338165","3,25416170493674","12,9766330544347"
"3507","-115,62754464964","-335,522267192056","-67,3486485725871","-45,2325124425326","9,81751954241363","13,0735493075742"
"3511","-73,6908909332586","-267,978047766986","-60,8688688688495","-145,643387264113","-8,57139393456966","7,59025272958007"
"3519","104,569708882228","39,2122214598998","118,517508752722","-107,017601593322","-2,72556515099917","7,73115299404014"
"3519","53,872004917471","-63,2553914444603","64,9799042922353","98,4404521888511","-2,06220870542525","8,96984978193273"
"3527","-18,371469686021","419,575739219638","-49,789674668243","38,3604927381897","-0,804131163481398","9,06753821604346"
"3527","-2,73108070769123","235,718469413341","-23,4352120034255","224,117113485253","-0,314678529432265","-4,21192645731619"
"3539","104,249715180408","-96,1944408022155","-14,4441992094405","156,058526118903","-0,124257928959987","-3,97970928004264"
"3539","72,4373028493885","2,40153187044374","-12,9650977469255","-25,3859791168263","-4,88303096594385","-16,0261233779679"
"3548","15,4684346182313","-383,833308088162","13,3067706057454","22,7622964271372","-3,73442241054027","-15,7012212364985"
"3548","28,990638986039","-234,941567965785","5,55074063987565","-209,691910571789","20,8767205422795","-25,4378291538245"
"3560","-61,8495910233473","-41,533897952189","-19,0033339589622","-128,433982888137","15,4516380999088","-25,06606005164"
"3560","-30,9352924966644","-94,4225737296048","-12,773654905386","45,8622695020344","26,228635745386","-25,8504477303228"
"3568","-38,7916636198038","621,743754571976","-81,7509655711914","1,90760296601094","22,4214058321725","-25,5455438112724"
"3568","-31,78824419202","359,865599084556","-59,7701523602873","235,421551093271","9,6635468582943","-17,4784965767523"
"3576","-59,6881300114264","-81,1747727806975","-77,8491246966066","154,431424069374","11,7001265035013","-17,3297701625804"
"3580","-49,7784735200228","47,917440127797","-68,834058851046","-61,7322617404017","12,4924538748788","-8,28728574867064"
"3589","-21,072109067004","-202,49578926447","-31,8629463581488","-4,35765668567309","12,8007073060232","-8,27416207402044"
"3589","-28,7768109366695","-98,8401600142038","-41,6688624265514","-196,039819355143","-3,18888663703055","-6,0348602397559"
"3597","-63,9062779067324","404,775490402559","-78,8580368874384","-126,478639227033","0,590392769935422","-6,05047168883615"
"3600","-53,8339125825124","236,013847057451","-69,1122472759934","99,0279808094769","-5,99404555955461","2,84638243561011"
"3609","-11,1192798129821","-37,0330481570049","-33,663920489498","37,0143711743589","-3,55570855460616","2,73045379821527"
"3609","-23,2639873884929","42,1625771211623","-42,8897158705363","17,8487011584685","-23,5494534069823","-0,713786141029515"
"3617","123,793986154285","-461,480874004085","113,199188558421","15,0054626187165","-18,3279811655984","-0,76594739838079"
"3621","75,1665960224982","-272,724708837865","64,2377471856624","-219,850719224826","-35,628000703563","-14,1782034657124"
"3629","192,002657746011","-300,436108075174","164,539307424715","-145,199779824355","-30,3585398393901","-14,0636612341861"
"3630","147,694815526637","-269,896688417827","126,195562663004","-24,9920233848168","-33,1413220867531","-25,1005185729704"
"3638","-27,6766572231571","487,950569161712","-241,30066978555","-52,6150609158606","-31,2239581370338","-24,8809836295764"
"3638","21,7552756724401","220,285714674709","-135,63079445643","223,466468055798","14,6286427622479","-36,9386362659271"
"3650","60,5056423755508","-131,747525119367","-87,5273696518797","131,233332460777","4,46750844415263","-36,6236933120221"
"3650","55,3534751870391","-35,1162990566968","-85,2637614780905","-26,6161395030989","13,4019542688691","-40,7999464349454"
