Timer,AX,AY,AZ,GX,GY,GZ,A
"7","2.70386266094421","-1.19098712446352","0.858726752503575","-0.0411301859799714","0.0135908440629471","0","358.875"
"7","1.70386266094421","0.809012875536481","-1.14127324749643","-0.0411301859799714","0.0135908440629471","0","358.875"
"16","1.70386266094421","0.809012875536481","-1.14127324749643","0.958869814020029","1.01359084406295","0","358.875"
"16","2.70386266094421","0.809012875536481","-0.141273247496425","0.958869814020029","1.01359084406295","0","358.875"
"22","2.70386266094421","0.809012875536481","-0.141273247496425","0.958869814020029","1.01359084406295","0","358.875"
"22","2.70386266094421","0.809012875536481","-1.14127324749643","0.958869814020029","1.01359084406295","0","358.875"
"31","2.70386266094421","0.809012875536481","-1.14127324749643","1.95886981402003","2.01359084406295","0","358.875"
"31","2.70386266094421","-0.190987124463519","3.85872675250357","1.95886981402003","2.01359084406295","0","358.875"
"37","2.70386266094421","-0.190987124463519","3.85872675250357","1.95886981402003","-0.986409155937053","0","358.875"
"37","3.70386266094421","-1.19098712446352","1.85872675250357","1.95886981402003","-0.986409155937053","0","358.875"
"45","3.70386266094421","-1.19098712446352","1.85872675250357","0.958869814020029","0.0135908440629471","0","358.875"
"45","4.70386266094421","2.80901287553648","-0.141273247496425","0.958869814020029","0.0135908440629471","0","358.875"
"52","4.70386266094421","2.80901287553648","-0.141273247496425","-1.04113018597997","-1.98640915593705","0","358.875"
"52","1.70386266094421","-1.19098712446352","-1.14127324749643","-1.04113018597997","-1.98640915593705","0","358.875"
"58","1.70386266094421","-1.19098712446352","-1.14127324749643","-1.04113018597997","-0.986409155937053","0","358.875"
"59","2.70386266094421","0.809012875536481","3.85872675250357","-1.04113018597997","-0.986409155937053","0","358.875"
"65","2.70386266094421","0.809012875536481","3.85872675250357","0.958869814020029","1.01359084406295","0","358.875"
"65","1.70386266094421","1.80901287553648","-0.141273247496425","0.958869814020029","1.01359084406295","0","358.875"
"71","1.70386266094421","1.80901287553648","-0.141273247496425","0.958869814020029","2.01359084406295","0","358.875"
"71","1.70386266094421","0.809012875536481","0.858726752503575","0.958869814020029","2.01359084406295","0","358.875"
"78","1.70386266094421","0.809012875536481","0.858726752503575","-2.04113018597997","4.01359084406295","0","358.875"
"78","4.70386266094421","-0.190987124463519","-0.141273247496425","-2.04113018597997","4.01359084406295","0","358.875"
"84","4.70386266094421","-0.190987124463519","-0.141273247496425","-1.04113018597997","1.01359084406295","0","358.875"
"84","2.70386266094421","-0.190987124463519","-1.14127324749643","-1.04113018597997","1.01359084406295","0","358.875"
"89","2.70386266094421","-0.190987124463519","-1.14127324749643","-0.0411301859799714","1.01359084406295","0","358.875"
"90","0.703862660944206","-2.19098712446352","0.858726752503575","-0.0411301859799714","1.01359084406295","0","358.875"
"95","0.703862660944206","-2.19098712446352","0.858726752503575","0.958869814020029","0.0135908440629471","0","358.875"
"95","3.70386266094421","-0.190987124463519","-1.14127324749643","0.958869814020029","0.0135908440629471","0","358.875"
"101","3.70386266094421","-0.190987124463519","-1.14127324749643","-2.04113018597997","1.01359084406295","0","358.875"
"101","0.703862660944206","0.809012875536481","-2.14127324749643","-2.04113018597997","1.01359084406295","0","358.875"
"107","0.703862660944206","0.809012875536481","-2.14127324749643","0.958869814020029","0.0135908440629471","0","358.875"
"107","2.70386266094421","-1.19098712446352","-1.14127324749643","0.958869814020029","0.0135908440629471","0","358.875"
"113","2.70386266094421","-1.19098712446352","-1.14127324749643","-1.04113018597997","-0.986409155937053","0","358.875"
"114","1.70386266094421","0.809012875536481","-0.141273247496425","-1.04113018597997","-0.986409155937053","0","358.875"
"119","1.70386266094421","0.809012875536481","-0.141273247496425","-0.0411301859799714","2.01359084406295","0","358.875"
"120","2.70386266094421","-0.190987124463519","-1.14127324749643","-0.0411301859799714","2.01359084406295","0","358.875"
"125","2.70386266094421","-0.190987124463519","-1.14127324749643","-2.04113018597997","1.01359084406295","0","358.875"
"125","0.703862660944206","-0.190987124463519","-0.141273247496425","-2.04113018597997","1.01359084406295","0","358.875"
"131","0.703862660944206","-0.190987124463519","-0.141273247496425","-1.04113018597997","-0.986409155937053","0","358.875"
"131","-0.296137339055794","0.809012875536481","-0.141273247496425","-1.04113018597997","-0.986409155937053","0","358.875"
"137","-0.296137339055794","0.809012875536481","-0.141273247496425","0.958869814020029","1.01359084406295","0","358.875"
"137","1.70386266094421","-1.19098712446352","3.85872675250357","0.958869814020029","1.01359084406295","0","358.875"
"143","1.70386266094421","-1.19098712446352","3.85872675250357","1.95886981402003","2.01359084406295","0","358.875"
"143","1.70386266094421","-0.190987124463519","0.858726752503575","1.95886981402003","2.01359084406295","0","358.875"
"149","1.70386266094421","-0.190987124463519","0.858726752503575","-1.04113018597997","-0.986409155937053","0","358.875"
"149","2.70386266094421","-0.190987124463519","-3.14127324749643","-1.04113018597997","-0.986409155937053","0","358.875"
"154","2.70386266094421","-0.190987124463519","-3.14127324749643","-0.0411301859799714","-1.98640915593705","0","358.875"
"155","1.70386266094421","-0.190987124463519","-0.141273247496425","-0.0411301859799714","-1.98640915593705","0","358.875"
"160","1.70386266094421","-0.190987124463519","-0.141273247496425","0.958869814020029","0.0135908440629471","0","358.875"
"160","1.70386266094421","2.80901287553648","-0.141273247496425","0.958869814020029","0.0135908440629471","0","358.875"
"166","1.70386266094421","2.80901287553648","-0.141273247496425","0.958869814020029","-0.986409155937053","0","358.875"
"166","2.70386266094421","-0.190987124463519","-1.14127324749643","0.958869814020029","-0.986409155937053","0","358.875"
"172","2.70386266094421","-0.190987124463519","-1.14127324749643","-0.0411301859799714","-0.986409155937053","0","358.875"
"172","0.703862660944206","-0.190987124463519","-1.14127324749643","-0.0411301859799714","-0.986409155937053","0","358.875"
"179","0.703862660944206","-0.190987124463519","-1.14127324749643","-2.04113018597997","-0.986409155937053","0","358.875"
"179","3.70386266094421","-0.190987124463519","-0.141273247496425","-2.04113018597997","-0.986409155937053","0","358.875"
"186","3.70386266094421","-0.190987124463519","-0.141273247496425","0.958869814020029","-0.986409155937053","0","358.875"
"186","0.703862660944206","-1.19098712446352","-0.141273247496425","0.958869814020029","-0.986409155937053","0","358.875"
"193","0.703862660944206","-1.19098712446352","-0.141273247496425","-2.04113018597997","2.01359084406295","0","358.875"
"193","1.70386266094421","0.809012875536481","-0.141273247496425","-2.04113018597997","2.01359084406295","0","358.875"
"199","1.70386266094421","0.809012875536481","-0.141273247496425","-2.04113018597997","1.01359084406295","0","358.875"
"199","1.70386266094421","0.809012875536481","-0.141273247496425","-2.04113018597997","1.01359084406295","0","358.875"
"205","1.70386266094421","0.809012875536481","-0.141273247496425","0.958869814020029","-2.98640915593705","0","358.875"
"206","1.70386266094421","0.809012875536481","-3.14127324749643","0.958869814020029","-2.98640915593705","0","358.875"
"216","1.70386266094421","0.809012875536481","-3.14127324749643","1.95886981402003","-0.986409155937053","0","358.875"
"216","1.70386266094421","0.809012875536481","-1.14127324749643","1.95886981402003","-0.986409155937053","0","358.875"
"224","1.70386266094421","0.809012875536481","-1.14127324749643","-0.0411301859799714","-1.98640915593705","0","358.875"
"224","1.70386266094421","1.80901287553648","-1.14127324749643","-0.0411301859799714","-1.98640915593705","0","358.875"
"240","1.70386266094421","1.80901287553648","-1.14127324749643","-1.04113018597997","-3.98640915593705","0","358.875"
"240","-0.296137339055794","-0.190987124463519","-1.14127324749643","-1.04113018597997","-3.98640915593705","0","358.875"
"248","-0.296137339055794","-0.190987124463519","-1.14127324749643","-5.04113018597997","1.01359084406295","0","358.875"
"248","2.70386266094421","1.80901287553648","0.858726752503575","-5.04113018597997","1.01359084406295","0","358.875"
"254","2.70386266094421","1.80901287553648","0.858726752503575","-3.04113018597997","-0.986409155937053","0","358.875"
"254","-0.296137339055794","-0.190987124463519","-3.14127324749643","-3.04113018597997","-0.986409155937053","0","358.875"
"260","-0.296137339055794","-0.190987124463519","-3.14127324749643","-4.04113018597997","0.0135908440629471","0","358.875"
"260","2.70386266094421","0.809012875536481","-1.14127324749643","-4.04113018597997","0.0135908440629471","0","358.875"
"266","2.70386266094421","0.809012875536481","-1.14127324749643","0.958869814020029","0.0135908440629471","0","358.875"
"266","1.70386266094421","-1.19098712446352","1.85872675250357","0.958869814020029","0.0135908440629471","0","358.875"
"272","1.70386266094421","-1.19098712446352","1.85872675250357","1.95886981402003","-1.98640915593705","0","358.875"
"272","2.70386266094421","0.809012875536481","0.858726752503575","1.95886981402003","-1.98640915593705","0","358.875"
"278","2.70386266094421","0.809012875536481","0.858726752503575","0.958869814020029","-2.98640915593705","0","358.875"
"278","2.70386266094421","-1.19098712446352","1.85872675250357","0.958869814020029","-2.98640915593705","0","358.875"
"283","2.70386266094421","-1.19098712446352","1.85872675250357","-0.0411301859799714","0.0135908440629471","0","358.875"
"284","2.70386266094421","-0.190987124463519","-0.141273247496425","-0.0411301859799714","0.0135908440629471","0","358.875"
"289","2.70386266094421","-0.190987124463519","-0.141273247496425","-0.0411301859799714","1.01359084406295","0","358.875"
"289","1.70386266094421","0.809012875536481","2.85872675250357","-0.0411301859799714","1.01359084406295","0","358.875"
"295","1.70386266094421","0.809012875536481","2.85872675250357","0.958869814020029","-0.986409155937053","0","358.875"
"295","3.70386266094421","-1.19098712446352","-0.141273247496425","0.958869814020029","-0.986409155937053","0","358.875"
"301","3.70386266094421","-1.19098712446352","-0.141273247496425","-1.04113018597997","0.0135908440629471","0","358.875"
"301","2.70386266094421","-0.190987124463519","-0.141273247496425","-1.04113018597997","0.0135908440629471","0","358.875"
"307","2.70386266094421","-0.190987124463519","-0.141273247496425","-1.04113018597997","-2.98640915593705","0","358.875"
"307","2.70386266094421","1.80901287553648","-1.14127324749643","-1.04113018597997","-2.98640915593705","0","358.875"
"313","2.70386266094421","1.80901287553648","-1.14127324749643","-1.04113018597997","-0.986409155937053","0","358.875"
"313","1.70386266094421","1.80901287553648","-0.141273247496425","-1.04113018597997","-0.986409155937053","0","358.875"
"319","1.70386266094421","1.80901287553648","-0.141273247496425","-0.0411301859799714","0.0135908440629471","0","358.875"
"319","0.703862660944206","-0.190987124463519","-2.14127324749643","-0.0411301859799714","0.0135908440629471","0","358.875"
"325","0.703862660944206","-0.190987124463519","-2.14127324749643","-2.04113018597997","1.01359084406295","0","358.875"
"325","3.70386266094421","-1.19098712446352","-0.141273247496425","-2.04113018597997","1.01359084406295","0","358.875"
"331","3.70386266094421","-1.19098712446352","-0.141273247496425","-1.04113018597997","-0.986409155937053","0","358.875"
"331","4.70386266094421","1.80901287553648","-0.141273247496425","-1.04113018597997","-0.986409155937053","0","358.875"
"337","4.70386266094421","1.80901287553648","-0.141273247496425","-0.0411301859799714","-0.986409155937053","0","358.875"
"337","2.70386266094421","1.80901287553648","1.85872675250357","-0.0411301859799714","-0.986409155937053","0","358.875"
"343","2.70386266094421","1.80901287553648","1.85872675250357","-1.04113018597997","-1.98640915593705","0","358.875"
"343","2.70386266094421","0.809012875536481","-2.14127324749643","-1.04113018597997","-1.98640915593705","0","358.875"
"348","2.70386266094421","0.809012875536481","-2.14127324749643","-2.04113018597997","-0.986409155937053","0","358.875"
"348","0.703862660944206","-2.19098712446352","-2.14127324749643","-2.04113018597997","-0.986409155937053","0","358.875"
"354","0.703862660944206","-2.19098712446352","-2.14127324749643","0.958869814020029","-1.98640915593705","0","358.875"
"354","1.70386266094421","-0.190987124463519","-0.141273247496425","0.958869814020029","-1.98640915593705","0","358.875"
"360","1.70386266094421","-0.190987124463519","-0.141273247496425","-0.0411301859799714","-0.986409155937053","0","358.875"
"360","1.70386266094421","0.809012875536481","-0.141273247496425","-0.0411301859799714","-0.986409155937053","0","358.875"
"366","1.70386266094421","0.809012875536481","-0.141273247496425","0.958869814020029","0.0135908440629471","0","358.875"
"366","0.703862660944206","-0.190987124463519","0.858726752503575","0.958869814020029","0.0135908440629471","0","358.875"
"372","0.703862660944206","-0.190987124463519","0.858726752503575","-0.0411301859799714","-1.98640915593705","0","358.875"
"372","2.70386266094421","0.809012875536481","-2.14127324749643","-0.0411301859799714","-1.98640915593705","0","358.875"
"378","2.70386266094421","0.809012875536481","-2.14127324749643","-0.0411301859799714","-1.98640915593705","0","358.875"
"378","2.70386266094421","-1.19098712446352","-0.141273247496425","-0.0411301859799714","-1.98640915593705","0","358.875"
"383","2.70386266094421","-1.19098712446352","-0.141273247496425","-5.04113018597997","-0.986409155937053","0","358.875"
"384","0.703862660944206","-3.19098712446352","-0.141273247496425","-5.04113018597997","-0.986409155937053","0","358.875"
"389","0.703862660944206","-3.19098712446352","-0.141273247496425","-2.04113018597997","-1.98640915593705","0","358.875"
"389","2.70386266094421","0.809012875536481","1.85872675250357","-2.04113018597997","-1.98640915593705","0","358.875"
"395","2.70386266094421","0.809012875536481","1.85872675250357","-1.04113018597997","0.0135908440629471","0","358.875"
"395","0.703862660944206","-2.19098712446352","0.858726752503575","-1.04113018597997","0.0135908440629471","0","358.875"
"402","0.703862660944206","-2.19098712446352","0.858726752503575","-0.0411301859799714","-2.98640915593705","0","358.875"
"402","2.70386266094421","-1.19098712446352","-2.14127324749643","-0.0411301859799714","-2.98640915593705","0","358.875"
"408","2.70386266094421","-1.19098712446352","-2.14127324749643","1.95886981402003","-2.98640915593705","0","358.875"
"408","1.70386266094421","-0.190987124463519","-1.14127324749643","1.95886981402003","-2.98640915593705","0","358.875"
"414","1.70386266094421","-0.190987124463519","-1.14127324749643","-3.04113018597997","-2.98640915593705","0","358.875"
"414","1.70386266094421","-0.190987124463519","0.858726752503575","-3.04113018597997","-2.98640915593705","0","358.875"
"421","1.70386266094421","-0.190987124463519","0.858726752503575","0.958869814020029","-3.98640915593705","0","358.875"
"421","1.70386266094421","-0.190987124463519","-0.141273247496425","0.958869814020029","-3.98640915593705","0","358.875"
"429","1.70386266094421","-0.190987124463519","-0.141273247496425","-1.04113018597997","-0.986409155937053","0","358.875"
"429","2.70386266094421","1.80901287553648","0.858726752503575","-1.04113018597997","-0.986409155937053","0","358.875"
"437","2.70386266094421","1.80901287553648","0.858726752503575","-2.04113018597997","-0.986409155937053","0","358.875"
"437","3.70386266094421","-0.190987124463519","-1.14127324749643","-2.04113018597997","-0.986409155937053","0","358.875"
"444","3.70386266094421","-0.190987124463519","-1.14127324749643","1.95886981402003","1.01359084406295","0","358.875"
"444","3.70386266094421","0.809012875536481","0.858726752503575","1.95886981402003","1.01359084406295","0","358.875"
"450","3.70386266094421","0.809012875536481","0.858726752503575","0.958869814020029","-1.98640915593705","0","358.875"
"450","1.70386266094421","-3.19098712446352","-1.14127324749643","0.958869814020029","-1.98640915593705","0","358.875"
"456","1.70386266094421","-3.19098712446352","-1.14127324749643","0.958869814020029","-4.98640915593705","0","358.875"
"456","4.70386266094421","1.80901287553648","0.858726752503575","0.958869814020029","-4.98640915593705","0","358.875"
"463","4.70386266094421","1.80901287553648","0.858726752503575","-1.04113018597997","-2.98640915593705","0","358.875"
"463","2.70386266094421","-1.19098712446352","3.85872675250357","-1.04113018597997","-2.98640915593705","0","358.875"
"469","2.70386266094421","-1.19098712446352","3.85872675250357","0.958869814020029","0.0135908440629471","0","358.875"
"469","1.70386266094421","-1.19098712446352","-2.14127324749643","0.958869814020029","0.0135908440629471","0","358.875"
"474","1.70386266094421","-1.19098712446352","-2.14127324749643","1.95886981402003","-1.98640915593705","0","358.875"
"474","1.70386266094421","0.809012875536481","-1.14127324749643","1.95886981402003","-1.98640915593705","0","358.875"
"481","1.70386266094421","0.809012875536481","-1.14127324749643","2.95886981402003","0.0135908440629471","0","358.875"
"481","0.703862660944206","0.809012875536481","-1.14127324749643","2.95886981402003","0.0135908440629471","0","358.875"
"487","0.703862660944206","0.809012875536481","-1.14127324749643","-0.0411301859799714","2.01359084406295","0","358.875"
"487","1.70386266094421","-1.19098712446352","0.858726752503575","-0.0411301859799714","2.01359084406295","0","358.875"
"493","1.70386266094421","-1.19098712446352","0.858726752503575","-1.04113018597997","3.01359084406295","0","358.875"
"493","2.70386266094421","-0.190987124463519","1.85872675250357","-1.04113018597997","3.01359084406295","0","358.875"
"499","2.70386266094421","-0.190987124463519","1.85872675250357","4.95886981402003","3.01359084406295","0","358.875"
"499","2.70386266094421","0.809012875536481","0.858726752503575","4.95886981402003","3.01359084406295","0","358.875"
"505","2.70386266094421","0.809012875536481","0.858726752503575","2.95886981402003","4.01359084406295","0","358.875"
"505","1.70386266094421","0.809012875536481","1.85872675250357","2.95886981402003","4.01359084406295","0","358.875"
"512","1.70386266094421","0.809012875536481","1.85872675250357","1.95886981402003","-0.986409155937053","0","358.875"
"512","2.70386266094421","0.809012875536481","-0.141273247496425","1.95886981402003","-0.986409155937053","0","358.875"
"518","2.70386266094421","0.809012875536481","-0.141273247496425","2.95886981402003","0.0135908440629471","0","358.875"
"518","3.70386266094421","-0.190987124463519","0.858726752503575","2.95886981402003","0.0135908440629471","0","358.875"
"524","3.70386266094421","-0.190987124463519","0.858726752503575","0.958869814020029","1.01359084406295","0","358.875"
"524","0.703862660944206","-0.190987124463519","0.858726752503575","0.958869814020029","1.01359084406295","0","358.875"
"530","0.703862660944206","-0.190987124463519","0.858726752503575","-1.04113018597997","0.0135908440629471","0","358.875"
"531","0.703862660944206","1.80901287553648","-0.141273247496425","-1.04113018597997","0.0135908440629471","0","358.875"
"537","0.703862660944206","1.80901287553648","-0.141273247496425","2.95886981402003","-0.986409155937053","0","358.875"
"537","1.70386266094421","1.80901287553648","-0.141273247496425","2.95886981402003","-0.986409155937053","0","358.875"
"543","1.70386266094421","1.80901287553648","-0.141273247496425","0.958869814020029","3.01359084406295","0","358.875"
"543","2.70386266094421","0.809012875536481","1.85872675250357","0.958869814020029","3.01359084406295","0","358.875"
"549","2.70386266094421","0.809012875536481","1.85872675250357","0.958869814020029","-1.98640915593705","0","358.875"
"549","2.70386266094421","-0.190987124463519","1.85872675250357","0.958869814020029","-1.98640915593705","0","358.875"
"555","2.70386266094421","-0.190987124463519","1.85872675250357","-1.04113018597997","4.01359084406295","0","358.875"
"555","-0.296137339055794","-0.190987124463519","-1.14127324749643","-1.04113018597997","4.01359084406295","0","358.875"
"562","-0.296137339055794","-0.190987124463519","-1.14127324749643","-0.0411301859799714","2.01359084406295","0","358.875"
"562","1.70386266094421","-2.19098712446352","-0.141273247496425","-0.0411301859799714","2.01359084406295","0","358.875"
"568","1.70386266094421","-2.19098712446352","-0.141273247496425","0.958869814020029","-1.98640915593705","0","358.875"
"568","1.70386266094421","-0.190987124463519","-2.14127324749643","0.958869814020029","-1.98640915593705","0","358.875"
"574","1.70386266094421","-0.190987124463519","-2.14127324749643","0.958869814020029","0.0135908440629471","0","358.875"
"574","-0.296137339055794","1.80901287553648","-2.14127324749643","0.958869814020029","0.0135908440629471","0","358.875"
"580","-0.296137339055794","1.80901287553648","-2.14127324749643","4.95886981402003","1.01359084406295","0","358.875"
"581","1.70386266094421","0.809012875536481","-0.141273247496425","4.95886981402003","1.01359084406295","0","358.875"
"587","1.70386266094421","0.809012875536481","-0.141273247496425","2.95886981402003","5.01359084406295","0","358.875"
"587","0.703862660944206","-2.19098712446352","-1.14127324749643","2.95886981402003","5.01359084406295","0","358.875"
"593","0.703862660944206","-2.19098712446352","-1.14127324749643","3.95886981402003","1.01359084406295","0","358.875"
"594","2.70386266094421","-2.19098712446352","-3.14127324749643","3.95886981402003","1.01359084406295","0","358.875"
"600","2.70386266094421","-2.19098712446352","-3.14127324749643","0.958869814020029","0.0135908440629471","0","358.875"
"600","2.70386266094421","-0.190987124463519","-1.14127324749643","0.958869814020029","0.0135908440629471","0","358.875"
"606","2.70386266094421","-0.190987124463519","-1.14127324749643","1.95886981402003","-1.98640915593705","0","358.875"
"606","0.703862660944206","0.809012875536481","-2.14127324749643","1.95886981402003","-1.98640915593705","0","358.875"
"612","0.703862660944206","0.809012875536481","-2.14127324749643","1.95886981402003","1.01359084406295","0","358.875"
"612","3.70386266094421","-1.19098712446352","2.85872675250357","1.95886981402003","1.01359084406295","0","358.875"
"619","3.70386266094421","-1.19098712446352","2.85872675250357","-1.04113018597997","3.01359084406295","0","358.875"
"619","0.703862660944206","-0.190987124463519","3.85872675250357","-1.04113018597997","3.01359084406295","0","358.875"
"626","0.703862660944206","-0.190987124463519","3.85872675250357","-0.0411301859799714","1.01359084406295","0","358.875"
"627","2.70386266094421","-0.190987124463519","-2.14127324749643","-0.0411301859799714","1.01359084406295","0","358.875"
"634","2.70386266094421","-0.190987124463519","-2.14127324749643","-0.0411301859799714","-0.986409155937053","0","358.875"
"634","2.70386266094421","-1.19098712446352","-1.14127324749643","-0.0411301859799714","-0.986409155937053","0","358.875"
"641","2.70386266094421","-1.19098712446352","-1.14127324749643","0.958869814020029","0.0135908440629471","0","358.875"
"641","2.70386266094421","1.80901287553648","-0.141273247496425","0.958869814020029","0.0135908440629471","0","358.875"
"648","2.70386266094421","1.80901287553648","-0.141273247496425","2.95886981402003","0.0135908440629471","0","358.875"
"648","3.70386266094421","-0.190987124463519","-0.141273247496425","2.95886981402003","0.0135908440629471","0","358.875"
"654","3.70386266094421","-0.190987124463519","-0.141273247496425","1.95886981402003","0.0135908440629471","0","358.875"
"655","3.70386266094421","-0.190987124463519","0.858726752503575","1.95886981402003","0.0135908440629471","0","358.875"
"661","3.70386266094421","-0.190987124463519","0.858726752503575","-1.04113018597997","-0.986409155937053","0","358.875"
"661","1.70386266094421","0.809012875536481","-0.141273247496425","-1.04113018597997","-0.986409155937053","0","358.875"
"667","1.70386266094421","0.809012875536481","-0.141273247496425","0.958869814020029","0.0135908440629471","0","358.875"
"667","2.70386266094421","-0.190987124463519","1.85872675250357","0.958869814020029","0.0135908440629471","0","358.875"
"673","2.70386266094421","-0.190987124463519","1.85872675250357","2.95886981402003","0.0135908440629471","0","358.875"
"673","1.70386266094421","-1.19098712446352","-1.14127324749643","2.95886981402003","0.0135908440629471","0","358.875"
"680","1.70386266094421","-1.19098712446352","-1.14127324749643","-1.04113018597997","2.01359084406295","0","358.875"
"680","1.70386266094421","-0.190987124463519","1.85872675250357","-1.04113018597997","2.01359084406295","0","358.875"
"686","1.70386266094421","-0.190987124463519","1.85872675250357","1.95886981402003","-0.986409155937053","0","358.875"
"686","2.70386266094421","0.809012875536481","0.858726752503575","1.95886981402003","-0.986409155937053","0","358.875"
"693","2.70386266094421","0.809012875536481","0.858726752503575","-0.0411301859799714","1.01359084406295","0","358.875"
"693","3.70386266094421","0.809012875536481","-1.14127324749643","-0.0411301859799714","1.01359084406295","0","358.875"
"699","3.70386266094421","0.809012875536481","-1.14127324749643","0.958869814020029","1.01359084406295","0","358.875"
"699","2.70386266094421","-2.19098712446352","1.85872675250357","0.958869814020029","1.01359084406295","0","358.875"
"706","2.70386266094421","-2.19098712446352","1.85872675250357","-0.0411301859799714","3.01359084406295","0","358.875"
"706","3.70386266094421","-1.19098712446352","0.858726752503575","-0.0411301859799714","3.01359084406295","0","358.875"
"713","3.70386266094421","-1.19098712446352","0.858726752503575","-0.0411301859799714","2.01359084406295","0","358.875"
"713","3.70386266094421","1.80901287553648","-1.14127324749643","-0.0411301859799714","2.01359084406295","0","358.875"
"720","3.70386266094421","1.80901287553648","-1.14127324749643","-0.0411301859799714","1.01359084406295","0","358.875"
"720","3.70386266094421","-0.190987124463519","0.858726752503575","-0.0411301859799714","1.01359084406295","0","358.875"
"727","3.70386266094421","-0.190987124463519","0.858726752503575","1.95886981402003","-1.98640915593705","0","358.875"
"728","4.70386266094421","-1.19098712446352","-1.14127324749643","1.95886981402003","-1.98640915593705","0","358.875"
"734","4.70386266094421","-1.19098712446352","-1.14127324749643","2.95886981402003","2.01359084406295","0","358.875"
"734","2.70386266094421","-0.190987124463519","-1.14127324749643","2.95886981402003","2.01359084406295","0","358.875"
"740","2.70386266094421","-0.190987124463519","-1.14127324749643","-2.04113018597997","4.01359084406295","0","358.875"
"740","2.70386266094421","-1.19098712446352","3.85872675250357","-2.04113018597997","4.01359084406295","0","358.875"
"747","2.70386266094421","-1.19098712446352","3.85872675250357","1.95886981402003","2.01359084406295","0","358.875"
"747","1.70386266094421","-0.190987124463519","-0.141273247496425","1.95886981402003","2.01359084406295","0","358.875"
"753","1.70386266094421","-0.190987124463519","-0.141273247496425","-0.0411301859799714","-0.986409155937053","0","358.875"
"753","1.70386266094421","-1.19098712446352","0.858726752503575","-0.0411301859799714","-0.986409155937053","0","358.875"
"759","1.70386266094421","-1.19098712446352","0.858726752503575","-0.0411301859799714","1.01359084406295","0","358.875"
"759","1.70386266094421","0.809012875536481","-3.14127324749643","-0.0411301859799714","1.01359084406295","0","358.875"
"766","1.70386266094421","0.809012875536481","-3.14127324749643","1.95886981402003","0.0135908440629471","0","358.875"
"766","3.70386266094421","-1.19098712446352","-0.141273247496425","1.95886981402003","0.0135908440629471","0","358.875"
"773","3.70386266094421","-1.19098712446352","-0.141273247496425","4.95886981402003","0.0135908440629471","0","358.875"
"773","4.70386266094421","-1.19098712446352","-0.141273247496425","4.95886981402003","0.0135908440629471","0","358.875"
"780","4.70386266094421","-1.19098712446352","-0.141273247496425","-1.04113018597997","2.01359084406295","0","358.875"
"780","3.70386266094421","-0.190987124463519","-1.14127324749643","-1.04113018597997","2.01359084406295","0","358.875"
"786","3.70386266094421","-0.190987124463519","-1.14127324749643","0.958869814020029","2.01359084406295","0","358.875"
"786","2.70386266094421","0.809012875536481","-0.141273247496425","0.958869814020029","2.01359084406295","0","358.875"
"793","2.70386266094421","0.809012875536481","-0.141273247496425","0.958869814020029","-2.98640915593705","0","358.875"
"793","2.70386266094421","0.809012875536481","-0.141273247496425","0.958869814020029","-2.98640915593705","0","358.875"
"800","2.70386266094421","0.809012875536481","-0.141273247496425","-2.04113018597997","2.01359084406295","0","358.875"
"800","3.70386266094421","-1.19098712446352","-1.14127324749643","-2.04113018597997","2.01359084406295","0","358.875"
"807","3.70386266094421","-1.19098712446352","-1.14127324749643","-3.04113018597997","1.01359084406295","0","358.875"
"807","0.703862660944206","0.809012875536481","0.858726752503575","-3.04113018597997","1.01359084406295","0","358.875"
"814","0.703862660944206","0.809012875536481","0.858726752503575","-2.04113018597997","-0.986409155937053","0","358.875"
"814","3.70386266094421","1.80901287553648","0.858726752503575","-2.04113018597997","-0.986409155937053","0","358.875"
"821","3.70386266094421","1.80901287553648","0.858726752503575","-1.04113018597997","2.01359084406295","0","358.875"
"821","0.703862660944206","1.80901287553648","0.858726752503575","-1.04113018597997","2.01359084406295","0","358.875"
"829","0.703862660944206","1.80901287553648","0.858726752503575","-1.04113018597997","5.01359084406295","0","358.875"
"829","2.70386266094421","-0.190987124463519","-2.14127324749643","-1.04113018597997","5.01359084406295","0","358.875"
"838","2.70386266094421","-0.190987124463519","-2.14127324749643","1.95886981402003","1.01359084406295","0","358.875"
"838","1.70386266094421","-0.190987124463519","0.858726752503575","1.95886981402003","1.01359084406295","0","358.875"
"847","1.70386266094421","-0.190987124463519","0.858726752503575","0.958869814020029","2.01359084406295","0","358.875"
"847","2.70386266094421","1.80901287553648","1.85872675250357","0.958869814020029","2.01359084406295","0","358.875"
"855","2.70386266094421","1.80901287553648","1.85872675250357","0.958869814020029","-1.98640915593705","0","358.875"
"855","1.70386266094421","0.809012875536481","0.858726752503575","0.958869814020029","-1.98640915593705","0","358.875"
"864","1.70386266094421","0.809012875536481","0.858726752503575","-2.04113018597997","0.0135908440629471","0","358.875"
"864","3.70386266094421","-2.19098712446352","-0.141273247496425","-2.04113018597997","0.0135908440629471","0","358.875"
"871","3.70386266094421","-2.19098712446352","-0.141273247496425","-4.04113018597997","2.01359084406295","0","358.875"
"871","1.70386266094421","-0.190987124463519","-2.14127324749643","-4.04113018597997","2.01359084406295","0","358.875"
"877","1.70386266094421","-0.190987124463519","-2.14127324749643","-4.04113018597997","0.0135908440629471","0","358.875"
"877","-0.296137339055794","-0.190987124463519","-2.14127324749643","-4.04113018597997","0.0135908440629471","0","358.875"
"884","-0.296137339055794","-0.190987124463519","-2.14127324749643","-2.04113018597997","2.01359084406295","0","358.875"
"884","3.70386266094421","-1.19098712446352","-0.141273247496425","-2.04113018597997","2.01359084406295","0","358.875"
"890","3.70386266094421","-1.19098712446352","-0.141273247496425","-2.04113018597997","1.01359084406295","0","358.875"
"890","2.70386266094421","-0.190987124463519","0.858726752503575","-2.04113018597997","1.01359084406295","0","358.875"
"896","2.70386266094421","-0.190987124463519","0.858726752503575","-1.04113018597997","-0.986409155937053","0","358.875"
"896","2.70386266094421","-0.190987124463519","0.858726752503575","-1.04113018597997","-0.986409155937053","0","358.875"
"902","2.70386266094421","-0.190987124463519","0.858726752503575","-1.04113018597997","3.01359084406295","0","358.875"
"902","2.70386266094421","-0.190987124463519","-0.141273247496425","-1.04113018597997","3.01359084406295","0","358.875"
"907","2.70386266094421","-0.190987124463519","-0.141273247496425","1.95886981402003","2.01359084406295","0","358.875"
"907","1.70386266094421","-0.190987124463519","1.85872675250357","1.95886981402003","2.01359084406295","0","358.875"
"913","1.70386266094421","-0.190987124463519","1.85872675250357","-0.0411301859799714","-1.98640915593705","0","358.875"
"913","2.70386266094421","1.80901287553648","1.85872675250357","-0.0411301859799714","-1.98640915593705","0","358.875"
"919","2.70386266094421","1.80901287553648","1.85872675250357","-0.0411301859799714","-0.986409155937053","0","358.875"
"919","0.703862660944206","0.809012875536481","-0.141273247496425","-0.0411301859799714","-0.986409155937053","0","358.875"
"924","0.703862660944206","0.809012875536481","-0.141273247496425","1.95886981402003","1.01359084406295","0","358.875"
"925","0.703862660944206","0.809012875536481","-1.14127324749643","1.95886981402003","1.01359084406295","0","358.875"
"930","0.703862660944206","0.809012875536481","-1.14127324749643","1.95886981402003","3.01359084406295","0","358.875"
"930","2.70386266094421","0.809012875536481","-3.14127324749643","1.95886981402003","3.01359084406295","0","358.875"
"936","2.70386266094421","0.809012875536481","-3.14127324749643","-0.0411301859799714","0.0135908440629471","0","358.875"
"936","0.703862660944206","-1.19098712446352","-0.141273247496425","-0.0411301859799714","0.0135908440629471","0","358.875"
"942","0.703862660944206","-1.19098712446352","-0.141273247496425","1.95886981402003","-2.98640915593705","0","358.875"
"942","2.70386266094421","-1.19098712446352","1.85872675250357","1.95886981402003","-2.98640915593705","0","358.875"
"948","2.70386266094421","-1.19098712446352","1.85872675250357","-2.04113018597997","1.01359084406295","0","358.875"
"948","1.70386266094421","0.809012875536481","-0.141273247496425","-2.04113018597997","1.01359084406295","0","358.875"
"954","1.70386266094421","0.809012875536481","-0.141273247496425","-1.04113018597997","0.0135908440629471","0","358.875"
"954","0.703862660944206","0.809012875536481","0.858726752503575","-1.04113018597997","0.0135908440629471","0","358.875"
"960","0.703862660944206","0.809012875536481","0.858726752503575","-0.0411301859799714","0.0135908440629471","0","358.875"
"960","1.70386266094421","-0.190987124463519","0.858726752503575","-0.0411301859799714","0.0135908440629471","0","358.875"
"966","1.70386266094421","-0.190987124463519","0.858726752503575","1.95886981402003","-0.986409155937053","0","358.875"
"966","0.703862660944206","-1.19098712446352","-3.14127324749643","1.95886981402003","-0.986409155937053","0","358.875"
"972","0.703862660944206","-1.19098712446352","-3.14127324749643","-0.0411301859799714","0.0135908440629471","0","358.875"
"972","1.70386266094421","-1.19098712446352","-1.14127324749643","-0.0411301859799714","0.0135908440629471","0","358.875"
"979","1.70386266094421","-1.19098712446352","-1.14127324749643","-0.0411301859799714","1.01359084406295","0","358.875"
"979","2.70386266094421","-0.190987124463519","3.85872675250357","-0.0411301859799714","1.01359084406295","0","358.875"
"985","2.70386266094421","-0.190987124463519","3.85872675250357","-4.04113018597997","3.01359084406295","0","358.875"
"985","2.70386266094421","-2.19098712446352","0.858726752503575","-4.04113018597997","3.01359084406295","0","358.875"
"991","2.70386266094421","-2.19098712446352","0.858726752503575","1.95886981402003","2.01359084406295","0","358.875"
"991","4.70386266094421","-1.19098712446352","-2.14127324749643","1.95886981402003","2.01359084406295","0","358.875"
"997","4.70386266094421","-1.19098712446352","-2.14127324749643","2.95886981402003","-0.986409155937053","0","358.875"
"997","1.70386266094421","-0.190987124463519","-0.141273247496425","2.95886981402003","-0.986409155937053","0","358.875"
"1003","1.70386266094421","-0.190987124463519","-0.141273247496425","0.958869814020029","1.01359084406295","0","358.875"
"1004","0.703862660944206","0.809012875536481","0.858726752503575","0.958869814020029","1.01359084406295","0","358.875"
"1010","0.703862660944206","0.809012875536481","0.858726752503575","0.958869814020029","1.01359084406295","0","358.875"
"1010","0.703862660944206","-0.190987124463519","-2.14127324749643","0.958869814020029","1.01359084406295","0","358.875"
"1016","0.703862660944206","-0.190987124463519","-2.14127324749643","-1.04113018597997","1.01359084406295","0","358.875"
"1016","3.70386266094421","0.809012875536481","1.85872675250357","-1.04113018597997","1.01359084406295","0","358.875"
"1022","3.70386266094421","0.809012875536481","1.85872675250357","-1.04113018597997","1.01359084406295","0","358.875"
"1022","1.70386266094421","-0.190987124463519","-0.141273247496425","-1.04113018597997","1.01359084406295","0","358.875"
"1029","1.70386266094421","-0.190987124463519","-0.141273247496425","0.958869814020029","1.01359084406295","0","358.875"
"1029","1.70386266094421","-0.190987124463519","-4.14127324749643","0.958869814020029","1.01359084406295","0","358.875"
"1038","1.70386266094421","-0.190987124463519","-4.14127324749643","0.958869814020029","-0.986409155937053","0","358.875"
"1038","3.70386266094421","-1.19098712446352","-2.14127324749643","0.958869814020029","-0.986409155937053","0","358.875"
"1045","3.70386266094421","-1.19098712446352","-2.14127324749643","5.95886981402003","-0.986409155937053","0","358.875"
"1045","1.70386266094421","-2.19098712446352","-0.141273247496425","5.95886981402003","-0.986409155937053","0","358.875"
"1055","1.70386266094421","-2.19098712446352","-0.141273247496425","1.95886981402003","0.0135908440629471","0","358.875"
"1055","1.70386266094421","2.80901287553648","-2.14127324749643","1.95886981402003","0.0135908440629471","0","358.875"
"1064","1.70386266094421","2.80901287553648","-2.14127324749643","-1.04113018597997","3.01359084406295","0","358.875"
"1064","2.70386266094421","-1.19098712446352","-4.14127324749643","-1.04113018597997","3.01359084406295","0","358.875"
"1072","2.70386266094421","-1.19098712446352","-4.14127324749643","-0.0411301859799714","1.01359084406295","0","358.875"
"1072","3.70386266094421","-3.19098712446352","0.858726752503575","-0.0411301859799714","1.01359084406295","0","358.875"
"1078","3.70386266094421","-3.19098712446352","0.858726752503575","-4.04113018597997","2.01359084406295","0","358.875"
"1079","2.70386266094421","-0.190987124463519","0.858726752503575","-4.04113018597997","2.01359084406295","0","358.875"
"1084","2.70386266094421","-0.190987124463519","0.858726752503575","-0.0411301859799714","-0.986409155937053","0","358.875"
"1085","2.70386266094421","-1.19098712446352","4.85872675250357","-0.0411301859799714","-0.986409155937053","0","358.875"
"1090","2.70386266094421","-1.19098712446352","4.85872675250357","1.95886981402003","0.0135908440629471","0","358.875"
"1090","1.70386266094421","-0.190987124463519","1.85872675250357","1.95886981402003","0.0135908440629471","0","358.875"
"1096","1.70386266094421","-0.190987124463519","1.85872675250357","-0.0411301859799714","-0.986409155937053","0","358.875"
"1096","5.70386266094421","2.80901287553648","-1.14127324749643","-0.0411301859799714","-0.986409155937053","0","358.875"
"1102","5.70386266094421","2.80901287553648","-1.14127324749643","2.95886981402003","-2.98640915593705","0","358.875"
"1102","2.70386266094421","-1.19098712446352","-1.14127324749643","2.95886981402003","-2.98640915593705","0","358.875"
"1108","2.70386266094421","-1.19098712446352","-1.14127324749643","0.958869814020029","0.0135908440629471","0","358.875"
"1108","4.70386266094421","3.80901287553648","0.858726752503575","0.958869814020029","0.0135908440629471","0","358.875"
"1114","4.70386266094421","3.80901287553648","0.858726752503575","-2.04113018597997","4.01359084406295","0","358.875"
"1114","2.70386266094421","3.80901287553648","0.858726752503575","-2.04113018597997","4.01359084406295","0","358.875"
"1120","2.70386266094421","3.80901287553648","0.858726752503575","-2.04113018597997","1.01359084406295","0","358.875"
"1120","1.70386266094421","-3.19098712446352","1.85872675250357","-2.04113018597997","1.01359084406295","0","358.875"
"1126","1.70386266094421","-3.19098712446352","1.85872675250357","0.958869814020029","1.01359084406295","0","358.875"
"1126","4.70386266094421","2.80901287553648","-2.14127324749643","0.958869814020029","1.01359084406295","0","358.875"
"1132","4.70386266094421","2.80901287553648","-2.14127324749643","0.958869814020029","-0.986409155937053","0","358.875"
"1132","2.70386266094421","-2.19098712446352","0.858726752503575","0.958869814020029","-0.986409155937053","0","358.875"
"1137","2.70386266094421","-2.19098712446352","0.858726752503575","0.958869814020029","0.0135908440629471","0","358.875"
"1137","1.70386266094421","-2.19098712446352","-0.141273247496425","0.958869814020029","0.0135908440629471","0","358.875"
"1143","1.70386266094421","-2.19098712446352","-0.141273247496425","3.95886981402003","-1.98640915593705","0","358.875"
"1143","0.703862660944206","2.80901287553648","-1.14127324749643","3.95886981402003","-1.98640915593705","0","358.875"
"1149","0.703862660944206","2.80901287553648","-1.14127324749643","0.958869814020029","-1.98640915593705","0","358.875"
"1149","3.70386266094421","-1.19098712446352","0.858726752503575","0.958869814020029","-1.98640915593705","0","358.875"
"1155","3.70386266094421","-1.19098712446352","0.858726752503575","1.95886981402003","-0.986409155937053","0","358.875"
"1155","1.70386266094421","-1.19098712446352","1.85872675250357","1.95886981402003","-0.986409155937053","0","358.875"
"1160","1.70386266094421","-1.19098712446352","1.85872675250357","0.958869814020029","-0.986409155937053","0","358.875"
"1161","0.703862660944206","-0.190987124463519","-0.141273247496425","0.958869814020029","-0.986409155937053","0","358.875"
"1167","0.703862660944206","-0.190987124463519","-0.141273247496425","-0.0411301859799714","1.01359084406295","0","358.875"
"1167","0.703862660944206","-0.190987124463519","2.85872675250357","-0.0411301859799714","1.01359084406295","0","358.875"
"1173","0.703862660944206","-0.190987124463519","2.85872675250357","2.95886981402003","-1.98640915593705","0","358.875"
"1173","1.70386266094421","-0.190987124463519","-2.14127324749643","2.95886981402003","-1.98640915593705","0","358.875"
"1179","1.70386266094421","-0.190987124463519","-2.14127324749643","0.958869814020029","-1.98640915593705","0","358.875"
"1179","-0.296137339055794","-1.19098712446352","-0.141273247496425","0.958869814020029","-1.98640915593705","0","358.875"
"1186","-0.296137339055794","-1.19098712446352","-0.141273247496425","0.958869814020029","0.0135908440629471","0","358.875"
"1186","2.70386266094421","-1.19098712446352","-1.14127324749643","0.958869814020029","0.0135908440629471","0","358.875"
"1192","2.70386266094421","-1.19098712446352","-1.14127324749643","3.95886981402003","-1.98640915593705","0","358.875"
"1192","1.70386266094421","0.809012875536481","-1.14127324749643","3.95886981402003","-1.98640915593705","0","358.875"
"1198","1.70386266094421","0.809012875536481","-1.14127324749643","0.958869814020029","0.0135908440629471","0","358.875"
"1198","-0.296137339055794","1.80901287553648","-1.14127324749643","0.958869814020029","0.0135908440629471","0","358.875"
"1204","-0.296137339055794","1.80901287553648","-1.14127324749643","-1.04113018597997","0.0135908440629471","0","358.875"
"1204","3.70386266094421","-1.19098712446352","2.85872675250357","-1.04113018597997","0.0135908440629471","0","358.875"
"1211","3.70386266094421","-1.19098712446352","2.85872675250357","-3.04113018597997","-0.986409155937053","0","358.875"
"1211","0.703862660944206","-1.19098712446352","1.85872675250357","-3.04113018597997","-0.986409155937053","0","358.875"
"1217","0.703862660944206","-1.19098712446352","1.85872675250357","-2.04113018597997","-0.986409155937053","0","358.875"
"1217","1.70386266094421","1.80901287553648","-2.14127324749643","-2.04113018597997","-0.986409155937053","0","358.875"
"1223","1.70386266094421","1.80901287553648","-2.14127324749643","-1.04113018597997","-2.98640915593705","0","358.875"
"1223","0.703862660944206","0.809012875536481","-2.14127324749643","-1.04113018597997","-2.98640915593705","0","358.875"
"1230","0.703862660944206","0.809012875536481","-2.14127324749643","-0.0411301859799714","-0.986409155937053","0","358.875"
"1230","2.70386266094421","-1.19098712446352","0.858726752503575","-0.0411301859799714","-0.986409155937053","0","358.875"
"1236","2.70386266094421","-1.19098712446352","0.858726752503575","-2.04113018597997","-0.986409155937053","0","358.875"
"1236","1.70386266094421","-1.19098712446352","-0.141273247496425","-2.04113018597997","-0.986409155937053","0","358.875"
"1242","1.70386266094421","-1.19098712446352","-0.141273247496425","-2.04113018597997","-0.986409155937053","0","358.875"
"1242","2.70386266094421","0.809012875536481","0.858726752503575","-2.04113018597997","-0.986409155937053","0","358.875"
"1248","2.70386266094421","0.809012875536481","0.858726752503575","0.958869814020029","-1.98640915593705","0","358.875"
"1249","1.70386266094421","-0.190987124463519","-0.141273247496425","0.958869814020029","-1.98640915593705","0","358.875"
"1255","1.70386266094421","-0.190987124463519","-0.141273247496425","0.958869814020029","-1.98640915593705","0","358.875"
"1255","1.70386266094421","-1.19098712446352","-0.141273247496425","0.958869814020029","-1.98640915593705","0","358.875"
"1263","1.70386266094421","-1.19098712446352","-0.141273247496425","-4.04113018597997","2.01359084406295","0","358.875"
"1264","1.70386266094421","1.80901287553648","-0.141273247496425","-4.04113018597997","2.01359084406295","0","358.875"
"1270","1.70386266094421","1.80901287553648","-0.141273247496425","-4.04113018597997","-1.98640915593705","0","358.875"
"1270","0.703862660944206","-0.190987124463519","0.858726752503575","-4.04113018597997","-1.98640915593705","0","358.875"
"1278","0.703862660944206","-0.190987124463519","0.858726752503575","-2.04113018597997","0.0135908440629471","0","358.875"
"1278","3.70386266094421","0.809012875536481","0.858726752503575","-2.04113018597997","0.0135908440629471","0","358.875"
"1284","3.70386266094421","0.809012875536481","0.858726752503575","-0.0411301859799714","-1.98640915593705","0","358.875"
"1284","1.70386266094421","-1.19098712446352","-1.14127324749643","-0.0411301859799714","-1.98640915593705","0","358.875"
"1290","1.70386266094421","-1.19098712446352","-1.14127324749643","1.95886981402003","0.0135908440629471","0","358.875"
"1290","1.70386266094421","1.80901287553648","-0.141273247496425","1.95886981402003","0.0135908440629471","0","358.875"
"1298","1.70386266094421","1.80901287553648","-0.141273247496425","-1.04113018597997","-1.98640915593705","0","358.875"
"1298","1.70386266094421","0.809012875536481","1.85872675250357","-1.04113018597997","-1.98640915593705","0","358.875"
"1305","1.70386266094421","0.809012875536481","1.85872675250357","-1.04113018597997","0.0135908440629471","0","358.875"
"1305","0.703862660944206","-1.19098712446352","2.85872675250357","-1.04113018597997","0.0135908440629471","0","358.875"
"1311","0.703862660944206","-1.19098712446352","2.85872675250357","-1.04113018597997","0.0135908440629471","0","358.875"
"1311","-0.296137339055794","-1.19098712446352","0.858726752503575","-1.04113018597997","0.0135908440629471","0","358.875"
"1318","-0.296137339055794","-1.19098712446352","0.858726752503575","0.958869814020029","2.01359084406295","0","358.875"
"1318","4.70386266094421","-2.19098712446352","1.85872675250357","0.958869814020029","2.01359084406295","0","358.875"
"1324","4.70386266094421","-2.19098712446352","1.85872675250357","-0.0411301859799714","0.0135908440629471","0","358.875"
"1325","1.70386266094421","0.809012875536481","0.858726752503575","-0.0411301859799714","0.0135908440629471","0","358.875"
"1332","1.70386266094421","0.809012875536481","0.858726752503575","-1.04113018597997","0.0135908440629471","0","358.875"
"1332","1.70386266094421","1.80901287553648","-1.14127324749643","-1.04113018597997","0.0135908440629471","0","358.875"
"1338","1.70386266094421","1.80901287553648","-1.14127324749643","-3.04113018597997","-1.98640915593705","0","358.875"
"1338","2.70386266094421","-1.19098712446352","-0.141273247496425","-3.04113018597997","-1.98640915593705","0","358.875"
"1344","2.70386266094421","-1.19098712446352","-0.141273247496425","0.958869814020029","0.0135908440629471","0","358.875"
"1344","1.70386266094421","-1.19098712446352","-1.14127324749643","0.958869814020029","0.0135908440629471","0","358.875"
"1351","1.70386266094421","-1.19098712446352","-1.14127324749643","0.958869814020029","1.01359084406295","0","358.875"
"1351","1.70386266094421","1.80901287553648","-3.14127324749643","0.958869814020029","1.01359084406295","0","358.875"
"1357","1.70386266094421","1.80901287553648","-3.14127324749643","-2.04113018597997","-2.98640915593705","0","358.875"
"1357","1.70386266094421","2.80901287553648","-3.14127324749643","-2.04113018597997","-2.98640915593705","0","358.875"
"1363","1.70386266094421","2.80901287553648","-3.14127324749643","-1.04113018597997","-1.98640915593705","0","358.875"
"1363","4.70386266094421","-1.19098712446352","2.85872675250357","-1.04113018597997","-1.98640915593705","0","358.875"
"1369","4.70386266094421","-1.19098712446352","2.85872675250357","-4.04113018597997","-0.986409155937053","0","358.875"
"1369","4.70386266094421","-1.19098712446352","2.85872675250357","-4.04113018597997","-0.986409155937053","0","358.875"
"1375","4.70386266094421","-1.19098712446352","2.85872675250357","-4.04113018597997","-0.986409155937053","0","358.875"
"1376","3.70386266094421","-1.19098712446352","0.858726752503575","-4.04113018597997","-0.986409155937053","0","358.875"
"1382","3.70386266094421","-1.19098712446352","0.858726752503575","0.958869814020029","-0.986409155937053","0","358.875"
"1382","3.70386266094421","-0.190987124463519","0.858726752503575","0.958869814020029","-0.986409155937053","0","358.875"
"1388","3.70386266094421","-0.190987124463519","0.858726752503575","0.958869814020029","-1.98640915593705","0","358.875"
"1388","1.70386266094421","-2.19098712446352","0.858726752503575","0.958869814020029","-1.98640915593705","0","358.875"
"1394","1.70386266094421","-2.19098712446352","0.858726752503575","-0.0411301859799714","0.0135908440629471","0","358.875"
"1394","1.70386266094421","1.80901287553648","1.85872675250357","-0.0411301859799714","0.0135908440629471","0","358.875"
"1401","1.70386266094421","1.80901287553648","1.85872675250357","-0.0411301859799714","0.0135908440629471","0","358.875"
"1401","0.703862660944206","1.80901287553648","-0.141273247496425","-0.0411301859799714","0.0135908440629471","0","358.875"
"1407","0.703862660944206","1.80901287553648","-0.141273247496425","0.958869814020029","-2.98640915593705","0","358.875"
"1407","0.703862660944206","-1.19098712446352","2.85872675250357","0.958869814020029","-2.98640915593705","0","358.875"
"1413","0.703862660944206","-1.19098712446352","2.85872675250357","1.95886981402003","-1.98640915593705","0","358.875"
"1413","1.70386266094421","2.80901287553648","-3.14127324749643","1.95886981402003","-1.98640915593705","0","358.875"
"1419","1.70386266094421","2.80901287553648","-3.14127324749643","-0.0411301859799714","-0.986409155937053","0","358.875"
"1419","-0.296137339055794","-0.190987124463519","-0.141273247496425","-0.0411301859799714","-0.986409155937053","0","358.875"
"1425","-0.296137339055794","-0.190987124463519","-0.141273247496425","-0.0411301859799714","1.01359084406295","0","358.875"
"1425","1.70386266094421","-0.190987124463519","4.85872675250357","-0.0411301859799714","1.01359084406295","0","358.875"
"1431","1.70386266094421","-0.190987124463519","4.85872675250357","-3.04113018597997","-3.98640915593705","0","358.875"
"1432","1.70386266094421","-0.190987124463519","4.85872675250357","-3.04113018597997","-3.98640915593705","0","358.875"
"1438","1.70386266094421","-0.190987124463519","4.85872675250357","-3.04113018597997","-3.98640915593705","0","358.875"
"1438","1.70386266094421","-0.190987124463519","2.85872675250357","-3.04113018597997","-3.98640915593705","0","358.875"
"1444","1.70386266094421","-0.190987124463519","2.85872675250357","1.95886981402003","-0.986409155937053","0","358.875"
"1444","3.70386266094421","-1.19098712446352","-1.14127324749643","1.95886981402003","-0.986409155937053","0","358.875"
"1451","3.70386266094421","-1.19098712446352","-1.14127324749643","3.95886981402003","1.01359084406295","0","358.875"
"1451","2.70386266094421","-0.190987124463519","0.858726752503575","3.95886981402003","1.01359084406295","0","358.875"
"1457","2.70386266094421","-0.190987124463519","0.858726752503575","-0.0411301859799714","0.0135908440629471","0","358.875"
"1457","4.70386266094421","-3.19098712446352","0.858726752503575","-0.0411301859799714","0.0135908440629471","0","358.875"
"1464","4.70386266094421","-3.19098712446352","0.858726752503575","-0.0411301859799714","0.0135908440629471","0","358.875"
"1464","1.70386266094421","-1.19098712446352","-0.141273247496425","-0.0411301859799714","0.0135908440629471","0","358.875"
"1471","1.70386266094421","-1.19098712446352","-0.141273247496425","-1.04113018597997","-0.986409155937053","0","358.875"
"1471","3.70386266094421","-0.190987124463519","2.85872675250357","-1.04113018597997","-0.986409155937053","0","358.875"
"1479","3.70386266094421","-0.190987124463519","2.85872675250357","1.95886981402003","-2.98640915593705","0","358.875"
"1479","2.70386266094421","-1.19098712446352","-1.14127324749643","1.95886981402003","-2.98640915593705","0","358.875"
"1487","2.70386266094421","-1.19098712446352","-1.14127324749643","-0.0411301859799714","-1.98640915593705","0","358.875"
"1487","2.70386266094421","-0.190987124463519","-2.14127324749643","-0.0411301859799714","-1.98640915593705","0","358.875"
"1493","2.70386266094421","-0.190987124463519","-2.14127324749643","-0.0411301859799714","-1.98640915593705","0","358.875"
"1494","2.70386266094421","1.80901287553648","3.85872675250357","-0.0411301859799714","-1.98640915593705","0","358.875"
"1500","2.70386266094421","1.80901287553648","3.85872675250357","0.958869814020029","2.01359084406295","0","358.875"
"1500","2.70386266094421","1.80901287553648","0.858726752503575","0.958869814020029","2.01359084406295","0","358.875"
"1506","2.70386266094421","1.80901287553648","0.858726752503575","0.958869814020029","2.01359084406295","0","358.875"
"1506","1.70386266094421","-0.190987124463519","2.85872675250357","0.958869814020029","2.01359084406295","0","358.875"
"1513","1.70386266094421","-0.190987124463519","2.85872675250357","-1.04113018597997","0.0135908440629471","0","358.875"
"1513","3.70386266094421","1.80901287553648","-0.141273247496425","-1.04113018597997","0.0135908440629471","0","358.875"
"1519","3.70386266094421","1.80901287553648","-0.141273247496425","-1.04113018597997","0.0135908440629471","0","358.875"
"1519","1.70386266094421","0.809012875536481","-0.141273247496425","-1.04113018597997","0.0135908440629471","0","358.875"
"1525","1.70386266094421","0.809012875536481","-0.141273247496425","-3.04113018597997","-0.986409155937053","0","358.875"
"1525","2.70386266094421","1.80901287553648","-0.141273247496425","-3.04113018597997","-0.986409155937053","0","358.875"
"1531","2.70386266094421","1.80901287553648","-0.141273247496425","-0.0411301859799714","-0.986409155937053","0","358.875"
"1532","2.70386266094421","1.80901287553648","-0.141273247496425","-0.0411301859799714","-0.986409155937053","0","358.875"
"1538","2.70386266094421","1.80901287553648","-0.141273247496425","0.958869814020029","1.01359084406295","0","358.875"
"1538","2.70386266094421","-0.190987124463519","-2.14127324749643","0.958869814020029","1.01359084406295","0","358.875"
"1544","2.70386266094421","-0.190987124463519","-2.14127324749643","-2.04113018597997","2.01359084406295","0","358.875"
"1544","1.70386266094421","-1.19098712446352","-0.141273247496425","-2.04113018597997","2.01359084406295","0","358.875"
"1550","1.70386266094421","-1.19098712446352","-0.141273247496425","1.95886981402003","3.01359084406295","0","358.875"
"1550","0.703862660944206","2.80901287553648","-0.141273247496425","1.95886981402003","3.01359084406295","0","358.875"
"1556","0.703862660944206","2.80901287553648","-0.141273247496425","-0.0411301859799714","1.01359084406295","0","358.875"
"1557","3.70386266094421","0.809012875536481","1.85872675250357","-0.0411301859799714","1.01359084406295","0","358.875"
"1563","3.70386266094421","0.809012875536481","1.85872675250357","-1.04113018597997","3.01359084406295","0","358.875"
"1563","3.70386266094421","0.809012875536481","1.85872675250357","-1.04113018597997","3.01359084406295","0","358.875"
"1569","3.70386266094421","0.809012875536481","1.85872675250357","3.95886981402003","-2.98640915593705","0","358.875"
"1570","-0.296137339055794","1.80901287553648","-0.141273247496425","3.95886981402003","-2.98640915593705","0","358.875"
"1576","-0.296137339055794","1.80901287553648","-0.141273247496425","-1.04113018597997","1.01359084406295","0","358.875"
"1577","0.703862660944206","0.809012875536481","0.858726752503575","-1.04113018597997","1.01359084406295","0","358.875"
"1584","0.703862660944206","0.809012875536481","0.858726752503575","2.95886981402003","-2.98640915593705","0","358.875"
"1584","1.70386266094421","1.80901287553648","0.858726752503575","2.95886981402003","-2.98640915593705","0","358.875"
"1591","1.70386266094421","1.80901287553648","0.858726752503575","0.958869814020029","0.0135908440629471","0","358.875"
"1591","2.70386266094421","0.809012875536481","-1.14127324749643","0.958869814020029","0.0135908440629471","0","358.875"
"1598","2.70386266094421","0.809012875536481","-1.14127324749643","-1.04113018597997","-1.98640915593705","0","358.875"
"1598","2.70386266094421","0.809012875536481","-1.14127324749643","-1.04113018597997","-1.98640915593705","0","358.875"
"1604","2.70386266094421","0.809012875536481","-1.14127324749643","-0.0411301859799714","0.0135908440629471","0","358.875"
"1604","0.703862660944206","-1.19098712446352","-2.14127324749643","-0.0411301859799714","0.0135908440629471","0","358.875"
"1611","0.703862660944206","-1.19098712446352","-2.14127324749643","-3.04113018597997","2.01359084406295","0","358.875"
"1611","3.70386266094421","1.80901287553648","-1.14127324749643","-3.04113018597997","2.01359084406295","0","358.875"
"1617","3.70386266094421","1.80901287553648","-1.14127324749643","-2.04113018597997","3.01359084406295","0","358.875"
"1617","1.70386266094421","-1.19098712446352","-2.14127324749643","-2.04113018597997","3.01359084406295","0","358.875"
"1623","1.70386266094421","-1.19098712446352","-2.14127324749643","0.958869814020029","-0.986409155937053","0","358.875"
"1623","0.703862660944206","2.80901287553648","-0.141273247496425","0.958869814020029","-0.986409155937053","0","358.875"
"1630","0.703862660944206","2.80901287553648","-0.141273247496425","-1.04113018597997","-0.986409155937053","0","358.875"
"1630","0.703862660944206","2.80901287553648","-0.141273247496425","-1.04113018597997","-0.986409155937053","0","358.875"
"1636","0.703862660944206","2.80901287553648","-0.141273247496425","-3.04113018597997","-1.98640915593705","0","358.875"
"1636","2.70386266094421","-0.190987124463519","-0.141273247496425","-3.04113018597997","-1.98640915593705","0","358.875"
"1642","2.70386266094421","-0.190987124463519","-0.141273247496425","-0.0411301859799714","-2.98640915593705","0","358.875"
"1642","1.70386266094421","0.809012875536481","-1.14127324749643","-0.0411301859799714","-2.98640915593705","0","358.875"
"1649","1.70386266094421","0.809012875536481","-1.14127324749643","-0.0411301859799714","0.0135908440629471","0","358.875"
"1649","0.703862660944206","0.809012875536481","-0.141273247496425","-0.0411301859799714","0.0135908440629471","0","358.875"
"1656","0.703862660944206","0.809012875536481","-0.141273247496425","0.958869814020029","-0.986409155937053","0","358.875"
"1656","0.703862660944206","-0.190987124463519","-0.141273247496425","0.958869814020029","-0.986409155937053","0","358.875"
"1662","0.703862660944206","-0.190987124463519","-0.141273247496425","4.95886981402003","1.01359084406295","0","358.875"
"1662","0.703862660944206","-0.190987124463519","-0.141273247496425","4.95886981402003","1.01359084406295","0","358.875"
"1670","0.703862660944206","-0.190987124463519","-0.141273247496425","0.958869814020029","-0.986409155937053","0","358.875"
"1670","2.70386266094421","-0.190987124463519","-2.14127324749643","0.958869814020029","-0.986409155937053","0","358.875"
"1677","2.70386266094421","-0.190987124463519","-2.14127324749643","-2.04113018597997","1.01359084406295","0","358.875"
"1678","1.70386266094421","2.80901287553648","-1.14127324749643","-2.04113018597997","1.01359084406295","0","358.875"
"1686","1.70386266094421","2.80901287553648","-1.14127324749643","-0.0411301859799714","-0.986409155937053","0","358.875"
"1686","2.70386266094421","0.809012875536481","-0.141273247496425","-0.0411301859799714","-0.986409155937053","0","358.875"
"1693","2.70386266094421","0.809012875536481","-0.141273247496425","1.95886981402003","0.0135908440629471","0","358.875"
"1693","1.70386266094421","0.809012875536481","-1.14127324749643","1.95886981402003","0.0135908440629471","0","358.875"
"1700","1.70386266094421","0.809012875536481","-1.14127324749643","-0.0411301859799714","1.01359084406295","0","358.875"
"1700","1.70386266094421","0.809012875536481","-1.14127324749643","-0.0411301859799714","1.01359084406295","0","358.875"
"1707","1.70386266094421","0.809012875536481","-1.14127324749643","-1.04113018597997","-1.98640915593705","0","358.875"
"1707","0.703862660944206","-1.19098712446352","-1.14127324749643","-1.04113018597997","-1.98640915593705","0","358.875"
"1713","0.703862660944206","-1.19098712446352","-1.14127324749643","-2.04113018597997","-0.986409155937053","0","358.875"
"1713","1.70386266094421","-0.190987124463519","-1.14127324749643","-2.04113018597997","-0.986409155937053","0","358.875"
"1720","1.70386266094421","-0.190987124463519","-1.14127324749643","-1.04113018597997","1.01359084406295","0","358.875"
"1720","1.70386266094421","-0.190987124463519","-2.14127324749643","-1.04113018597997","1.01359084406295","0","358.875"
"1726","1.70386266094421","-0.190987124463519","-2.14127324749643","-0.0411301859799714","-1.98640915593705","0","358.875"
"1726","2.70386266094421","-0.190987124463519","0.858726752503575","-0.0411301859799714","-1.98640915593705","0","358.875"
"1732","2.70386266094421","-0.190987124463519","0.858726752503575","-0.0411301859799714","0.0135908440629471","0","358.875"
"1733","2.70386266094421","-0.190987124463519","0.858726752503575","-0.0411301859799714","0.0135908440629471","0","358.875"
"1739","2.70386266094421","-0.190987124463519","0.858726752503575","1.95886981402003","-0.986409155937053","0","358.875"
"1739","3.70386266094421","-0.190987124463519","0.858726752503575","1.95886981402003","-0.986409155937053","0","358.875"
"1745","3.70386266094421","-0.190987124463519","0.858726752503575","0.958869814020029","0.0135908440629471","0","358.875"
"1745","3.70386266094421","-0.190987124463519","0.858726752503575","0.958869814020029","0.0135908440629471","0","358.875"
"1751","3.70386266094421","-0.190987124463519","0.858726752503575","-3.04113018597997","0.0135908440629471","0","358.875"
"1751","3.70386266094421","-0.190987124463519","0.858726752503575","-3.04113018597997","0.0135908440629471","0","358.875"
"1751","0.703862660944206","1.80901287553648","0.858726752503575","-3.04113018597997","0.0135908440629471","0","358.875"
"1758","0.703862660944206","1.80901287553648","0.858726752503575","-2.04113018597997","0.0135908440629471","0","358.875"
"1758","3.70386266094421","-0.190987124463519","2.85872675250357","-2.04113018597997","0.0135908440629471","0","358.875"
"1764","3.70386266094421","-0.190987124463519","2.85872675250357","0.958869814020029","4.01359084406295","0","358.875"
"1764","4.70386266094421","-0.190987124463519","-3.14127324749643","0.958869814020029","4.01359084406295","0","358.875"
"1770","4.70386266094421","-0.190987124463519","-3.14127324749643","-1.04113018597997","1.01359084406295","0","358.875"
"1770","1.70386266094421","-0.190987124463519","2.85872675250357","-1.04113018597997","1.01359084406295","0","358.875"
"1776","1.70386266094421","-0.190987124463519","2.85872675250357","-3.04113018597997","0.0135908440629471","0","358.875"
"1777","1.70386266094421","1.80901287553648","-0.141273247496425","-3.04113018597997","0.0135908440629471","0","358.875"
"1783","1.70386266094421","1.80901287553648","-0.141273247496425","-0.0411301859799714","0.0135908440629471","0","358.875"
"1783","2.70386266094421","-1.19098712446352","-1.14127324749643","-0.0411301859799714","0.0135908440629471","0","358.875"
"1789","2.70386266094421","-1.19098712446352","-1.14127324749643","3.95886981402003","2.01359084406295","0","358.875"
"1789","2.70386266094421","-0.190987124463519","-2.14127324749643","3.95886981402003","2.01359084406295","0","358.875"
"1796","2.70386266094421","-0.190987124463519","-2.14127324749643","-1.04113018597997","2.01359084406295","0","358.875"
"1796","2.70386266094421","-0.190987124463519","0.858726752503575","-1.04113018597997","2.01359084406295","0","358.875"
"1802","2.70386266094421","-0.190987124463519","0.858726752503575","-0.0411301859799714","2.01359084406295","0","358.875"
"1802","2.70386266094421","2.80901287553648","-2.14127324749643","-0.0411301859799714","2.01359084406295","0","358.875"
"1808","2.70386266094421","2.80901287553648","-2.14127324749643","-0.0411301859799714","4.01359084406295","0","358.875"
"1808","0.703862660944206","-0.190987124463519","-2.14127324749643","-0.0411301859799714","4.01359084406295","0","358.875"
"1814","0.703862660944206","-0.190987124463519","-2.14127324749643","-0.0411301859799714","2.01359084406295","0","358.875"
"1815","1.70386266094421","-3.19098712446352","1.85872675250357","-0.0411301859799714","2.01359084406295","0","358.875"
"1821","1.70386266094421","-3.19098712446352","1.85872675250357","-3.04113018597997","0.0135908440629471","0","358.875"
"1821","2.70386266094421","1.80901287553648","-0.141273247496425","-3.04113018597997","0.0135908440629471","0","358.875"
"1827","2.70386266094421","1.80901287553648","-0.141273247496425","0.958869814020029","-1.98640915593705","0","358.875"
"1827","2.70386266094421","-2.19098712446352","-0.141273247496425","0.958869814020029","-1.98640915593705","0","358.875"
"1834","2.70386266094421","-2.19098712446352","-0.141273247496425","-1.04113018597997","1.01359084406295","0","358.875"
"1834","4.70386266094421","-1.19098712446352","2.85872675250357","-1.04113018597997","1.01359084406295","0","358.875"
"1840","4.70386266094421","-1.19098712446352","2.85872675250357","-0.0411301859799714","-0.986409155937053","0","358.875"
"1840","3.70386266094421","-0.190987124463519","-2.14127324749643","-0.0411301859799714","-0.986409155937053","0","358.875"
"1846","3.70386266094421","-0.190987124463519","-2.14127324749643","-0.0411301859799714","-0.986409155937053","0","358.875"
"1847","0.703862660944206","-3.19098712446352","-4.14127324749643","-0.0411301859799714","-0.986409155937053","0","358.875"
"1854","0.703862660944206","-3.19098712446352","-4.14127324749643","-0.0411301859799714","-1.98640915593705","0","358.875"
"1854","1.70386266094421","1.80901287553648","0.858726752503575","-0.0411301859799714","-1.98640915593705","0","358.875"
"1861","1.70386266094421","1.80901287553648","0.858726752503575","0.958869814020029","1.01359084406295","0","358.875"
"1861","3.70386266094421","0.809012875536481","1.85872675250357","0.958869814020029","1.01359084406295","0","358.875"
"1867","3.70386266094421","0.809012875536481","1.85872675250357","-1.04113018597997","2.01359084406295","0","358.875"
"1867","4.70386266094421","-0.190987124463519","2.85872675250357","-1.04113018597997","2.01359084406295","0","358.875"
"1874","4.70386266094421","-0.190987124463519","2.85872675250357","-1.04113018597997","0.0135908440629471","0","358.875"
"1875","3.70386266094421","1.80901287553648","-1.14127324749643","-1.04113018597997","0.0135908440629471","0","358.875"
"1883","3.70386266094421","1.80901287553648","-1.14127324749643","-1.04113018597997","0.0135908440629471","0","358.875"
"1883","3.70386266094421","-0.190987124463519","-1.14127324749643","-1.04113018597997","0.0135908440629471","0","358.875"
"1889","3.70386266094421","-0.190987124463519","-1.14127324749643","-2.04113018597997","0.0135908440629471","0","358.875"
"1890","4.70386266094421","2.80901287553648","-1.14127324749643","-2.04113018597997","0.0135908440629471","0","358.875"
"1897","4.70386266094421","2.80901287553648","-1.14127324749643","-0.0411301859799714","-2.98640915593705","0","358.875"
"1897","4.70386266094421","0.809012875536481","0.858726752503575","-0.0411301859799714","-2.98640915593705","0","358.875"
"1904","4.70386266094421","0.809012875536481","0.858726752503575","0.958869814020029","-1.98640915593705","0","358.875"
"1905","2.70386266094421","-1.19098712446352","0.858726752503575","0.958869814020029","-1.98640915593705","0","358.875"
"1912","2.70386266094421","-1.19098712446352","0.858726752503575","-5.04113018597997","0.0135908440629471","0","358.875"
"1912","1.70386266094421","1.80901287553648","-2.14127324749643","-5.04113018597997","0.0135908440629471","0","358.875"
"1918","1.70386266094421","1.80901287553648","-2.14127324749643","-5.04113018597997","0.0135908440629471","0","358.875"
"1918","1.70386266094421","0.809012875536481","-3.14127324749643","-5.04113018597997","0.0135908440629471","0","358.875"
"1923","1.70386266094421","0.809012875536481","-3.14127324749643","-2.04113018597997","2.01359084406295","0","358.875"
"1923","3.70386266094421","0.809012875536481","-2.14127324749643","-2.04113018597997","2.01359084406295","0","358.875"
"1930","3.70386266094421","0.809012875536481","-2.14127324749643","-0.0411301859799714","2.01359084406295","0","358.875"
"1930","2.70386266094421","-0.190987124463519","0.858726752503575","-0.0411301859799714","2.01359084406295","0","358.875"
"1935","2.70386266094421","-0.190987124463519","0.858726752503575","-0.0411301859799714","-0.986409155937053","0","358.875"
"1935","-0.296137339055794","3.80901287553648","-0.141273247496425","-0.0411301859799714","-0.986409155937053","0","358.875"
"1941","-0.296137339055794","3.80901287553648","-0.141273247496425","2.95886981402003","0.0135908440629471","0","358.875"
"1941","0.703862660944206","-2.19098712446352","-2.14127324749643","2.95886981402003","0.0135908440629471","0","358.875"
"1947","0.703862660944206","-2.19098712446352","-2.14127324749643","2.95886981402003","0.0135908440629471","0","358.875"
"1947","3.70386266094421","-0.190987124463519","-1.14127324749643","2.95886981402003","0.0135908440629471","0","358.875"
"1953","3.70386266094421","-0.190987124463519","-1.14127324749643","3.95886981402003","0.0135908440629471","0","358.875"
"1953","4.70386266094421","0.809012875536481","-0.141273247496425","3.95886981402003","0.0135908440629471","0","358.875"
"1959","4.70386266094421","0.809012875536481","-0.141273247496425","1.95886981402003","1.01359084406295","0","358.875"
"1959","2.70386266094421","-2.19098712446352","-1.14127324749643","1.95886981402003","1.01359084406295","0","358.875"
"1965","2.70386266094421","-2.19098712446352","-1.14127324749643","0.958869814020029","3.01359084406295","0","358.875"
"1965","1.70386266094421","-0.190987124463519","0.858726752503575","0.958869814020029","3.01359084406295","0","358.875"
"1971","1.70386266094421","-0.190987124463519","0.858726752503575","0.958869814020029","-1.98640915593705","0","358.875"
"1971","2.70386266094421","0.809012875536481","0.858726752503575","0.958869814020029","-1.98640915593705","0","358.875"
"1977","2.70386266094421","0.809012875536481","0.858726752503575","0.958869814020029","-1.98640915593705","0","358.875"
"1977","1.70386266094421","-1.19098712446352","-3.14127324749643","0.958869814020029","-1.98640915593705","0","358.875"
"1983","1.70386266094421","-1.19098712446352","-3.14127324749643","0.958869814020029","-0.986409155937053","0","358.875"
"1983","0.703862660944206","1.80901287553648","-0.141273247496425","0.958869814020029","-0.986409155937053","0","358.875"
"1989","0.703862660944206","1.80901287553648","-0.141273247496425","-1.04113018597997","-0.986409155937053","0","358.875"
"1989","0.703862660944206","0.809012875536481","-0.141273247496425","-1.04113018597997","-0.986409155937053","0","358.875"
"1995","0.703862660944206","0.809012875536481","-0.141273247496425","-2.04113018597997","-3.98640915593705","0","358.875"
"1995","2.70386266094421","-1.19098712446352","0.858726752503575","-2.04113018597997","-3.98640915593705","0","358.875"
"2001","2.70386266094421","-1.19098712446352","0.858726752503575","1.95886981402003","-0.986409155937053","0","358.875"
"2001","1.70386266094421","-0.190987124463519","0.858726752503575","1.95886981402003","-0.986409155937053","0","358.875"
"2007","1.70386266094421","-0.190987124463519","0.858726752503575","-2.04113018597997","-0.986409155937053","0","358.875"
"2007","2.70386266094421","0.809012875536481","-1.14127324749643","-2.04113018597997","-0.986409155937053","0","358.875"
"2012","2.70386266094421","0.809012875536481","-1.14127324749643","-2.04113018597997","-0.986409155937053","0","358.875"
"2013","1.70386266094421","-0.190987124463519","1.85872675250357","-2.04113018597997","-0.986409155937053","0","358.875"
"2018","1.70386266094421","-0.190987124463519","1.85872675250357","-3.04113018597997","1.01359084406295","0","358.875"
"2018","1.70386266094421","2.80901287553648","0.858726752503575","-3.04113018597997","1.01359084406295","0","358.875"
"2024","1.70386266094421","2.80901287553648","0.858726752503575","-0.0411301859799714","-1.98640915593705","0","358.875"
"2025","-0.296137339055794","0.809012875536481","-0.141273247496425","-0.0411301859799714","-1.98640915593705","0","358.875"
"2031","-0.296137339055794","0.809012875536481","-0.141273247496425","-2.04113018597997","-1.98640915593705","0","358.875"
"2031","3.70386266094421","-2.19098712446352","-1.14127324749643","-2.04113018597997","-1.98640915593705","0","358.875"
"2037","3.70386266094421","-2.19098712446352","-1.14127324749643","-2.04113018597997","-1.98640915593705","0","358.875"
"2037","1.70386266094421","-0.190987124463519","-1.14127324749643","-2.04113018597997","-1.98640915593705","0","358.875"
"2044","1.70386266094421","-0.190987124463519","-1.14127324749643","-0.0411301859799714","-0.986409155937053","0","358.875"
"2044","1.70386266094421","0.809012875536481","-1.14127324749643","-0.0411301859799714","-0.986409155937053","0","358.875"
"2050","1.70386266094421","0.809012875536481","-1.14127324749643","1.95886981402003","1.01359084406295","0","358.875"
"2050","2.70386266094421","-0.190987124463519","-1.14127324749643","1.95886981402003","1.01359084406295","0","358.875"
"2056","2.70386266094421","-0.190987124463519","-1.14127324749643","0.958869814020029","-0.986409155937053","0","358.875"
"2056","1.70386266094421","-0.190987124463519","0.858726752503575","0.958869814020029","-0.986409155937053","0","358.875"
"2063","1.70386266094421","-0.190987124463519","0.858726752503575","-0.0411301859799714","0.0135908440629471","0","358.875"
"2063","2.70386266094421","0.809012875536481","0.858726752503575","-0.0411301859799714","0.0135908440629471","0","358.875"
"2069","2.70386266094421","0.809012875536481","0.858726752503575","0.958869814020029","-1.98640915593705","0","358.875"
"2069","1.70386266094421","-0.190987124463519","-0.141273247496425","0.958869814020029","-1.98640915593705","0","358.875"
"2075","1.70386266094421","-0.190987124463519","-0.141273247496425","0.958869814020029","-1.98640915593705","0","358.875"
"2075","1.70386266094421","0.809012875536481","-0.141273247496425","0.958869814020029","-1.98640915593705","0","358.875"
"2081","1.70386266094421","0.809012875536481","-0.141273247496425","-0.0411301859799714","-1.98640915593705","0","358.875"
"2082","2.70386266094421","0.809012875536481","-1.14127324749643","-0.0411301859799714","-1.98640915593705","0","358.875"
"2089","2.70386266094421","0.809012875536481","-1.14127324749643","-0.0411301859799714","0.0135908440629471","0","358.875"
"2089","2.70386266094421","0.809012875536481","-1.14127324749643","-0.0411301859799714","0.0135908440629471","0","358.875"
"2095","2.70386266094421","0.809012875536481","-1.14127324749643","2.95886981402003","0.0135908440629471","0","358.875"
"2096","1.70386266094421","0.809012875536481","0.858726752503575","2.95886981402003","0.0135908440629471","0","358.875"
"2104","1.70386266094421","0.809012875536481","0.858726752503575","-1.04113018597997","0.0135908440629471","0","358.875"
"2104","2.70386266094421","-0.190987124463519","-2.14127324749643","-1.04113018597997","0.0135908440629471","0","358.875"
"2112","2.70386266094421","-0.190987124463519","-2.14127324749643","-0.0411301859799714","-3.98640915593705","0","358.875"
"2112","0.703862660944206","0.809012875536481","-1.14127324749643","-0.0411301859799714","-3.98640915593705","0","358.875"
"2119","0.703862660944206","0.809012875536481","-1.14127324749643","-1.04113018597997","-1.98640915593705","0","358.875"
"2119","2.70386266094421","-1.19098712446352","0.858726752503575","-1.04113018597997","-1.98640915593705","0","358.875"
"2126","2.70386266094421","-1.19098712446352","0.858726752503575","3.95886981402003","-1.98640915593705","0","358.875"
"2126","3.70386266094421","2.80901287553648","0.858726752503575","3.95886981402003","-1.98640915593705","0","358.875"
"2132","3.70386266094421","2.80901287553648","0.858726752503575","1.95886981402003","-1.98640915593705","0","358.875"
"2132","1.70386266094421","-0.190987124463519","-0.141273247496425","1.95886981402003","-1.98640915593705","0","358.875"
"2138","1.70386266094421","-0.190987124463519","-0.141273247496425","0.958869814020029","0.0135908440629471","0","358.875"
"2138","1.70386266094421","-2.19098712446352","-0.141273247496425","0.958869814020029","0.0135908440629471","0","358.875"
"2145","1.70386266094421","-2.19098712446352","-0.141273247496425","-3.04113018597997","1.01359084406295","0","358.875"
"2145","2.70386266094421","-1.19098712446352","0.858726752503575","-3.04113018597997","1.01359084406295","0","358.875"
"2152","2.70386266094421","-1.19098712446352","0.858726752503575","-3.04113018597997","1.01359084406295","0","358.875"
"2152","0.703862660944206","0.809012875536481","-2.14127324749643","-3.04113018597997","1.01359084406295","0","358.875"
"2158","0.703862660944206","0.809012875536481","-2.14127324749643","1.95886981402003","0.0135908440629471","0","358.875"
"2158","0.703862660944206","-0.190987124463519","-0.141273247496425","1.95886981402003","0.0135908440629471","0","358.875"
"2165","0.703862660944206","-0.190987124463519","-0.141273247496425","-2.04113018597997","-0.986409155937053","0","358.875"
"2165","3.70386266094421","-0.190987124463519","0.858726752503575","-2.04113018597997","-0.986409155937053","0","358.875"
"2171","3.70386266094421","-0.190987124463519","0.858726752503575","-1.04113018597997","0.0135908440629471","0","358.875"
"2171","1.70386266094421","-1.19098712446352","-2.14127324749643","-1.04113018597997","0.0135908440629471","0","358.875"
"2177","1.70386266094421","-1.19098712446352","-2.14127324749643","-1.04113018597997","1.01359084406295","0","358.875"
"2177","2.70386266094421","1.80901287553648","1.85872675250357","-1.04113018597997","1.01359084406295","0","358.875"
"2183","2.70386266094421","1.80901287553648","1.85872675250357","0.958869814020029","0.0135908440629471","0","358.875"
"2183","3.70386266094421","0.809012875536481","-2.14127324749643","0.958869814020029","0.0135908440629471","0","358.875"
"2189","3.70386266094421","0.809012875536481","-2.14127324749643","-1.04113018597997","2.01359084406295","0","358.875"
"2189","2.70386266094421","-1.19098712446352","0.858726752503575","-1.04113018597997","2.01359084406295","0","358.875"
"2195","2.70386266094421","-1.19098712446352","0.858726752503575","0.958869814020029","0.0135908440629471","0","358.875"
"2195","4.70386266094421","2.80901287553648","1.85872675250357","0.958869814020029","0.0135908440629471","0","358.875"
"2201","4.70386266094421","2.80901287553648","1.85872675250357","-0.0411301859799714","0.0135908440629471","0","358.875"
"2201","0.703862660944206","0.809012875536481","-3.14127324749643","-0.0411301859799714","0.0135908440629471","0","358.875"
"2207","0.703862660944206","0.809012875536481","-3.14127324749643","-3.04113018597997","1.01359084406295","0","358.875"
"2207","4.70386266094421","-0.190987124463519","0.858726752503575","-3.04113018597997","1.01359084406295","0","358.875"
"2214","4.70386266094421","-0.190987124463519","0.858726752503575","-1.04113018597997","-0.986409155937053","0","358.875"
"2214","1.70386266094421","0.809012875536481","-0.141273247496425","-1.04113018597997","-0.986409155937053","0","358.875"
"2220","1.70386266094421","0.809012875536481","-0.141273247496425","-2.04113018597997","-0.986409155937053","0","358.875"
"2220","2.70386266094421","-0.190987124463519","0.858726752503575","-2.04113018597997","-0.986409155937053","0","358.875"
"2226","2.70386266094421","-0.190987124463519","0.858726752503575","-0.0411301859799714","1.01359084406295","0","358.875"
"2226","3.70386266094421","-1.19098712446352","2.85872675250357","-0.0411301859799714","1.01359084406295","0","358.875"
"2231","3.70386266094421","-1.19098712446352","2.85872675250357","-3.04113018597997","0.0135908440629471","0","358.875"
"2232","2.70386266094421","-0.190987124463519","-1.14127324749643","-3.04113018597997","0.0135908440629471","0","358.875"
"2238","2.70386266094421","-0.190987124463519","-1.14127324749643","-2.04113018597997","0.0135908440629471","0","358.875"
"2238","2.70386266094421","-2.19098712446352","-2.14127324749643","-2.04113018597997","0.0135908440629471","0","358.875"
"2244","2.70386266094421","-2.19098712446352","-2.14127324749643","1.95886981402003","1.01359084406295","0","358.875"
"2244","1.70386266094421","-1.19098712446352","-0.141273247496425","1.95886981402003","1.01359084406295","0","358.875"
"2250","1.70386266094421","-1.19098712446352","-0.141273247496425","-0.0411301859799714","0.0135908440629471","0","358.875"
"2250","3.70386266094421","0.809012875536481","-1.14127324749643","-0.0411301859799714","0.0135908440629471","0","358.875"
"2255","3.70386266094421","0.809012875536481","-1.14127324749643","1.95886981402003","0.0135908440629471","0","358.875"
"2255","4.70386266094421","1.80901287553648","1.85872675250357","1.95886981402003","0.0135908440629471","0","358.875"
"2261","4.70386266094421","1.80901287553648","1.85872675250357","-1.04113018597997","-0.986409155937053","0","358.875"
"2261","2.70386266094421","0.809012875536481","-2.14127324749643","-1.04113018597997","-0.986409155937053","0","358.875"
"2267","2.70386266094421","0.809012875536481","-2.14127324749643","2.95886981402003","2.01359084406295","0","358.875"
"2267","0.703862660944206","-0.190987124463519","-1.14127324749643","2.95886981402003","2.01359084406295","0","358.875"
"2273","0.703862660944206","-0.190987124463519","-1.14127324749643","1.95886981402003","2.01359084406295","0","358.875"
"2273","-0.296137339055794","-0.190987124463519","0.858726752503575","1.95886981402003","2.01359084406295","0","358.875"
"2279","-0.296137339055794","-0.190987124463519","0.858726752503575","1.95886981402003","0.0135908440629471","0","358.875"
"2279","2.70386266094421","0.809012875536481","0.858726752503575","1.95886981402003","0.0135908440629471","0","358.875"
"2285","2.70386266094421","0.809012875536481","0.858726752503575","-0.0411301859799714","-1.98640915593705","0","358.875"
"2285","1.70386266094421","0.809012875536481","-2.14127324749643","-0.0411301859799714","-1.98640915593705","0","358.875"
"2293","1.70386266094421","0.809012875536481","-2.14127324749643","0.958869814020029","-1.98640915593705","0","358.875"
"2293","0.703862660944206","0.809012875536481","-2.14127324749643","0.958869814020029","-1.98640915593705","0","358.875"
"2299","0.703862660944206","0.809012875536481","-2.14127324749643","0.958869814020029","-1.98640915593705","0","358.875"
"2299","1.70386266094421","1.80901287553648","-1.14127324749643","0.958869814020029","-1.98640915593705","0","358.875"
"2308","1.70386266094421","1.80901287553648","-1.14127324749643","1.95886981402003","-1.98640915593705","0","358.875"
"2308","2.70386266094421","-0.190987124463519","1.85872675250357","1.95886981402003","-1.98640915593705","0","358.875"
"2317","2.70386266094421","-0.190987124463519","1.85872675250357","-0.0411301859799714","1.01359084406295","0","358.875"
"2317","2.70386266094421","0.809012875536481","1.85872675250357","-0.0411301859799714","1.01359084406295","0","358.875"
"2324","2.70386266094421","0.809012875536481","1.85872675250357","-3.04113018597997","0.0135908440629471","0","358.875"
"2324","1.70386266094421","0.809012875536481","0.858726752503575","-3.04113018597997","0.0135908440629471","0","358.875"
"2331","1.70386266094421","0.809012875536481","0.858726752503575","-1.04113018597997","-1.98640915593705","0","358.875"
"2331","1.70386266094421","-1.19098712446352","-1.14127324749643","-1.04113018597997","-1.98640915593705","0","358.875"
"2338","1.70386266094421","-1.19098712446352","-1.14127324749643","-1.04113018597997","3.01359084406295","0","358.875"
"2338","4.70386266094421","-1.19098712446352","-1.14127324749643","-1.04113018597997","3.01359084406295","0","358.875"
"2344","4.70386266094421","-1.19098712446352","-1.14127324749643","-0.0411301859799714","-3.98640915593705","0","358.875"
"2344","1.70386266094421","1.80901287553648","-0.141273247496425","-0.0411301859799714","-3.98640915593705","0","358.875"
"2351","1.70386266094421","1.80901287553648","-0.141273247496425","-0.0411301859799714","-0.986409155937053","0","358.875"
"2351","0.703862660944206","2.80901287553648","-1.14127324749643","-0.0411301859799714","-0.986409155937053","0","358.875"
"2357","0.703862660944206","2.80901287553648","-1.14127324749643","-0.0411301859799714","-0.986409155937053","0","358.875"
"2357","1.70386266094421","1.80901287553648","0.858726752503575","-0.0411301859799714","-0.986409155937053","0","358.875"
"2364","1.70386266094421","1.80901287553648","0.858726752503575","-0.0411301859799714","-1.98640915593705","0","358.875"
"2364","1.70386266094421","-1.19098712446352","-2.14127324749643","-0.0411301859799714","-1.98640915593705","0","358.875"
"2371","1.70386266094421","-1.19098712446352","-2.14127324749643","-3.04113018597997","1.01359084406295","0","358.875"
"2371","2.70386266094421","-1.19098712446352","1.85872675250357","-3.04113018597997","1.01359084406295","0","358.875"
"2377","2.70386266094421","-1.19098712446352","1.85872675250357","0.958869814020029","1.01359084406295","0","358.875"
"2378","1.70386266094421","1.80901287553648","-1.14127324749643","0.958869814020029","1.01359084406295","0","358.875"
"2384","1.70386266094421","1.80901287553648","-1.14127324749643","-1.04113018597997","-0.986409155937053","0","358.875"
"2384","2.70386266094421","0.809012875536481","0.858726752503575","-1.04113018597997","-0.986409155937053","0","358.875"
"2391","2.70386266094421","0.809012875536481","0.858726752503575","0.958869814020029","-0.986409155937053","0","358.875"
"2391","3.70386266094421","-0.190987124463519","-0.141273247496425","0.958869814020029","-0.986409155937053","0","358.875"
"2398","3.70386266094421","-0.190987124463519","-0.141273247496425","0.958869814020029","-0.986409155937053","0","358.875"
"2398","-0.296137339055794","-0.190987124463519","-2.14127324749643","0.958869814020029","-0.986409155937053","0","358.875"
"2404","-0.296137339055794","-0.190987124463519","-2.14127324749643","-2.04113018597997","-0.986409155937053","0","358.875"
"2404","1.70386266094421","-0.190987124463519","1.85872675250357","-2.04113018597997","-0.986409155937053","0","358.875"
"2410","1.70386266094421","-0.190987124463519","1.85872675250357","-0.0411301859799714","0.0135908440629471","0","358.875"
"2410","0.703862660944206","-0.190987124463519","-1.14127324749643","-0.0411301859799714","0.0135908440629471","0","358.875"
"2416","0.703862660944206","-0.190987124463519","-1.14127324749643","0.958869814020029","1.01359084406295","0","358.875"
"2416","3.70386266094421","-1.19098712446352","-0.141273247496425","0.958869814020029","1.01359084406295","0","358.875"
"2422","3.70386266094421","-1.19098712446352","-0.141273247496425","2.95886981402003","-1.98640915593705","0","358.875"
"2422","2.70386266094421","0.809012875536481","2.85872675250357","2.95886981402003","-1.98640915593705","0","358.875"
"2428","2.70386266094421","0.809012875536481","2.85872675250357","1.95886981402003","-0.986409155937053","0","358.875"
"2428","2.70386266094421","-1.19098712446352","0.858726752503575","1.95886981402003","-0.986409155937053","0","358.875"
"2434","2.70386266094421","-1.19098712446352","0.858726752503575","-0.0411301859799714","0.0135908440629471","0","358.875"
"2434","1.70386266094421","-1.19098712446352","2.85872675250357","-0.0411301859799714","0.0135908440629471","0","358.875"
"2440","1.70386266094421","-1.19098712446352","2.85872675250357","0.958869814020029","-0.986409155937053","0","358.875"
"2440","1.70386266094421","-1.19098712446352","0.858726752503575","0.958869814020029","-0.986409155937053","0","358.875"
"2445","1.70386266094421","-1.19098712446352","0.858726752503575","0.958869814020029","-0.986409155937053","0","358.875"
"2446","1.70386266094421","2.80901287553648","-0.141273247496425","0.958869814020029","-0.986409155937053","0","358.875"
"2451","1.70386266094421","2.80901287553648","-0.141273247496425","0.958869814020029","-0.986409155937053","0","358.875"
"2451","-0.296137339055794","-1.19098712446352","-1.14127324749643","0.958869814020029","-0.986409155937053","0","358.875"
"2457","-0.296137339055794","-1.19098712446352","-1.14127324749643","-2.04113018597997","0.0135908440629471","0","358.875"
"2457","1.70386266094421","-0.190987124463519","-1.14127324749643","-2.04113018597997","0.0135908440629471","0","358.875"
"2463","1.70386266094421","-0.190987124463519","-1.14127324749643","0.958869814020029","1.01359084406295","0","358.875"
"2463","1.70386266094421","-0.190987124463519","-4.14127324749643","0.958869814020029","1.01359084406295","0","358.875"
"2469","1.70386266094421","-0.190987124463519","-4.14127324749643","0.958869814020029","-0.986409155937053","0","358.875"
"2469","-0.296137339055794","2.80901287553648","-0.141273247496425","0.958869814020029","-0.986409155937053","0","358.875"
"2475","-0.296137339055794","2.80901287553648","-0.141273247496425","0.958869814020029","-0.986409155937053","0","358.875"
"2475","0.703862660944206","-1.19098712446352","0.858726752503575","0.958869814020029","-0.986409155937053","0","358.875"
"2481","0.703862660944206","-1.19098712446352","0.858726752503575","0.958869814020029","0.0135908440629471","0","358.875"
"2481","-1.29613733905579","2.80901287553648","0.858726752503575","0.958869814020029","0.0135908440629471","0","358.875"
"2487","-1.29613733905579","2.80901287553648","0.858726752503575","-0.0411301859799714","-3.98640915593705","0","358.875"
"2487","-1.29613733905579","9.80901287553648","-4.14127324749643","-0.0411301859799714","-3.98640915593705","0","358.875"
"2493","-1.29613733905579","9.80901287553648","-4.14127324749643","0.958869814020029","-0.986409155937053","0","358.875"
"2493","8.70386266094421","-5.19098712446352","6.85872675250357","0.958869814020029","-0.986409155937053","0","358.875"
"2500","8.70386266094421","-5.19098712446352","6.85872675250357","-2.04113018597997","-1.98640915593705","0","358.875"
"2500","-2.29613733905579","6.80901287553648","-7.14127324749643","-2.04113018597997","-1.98640915593705","0","358.875"
"2507","-2.29613733905579","6.80901287553648","-7.14127324749643","1.95886981402003","2.01359084406295","0","358.875"
"2507","1.70386266094421","11.8090128755365","-3.14127324749643","1.95886981402003","2.01359084406295","0","358.875"
"2513","1.70386266094421","11.8090128755365","-3.14127324749643","1.95886981402003","2.01359084406295","0","358.875"
"2513","-0.296137339055794","-14.1909871244635","1.85872675250357","1.95886981402003","2.01359084406295","0","358.875"
"2519","-0.296137339055794","-14.1909871244635","1.85872675250357","-6.04113018597997","1.01359084406295","0","358.875"
"2519","-4.29613733905579","-2.19098712446352","-7.14127324749643","-6.04113018597997","1.01359084406295","0","358.875"
"2526","-4.29613733905579","-2.19098712446352","-7.14127324749643","-1.04113018597997","1.01359084406295","0","358.875"
"2527","9.70386266094421","6.80901287553648","3.85872675250357","-1.04113018597997","1.01359084406295","0","358.875"
"2534","9.70386266094421","6.80901287553648","3.85872675250357","-0.0411301859799714","-1.98640915593705","0","358.875"
"2534","-3.29613733905579","-3.19098712446352","-5.14127324749643","-0.0411301859799714","-1.98640915593705","0","358.875"
"2541","-3.29613733905579","-3.19098712446352","-5.14127324749643","-0.0411301859799714","-0.986409155937053","0","358.875"
"2541","3.70386266094421","-0.190987124463519","-2.14127324749643","-0.0411301859799714","-0.986409155937053","0","358.875"
"2548","3.70386266094421","-0.190987124463519","-2.14127324749643","-0.0411301859799714","-1.98640915593705","0","358.875"
"2548","6.70386266094421","-0.190987124463519","2.85872675250357","-0.0411301859799714","-1.98640915593705","0","358.875"
"2554","6.70386266094421","-0.190987124463519","2.85872675250357","2.95886981402003","-3.98640915593705","0","358.875"
"2554","-0.296137339055794","3.80901287553648","-1.14127324749643","2.95886981402003","-3.98640915593705","0","358.875"
"2560","-0.296137339055794","3.80901287553648","-1.14127324749643","-0.0411301859799714","-1.98640915593705","0","358.875"
"2560","3.70386266094421","-2.19098712446352","-1.14127324749643","-0.0411301859799714","-1.98640915593705","0","358.875"
"2569","3.70386266094421","-2.19098712446352","-1.14127324749643","-1.04113018597997","-1.98640915593705","0","358.875"
"2569","3.70386266094421","-1.19098712446352","1.85872675250357","-1.04113018597997","-1.98640915593705","0","358.875"
"2574","3.70386266094421","-1.19098712446352","1.85872675250357","0.958869814020029","1.01359084406295","0","358.875"
"2574","3.70386266094421","-1.19098712446352","1.85872675250357","0.958869814020029","1.01359084406295","0","358.875"
"2580","3.70386266094421","-1.19098712446352","1.85872675250357","0.958869814020029","1.01359084406295","0","358.875"
"2580","4.70386266094421","-3.19098712446352","1.85872675250357","0.958869814020029","1.01359084406295","0","358.875"
"2587","4.70386266094421","-3.19098712446352","1.85872675250357","-3.04113018597997","1.01359084406295","0","358.875"
"2587","1.70386266094421","-1.19098712446352","-1.14127324749643","-3.04113018597997","1.01359084406295","0","358.875"
"2593","1.70386266094421","-1.19098712446352","-1.14127324749643","-0.0411301859799714","2.01359084406295","0","358.875"
"2594","4.70386266094421","2.80901287553648","0.858726752503575","-0.0411301859799714","2.01359084406295","0","358.875"
"2600","4.70386266094421","2.80901287553648","0.858726752503575","1.95886981402003","2.01359084406295","0","358.875"
"2600","1.70386266094421","-0.190987124463519","-2.14127324749643","1.95886981402003","2.01359084406295","0","358.875"
"2606","1.70386266094421","-0.190987124463519","-2.14127324749643","-0.0411301859799714","1.01359084406295","0","358.875"
"2606","2.70386266094421","1.80901287553648","-0.141273247496425","-0.0411301859799714","1.01359084406295","0","358.875"
"2612","2.70386266094421","1.80901287553648","-0.141273247496425","1.95886981402003","0.0135908440629471","0","358.875"
"2612","4.70386266094421","-3.19098712446352","-2.14127324749643","1.95886981402003","0.0135908440629471","0","358.875"
"2618","4.70386266094421","-3.19098712446352","-2.14127324749643","-2.04113018597997","-1.98640915593705","0","358.875"
"2618","3.70386266094421","-3.19098712446352","0.858726752503575","-2.04113018597997","-1.98640915593705","0","358.875"
"2623","3.70386266094421","-3.19098712446352","0.858726752503575","-0.0411301859799714","1.01359084406295","0","358.875"
"2623","3.70386266094421","0.809012875536481","1.85872675250357","-0.0411301859799714","1.01359084406295","0","358.875"
"2629","3.70386266094421","0.809012875536481","1.85872675250357","0.958869814020029","0.0135908440629471","0","358.875"
"2629","1.70386266094421","-5.19098712446352","1.85872675250357","0.958869814020029","0.0135908440629471","0","358.875"
"2635","1.70386266094421","-5.19098712446352","1.85872675250357","-1.04113018597997","1.01359084406295","0","358.875"
"2635","1.70386266094421","-5.19098712446352","1.85872675250357","-1.04113018597997","1.01359084406295","0","358.875"
"2641","1.70386266094421","-5.19098712446352","1.85872675250357","-1.04113018597997","1.01359084406295","0","358.875"
"2641","4.70386266094421","0.809012875536481","-1.14127324749643","-1.04113018597997","1.01359084406295","0","358.875"
"2647","4.70386266094421","0.809012875536481","-1.14127324749643","-1.04113018597997","1.01359084406295","0","358.875"
"2647","1.70386266094421","-2.19098712446352","1.85872675250357","-1.04113018597997","1.01359084406295","0","358.875"
"2653","1.70386266094421","-2.19098712446352","1.85872675250357","-4.04113018597997","2.01359084406295","0","358.875"
"2653","1.70386266094421","1.80901287553648","1.85872675250357","-4.04113018597997","2.01359084406295","0","358.875"
"2658","1.70386266094421","1.80901287553648","1.85872675250357","2.95886981402003","1.01359084406295","0","358.875"
"2658","1.70386266094421","4.80901287553648","-2.14127324749643","2.95886981402003","1.01359084406295","0","358.875"
"2664","1.70386266094421","4.80901287553648","-2.14127324749643","0.958869814020029","0.0135908440629471","0","358.875"
"2664","2.70386266094421","-8.19098712446352","1.85872675250357","0.958869814020029","0.0135908440629471","0","358.875"
"2670","2.70386266094421","-8.19098712446352","1.85872675250357","0.958869814020029","0.0135908440629471","0","358.875"
"2670","-0.296137339055794","0.809012875536481","0.858726752503575","0.958869814020029","0.0135908440629471","0","358.875"
"2676","-0.296137339055794","0.809012875536481","0.858726752503575","-0.0411301859799714","1.01359084406295","0","358.875"
"2676","2.70386266094421","7.80901287553648","-7.14127324749643","-0.0411301859799714","1.01359084406295","0","358.875"
"2682","2.70386266094421","7.80901287553648","-7.14127324749643","0.958869814020029","0.0135908440629471","0","358.875"
"2682","-0.296137339055794","-7.19098712446352","-1.14127324749643","0.958869814020029","0.0135908440629471","0","358.875"
"2687","-0.296137339055794","-7.19098712446352","-1.14127324749643","0.958869814020029","0.0135908440629471","0","358.875"
"2688","1.70386266094421","-1.19098712446352","-2.14127324749643","0.958869814020029","0.0135908440629471","0","358.875"
"2693","1.70386266094421","-1.19098712446352","-2.14127324749643","-1.04113018597997","0.0135908440629471","0","358.875"
"2693","1.70386266094421","-1.19098712446352","-2.14127324749643","-1.04113018597997","0.0135908440629471","0","358.875"
"2699","1.70386266094421","-1.19098712446352","-2.14127324749643","-1.04113018597997","0.0135908440629471","0","358.875"
"2699","1.70386266094421","-1.19098712446352","-1.14127324749643","-1.04113018597997","0.0135908440629471","0","358.875"
"2706","1.70386266094421","-1.19098712446352","-1.14127324749643","0.958869814020029","2.01359084406295","0","358.875"
"2706","1.70386266094421","-1.19098712446352","-0.141273247496425","0.958869814020029","2.01359084406295","0","358.875"
"2713","1.70386266094421","-1.19098712446352","-0.141273247496425","-2.04113018597997","-1.98640915593705","0","358.875"
"2713","4.70386266094421","-0.190987124463519","-1.14127324749643","-2.04113018597997","-1.98640915593705","0","358.875"
"2719","4.70386266094421","-0.190987124463519","-1.14127324749643","2.95886981402003","0.0135908440629471","0","358.875"
"2719","1.70386266094421","-0.190987124463519","0.858726752503575","2.95886981402003","0.0135908440629471","0","358.875"
"2726","1.70386266094421","-0.190987124463519","0.858726752503575","2.95886981402003","0.0135908440629471","0","358.875"
"2726","1.70386266094421","-0.190987124463519","0.858726752503575","2.95886981402003","0.0135908440629471","0","358.875"
"2733","1.70386266094421","-0.190987124463519","0.858726752503575","0.958869814020029","-0.986409155937053","0","358.875"
"2733","0.703862660944206","-0.190987124463519","1.85872675250357","0.958869814020029","-0.986409155937053","0","358.875"
"2739","0.703862660944206","-0.190987124463519","1.85872675250357","0.958869814020029","-0.986409155937053","0","358.875"
"2739","4.70386266094421","1.80901287553648","-1.14127324749643","0.958869814020029","-0.986409155937053","0","358.875"
"2747","4.70386266094421","1.80901287553648","-1.14127324749643","-1.04113018597997","3.01359084406295","0","358.875"
"2747","2.70386266094421","3.80901287553648","0.858726752503575","-1.04113018597997","3.01359084406295","0","358.875"
"2753","2.70386266094421","3.80901287553648","0.858726752503575","-0.0411301859799714","2.01359084406295","0","358.875"
"2753","2.70386266094421","0.809012875536481","0.858726752503575","-0.0411301859799714","2.01359084406295","0","358.875"
"2759","2.70386266094421","0.809012875536481","0.858726752503575","-1.04113018597997","0.0135908440629471","0","358.875"
"2760","2.70386266094421","0.809012875536481","0.858726752503575","-1.04113018597997","0.0135908440629471","0","358.875"
"2765","2.70386266094421","0.809012875536481","0.858726752503575","-2.04113018597997","-0.986409155937053","0","358.875"
"2766","4.70386266094421","-1.19098712446352","-0.141273247496425","-2.04113018597997","-0.986409155937053","0","358.875"
"2772","4.70386266094421","-1.19098712446352","-0.141273247496425","-2.04113018597997","1.01359084406295","0","358.875"
"2772","4.70386266094421","3.80901287553648","-1.14127324749643","-2.04113018597997","1.01359084406295","0","358.875"
"2778","4.70386266094421","3.80901287553648","-1.14127324749643","-0.0411301859799714","1.01359084406295","0","358.875"
"2778","2.70386266094421","0.809012875536481","-0.141273247496425","-0.0411301859799714","1.01359084406295","0","358.875"
"2784","2.70386266094421","0.809012875536481","-0.141273247496425","1.95886981402003","0.0135908440629471","0","358.875"
"2784","0.703862660944206","-1.19098712446352","-1.14127324749643","1.95886981402003","0.0135908440629471","0","358.875"
"2790","0.703862660944206","-1.19098712446352","-1.14127324749643","-0.0411301859799714","2.01359084406295","0","358.875"
"2790","0.703862660944206","-1.19098712446352","-1.14127324749643","-0.0411301859799714","2.01359084406295","0","358.875"
"2796","0.703862660944206","-1.19098712446352","-1.14127324749643","-1.04113018597997","2.01359084406295","0","358.875"
"2796","2.70386266094421","-3.19098712446352","0.858726752503575","-1.04113018597997","2.01359084406295","0","358.875"
"2802","2.70386266094421","-3.19098712446352","0.858726752503575","-1.04113018597997","-0.986409155937053","0","358.875"
"2802","3.70386266094421","-1.19098712446352","0.858726752503575","-1.04113018597997","-0.986409155937053","0","358.875"
"2808","3.70386266094421","-1.19098712446352","0.858726752503575","-1.04113018597997","1.01359084406295","0","358.875"
"2808","3.70386266094421","-1.19098712446352","0.858726752503575","-1.04113018597997","1.01359084406295","0","358.875"
"2814","3.70386266094421","-1.19098712446352","0.858726752503575","0.958869814020029","0.0135908440629471","0","358.875"
"2814","0.703862660944206","-3.19098712446352","0.858726752503575","0.958869814020029","0.0135908440629471","0","358.875"
"2820","0.703862660944206","-3.19098712446352","0.858726752503575","-1.04113018597997","0.0135908440629471","0","358.875"
"2820","0.703862660944206","-3.19098712446352","0.858726752503575","-1.04113018597997","0.0135908440629471","0","358.875"
"2826","0.703862660944206","-3.19098712446352","0.858726752503575","-2.04113018597997","1.01359084406295","0","358.875"
"2826","1.70386266094421","1.80901287553648","-0.141273247496425","-2.04113018597997","1.01359084406295","0","358.875"
"2831","1.70386266094421","1.80901287553648","-0.141273247496425","-0.0411301859799714","1.01359084406295","0","358.875"
"2831","3.70386266094421","-4.19098712446352","-0.141273247496425","-0.0411301859799714","1.01359084406295","0","358.875"
"2837","3.70386266094421","-4.19098712446352","-0.141273247496425","1.95886981402003","-2.98640915593705","0","358.875"
"2838","2.70386266094421","-1.19098712446352","-1.14127324749643","1.95886981402003","-2.98640915593705","0","358.875"
"2843","2.70386266094421","-1.19098712446352","-1.14127324749643","0.958869814020029","0.0135908440629471","0","358.875"
"2843","3.70386266094421","0.809012875536481","-1.14127324749643","0.958869814020029","0.0135908440629471","0","358.875"
"2849","3.70386266094421","0.809012875536481","-1.14127324749643","0.958869814020029","1.01359084406295","0","358.875"
"2849","3.70386266094421","0.809012875536481","-1.14127324749643","0.958869814020029","1.01359084406295","0","358.875"
"2855","3.70386266094421","0.809012875536481","-1.14127324749643","-3.04113018597997","0.0135908440629471","0","358.875"
"2855","2.70386266094421","-1.19098712446352","-2.14127324749643","-3.04113018597997","0.0135908440629471","0","358.875"
"2861","2.70386266094421","-1.19098712446352","-2.14127324749643","0.958869814020029","0.0135908440629471","0","358.875"
"2861","3.70386266094421","-0.190987124463519","-0.141273247496425","0.958869814020029","0.0135908440629471","0","358.875"
"2867","3.70386266094421","-0.190987124463519","-0.141273247496425","1.95886981402003","2.01359084406295","0","358.875"
"2867","3.70386266094421","0.809012875536481","0.858726752503575","1.95886981402003","2.01359084406295","0","358.875"
"2872","3.70386266094421","0.809012875536481","0.858726752503575","0.958869814020029","1.01359084406295","0","358.875"
"2873","4.70386266094421","-0.190987124463519","-0.141273247496425","0.958869814020029","1.01359084406295","0","358.875"
"2879","4.70386266094421","-0.190987124463519","-0.141273247496425","-0.0411301859799714","0.0135908440629471","0","358.875"
"2879","4.70386266094421","-0.190987124463519","-0.141273247496425","-0.0411301859799714","0.0135908440629471","0","358.875"
"2885","4.70386266094421","-0.190987124463519","-0.141273247496425","-3.04113018597997","1.01359084406295","0","358.875"
"2885","4.70386266094421","1.80901287553648","0.858726752503575","-3.04113018597997","1.01359084406295","0","358.875"
"2891","4.70386266094421","1.80901287553648","0.858726752503575","-2.04113018597997","0.0135908440629471","0","358.875"
"2891","1.70386266094421","-1.19098712446352","-1.14127324749643","-2.04113018597997","0.0135908440629471","0","358.875"
"2898","1.70386266094421","-1.19098712446352","-1.14127324749643","-1.04113018597997","-1.98640915593705","0","358.875"
"2898","4.70386266094421","-1.19098712446352","-1.14127324749643","-1.04113018597997","-1.98640915593705","0","358.875"
"2904","4.70386266094421","-1.19098712446352","-1.14127324749643","0.958869814020029","0.0135908440629471","0","358.875"
"2904","3.70386266094421","-1.19098712446352","-1.14127324749643","0.958869814020029","0.0135908440629471","0","358.875"
"2911","3.70386266094421","-1.19098712446352","-1.14127324749643","-0.0411301859799714","1.01359084406295","0","358.875"
"2911","3.70386266094421","-1.19098712446352","-1.14127324749643","-0.0411301859799714","1.01359084406295","0","358.875"
"2918","3.70386266094421","-1.19098712446352","-1.14127324749643","0.958869814020029","1.01359084406295","0","358.875"
"2918","0.703862660944206","-1.19098712446352","-2.14127324749643","0.958869814020029","1.01359084406295","0","358.875"
"2926","0.703862660944206","-1.19098712446352","-2.14127324749643","0.958869814020029","2.01359084406295","0","358.875"
"2926","2.70386266094421","-1.19098712446352","-1.14127324749643","0.958869814020029","2.01359084406295","0","358.875"
"2933","2.70386266094421","-1.19098712446352","-1.14127324749643","-0.0411301859799714","1.01359084406295","0","358.875"
"2934","1.70386266094421","0.809012875536481","1.85872675250357","-0.0411301859799714","1.01359084406295","0","358.875"
"2939","1.70386266094421","0.809012875536481","1.85872675250357","-1.04113018597997","1.01359084406295","0","358.875"
"2939","2.70386266094421","-0.190987124463519","-2.14127324749643","-1.04113018597997","1.01359084406295","0","358.875"
"2947","2.70386266094421","-0.190987124463519","-2.14127324749643","-0.0411301859799714","2.01359084406295","0","358.875"
"2947","2.70386266094421","-0.190987124463519","-2.14127324749643","-0.0411301859799714","2.01359084406295","0","358.875"
"2955","2.70386266094421","-0.190987124463519","-2.14127324749643","0.958869814020029","3.01359084406295","0","358.875"
"2955","-0.296137339055794","0.809012875536481","-0.141273247496425","0.958869814020029","3.01359084406295","0","358.875"
"2964","-0.296137339055794","0.809012875536481","-0.141273247496425","0.958869814020029","2.01359084406295","0","358.875"
"2964","1.70386266094421","0.809012875536481","-2.14127324749643","0.958869814020029","2.01359084406295","0","358.875"
"2971","1.70386266094421","0.809012875536481","-2.14127324749643","1.95886981402003","1.01359084406295","0","358.875"
"2971","0.703862660944206","-1.19098712446352","-0.141273247496425","1.95886981402003","1.01359084406295","0","358.875"
"2977","0.703862660944206","-1.19098712446352","-0.141273247496425","-0.0411301859799714","2.01359084406295","0","358.875"
"2978","2.70386266094421","0.809012875536481","3.85872675250357","-0.0411301859799714","2.01359084406295","0","358.875"
"2983","2.70386266094421","0.809012875536481","3.85872675250357","-1.04113018597997","0.0135908440629471","0","358.875"
"2983","2.70386266094421","0.809012875536481","3.85872675250357","-1.04113018597997","0.0135908440629471","0","358.875"
"2989","2.70386266094421","0.809012875536481","3.85872675250357","1.95886981402003","3.01359084406295","0","358.875"
"2989","4.70386266094421","0.809012875536481","2.85872675250357","1.95886981402003","3.01359084406295","0","358.875"
"2995","4.70386266094421","0.809012875536481","2.85872675250357","-0.0411301859799714","1.01359084406295","0","358.875"
"2995","2.70386266094421","-1.19098712446352","0.858726752503575","-0.0411301859799714","1.01359084406295","0","358.875"
"3001","2.70386266094421","-1.19098712446352","0.858726752503575","0.958869814020029","1.01359084406295","0","358.875"
"3001","3.70386266094421","-1.19098712446352","-0.141273247496425","0.958869814020029","1.01359084406295","0","358.875"
"3007","3.70386266094421","-1.19098712446352","-0.141273247496425","-0.0411301859799714","0.0135908440629471","0","358.875"
"3007","3.70386266094421","0.809012875536481","-1.14127324749643","-0.0411301859799714","0.0135908440629471","0","358.875"
"3013","3.70386266094421","0.809012875536481","-1.14127324749643","2.95886981402003","1.01359084406295","0","358.875"
"3013","3.70386266094421","0.809012875536481","-1.14127324749643","2.95886981402003","1.01359084406295","0","358.875"
"3019","3.70386266094421","0.809012875536481","-1.14127324749643","2.95886981402003","2.01359084406295","0","358.875"
"3019","1.70386266094421","-0.190987124463519","3.85872675250357","2.95886981402003","2.01359084406295","0","358.875"
"3025","1.70386266094421","-0.190987124463519","3.85872675250357","-0.0411301859799714","2.01359084406295","0","358.875"
"3025","1.70386266094421","-1.19098712446352","-1.14127324749643","-0.0411301859799714","2.01359084406295","0","358.875"
"3031","1.70386266094421","-1.19098712446352","-1.14127324749643","-4.04113018597997","0.0135908440629471","0","358.875"
"3031","2.70386266094421","0.809012875536481","-2.14127324749643","-4.04113018597997","0.0135908440629471","0","358.875"
"3037","2.70386266094421","0.809012875536481","-2.14127324749643","-2.04113018597997","-0.986409155937053","0","358.875"
"3037","3.70386266094421","0.809012875536481","-1.14127324749643","-2.04113018597997","-0.986409155937053","0","358.875"
"3043","3.70386266094421","0.809012875536481","-1.14127324749643","-1.04113018597997","0.0135908440629471","0","358.875"
"3043","3.70386266094421","0.809012875536481","-1.14127324749643","-1.04113018597997","0.0135908440629471","0","358.875"
"3049","3.70386266094421","0.809012875536481","-1.14127324749643","-0.0411301859799714","0.0135908440629471","0","358.875"
"3049","2.70386266094421","-0.190987124463519","-1.14127324749643","-0.0411301859799714","0.0135908440629471","0","358.875"
"3055","2.70386266094421","-0.190987124463519","-1.14127324749643","0.958869814020029","2.01359084406295","0","358.875"
"3055","5.70386266094421","1.80901287553648","-0.141273247496425","0.958869814020029","2.01359084406295","0","358.875"
"3061","5.70386266094421","1.80901287553648","-0.141273247496425","0.958869814020029","3.01359084406295","0","358.875"
"3061","4.70386266094421","1.80901287553648","0.858726752503575","0.958869814020029","3.01359084406295","0","358.875"
"3066","4.70386266094421","1.80901287553648","0.858726752503575","-0.0411301859799714","-0.986409155937053","0","358.875"
"3066","2.70386266094421","-0.190987124463519","0.858726752503575","-0.0411301859799714","-0.986409155937053","0","358.875"
"3072","2.70386266094421","-0.190987124463519","0.858726752503575","1.95886981402003","0.0135908440629471","0","358.875"
"3072","2.70386266094421","-0.190987124463519","0.858726752503575","1.95886981402003","0.0135908440629471","0","358.875"
"3078","2.70386266094421","-0.190987124463519","0.858726752503575","-1.04113018597997","3.01359084406295","0","358.875"
"3078","-0.296137339055794","-1.19098712446352","0.858726752503575","-1.04113018597997","3.01359084406295","0","358.875"
"3084","-0.296137339055794","-1.19098712446352","0.858726752503575","-2.04113018597997","3.01359084406295","0","358.875"
"3084","2.70386266094421","-1.19098712446352","-2.14127324749643","-2.04113018597997","3.01359084406295","0","358.875"
"3090","2.70386266094421","-1.19098712446352","-2.14127324749643","0.958869814020029","-0.986409155937053","0","358.875"
"3090","3.70386266094421","-0.190987124463519","-0.141273247496425","0.958869814020029","-0.986409155937053","0","358.875"
"3096","3.70386266094421","-0.190987124463519","-0.141273247496425","1.95886981402003","0.0135908440629471","0","358.875"
"3096","1.70386266094421","-1.19098712446352","0.858726752503575","1.95886981402003","0.0135908440629471","0","358.875"
"3102","1.70386266094421","-1.19098712446352","0.858726752503575","1.95886981402003","0.0135908440629471","0","358.875"
"3102","1.70386266094421","-1.19098712446352","0.858726752503575","1.95886981402003","0.0135908440629471","0","358.875"
"3108","1.70386266094421","-1.19098712446352","0.858726752503575","0.958869814020029","1.01359084406295","0","358.875"
"3108","3.70386266094421","0.809012875536481","-1.14127324749643","0.958869814020029","1.01359084406295","0","358.875"
"3114","3.70386266094421","0.809012875536481","-1.14127324749643","-2.04113018597997","1.01359084406295","0","358.875"
"3114","3.70386266094421","2.80901287553648","-0.141273247496425","-2.04113018597997","1.01359084406295","0","358.875"
"3120","3.70386266094421","2.80901287553648","-0.141273247496425","0.958869814020029","3.01359084406295","0","358.875"
"3120","0.703862660944206","1.80901287553648","-2.14127324749643","0.958869814020029","3.01359084406295","0","358.875"
"3126","0.703862660944206","1.80901287553648","-2.14127324749643","1.95886981402003","3.01359084406295","0","358.875"
"3126","3.70386266094421","-0.190987124463519","-0.141273247496425","1.95886981402003","3.01359084406295","0","358.875"
"3134","3.70386266094421","-0.190987124463519","-0.141273247496425","1.95886981402003","-1.98640915593705","0","358.875"
"3135","3.70386266094421","-0.190987124463519","-0.141273247496425","1.95886981402003","-1.98640915593705","0","358.875"
"3141","3.70386266094421","-0.190987124463519","-0.141273247496425","2.95886981402003","-0.986409155937053","0","358.875"
"3141","-0.296137339055794","-1.19098712446352","0.858726752503575","2.95886981402003","-0.986409155937053","0","358.875"
"3149","-0.296137339055794","-1.19098712446352","0.858726752503575","-2.04113018597997","-0.986409155937053","0","358.875"
"3149","2.70386266094421","1.80901287553648","-2.14127324749643","-2.04113018597997","-0.986409155937053","0","358.875"
"3156","2.70386266094421","1.80901287553648","-2.14127324749643","-0.0411301859799714","-2.98640915593705","0","358.875"
"3156","1.70386266094421","-0.190987124463519","-1.14127324749643","-0.0411301859799714","-2.98640915593705","0","358.875"
"3163","1.70386266094421","-0.190987124463519","-1.14127324749643","-0.0411301859799714","-0.986409155937053","0","358.875"
"3163","2.70386266094421","-1.19098712446352","-0.141273247496425","-0.0411301859799714","-0.986409155937053","0","358.875"
"3169","2.70386266094421","-1.19098712446352","-0.141273247496425","-1.04113018597997","2.01359084406295","0","358.875"
"3169","2.70386266094421","-1.19098712446352","-0.141273247496425","-1.04113018597997","2.01359084406295","0","358.875"
"3175","2.70386266094421","-1.19098712446352","-0.141273247496425","-1.04113018597997","-0.986409155937053","0","358.875"
"3176","3.70386266094421","-1.19098712446352","-0.141273247496425","-1.04113018597997","-0.986409155937053","0","358.875"
"3181","3.70386266094421","-1.19098712446352","-0.141273247496425","0.958869814020029","-0.986409155937053","0","358.875"
"3182","2.70386266094421","0.809012875536481","-3.14127324749643","0.958869814020029","-0.986409155937053","0","358.875"
"3187","2.70386266094421","0.809012875536481","-3.14127324749643","0.958869814020029","-1.98640915593705","0","358.875"
