Timer,AX,AY,AZ,GX,GY,GZ
"1006","-0.2749254720106","9.7250745279894","-27.2749254720106","-3.93540907585293","-1.04339185160649","-0.0529976813514409"
"1010","-0.2749254720106","9.7250745279894","-27.2749254720106","-1.93540907585293","-3.04339185160649","-1.05299768135144"
"1018","1.7250745279894","3.7250745279894","-24.2749254720106","-1.93540907585293","-3.04339185160649","-1.05299768135144"
"1018","1.7250745279894","3.7250745279894","-24.2749254720106","-0.935409075852931","-3.04339185160649","-1.05299768135144"
"1026","-0.2749254720106","4.7250745279894","-25.2749254720106","-0.935409075852931","-3.04339185160649","-1.05299768135144"
"1030","-0.2749254720106","4.7250745279894","-25.2749254720106","-1.93540907585293","-1.04339185160649","0.947002318648559"
"1039","-0.2749254720106","7.7250745279894","-27.2749254720106","-1.93540907585293","-1.04339185160649","0.947002318648559"
"1039","-0.2749254720106","7.7250745279894","-27.2749254720106","-1.93540907585293","-1.04339185160649","0.947002318648559"
"1047","1.7250745279894","3.7250745279894","-23.2749254720106","-1.93540907585293","-1.04339185160649","0.947002318648559"
"1047","1.7250745279894","3.7250745279894","-23.2749254720106","4.06459092414707","-2.04339185160649","-1.05299768135144"
"1059","0.7250745279894","3.7250745279894","-25.2749254720106","4.06459092414707","-2.04339185160649","-1.05299768135144"
"1059","0.7250745279894","3.7250745279894","-25.2749254720106","2.06459092414707","-0.0433918516064922","-1.05299768135144"
"1067","0.7250745279894","6.7250745279894","-27.2749254720106","2.06459092414707","-0.0433918516064922","-1.05299768135144"
"1067","0.7250745279894","6.7250745279894","-27.2749254720106","4.06459092414707","-3.04339185160649","0.947002318648559"
"1080","-0.2749254720106","7.7250745279894","-26.2749254720106","4.06459092414707","-3.04339185160649","0.947002318648559"
"1080","-0.2749254720106","7.7250745279894","-26.2749254720106","3.06459092414707","-3.04339185160649","0.947002318648559"
"1088","-0.2749254720106","6.7250745279894","-25.2749254720106","3.06459092414707","-3.04339185160649","0.947002318648559"
"1088","-0.2749254720106","6.7250745279894","-25.2749254720106","2.06459092414707","-1.04339185160649","-0.0529976813514409"
"1096","0.7250745279894","6.7250745279894","-25.2749254720106","2.06459092414707","-1.04339185160649","-0.0529976813514409"
"1100","0.7250745279894","6.7250745279894","-25.2749254720106","2.06459092414707","-1.04339185160649","-0.0529976813514409"
"1108","0.7250745279894","9.7250745279894","-27.2749254720106","2.06459092414707","-1.04339185160649","-0.0529976813514409"
"1108","0.7250745279894","9.7250745279894","-27.2749254720106","2.06459092414707","-2.04339185160649","0.947002318648559"
"1117","0.7250745279894","8.7250745279894","-27.2749254720106","2.06459092414707","-2.04339185160649","0.947002318648559"
"1120","0.7250745279894","8.7250745279894","-27.2749254720106","-1.93540907585293","0.956608148393508","0.947002318648559"
"1129","-0.2749254720106","6.7250745279894","-26.2749254720106","-1.93540907585293","0.956608148393508","0.947002318648559"
"1129","-0.2749254720106","6.7250745279894","-26.2749254720106","-2.93540907585293","-0.0433918516064922","-0.0529976813514409"
"1137","-0.2749254720106","6.7250745279894","-26.2749254720106","-2.93540907585293","-0.0433918516064922","-0.0529976813514409"
"1137","-0.2749254720106","6.7250745279894","-26.2749254720106","-2.93540907585293","-0.0433918516064922","-0.0529976813514409"
"1149","1.7250745279894","7.7250745279894","-26.2749254720106","-2.93540907585293","-0.0433918516064922","-0.0529976813514409"
"1150","1.7250745279894","7.7250745279894","-26.2749254720106","-2.93540907585293","1.95660814839351","0.947002318648559"
"1158","-0.2749254720106","6.7250745279894","-28.2749254720106","-2.93540907585293","1.95660814839351","0.947002318648559"
"1158","-0.2749254720106","6.7250745279894","-28.2749254720106","0.0645909241470686","-0.0433918516064922","-0.0529976813514409"
"1170","0.7250745279894","4.7250745279894","-24.2749254720106","0.0645909241470686","-0.0433918516064922","-0.0529976813514409"
"1170","0.7250745279894","4.7250745279894","-24.2749254720106","-1.93540907585293","-1.04339185160649","0.947002318648559"
"1178","1.7250745279894","3.7250745279894","-25.2749254720106","-1.93540907585293","-1.04339185160649","0.947002318648559"
"1178","1.7250745279894","3.7250745279894","-25.2749254720106","-4.93540907585293","-3.04339185160649","-0.0529976813514409"
"1186","-1.2749254720106","5.7250745279894","-25.2749254720106","-4.93540907585293","-3.04339185160649","-0.0529976813514409"
"1190","-1.2749254720106","5.7250745279894","-25.2749254720106","-4.93540907585293","-3.04339185160649","-0.0529976813514409"
"1199","-1.2749254720106","5.7250745279894","-24.2749254720106","-4.93540907585293","-3.04339185160649","-0.0529976813514409"
"1199","-1.2749254720106","5.7250745279894","-24.2749254720106","5.06459092414707","-2.04339185160649","0.947002318648559"
"1207","-0.2749254720106","4.7250745279894","-26.2749254720106","5.06459092414707","-2.04339185160649","0.947002318648559"
"1211","-0.2749254720106","4.7250745279894","-26.2749254720106","4.06459092414707","-0.0433918516064922","0.947002318648559"
"1219","-0.2749254720106","6.7250745279894","-25.2749254720106","4.06459092414707","-0.0433918516064922","0.947002318648559"
"1219","-0.2749254720106","6.7250745279894","-25.2749254720106","3.06459092414707","1.95660814839351","1.94700231864856"
"1227","-0.2749254720106","8.7250745279894","-26.2749254720106","3.06459092414707","1.95660814839351","1.94700231864856"
"1227","-0.2749254720106","8.7250745279894","-26.2749254720106","5.06459092414707","-2.04339185160649","0.947002318648559"
"1236","-0.2749254720106","8.7250745279894","-26.2749254720106","5.06459092414707","-2.04339185160649","0.947002318648559"
"1236","-0.2749254720106","8.7250745279894","-26.2749254720106","5.06459092414707","-2.04339185160649","0.947002318648559"
"1248","-0.2749254720106","4.7250745279894","-25.2749254720106","5.06459092414707","-2.04339185160649","0.947002318648559"
"1248","-0.2749254720106","4.7250745279894","-25.2749254720106","0.0645909241470686","-2.04339185160649","2.94700231864856"
"1260","-0.2749254720106","8.7250745279894","-28.2749254720106","0.0645909241470686","-2.04339185160649","2.94700231864856"
"1260","-0.2749254720106","8.7250745279894","-28.2749254720106","0.0645909241470686","1.95660814839351","1.94700231864856"
"1268","-0.2749254720106","8.7250745279894","-27.2749254720106","0.0645909241470686","1.95660814839351","1.94700231864856"
"1268","-0.2749254720106","8.7250745279894","-27.2749254720106","0.0645909241470686","1.95660814839351","1.94700231864856"
"1280","-0.2749254720106","6.7250745279894","-26.2749254720106","0.0645909241470686","1.95660814839351","1.94700231864856"
"1281","-0.2749254720106","6.7250745279894","-26.2749254720106","4.06459092414707","-0.0433918516064922","1.94700231864856"
"1289","-0.2749254720106","6.7250745279894","-26.2749254720106","4.06459092414707","-0.0433918516064922","1.94700231864856"
"1289","-0.2749254720106","6.7250745279894","-26.2749254720106","2.06459092414707","-2.04339185160649","-0.0529976813514409"
"1297","-0.2749254720106","5.7250745279894","-27.2749254720106","2.06459092414707","-2.04339185160649","-0.0529976813514409"
"1301","-0.2749254720106","5.7250745279894","-27.2749254720106","-1.93540907585293","-1.04339185160649","1.94700231864856"
"1309","0.7250745279894","6.7250745279894","-27.2749254720106","-1.93540907585293","-1.04339185160649","1.94700231864856"
"1309","0.7250745279894","6.7250745279894","-27.2749254720106","0.0645909241470686","-4.04339185160649","-1.05299768135144"
"1318","0.7250745279894","5.7250745279894","-26.2749254720106","0.0645909241470686","-4.04339185160649","-1.05299768135144"
"1321","0.7250745279894","5.7250745279894","-26.2749254720106","0.0645909241470686","-4.04339185160649","-1.05299768135144"
"1330","-0.2749254720106","6.7250745279894","-26.2749254720106","0.0645909241470686","-4.04339185160649","-1.05299768135144"
"1330","-0.2749254720106","6.7250745279894","-26.2749254720106","1.06459092414707","-1.04339185160649","-1.05299768135144"
"1338","-0.2749254720106","6.7250745279894","-26.2749254720106","1.06459092414707","-1.04339185160649","-1.05299768135144"
"1338","-0.2749254720106","6.7250745279894","-26.2749254720106","1.06459092414707","-2.04339185160649","-1.05299768135144"
"1350","-0.2749254720106","5.7250745279894","-27.2749254720106","1.06459092414707","-2.04339185160649","-1.05299768135144"
"1350","-0.2749254720106","5.7250745279894","-27.2749254720106","1.06459092414707","-1.04339185160649","-0.0529976813514409"
"1358","0.7250745279894","6.7250745279894","-25.2749254720106","1.06459092414707","-1.04339185160649","-0.0529976813514409"
"1359","0.7250745279894","6.7250745279894","-25.2749254720106","1.06459092414707","-1.04339185160649","-0.0529976813514409"
"1371","-0.2749254720106","7.7250745279894","-24.2749254720106","1.06459092414707","-1.04339185160649","-0.0529976813514409"
"1371","-0.2749254720106","7.7250745279894","-24.2749254720106","-1.93540907585293","-1.04339185160649","-2.05299768135144"
"1379","-0.2749254720106","8.7250745279894","-25.2749254720106","-1.93540907585293","-1.04339185160649","-2.05299768135144"
"1379","-0.2749254720106","8.7250745279894","-25.2749254720106","2.06459092414707","-0.0433918516064922","1.94700231864856"
"1387","-0.2749254720106","8.7250745279894","-25.2749254720106","2.06459092414707","-0.0433918516064922","1.94700231864856"
"1387","-0.2749254720106","8.7250745279894","-25.2749254720106","0.0645909241470686","-0.0433918516064922","-0.0529976813514409"
"1399","-0.2749254720106","3.7250745279894","-25.2749254720106","0.0645909241470686","-0.0433918516064922","-0.0529976813514409"
"1400","-0.2749254720106","3.7250745279894","-25.2749254720106","-0.935409075852931","-2.04339185160649","0.947002318648559"
"1408","0.7250745279894","4.7250745279894","-26.2749254720106","-0.935409075852931","-2.04339185160649","0.947002318648559"
"1411","0.7250745279894","4.7250745279894","-26.2749254720106","3.06459092414707","-0.0433918516064922","0.947002318648559"
"1420","-0.2749254720106","6.7250745279894","-24.2749254720106","3.06459092414707","-0.0433918516064922","0.947002318648559"
"1420","-0.2749254720106","6.7250745279894","-24.2749254720106","-0.935409075852931","-2.04339185160649","-3.05299768135144"
"1428","2.7250745279894","7.7250745279894","-28.2749254720106","-0.935409075852931","-2.04339185160649","-3.05299768135144"
"1428","2.7250745279894","7.7250745279894","-28.2749254720106","-1.93540907585293","-2.04339185160649","-0.0529976813514409"
"1436","2.7250745279894","7.7250745279894","-28.2749254720106","-1.93540907585293","-2.04339185160649","-0.0529976813514409"
"1436","2.7250745279894","7.7250745279894","-28.2749254720106","0.0645909241470686","-2.04339185160649","-0.0529976813514409"
"1449","-1.2749254720106","5.7250745279894","-25.2749254720106","0.0645909241470686","-2.04339185160649","-0.0529976813514409"
"1449","-1.2749254720106","5.7250745279894","-25.2749254720106","-1.93540907585293","-0.0433918516064922","-1.05299768135144"
"1461","-1.2749254720106","7.7250745279894","-26.2749254720106","-1.93540907585293","-0.0433918516064922","-1.05299768135144"
"1461","-1.2749254720106","7.7250745279894","-26.2749254720106","-1.93540907585293","-0.0433918516064922","-1.05299768135144"
"1469","-0.2749254720106","6.7250745279894","-26.2749254720106","-1.93540907585293","-0.0433918516064922","-1.05299768135144"
"1469","-0.2749254720106","6.7250745279894","-26.2749254720106","3.06459092414707","-1.04339185160649","0.947002318648559"
"1477","-0.2749254720106","6.7250745279894","-26.2749254720106","3.06459092414707","-1.04339185160649","0.947002318648559"
"1481","-0.2749254720106","6.7250745279894","-26.2749254720106","3.06459092414707","-1.04339185160649","0.947002318648559"
"1485","-0.2749254720106","6.7250745279894","-26.2749254720106","3.06459092414707","-1.04339185160649","0.947002318648559"
"1486","-0.2749254720106","6.7250745279894","-26.2749254720106","3.06459092414707","-3.04339185160649","-0.0529976813514409"
"1498","0.7250745279894","6.7250745279894","-26.2749254720106","3.06459092414707","-3.04339185160649","-0.0529976813514409"
"1502","0.7250745279894","6.7250745279894","-26.2749254720106","2.06459092414707","-0.0433918516064922","-0.0529976813514409"
"1510","0.7250745279894","3.7250745279894","-28.2749254720106","2.06459092414707","-0.0433918516064922","-0.0529976813514409"
"1510","0.7250745279894","3.7250745279894","-28.2749254720106","1.06459092414707","-3.04339185160649","0.947002318648559"
"1518","-0.2749254720106","3.7250745279894","-25.2749254720106","1.06459092414707","-3.04339185160649","0.947002318648559"
"1518","-0.2749254720106","3.7250745279894","-25.2749254720106","-1.93540907585293","0.956608148393508","-1.05299768135144"
"1530","-1.2749254720106","6.7250745279894","-24.2749254720106","-1.93540907585293","0.956608148393508","-1.05299768135144"
"1531","-1.2749254720106","6.7250745279894","-24.2749254720106","-1.93540907585293","-1.04339185160649","0.947002318648559"
"1535","-1.2749254720106","6.7250745279894","-24.2749254720106","-1.93540907585293","-1.04339185160649","0.947002318648559"
"1539","-1.2749254720106","6.7250745279894","-24.2749254720106","2.06459092414707","-1.04339185160649","0.947002318648559"
"1551","1.7250745279894","3.7250745279894","-23.2749254720106","2.06459092414707","-1.04339185160649","0.947002318648559"
"1551","1.7250745279894","3.7250745279894","-23.2749254720106","1.06459092414707","-2.04339185160649","0.947002318648559"
"1559","0.7250745279894","7.7250745279894","-27.2749254720106","1.06459092414707","-2.04339185160649","0.947002318648559"
"1559","0.7250745279894","7.7250745279894","-27.2749254720106","1.06459092414707","-2.04339185160649","0.947002318648559"
"1567","-2.2749254720106","6.7250745279894","-27.2749254720106","1.06459092414707","-2.04339185160649","0.947002318648559"
"1571","-2.2749254720106","6.7250745279894","-27.2749254720106","-2.93540907585293","-0.0433918516064922","-0.0529976813514409"
"1580","-0.2749254720106","8.7250745279894","-27.2749254720106","-2.93540907585293","-0.0433918516064922","-0.0529976813514409"
"1580","-0.2749254720106","8.7250745279894","-27.2749254720106","0.0645909241470686","-2.04339185160649","-4.05299768135144"
"1588","-0.2749254720106","8.7250745279894","-27.2749254720106","0.0645909241470686","-2.04339185160649","-4.05299768135144"
"1588","-0.2749254720106","8.7250745279894","-27.2749254720106","4.06459092414707","-4.04339185160649","-1.05299768135144"
"1600","0.7250745279894","7.7250745279894","-26.2749254720106","4.06459092414707","-4.04339185160649","-1.05299768135144"
"1600","0.7250745279894","7.7250745279894","-26.2749254720106","2.06459092414707","-0.0433918516064922","-2.05299768135144"
"1608","-0.2749254720106","9.7250745279894","-28.2749254720106","2.06459092414707","-0.0433918516064922","-2.05299768135144"
"1608","-0.2749254720106","9.7250745279894","-28.2749254720106","1.06459092414707","-1.04339185160649","0.947002318648559"
"1621","2.7250745279894","5.7250745279894","-26.2749254720106","1.06459092414707","-1.04339185160649","0.947002318648559"
"1621","2.7250745279894","5.7250745279894","-26.2749254720106","2.06459092414707","1.95660814839351","0.947002318648559"
"1629","-0.2749254720106","6.7250745279894","-23.2749254720106","2.06459092414707","1.95660814839351","0.947002318648559"
"1629","-0.2749254720106","6.7250745279894","-23.2749254720106","2.06459092414707","-2.04339185160649","-1.05299768135144"
"1637","-0.2749254720106","6.7250745279894","-23.2749254720106","2.06459092414707","-2.04339185160649","-1.05299768135144"
"1637","-0.2749254720106","6.7250745279894","-23.2749254720106","3.06459092414707","-1.04339185160649","0.947002318648559"
"1649","-0.2749254720106","7.7250745279894","-27.2749254720106","3.06459092414707","-1.04339185160649","0.947002318648559"
"1649","-0.2749254720106","7.7250745279894","-27.2749254720106","2.06459092414707","-1.04339185160649","0.947002318648559"
"1657","1.7250745279894","4.7250745279894","-27.2749254720106","2.06459092414707","-1.04339185160649","0.947002318648559"
"1661","1.7250745279894","4.7250745279894","-27.2749254720106","1.06459092414707","-0.0433918516064922","0.947002318648559"
"1670","-0.2749254720106","5.7250745279894","-26.2749254720106","1.06459092414707","-0.0433918516064922","0.947002318648559"
"1670","-0.2749254720106","5.7250745279894","-26.2749254720106","-2.93540907585293","1.95660814839351","-1.05299768135144"
"1678","-0.2749254720106","6.7250745279894","-28.2749254720106","-2.93540907585293","1.95660814839351","-1.05299768135144"
"1682","-0.2749254720106","6.7250745279894","-28.2749254720106","0.0645909241470686","2.95660814839351","0.947002318648559"
"1686","-0.2749254720106","6.7250745279894","-28.2749254720106","0.0645909241470686","2.95660814839351","0.947002318648559"
"1686","-0.2749254720106","6.7250745279894","-28.2749254720106","1.06459092414707","-1.04339185160649","0.947002318648559"
"1698","0.7250745279894","6.7250745279894","-24.2749254720106","1.06459092414707","-1.04339185160649","0.947002318648559"
"1702","0.7250745279894","6.7250745279894","-24.2749254720106","0.0645909241470686","-2.04339185160649","-1.05299768135144"
"1711","2.7250745279894","5.7250745279894","-28.2749254720106","0.0645909241470686","-2.04339185160649","-1.05299768135144"
"1711","2.7250745279894","5.7250745279894","-28.2749254720106","0.0645909241470686","-2.04339185160649","-1.05299768135144"
"1719","-0.2749254720106","5.7250745279894","-25.2749254720106","0.0645909241470686","-2.04339185160649","-1.05299768135144"
"1719","-0.2749254720106","5.7250745279894","-25.2749254720106","-1.93540907585293","-2.04339185160649","0.947002318648559"
"1731","1.7250745279894","5.7250745279894","-25.2749254720106","-1.93540907585293","-2.04339185160649","0.947002318648559"
"1731","1.7250745279894","5.7250745279894","-25.2749254720106","2.06459092414707","1.95660814839351","0.947002318648559"
"1735","1.7250745279894","5.7250745279894","-25.2749254720106","2.06459092414707","1.95660814839351","0.947002318648559"
"1739","1.7250745279894","5.7250745279894","-25.2749254720106","0.0645909241470686","0.956608148393508","-2.05299768135144"
"1747","-1.2749254720106","5.7250745279894","-24.2749254720106","0.0645909241470686","0.956608148393508","-2.05299768135144"
"1752","-1.2749254720106","5.7250745279894","-24.2749254720106","0.0645909241470686","-0.0433918516064922","-0.0529976813514409"
"1760","-0.2749254720106","7.7250745279894","-29.2749254720106","0.0645909241470686","-0.0433918516064922","-0.0529976813514409"
"1760","-0.2749254720106","7.7250745279894","-29.2749254720106","0.0645909241470686","-0.0433918516064922","-0.0529976813514409"
"1768","-0.2749254720106","3.7250745279894","-25.2749254720106","0.0645909241470686","-0.0433918516064922","-0.0529976813514409"
"1772","-0.2749254720106","3.7250745279894","-25.2749254720106","3.06459092414707","-0.0433918516064922","1.94700231864856"
"1780","-1.2749254720106","5.7250745279894","-24.2749254720106","3.06459092414707","-0.0433918516064922","1.94700231864856"
"1780","-1.2749254720106","5.7250745279894","-24.2749254720106","1.06459092414707","0.956608148393508","1.94700231864856"
"1789","-1.2749254720106","5.7250745279894","-24.2749254720106","1.06459092414707","0.956608148393508","1.94700231864856"
"1789","-1.2749254720106","5.7250745279894","-24.2749254720106","-1.93540907585293","0.956608148393508","-0.0529976813514409"
"1801","-2.2749254720106","3.7250745279894","-27.2749254720106","-1.93540907585293","0.956608148393508","-0.0529976813514409"
"1801","-2.2749254720106","3.7250745279894","-27.2749254720106","-1.93540907585293","0.956608148393508","0.947002318648559"
"1809","-0.2749254720106","3.7250745279894","-27.2749254720106","-1.93540907585293","0.956608148393508","0.947002318648559"
"1809","-0.2749254720106","3.7250745279894","-27.2749254720106","-1.93540907585293","0.956608148393508","0.947002318648559"
"1821","-0.2749254720106","5.7250745279894","-27.2749254720106","-1.93540907585293","0.956608148393508","0.947002318648559"
"1821","-0.2749254720106","5.7250745279894","-27.2749254720106","-1.93540907585293","1.95660814839351","-0.0529976813514409"
"1830","-1.2749254720106","9.7250745279894","-26.2749254720106","-1.93540907585293","1.95660814839351","-0.0529976813514409"
"1830","-1.2749254720106","9.7250745279894","-26.2749254720106","-2.93540907585293","0.956608148393508","2.94700231864856"
"1838","-1.2749254720106","9.7250745279894","-26.2749254720106","-2.93540907585293","0.956608148393508","2.94700231864856"
"1838","-1.2749254720106","9.7250745279894","-26.2749254720106","0.0645909241470686","1.95660814839351","-0.0529976813514409"
"1850","-0.2749254720106","6.7250745279894","-24.2749254720106","0.0645909241470686","1.95660814839351","-0.0529976813514409"
"1850","-0.2749254720106","6.7250745279894","-24.2749254720106","-0.935409075852931","0.956608148393508","-0.0529976813514409"
"1858","-0.2749254720106","6.7250745279894","-29.2749254720106","-0.935409075852931","0.956608148393508","-0.0529976813514409"
"1862","-0.2749254720106","6.7250745279894","-29.2749254720106","-0.935409075852931","0.956608148393508","-0.0529976813514409"
"1870","-1.2749254720106","7.7250745279894","-25.2749254720106","-0.935409075852931","0.956608148393508","-0.0529976813514409"
"1871","-1.2749254720106","7.7250745279894","-25.2749254720106","0.0645909241470686","0.956608148393508","-2.05299768135144"
"1879","-0.2749254720106","4.7250745279894","-27.2749254720106","0.0645909241470686","0.956608148393508","-2.05299768135144"
"1883","-0.2749254720106","4.7250745279894","-27.2749254720106","2.06459092414707","2.95660814839351","2.94700231864856"
"1887","-0.2749254720106","4.7250745279894","-27.2749254720106","2.06459092414707","2.95660814839351","2.94700231864856"
"1887","-0.2749254720106","4.7250745279894","-27.2749254720106","-2.93540907585293","-0.0433918516064922","-0.0529976813514409"
"1899","-0.2749254720106","6.7250745279894","-26.2749254720106","-2.93540907585293","-0.0433918516064922","-0.0529976813514409"
"1899","-0.2749254720106","6.7250745279894","-26.2749254720106","-1.93540907585293","-1.04339185160649","1.94700231864856"
"1911","-0.2749254720106","6.7250745279894","-27.2749254720106","-1.93540907585293","-1.04339185160649","1.94700231864856"
"1912","-0.2749254720106","6.7250745279894","-27.2749254720106","-1.93540907585293","-1.04339185160649","1.94700231864856"
"1920","-0.2749254720106","3.7250745279894","-27.2749254720106","-1.93540907585293","-1.04339185160649","1.94700231864856"
"1920","-0.2749254720106","3.7250745279894","-27.2749254720106","-1.93540907585293","0.956608148393508","-1.05299768135144"
"1932","-0.2749254720106","5.7250745279894","-25.2749254720106","-1.93540907585293","0.956608148393508","-1.05299768135144"
"1932","-0.2749254720106","5.7250745279894","-25.2749254720106","-0.935409075852931","-0.0433918516064922","0.947002318648559"
"1936","-0.2749254720106","5.7250745279894","-25.2749254720106","-0.935409075852931","-0.0433918516064922","0.947002318648559"
"1940","-0.2749254720106","5.7250745279894","-25.2749254720106","-1.93540907585293","-2.04339185160649","0.947002318648559"
"1948","-2.2749254720106","6.7250745279894","-25.2749254720106","-1.93540907585293","-2.04339185160649","0.947002318648559"
"1952","-2.2749254720106","6.7250745279894","-25.2749254720106","3.06459092414707","-0.0433918516064922","2.94700231864856"
"1961","-0.2749254720106","4.7250745279894","-27.2749254720106","3.06459092414707","-0.0433918516064922","2.94700231864856"
"1961","-0.2749254720106","4.7250745279894","-27.2749254720106","-0.935409075852931","-0.0433918516064922","-4.05299768135144"
"1969","-0.2749254720106","6.7250745279894","-28.2749254720106","-0.935409075852931","-0.0433918516064922","-4.05299768135144"
"1973","-0.2749254720106","6.7250745279894","-28.2749254720106","1.06459092414707","-0.0433918516064922","-1.05299768135144"
"1981","-0.2749254720106","7.7250745279894","-27.2749254720106","1.06459092414707","-0.0433918516064922","-1.05299768135144"
"1981","-0.2749254720106","7.7250745279894","-27.2749254720106","1.06459092414707","-0.0433918516064922","-1.05299768135144"
"1989","-0.2749254720106","7.7250745279894","-27.2749254720106","1.06459092414707","-0.0433918516064922","-1.05299768135144"
"1989","-0.2749254720106","7.7250745279894","-27.2749254720106","0.0645909241470686","-2.04339185160649","-0.0529976813514409"
"2001","-0.2749254720106","6.7250745279894","-26.2749254720106","0.0645909241470686","-2.04339185160649","-0.0529976813514409"
"2002","-0.2749254720106","6.7250745279894","-26.2749254720106","0.0645909241470686","1.95660814839351","-0.0529976813514409"
"2010","0.7250745279894","5.7250745279894","-27.2749254720106","0.0645909241470686","1.95660814839351","-0.0529976813514409"
"2010","0.7250745279894","5.7250745279894","-27.2749254720106","0.0645909241470686","1.95660814839351","-0.0529976813514409"
"2022","0.7250745279894","5.7250745279894","-24.2749254720106","0.0645909241470686","1.95660814839351","-0.0529976813514409"
"2022","0.7250745279894","5.7250745279894","-24.2749254720106","-0.935409075852931","-2.04339185160649","1.94700231864856"
"2030","-0.2749254720106","7.7250745279894","-25.2749254720106","-0.935409075852931","-2.04339185160649","1.94700231864856"
"2030","-0.2749254720106","7.7250745279894","-25.2749254720106","-2.93540907585293","-1.04339185160649","-0.0529976813514409"
"2038","-0.2749254720106","7.7250745279894","-25.2749254720106","-2.93540907585293","-1.04339185160649","-0.0529976813514409"
"2039","-0.2749254720106","7.7250745279894","-25.2749254720106","-0.935409075852931","-0.0433918516064922","-1.05299768135144"
"2051","1.7250745279894","3.7250745279894","-22.2749254720106","-0.935409075852931","-0.0433918516064922","-1.05299768135144"
"2051","1.7250745279894","3.7250745279894","-22.2749254720106","-1.93540907585293","-0.0433918516064922","-0.0529976813514409"
"2059","-0.2749254720106","6.7250745279894","-28.2749254720106","-1.93540907585293","-0.0433918516064922","-0.0529976813514409"
"2063","-0.2749254720106","6.7250745279894","-28.2749254720106","-1.93540907585293","-0.0433918516064922","-0.0529976813514409"
"2071","1.7250745279894","5.7250745279894","-26.2749254720106","-1.93540907585293","-0.0433918516064922","-0.0529976813514409"
"2071","1.7250745279894","5.7250745279894","-26.2749254720106","-5.93540907585293","0.956608148393508","-0.0529976813514409"
"2079","-0.2749254720106","5.7250745279894","-26.2749254720106","-5.93540907585293","0.956608148393508","-0.0529976813514409"
"2083","-0.2749254720106","5.7250745279894","-26.2749254720106","-3.93540907585293","-1.04339185160649","-2.05299768135144"
"2087","-0.2749254720106","5.7250745279894","-26.2749254720106","-3.93540907585293","-1.04339185160649","-2.05299768135144"
"2088","-0.2749254720106","5.7250745279894","-26.2749254720106","-3.93540907585293","0.956608148393508","0.947002318648559"
"2100","1.7250745279894","8.7250745279894","-24.2749254720106","-3.93540907585293","0.956608148393508","0.947002318648559"
"2100","1.7250745279894","8.7250745279894","-24.2749254720106","-0.935409075852931","2.95660814839351","-0.0529976813514409"
"2112","-0.2749254720106","8.7250745279894","-27.2749254720106","-0.935409075852931","2.95660814839351","-0.0529976813514409"
"2112","-0.2749254720106","8.7250745279894","-27.2749254720106","-0.935409075852931","2.95660814839351","-0.0529976813514409"
"2120","0.7250745279894","7.7250745279894","-27.2749254720106","-0.935409075852931","2.95660814839351","-0.0529976813514409"
"2121","0.7250745279894","7.7250745279894","-27.2749254720106","0.0645909241470686","-1.04339185160649","-2.05299768135144"
"2132","0.7250745279894","5.7250745279894","-27.2749254720106","0.0645909241470686","-1.04339185160649","-2.05299768135144"
"2133","0.7250745279894","5.7250745279894","-27.2749254720106","-1.93540907585293","-1.04339185160649","-0.0529976813514409"
"2137","0.7250745279894","5.7250745279894","-27.2749254720106","-1.93540907585293","-1.04339185160649","-0.0529976813514409"
"2140","0.7250745279894","5.7250745279894","-27.2749254720106","0.0645909241470686","-0.0433918516064922","3.94700231864856"
"2149","-1.2749254720106","9.7250745279894","-27.2749254720106","0.0645909241470686","-0.0433918516064922","3.94700231864856"
"2153","-1.2749254720106","9.7250745279894","-27.2749254720106","0.0645909241470686","-3.04339185160649","-1.05299768135144"
"2161","2.7250745279894","8.7250745279894","-29.2749254720106","0.0645909241470686","-3.04339185160649","-1.05299768135144"
"2161","2.7250745279894","8.7250745279894","-29.2749254720106","1.06459092414707","-3.04339185160649","-1.05299768135144"
"2169","-2.2749254720106","3.7250745279894","-24.2749254720106","1.06459092414707","-3.04339185160649","-1.05299768135144"
"2173","-2.2749254720106","3.7250745279894","-24.2749254720106","2.06459092414707","-2.04339185160649","-0.0529976813514409"
"2182","-1.2749254720106","5.7250745279894","-22.2749254720106","2.06459092414707","-2.04339185160649","-0.0529976813514409"
"2182","-1.2749254720106","5.7250745279894","-22.2749254720106","0.0645909241470686","-3.04339185160649","0.947002318648559"
"2190","-1.2749254720106","5.7250745279894","-22.2749254720106","0.0645909241470686","-3.04339185160649","0.947002318648559"
"2190","-1.2749254720106","5.7250745279894","-22.2749254720106","2.06459092414707","0.956608148393508","-0.0529976813514409"
"2202","1.7250745279894","8.7250745279894","-26.2749254720106","2.06459092414707","0.956608148393508","-0.0529976813514409"
"2202","1.7250745279894","8.7250745279894","-26.2749254720106","1.06459092414707","1.95660814839351","1.94700231864856"
"2210","-1.2749254720106","3.7250745279894","-25.2749254720106","1.06459092414707","1.95660814839351","1.94700231864856"
"2211","-1.2749254720106","3.7250745279894","-25.2749254720106","1.06459092414707","1.95660814839351","1.94700231864856"
"2223","-0.2749254720106","7.7250745279894","-24.2749254720106","1.06459092414707","1.95660814839351","1.94700231864856"
"2223","-0.2749254720106","7.7250745279894","-24.2749254720106","-1.93540907585293","0.956608148393508","0.947002318648559"
"2231","0.7250745279894","9.7250745279894","-26.2749254720106","-1.93540907585293","0.956608148393508","0.947002318648559"
"2231","0.7250745279894","9.7250745279894","-26.2749254720106","0.0645909241470686","-2.04339185160649","0.947002318648559"
"2239","0.7250745279894","9.7250745279894","-26.2749254720106","0.0645909241470686","-2.04339185160649","0.947002318648559"
"2239","0.7250745279894","9.7250745279894","-26.2749254720106","4.06459092414707","-1.04339185160649","-0.0529976813514409"
"2251","1.7250745279894","4.7250745279894","-22.2749254720106","4.06459092414707","-1.04339185160649","-0.0529976813514409"
"2252","1.7250745279894","4.7250745279894","-22.2749254720106","-2.93540907585293","1.95660814839351","-1.05299768135144"
"2260","-1.2749254720106","6.7250745279894","-28.2749254720106","-2.93540907585293","1.95660814839351","-1.05299768135144"
"2263","-1.2749254720106","6.7250745279894","-28.2749254720106","-2.93540907585293","1.95660814839351","-1.05299768135144"
"2272","-0.2749254720106","9.7250745279894","-27.2749254720106","-2.93540907585293","1.95660814839351","-1.05299768135144"
"2272","-0.2749254720106","9.7250745279894","-27.2749254720106","2.06459092414707","1.95660814839351","0.947002318648559"
"2280","0.7250745279894","3.7250745279894","-24.2749254720106","2.06459092414707","1.95660814839351","0.947002318648559"
"2280","0.7250745279894","3.7250745279894","-24.2749254720106","4.06459092414707","-0.0433918516064922","0.947002318648559"
"2288","0.7250745279894","3.7250745279894","-24.2749254720106","4.06459092414707","-0.0433918516064922","0.947002318648559"
"2289","0.7250745279894","3.7250745279894","-24.2749254720106","0.0645909241470686","-0.0433918516064922","1.94700231864856"
"2301","-0.2749254720106","6.7250745279894","-26.2749254720106","0.0645909241470686","-0.0433918516064922","1.94700231864856"
"2301","-0.2749254720106","6.7250745279894","-26.2749254720106","-1.93540907585293","0.956608148393508","0.947002318648559"
"2313","-0.2749254720106","6.7250745279894","-26.2749254720106","-1.93540907585293","0.956608148393508","0.947002318648559"
"2313","-0.2749254720106","6.7250745279894","-26.2749254720106","-1.93540907585293","0.956608148393508","0.947002318648559"
"2321","-1.2749254720106","3.7250745279894","-26.2749254720106","-1.93540907585293","0.956608148393508","0.947002318648559"
"2322","-1.2749254720106","3.7250745279894","-26.2749254720106","0.0645909241470686","0.956608148393508","-0.0529976813514409"
"2329","0.7250745279894","6.7250745279894","-24.2749254720106","0.0645909241470686","0.956608148393508","-0.0529976813514409"
"2333","0.7250745279894","6.7250745279894","-24.2749254720106","0.0645909241470686","-0.0433918516064922","2.94700231864856"
"2338","0.7250745279894","6.7250745279894","-24.2749254720106","0.0645909241470686","-0.0433918516064922","2.94700231864856"
"2338","0.7250745279894","6.7250745279894","-24.2749254720106","0.0645909241470686","-0.0433918516064922","2.94700231864856"
"2350","0.7250745279894","5.7250745279894","-26.2749254720106","0.0645909241470686","-0.0433918516064922","2.94700231864856"
"2353","0.7250745279894","5.7250745279894","-26.2749254720106","2.06459092414707","-0.0433918516064922","-0.0529976813514409"
"2362","0.7250745279894","5.7250745279894","-26.2749254720106","2.06459092414707","-0.0433918516064922","-0.0529976813514409"
"2362","0.7250745279894","5.7250745279894","-26.2749254720106","2.06459092414707","-0.0433918516064922","-0.0529976813514409"
"2370","-1.2749254720106","4.7250745279894","-27.2749254720106","2.06459092414707","-0.0433918516064922","-0.0529976813514409"
"2370","-1.2749254720106","4.7250745279894","-27.2749254720106","-0.935409075852931","-3.04339185160649","0.947002318648559"
"2382","-0.2749254720106","7.7250745279894","-26.2749254720106","-0.935409075852931","-3.04339185160649","0.947002318648559"
"2383","-0.2749254720106","7.7250745279894","-26.2749254720106","1.06459092414707","-1.04339185160649","0.947002318648559"
"2387","-0.2749254720106","7.7250745279894","-26.2749254720106","1.06459092414707","-1.04339185160649","0.947002318648559"
"2391","-0.2749254720106","7.7250745279894","-26.2749254720106","-0.935409075852931","0.956608148393508","0.947002318648559"
"2403","-0.2749254720106","6.7250745279894","-26.2749254720106","-0.935409075852931","0.956608148393508","0.947002318648559"
"2403","-0.2749254720106","6.7250745279894","-26.2749254720106","-0.935409075852931","1.95660814839351","0.947002318648559"
"2411","-0.2749254720106","6.7250745279894","-26.2749254720106","-0.935409075852931","1.95660814839351","0.947002318648559"
"2411","-0.2749254720106","6.7250745279894","-26.2749254720106","-0.935409075852931","1.95660814839351","0.947002318648559"
"2419","-0.2749254720106","6.7250745279894","-26.2749254720106","-0.935409075852931","1.95660814839351","0.947002318648559"
"2423","-0.2749254720106","6.7250745279894","-26.2749254720106","1.06459092414707","-3.04339185160649","0.947002318648559"
"2432","-0.2749254720106","7.7250745279894","-26.2749254720106","1.06459092414707","-3.04339185160649","0.947002318648559"
"2432","-0.2749254720106","7.7250745279894","-26.2749254720106","2.06459092414707","0.956608148393508","0.947002318648559"
"2440","-0.2749254720106","7.7250745279894","-26.2749254720106","2.06459092414707","0.956608148393508","0.947002318648559"
"2440","-0.2749254720106","7.7250745279894","-26.2749254720106","0.0645909241470686","-0.0433918516064922","-0.0529976813514409"
"2452","-0.2749254720106","7.7250745279894","-25.2749254720106","0.0645909241470686","-0.0433918516064922","-0.0529976813514409"
"2452","-0.2749254720106","7.7250745279894","-25.2749254720106","1.06459092414707","-0.0433918516064922","-0.0529976813514409"
"2460","-0.2749254720106","6.7250745279894","-24.2749254720106","1.06459092414707","-0.0433918516064922","-0.0529976813514409"
"2461","-0.2749254720106","6.7250745279894","-24.2749254720106","2.06459092414707","1.95660814839351","2.94700231864856"
"2473","0.7250745279894","5.7250745279894","-27.2749254720106","2.06459092414707","1.95660814839351","2.94700231864856"
"2473","0.7250745279894","5.7250745279894","-27.2749254720106","2.06459092414707","1.95660814839351","2.94700231864856"
"2481","-1.2749254720106","7.7250745279894","-27.2749254720106","2.06459092414707","1.95660814839351","2.94700231864856"
"2481","-1.2749254720106","7.7250745279894","-27.2749254720106","-1.93540907585293","2.95660814839351","0.947002318648559"
"2489","-0.2749254720106","3.7250745279894","-23.2749254720106","-1.93540907585293","2.95660814839351","0.947002318648559"
"2489","-0.2749254720106","3.7250745279894","-23.2749254720106","1.06459092414707","0.956608148393508","1.94700231864856"
"2501","-0.2749254720106","5.7250745279894","-26.2749254720106","1.06459092414707","0.956608148393508","1.94700231864856"
"2501","-0.2749254720106","5.7250745279894","-26.2749254720106","0.0645909241470686","0.956608148393508","0.947002318648559"
"2510","-1.2749254720106","5.7250745279894","-23.2749254720106","0.0645909241470686","0.956608148393508","0.947002318648559"
"2510","-1.2749254720106","5.7250745279894","-23.2749254720106","0.0645909241470686","-0.0433918516064922","-0.0529976813514409"
"2522","-0.2749254720106","6.7250745279894","-26.2749254720106","0.0645909241470686","-0.0433918516064922","-0.0529976813514409"
"2522","-0.2749254720106","6.7250745279894","-26.2749254720106","2.06459092414707","-0.0433918516064922","1.94700231864856"
"2530","-2.2749254720106","4.7250745279894","-24.2749254720106","2.06459092414707","-0.0433918516064922","1.94700231864856"
"2534","-2.2749254720106","4.7250745279894","-24.2749254720106","-1.93540907585293","-0.0433918516064922","0.947002318648559"
"2538","-2.2749254720106","4.7250745279894","-24.2749254720106","-1.93540907585293","-0.0433918516064922","0.947002318648559"
"2538","-2.2749254720106","4.7250745279894","-24.2749254720106","-1.93540907585293","-0.0433918516064922","0.947002318648559"
"2550","0.7250745279894","5.7250745279894","-25.2749254720106","-1.93540907585293","-0.0433918516064922","0.947002318648559"
"2551","0.7250745279894","5.7250745279894","-25.2749254720106","1.06459092414707","-1.04339185160649","1.94700231864856"
"2559","0.7250745279894","6.7250745279894","-27.2749254720106","1.06459092414707","-1.04339185160649","1.94700231864856"
"2559","0.7250745279894","6.7250745279894","-27.2749254720106","-0.935409075852931","-1.04339185160649","1.94700231864856"
"2571","0.7250745279894","6.7250745279894","-27.2749254720106","-0.935409075852931","-1.04339185160649","1.94700231864856"
"2571","0.7250745279894","6.7250745279894","-27.2749254720106","1.06459092414707","-1.04339185160649","-0.0529976813514409"
"2579","-0.2749254720106","6.7250745279894","-27.2749254720106","1.06459092414707","-1.04339185160649","-0.0529976813514409"
"2579","-0.2749254720106","6.7250745279894","-27.2749254720106","-0.935409075852931","1.95660814839351","-1.05299768135144"
"2587","-0.2749254720106","4.7250745279894","-24.2749254720106","-0.935409075852931","1.95660814839351","-1.05299768135144"
"2587","-0.2749254720106","4.7250745279894","-24.2749254720106","1.06459092414707","0.956608148393508","0.947002318648559"
"2600","-1.2749254720106","8.7250745279894","-26.2749254720106","1.06459092414707","0.956608148393508","0.947002318648559"
"2600","-1.2749254720106","8.7250745279894","-26.2749254720106","-0.935409075852931","0.956608148393508","-1.05299768135144"
"2612","-0.2749254720106","3.7250745279894","-27.2749254720106","-0.935409075852931","0.956608148393508","-1.05299768135144"
"2612","-0.2749254720106","3.7250745279894","-27.2749254720106","-0.935409075852931","1.95660814839351","0.947002318648559"
"2620","-0.2749254720106","3.7250745279894","-27.2749254720106","-0.935409075852931","1.95660814839351","0.947002318648559"
"2620","-0.2749254720106","3.7250745279894","-27.2749254720106","1.06459092414707","-0.0433918516064922","-0.0529976813514409"
"2628","0.7250745279894","4.7250745279894","-25.2749254720106","1.06459092414707","-0.0433918516064922","-0.0529976813514409"
"2628","0.7250745279894","4.7250745279894","-25.2749254720106","1.06459092414707","-0.0433918516064922","-2.05299768135144"
"2637","1.7250745279894","7.7250745279894","-26.2749254720106","1.06459092414707","-0.0433918516064922","-2.05299768135144"
"2637","1.7250745279894","7.7250745279894","-26.2749254720106","0.0645909241470686","2.95660814839351","-1.05299768135144"
"2649","1.7250745279894","8.7250745279894","-26.2749254720106","0.0645909241470686","2.95660814839351","-1.05299768135144"
"2649","1.7250745279894","8.7250745279894","-26.2749254720106","2.06459092414707","-2.04339185160649","0.947002318648559"
"2657","-0.2749254720106","3.7250745279894","-26.2749254720106","2.06459092414707","-2.04339185160649","0.947002318648559"
"2657","-0.2749254720106","3.7250745279894","-26.2749254720106","2.06459092414707","-1.04339185160649","-1.05299768135144"
"2669","0.7250745279894","5.7250745279894","-27.2749254720106","2.06459092414707","-1.04339185160649","-1.05299768135144"
"2669","0.7250745279894","5.7250745279894","-27.2749254720106","1.06459092414707","-3.04339185160649","-1.05299768135144"
"2678","-0.2749254720106","8.7250745279894","-25.2749254720106","1.06459092414707","-3.04339185160649","-1.05299768135144"
"2678","-0.2749254720106","8.7250745279894","-25.2749254720106","-0.935409075852931","0.956608148393508","-1.05299768135144"
"2686","-0.2749254720106","5.7250745279894","-25.2749254720106","-0.935409075852931","0.956608148393508","-1.05299768135144"
"2686","-0.2749254720106","5.7250745279894","-25.2749254720106","-1.93540907585293","0.956608148393508","-0.0529976813514409"
"2698","-0.2749254720106","4.7250745279894","-24.2749254720106","-1.93540907585293","0.956608148393508","-0.0529976813514409"
"2698","-0.2749254720106","4.7250745279894","-24.2749254720106","-2.93540907585293","-3.04339185160649","-1.05299768135144"
"2706","-1.2749254720106","5.7250745279894","-27.2749254720106","-2.93540907585293","-3.04339185160649","-1.05299768135144"
"2706","-1.2749254720106","5.7250745279894","-27.2749254720106","-1.93540907585293","-0.0433918516064922","-2.05299768135144"
"2714","0.7250745279894","7.7250745279894","-27.2749254720106","-1.93540907585293","-0.0433918516064922","-2.05299768135144"
"2718","0.7250745279894","7.7250745279894","-27.2749254720106","0.0645909241470686","-1.04339185160649","-0.0529976813514409"
"2726","0.7250745279894","5.7250745279894","-25.2749254720106","0.0645909241470686","-1.04339185160649","-0.0529976813514409"
"2726","0.7250745279894","5.7250745279894","-25.2749254720106","-0.935409075852931","-0.0433918516064922","-2.05299768135144"
"2735","-0.2749254720106","3.7250745279894","-25.2749254720106","-0.935409075852931","-0.0433918516064922","-2.05299768135144"
"2739","-0.2749254720106","3.7250745279894","-25.2749254720106","2.06459092414707","-2.04339185160649","-1.05299768135144"
"2747","-1.2749254720106","6.7250745279894","-27.2749254720106","2.06459092414707","-2.04339185160649","-1.05299768135144"
"2747","-1.2749254720106","6.7250745279894","-27.2749254720106","1.06459092414707","-1.04339185160649","-1.05299768135144"
"2755","-0.2749254720106","8.7250745279894","-26.2749254720106","1.06459092414707","-1.04339185160649","-1.05299768135144"
"2755","-0.2749254720106","8.7250745279894","-26.2749254720106","3.06459092414707","-2.04339185160649","-2.05299768135144"
"2768","0.7250745279894","5.7250745279894","-28.2749254720106","3.06459092414707","-2.04339185160649","-2.05299768135144"
"2768","0.7250745279894","5.7250745279894","-28.2749254720106","-1.93540907585293","-2.04339185160649","-0.0529976813514409"
"2776","0.7250745279894","4.7250745279894","-25.2749254720106","-1.93540907585293","-2.04339185160649","-0.0529976813514409"
"2776","0.7250745279894","4.7250745279894","-25.2749254720106","2.06459092414707","0.956608148393508","-2.05299768135144"
"2784","-1.2749254720106","8.7250745279894","-27.2749254720106","2.06459092414707","0.956608148393508","-2.05299768135144"
"2788","-1.2749254720106","8.7250745279894","-27.2749254720106","3.06459092414707","-2.04339185160649","-0.0529976813514409"
"2796","2.7250745279894","5.7250745279894","-25.2749254720106","3.06459092414707","-2.04339185160649","-0.0529976813514409"
"2796","2.7250745279894","5.7250745279894","-25.2749254720106","-1.93540907585293","-2.04339185160649","-0.0529976813514409"
"2804","-0.2749254720106","5.7250745279894","-27.2749254720106","-1.93540907585293","-2.04339185160649","-0.0529976813514409"
"2808","-0.2749254720106","5.7250745279894","-27.2749254720106","1.06459092414707","-2.04339185160649","0.947002318648559"
"2817","0.7250745279894","4.7250745279894","-25.2749254720106","1.06459092414707","-2.04339185160649","0.947002318648559"
"2817","0.7250745279894","4.7250745279894","-25.2749254720106","1.06459092414707","-3.04339185160649","-3.05299768135144"
"2825","-1.2749254720106","7.7250745279894","-27.2749254720106","1.06459092414707","-3.04339185160649","-3.05299768135144"
"2825","-1.2749254720106","7.7250745279894","-27.2749254720106","0.0645909241470686","-0.0433918516064922","1.94700231864856"
"2837","1.7250745279894","6.7250745279894","-26.2749254720106","0.0645909241470686","-0.0433918516064922","1.94700231864856"
"2837","1.7250745279894","6.7250745279894","-26.2749254720106","2.06459092414707","-1.04339185160649","-0.0529976813514409"
"2845","0.7250745279894","4.7250745279894","-24.2749254720106","2.06459092414707","-1.04339185160649","-0.0529976813514409"
"2845","0.7250745279894","4.7250745279894","-24.2749254720106","1.06459092414707","-0.0433918516064922","-0.0529976813514409"
"2858","-3.2749254720106","9.7250745279894","-26.2749254720106","1.06459092414707","-0.0433918516064922","-0.0529976813514409"
"2858","-3.2749254720106","9.7250745279894","-26.2749254720106","5.06459092414707","-1.04339185160649","1.94700231864856"
"2866","-1.2749254720106","7.7250745279894","-27.2749254720106","5.06459092414707","-1.04339185160649","1.94700231864856"
"2866","-1.2749254720106","7.7250745279894","-27.2749254720106","-1.93540907585293","-2.04339185160649","-1.05299768135144"
"2874","-1.2749254720106","5.7250745279894","-27.2749254720106","-1.93540907585293","-2.04339185160649","-1.05299768135144"
"2878","-1.2749254720106","5.7250745279894","-27.2749254720106","-0.935409075852931","0.956608148393508","-2.05299768135144"
"2886","0.7250745279894","5.7250745279894","-26.2749254720106","-0.935409075852931","0.956608148393508","-2.05299768135144"
"2886","0.7250745279894","5.7250745279894","-26.2749254720106","0.0645909241470686","0.956608148393508","-2.05299768135144"
"2895","-1.2749254720106","7.7250745279894","-30.2749254720106","0.0645909241470686","0.956608148393508","-2.05299768135144"
"2898","-1.2749254720106","7.7250745279894","-30.2749254720106","0.0645909241470686","-0.0433918516064922","-3.05299768135144"
"2907","-0.2749254720106","5.7250745279894","-25.2749254720106","0.0645909241470686","-0.0433918516064922","-3.05299768135144"
"2907","-0.2749254720106","5.7250745279894","-25.2749254720106","0.0645909241470686","-0.0433918516064922","0.947002318648559"
"2915","-0.2749254720106","5.7250745279894","-27.2749254720106","0.0645909241470686","-0.0433918516064922","0.947002318648559"
"2915","-0.2749254720106","5.7250745279894","-27.2749254720106","-2.93540907585293","0.956608148393508","-4.05299768135144"
"2927","0.7250745279894","6.7250745279894","-26.2749254720106","-2.93540907585293","0.956608148393508","-4.05299768135144"
"2927","0.7250745279894","6.7250745279894","-26.2749254720106","-1.93540907585293","-0.0433918516064922","-2.05299768135144"
"2935","0.7250745279894","4.7250745279894","-26.2749254720106","-1.93540907585293","-0.0433918516064922","-2.05299768135144"
"2936","0.7250745279894","4.7250745279894","-26.2749254720106","-0.935409075852931","-0.0433918516064922","-2.05299768135144"
"2948","-0.2749254720106","6.7250745279894","-24.2749254720106","-0.935409075852931","-0.0433918516064922","-2.05299768135144"
"2948","-0.2749254720106","6.7250745279894","-24.2749254720106","1.06459092414707","1.95660814839351","-2.05299768135144"
"2956","-0.2749254720106","4.7250745279894","-28.2749254720106","1.06459092414707","1.95660814839351","-2.05299768135144"
"2956","-0.2749254720106","4.7250745279894","-28.2749254720106","1.06459092414707","1.95660814839351","-0.0529976813514409"
"2964","-0.2749254720106","5.7250745279894","-27.2749254720106","1.06459092414707","1.95660814839351","-0.0529976813514409"
"2968","-0.2749254720106","5.7250745279894","-27.2749254720106","1.06459092414707","-0.0433918516064922","-3.05299768135144"
"2976","-0.2749254720106","7.7250745279894","-27.2749254720106","1.06459092414707","-0.0433918516064922","-3.05299768135144"
"2976","-0.2749254720106","7.7250745279894","-27.2749254720106","-1.93540907585293","-2.04339185160649","1.94700231864856"
"2985","-0.2749254720106","4.7250745279894","-25.2749254720106","-1.93540907585293","-2.04339185160649","1.94700231864856"
"2989","-0.2749254720106","4.7250745279894","-25.2749254720106","0.0645909241470686","1.95660814839351","1.94700231864856"
"2997","-0.2749254720106","5.7250745279894","-27.2749254720106","0.0645909241470686","1.95660814839351","1.94700231864856"
"2997","-0.2749254720106","5.7250745279894","-27.2749254720106","0.0645909241470686","-0.0433918516064922","-0.0529976813514409"
"3005","-1.2749254720106","7.7250745279894","-25.2749254720106","0.0645909241470686","-0.0433918516064922","-0.0529976813514409"
"3005","-1.2749254720106","7.7250745279894","-25.2749254720106","4.06459092414707","-1.04339185160649","-2.05299768135144"
"3017","-0.2749254720106","7.7250745279894","-27.2749254720106","4.06459092414707","-1.04339185160649","-2.05299768135144"
"3017","-0.2749254720106","7.7250745279894","-27.2749254720106","0.0645909241470686","-0.0433918516064922","-2.05299768135144"
"3025","-1.2749254720106","4.7250745279894","-25.2749254720106","0.0645909241470686","-0.0433918516064922","-2.05299768135144"
"3026","-1.2749254720106","4.7250745279894","-25.2749254720106","-1.93540907585293","-2.04339185160649","-1.05299768135144"
"3038","-0.2749254720106","6.7250745279894","-23.2749254720106","-1.93540907585293","-2.04339185160649","-1.05299768135144"
"3038","-0.2749254720106","6.7250745279894","-23.2749254720106","0.0645909241470686","-0.0433918516064922","1.94700231864856"
"3046","0.7250745279894","6.7250745279894","-26.2749254720106","0.0645909241470686","-0.0433918516064922","1.94700231864856"
"3046","0.7250745279894","6.7250745279894","-26.2749254720106","1.06459092414707","-3.04339185160649","-1.05299768135144"
"3054","-0.2749254720106","7.7250745279894","-25.2749254720106","1.06459092414707","-3.04339185160649","-1.05299768135144"
"3058","-0.2749254720106","7.7250745279894","-25.2749254720106","-2.93540907585293","-2.04339185160649","-2.05299768135144"
"3067","-0.2749254720106","4.7250745279894","-27.2749254720106","-2.93540907585293","-2.04339185160649","-2.05299768135144"
"3067","-0.2749254720106","4.7250745279894","-27.2749254720106","1.06459092414707","-5.04339185160649","-0.0529976813514409"
"3075","1.7250745279894","7.7250745279894","-24.2749254720106","1.06459092414707","-5.04339185160649","-0.0529976813514409"
"3079","1.7250745279894","7.7250745279894","-24.2749254720106","3.06459092414707","-1.04339185160649","-3.05299768135144"
"3087","-0.2749254720106","8.7250745279894","-26.2749254720106","3.06459092414707","-1.04339185160649","-3.05299768135144"
"3087","-0.2749254720106","8.7250745279894","-26.2749254720106","-0.935409075852931","0.956608148393508","-0.0529976813514409"
"3095","-2.2749254720106","4.7250745279894","-24.2749254720106","-0.935409075852931","0.956608148393508","-0.0529976813514409"
"3095","-2.2749254720106","4.7250745279894","-24.2749254720106","0.0645909241470686","-0.0433918516064922","-1.05299768135144"
"3107","0.7250745279894","5.7250745279894","-26.2749254720106","0.0645909241470686","-0.0433918516064922","-1.05299768135144"
"3108","0.7250745279894","5.7250745279894","-26.2749254720106","1.06459092414707","0.956608148393508","-0.0529976813514409"
"3116","-0.2749254720106","6.7250745279894","-26.2749254720106","1.06459092414707","0.956608148393508","-0.0529976813514409"
"3116","-0.2749254720106","6.7250745279894","-26.2749254720106","0.0645909241470686","2.95660814839351","-2.05299768135144"
"3128","0.7250745279894","6.7250745279894","-26.2749254720106","0.0645909241470686","2.95660814839351","-2.05299768135144"
"3128","0.7250745279894","6.7250745279894","-26.2749254720106","1.06459092414707","-2.04339185160649","-0.0529976813514409"
"3136","-0.2749254720106","3.7250745279894","-25.2749254720106","1.06459092414707","-2.04339185160649","-0.0529976813514409"
"3136","-0.2749254720106","3.7250745279894","-25.2749254720106","-1.93540907585293","-2.04339185160649","-2.05299768135144"
"3144","0.7250745279894","3.7250745279894","-25.2749254720106","-1.93540907585293","-2.04339185160649","-2.05299768135144"
"3148","0.7250745279894","3.7250745279894","-25.2749254720106","-0.935409075852931","-0.0433918516064922","-3.05299768135144"
"3157","-2.2749254720106","5.7250745279894","-27.2749254720106","-0.935409075852931","-0.0433918516064922","-3.05299768135144"
"3157","-2.2749254720106","5.7250745279894","-27.2749254720106","0.0645909241470686","-0.0433918516064922","-2.05299768135144"
"3165","0.7250745279894","8.7250745279894","-27.2749254720106","0.0645909241470686","-0.0433918516064922","-2.05299768135144"
"3165","0.7250745279894","8.7250745279894","-27.2749254720106","0.0645909241470686","1.95660814839351","0.947002318648559"
"3177","-0.2749254720106","7.7250745279894","-27.2749254720106","0.0645909241470686","1.95660814839351","0.947002318648559"
"3177","-0.2749254720106","7.7250745279894","-27.2749254720106","0.0645909241470686","0.956608148393508","-1.05299768135144"
"3185","0.7250745279894","3.7250745279894","-26.2749254720106","0.0645909241470686","0.956608148393508","-1.05299768135144"
"3185","0.7250745279894","3.7250745279894","-26.2749254720106","2.06459092414707","0.956608148393508","1.94700231864856"
"3198","-0.2749254720106","8.7250745279894","-26.2749254720106","2.06459092414707","0.956608148393508","1.94700231864856"
"3198","-0.2749254720106","8.7250745279894","-26.2749254720106","1.06459092414707","-1.04339185160649","-0.0529976813514409"
"3206","-0.2749254720106","6.7250745279894","-26.2749254720106","1.06459092414707","-1.04339185160649","-0.0529976813514409"
"3206","-0.2749254720106","6.7250745279894","-26.2749254720106","-0.935409075852931","-1.04339185160649","-0.0529976813514409"
"3214","1.7250745279894","4.7250745279894","-24.2749254720106","-0.935409075852931","-1.04339185160649","-0.0529976813514409"
"3218","1.7250745279894","4.7250745279894","-24.2749254720106","-0.935409075852931","-2.04339185160649","1.94700231864856"
"3226","0.7250745279894","5.7250745279894","-26.2749254720106","-0.935409075852931","-2.04339185160649","1.94700231864856"
"3226","0.7250745279894","5.7250745279894","-26.2749254720106","1.06459092414707","0.956608148393508","0.947002318648559"
"3234","-0.2749254720106","10.7250745279894","-27.2749254720106","1.06459092414707","0.956608148393508","0.947002318648559"
"3238","-0.2749254720106","10.7250745279894","-27.2749254720106","-0.935409075852931","-0.0433918516064922","-0.0529976813514409"
"3247","0.7250745279894","5.7250745279894","-25.2749254720106","-0.935409075852931","-0.0433918516064922","-0.0529976813514409"
"3247","0.7250745279894","5.7250745279894","-25.2749254720106","-0.935409075852931","-0.0433918516064922","0.947002318648559"
"3255","1.7250745279894","5.7250745279894","-23.2749254720106","-0.935409075852931","-0.0433918516064922","0.947002318648559"
"3255","1.7250745279894","5.7250745279894","-23.2749254720106","0.0645909241470686","-0.0433918516064922","0.947002318648559"
"3267","-2.2749254720106","9.7250745279894","-27.2749254720106","0.0645909241470686","-0.0433918516064922","0.947002318648559"
"3267","-2.2749254720106","9.7250745279894","-27.2749254720106","4.06459092414707","-1.04339185160649","1.94700231864856"
"3275","-0.2749254720106","6.7250745279894","-27.2749254720106","4.06459092414707","-1.04339185160649","1.94700231864856"
"3276","-0.2749254720106","6.7250745279894","-27.2749254720106","3.06459092414707","0.956608148393508","-0.0529976813514409"
"3288","1.7250745279894","5.7250745279894","-26.2749254720106","3.06459092414707","0.956608148393508","-0.0529976813514409"
"3288","1.7250745279894","5.7250745279894","-26.2749254720106","-2.93540907585293","1.95660814839351","-0.0529976813514409"
"3296","0.7250745279894","3.7250745279894","-26.2749254720106","-2.93540907585293","1.95660814839351","-0.0529976813514409"
"3296","0.7250745279894","3.7250745279894","-26.2749254720106","2.06459092414707","-2.04339185160649","0.947002318648559"
"3304","-0.2749254720106","7.7250745279894","-24.2749254720106","2.06459092414707","-2.04339185160649","0.947002318648559"
"3308","-0.2749254720106","7.7250745279894","-24.2749254720106","2.06459092414707","-2.04339185160649","1.94700231864856"
"3316","-1.2749254720106","7.7250745279894","-27.2749254720106","2.06459092414707","-2.04339185160649","1.94700231864856"
"3317","-1.2749254720106","7.7250745279894","-27.2749254720106","0.0645909241470686","-2.04339185160649","1.94700231864856"
"3325","-0.2749254720106","6.7250745279894","-27.2749254720106","0.0645909241470686","-2.04339185160649","1.94700231864856"
"3328","-0.2749254720106","6.7250745279894","-27.2749254720106","1.06459092414707","-0.0433918516064922","0.947002318648559"
"3337","1.7250745279894","4.7250745279894","-26.2749254720106","1.06459092414707","-0.0433918516064922","0.947002318648559"
"3337","1.7250745279894","4.7250745279894","-26.2749254720106","-2.93540907585293","-0.0433918516064922","-1.05299768135144"
"3345","0.7250745279894","6.7250745279894","-25.2749254720106","-2.93540907585293","-0.0433918516064922","-1.05299768135144"
"3345","0.7250745279894","6.7250745279894","-25.2749254720106","-1.93540907585293","-0.0433918516064922","1.94700231864856"
"3357","0.7250745279894","9.7250745279894","-26.2749254720106","-1.93540907585293","-0.0433918516064922","1.94700231864856"
"3357","0.7250745279894","9.7250745279894","-26.2749254720106","-2.93540907585293","-0.0433918516064922","1.94700231864856"
"3366","-1.2749254720106","4.7250745279894","-27.2749254720106","-2.93540907585293","-0.0433918516064922","1.94700231864856"
"3369","-1.2749254720106","4.7250745279894","-27.2749254720106","-1.93540907585293","-2.04339185160649","1.94700231864856"
"3378","-0.2749254720106","6.7250745279894","-26.2749254720106","-1.93540907585293","-2.04339185160649","1.94700231864856"
"3378","-0.2749254720106","6.7250745279894","-26.2749254720106","2.06459092414707","-2.04339185160649","0.947002318648559"
"3386","-1.2749254720106","5.7250745279894","-26.2749254720106","2.06459092414707","-2.04339185160649","0.947002318648559"
"3386","-1.2749254720106","5.7250745279894","-26.2749254720106","4.06459092414707","-1.04339185160649","-1.05299768135144"
"3394","0.7250745279894","6.7250745279894","-26.2749254720106","4.06459092414707","-1.04339185160649","-1.05299768135144"
"3398","0.7250745279894","6.7250745279894","-26.2749254720106","2.06459092414707","-1.04339185160649","-1.05299768135144"
"3407","0.7250745279894","3.7250745279894","-25.2749254720106","2.06459092414707","-1.04339185160649","-1.05299768135144"
"3407","0.7250745279894","3.7250745279894","-25.2749254720106","-0.935409075852931","-2.04339185160649","-0.0529976813514409"
"3415","-0.2749254720106","7.7250745279894","-27.2749254720106","-0.935409075852931","-2.04339185160649","-0.0529976813514409"
"3419","-0.2749254720106","7.7250745279894","-27.2749254720106","0.0645909241470686","-2.04339185160649","-0.0529976813514409"
"3427","1.7250745279894","6.7250745279894","-27.2749254720106","0.0645909241470686","-2.04339185160649","-0.0529976813514409"
"3427","1.7250745279894","6.7250745279894","-27.2749254720106","1.06459092414707","-0.0433918516064922","-2.05299768135144"
"3435","-0.2749254720106","5.7250745279894","-24.2749254720106","1.06459092414707","-0.0433918516064922","-2.05299768135144"
"3435","-0.2749254720106","5.7250745279894","-24.2749254720106","-0.935409075852931","-0.0433918516064922","0.947002318648559"
"3448","-0.2749254720106","2.7250745279894","-25.2749254720106","-0.935409075852931","-0.0433918516064922","0.947002318648559"
"3448","-0.2749254720106","2.7250745279894","-25.2749254720106","-2.93540907585293","-0.0433918516064922","0.947002318648559"
"3456","1.7250745279894","6.7250745279894","-26.2749254720106","-2.93540907585293","-0.0433918516064922","0.947002318648559"
"3456","1.7250745279894","6.7250745279894","-26.2749254720106","0.0645909241470686","-0.0433918516064922","-3.05299768135144"
"3468","-0.2749254720106","6.7250745279894","-28.2749254720106","0.0645909241470686","-0.0433918516064922","-3.05299768135144"
"3468","-0.2749254720106","6.7250745279894","-28.2749254720106","0.0645909241470686","-2.04339185160649","0.947002318648559"
"3476","0.7250745279894","3.7250745279894","-28.2749254720106","0.0645909241470686","-2.04339185160649","0.947002318648559"
"3476","0.7250745279894","3.7250745279894","-28.2749254720106","-1.93540907585293","-2.04339185160649","-0.0529976813514409"
"3484","0.7250745279894","6.7250745279894","-25.2749254720106","-1.93540907585293","-2.04339185160649","-0.0529976813514409"
"3488","0.7250745279894","6.7250745279894","-25.2749254720106","3.06459092414707","-1.04339185160649","-2.05299768135144"
"3497","0.7250745279894","8.7250745279894","-25.2749254720106","3.06459092414707","-1.04339185160649","-2.05299768135144"
"3497","0.7250745279894","8.7250745279894","-25.2749254720106","4.06459092414707","-1.04339185160649","1.94700231864856"
"3505","-1.2749254720106","5.7250745279894","-26.2749254720106","4.06459092414707","-1.04339185160649","1.94700231864856"
"3509","-1.2749254720106","5.7250745279894","-26.2749254720106","1.06459092414707","-3.04339185160649","0.947002318648559"
"3517","-0.2749254720106","6.7250745279894","-27.2749254720106","1.06459092414707","-3.04339185160649","0.947002318648559"
"3517","-0.2749254720106","6.7250745279894","-27.2749254720106","-1.93540907585293","1.95660814839351","0.947002318648559"
"3525","-0.2749254720106","5.7250745279894","-27.2749254720106","-1.93540907585293","1.95660814839351","0.947002318648559"
"3525","-0.2749254720106","5.7250745279894","-27.2749254720106","-2.93540907585293","0.956608148393508","-0.0529976813514409"
"3537","-0.2749254720106","6.7250745279894","-26.2749254720106","-2.93540907585293","0.956608148393508","-0.0529976813514409"
"3538","-0.2749254720106","6.7250745279894","-26.2749254720106","0.0645909241470686","-0.0433918516064922","-2.05299768135144"
"3546","-0.2749254720106","5.7250745279894","-25.2749254720106","0.0645909241470686","-0.0433918516064922","-2.05299768135144"
"3546","-0.2749254720106","5.7250745279894","-25.2749254720106","-1.93540907585293","-3.04339185160649","0.947002318648559"
"3558","0.7250745279894","3.7250745279894","-26.2749254720106","-1.93540907585293","-3.04339185160649","0.947002318648559"
"3558","0.7250745279894","3.7250745279894","-26.2749254720106","-1.93540907585293","-4.04339185160649","-4.05299768135144"
"3566","-0.2749254720106","6.7250745279894","-26.2749254720106","-1.93540907585293","-4.04339185160649","-4.05299768135144"
"3566","-0.2749254720106","6.7250745279894","-26.2749254720106","-0.935409075852931","-1.04339185160649","-0.0529976813514409"
"3574","-1.2749254720106","6.7250745279894","-26.2749254720106","-0.935409075852931","-1.04339185160649","-0.0529976813514409"
"3578","-1.2749254720106","6.7250745279894","-26.2749254720106","1.06459092414707","-1.04339185160649","-0.0529976813514409"
"3587","1.7250745279894","3.7250745279894","-27.2749254720106","1.06459092414707","-1.04339185160649","-0.0529976813514409"
"3587","1.7250745279894","3.7250745279894","-27.2749254720106","2.06459092414707","-2.04339185160649","-0.0529976813514409"
"3595","0.7250745279894","4.7250745279894","-26.2749254720106","2.06459092414707","-2.04339185160649","-0.0529976813514409"
"3599","0.7250745279894","4.7250745279894","-26.2749254720106","2.06459092414707","-2.04339185160649","-2.05299768135144"
"3607","-1.2749254720106","7.7250745279894","-28.2749254720106","2.06459092414707","-2.04339185160649","-2.05299768135144"
"3607","-1.2749254720106","7.7250745279894","-28.2749254720106","0.0645909241470686","0.956608148393508","-0.0529976813514409"
"3615","0.7250745279894","6.7250745279894","-27.2749254720106","0.0645909241470686","0.956608148393508","-0.0529976813514409"
"3616","0.7250745279894","6.7250745279894","-27.2749254720106","-0.935409075852931","0.956608148393508","-0.0529976813514409"
"3628","0.7250745279894","3.7250745279894","-26.2749254720106","-0.935409075852931","0.956608148393508","-0.0529976813514409"
"3628","0.7250745279894","3.7250745279894","-26.2749254720106","-1.93540907585293","-1.04339185160649","3.94700231864856"
"3636","0.7250745279894","5.7250745279894","-25.2749254720106","-1.93540907585293","-1.04339185160649","3.94700231864856"
"3636","0.7250745279894","5.7250745279894","-25.2749254720106","-1.93540907585293","1.95660814839351","-2.05299768135144"
"3648","-1.2749254720106","8.7250745279894","-23.2749254720106","-1.93540907585293","1.95660814839351","-2.05299768135144"
"3648","-1.2749254720106","8.7250745279894","-23.2749254720106","0.0645909241470686","2.95660814839351","0.947002318648559"
"3656","-0.2749254720106","6.7250745279894","-27.2749254720106","0.0645909241470686","2.95660814839351","0.947002318648559"
"3657","-0.2749254720106","6.7250745279894","-27.2749254720106","0.0645909241470686","-0.0433918516064922","1.94700231864856"
"3665","0.7250745279894","4.7250745279894","-25.2749254720106","0.0645909241470686","-0.0433918516064922","1.94700231864856"
"3669","0.7250745279894","4.7250745279894","-25.2749254720106","0.0645909241470686","-0.0433918516064922","1.94700231864856"
"3677","-0.2749254720106","4.7250745279894","-26.2749254720106","0.0645909241470686","-0.0433918516064922","1.94700231864856"
"3677","-0.2749254720106","4.7250745279894","-26.2749254720106","-0.935409075852931","-0.0433918516064922","-1.05299768135144"
"3685","-0.2749254720106","5.7250745279894","-27.2749254720106","-0.935409075852931","-0.0433918516064922","-1.05299768135144"
"3685","-0.2749254720106","5.7250745279894","-27.2749254720106","0.0645909241470686","-0.0433918516064922","0.947002318648559"
"3697","-0.2749254720106","6.7250745279894","-24.2749254720106","0.0645909241470686","-0.0433918516064922","0.947002318648559"
"3698","-0.2749254720106","6.7250745279894","-24.2749254720106","-2.93540907585293","-1.04339185160649","-2.05299768135144"
"3706","0.7250745279894","4.7250745279894","-26.2749254720106","-2.93540907585293","-1.04339185160649","-2.05299768135144"
"3706","0.7250745279894","4.7250745279894","-26.2749254720106","-3.93540907585293","1.95660814839351","-0.0529976813514409"
"3718","0.7250745279894","4.7250745279894","-27.2749254720106","-3.93540907585293","1.95660814839351","-0.0529976813514409"
"3718","0.7250745279894","4.7250745279894","-27.2749254720106","-1.93540907585293","-0.0433918516064922","0.947002318648559"
"3726","1.7250745279894","6.7250745279894","-28.2749254720106","-1.93540907585293","-0.0433918516064922","0.947002318648559"
"3726","1.7250745279894","6.7250745279894","-28.2749254720106","0.0645909241470686","1.95660814839351","-0.0529976813514409"
"3734","-1.2749254720106","6.7250745279894","-28.2749254720106","0.0645909241470686","1.95660814839351","-0.0529976813514409"
"3738","-1.2749254720106","6.7250745279894","-28.2749254720106","2.06459092414707","-0.0433918516064922","0.947002318648559"
"3746","-0.2749254720106","6.7250745279894","-25.2749254720106","2.06459092414707","-0.0433918516064922","0.947002318648559"
"3747","-0.2749254720106","6.7250745279894","-25.2749254720106","0.0645909241470686","0.956608148393508","1.94700231864856"
"3755","2.7250745279894","5.7250745279894","-25.2749254720106","0.0645909241470686","0.956608148393508","1.94700231864856"
"3759","2.7250745279894","5.7250745279894","-25.2749254720106","1.06459092414707","-0.0433918516064922","0.947002318648559"
"3767","-1.2749254720106","7.7250745279894","-27.2749254720106","1.06459092414707","-0.0433918516064922","0.947002318648559"
"3767","-1.2749254720106","7.7250745279894","-27.2749254720106","0.0645909241470686","1.95660814839351","-1.05299768135144"
"3775","-1.2749254720106","6.7250745279894","-25.2749254720106","0.0645909241470686","1.95660814839351","-1.05299768135144"
"3775","-1.2749254720106","6.7250745279894","-25.2749254720106","-0.935409075852931","1.95660814839351","0.947002318648559"
"3787","-0.2749254720106","6.7250745279894","-28.2749254720106","-0.935409075852931","1.95660814839351","0.947002318648559"
"3788","-0.2749254720106","6.7250745279894","-28.2749254720106","-0.935409075852931","0.956608148393508","-3.05299768135144"
"3796","1.7250745279894","5.7250745279894","-25.2749254720106","-0.935409075852931","0.956608148393508","-3.05299768135144"
"3796","1.7250745279894","5.7250745279894","-25.2749254720106","1.06459092414707","-2.04339185160649","-0.0529976813514409"
"3808","1.7250745279894","6.7250745279894","-27.2749254720106","1.06459092414707","-2.04339185160649","-0.0529976813514409"
"3808","1.7250745279894","6.7250745279894","-27.2749254720106","0.0645909241470686","-2.04339185160649","-1.05299768135144"
"3816","-0.2749254720106","6.7250745279894","-27.2749254720106","0.0645909241470686","-2.04339185160649","-1.05299768135144"
"3816","-0.2749254720106","6.7250745279894","-27.2749254720106","-0.935409075852931","-3.04339185160649","0.947002318648559"
"3824","-0.2749254720106","7.7250745279894","-25.2749254720106","-0.935409075852931","-3.04339185160649","0.947002318648559"
"3828","-0.2749254720106","7.7250745279894","-25.2749254720106","3.06459092414707","-0.0433918516064922","0.947002318648559"
"3837","-0.2749254720106","6.7250745279894","-26.2749254720106","3.06459092414707","-0.0433918516064922","0.947002318648559"
"3837","-0.2749254720106","6.7250745279894","-26.2749254720106","2.06459092414707","1.95660814839351","0.947002318648559"
"3845","-0.2749254720106","3.7250745279894","-27.2749254720106","2.06459092414707","1.95660814839351","0.947002318648559"
"3849","-0.2749254720106","3.7250745279894","-27.2749254720106","-1.93540907585293","-2.04339185160649","-0.0529976813514409"
"3857","-0.2749254720106","5.7250745279894","-25.2749254720106","-1.93540907585293","-2.04339185160649","-0.0529976813514409"
"3857","-0.2749254720106","5.7250745279894","-25.2749254720106","4.06459092414707","-1.04339185160649","0.947002318648559"
"3865","-0.2749254720106","5.7250745279894","-27.2749254720106","4.06459092414707","-1.04339185160649","0.947002318648559"
"3865","-0.2749254720106","5.7250745279894","-27.2749254720106","-3.93540907585293","-0.0433918516064922","0.947002318648559"
"3878","-0.2749254720106","5.7250745279894","-28.2749254720106","-3.93540907585293","-0.0433918516064922","0.947002318648559"
"3878","-0.2749254720106","5.7250745279894","-28.2749254720106","0.0645909241470686","0.956608148393508","2.94700231864856"
"3886","-2.2749254720106","6.7250745279894","-26.2749254720106","0.0645909241470686","0.956608148393508","2.94700231864856"
"3886","-2.2749254720106","6.7250745279894","-26.2749254720106","-0.935409075852931","-0.0433918516064922","0.947002318648559"
"3898","-0.2749254720106","6.7250745279894","-27.2749254720106","-0.935409075852931","-0.0433918516064922","0.947002318648559"
"3898","-0.2749254720106","6.7250745279894","-27.2749254720106","4.06459092414707","-1.04339185160649","-0.0529976813514409"
"3906","-0.2749254720106","7.7250745279894","-24.2749254720106","4.06459092414707","-1.04339185160649","-0.0529976813514409"
"3906","-0.2749254720106","7.7250745279894","-24.2749254720106","1.06459092414707","0.956608148393508","-1.05299768135144"
"3914","0.7250745279894","4.7250745279894","-27.2749254720106","1.06459092414707","0.956608148393508","-1.05299768135144"
"3918","0.7250745279894","4.7250745279894","-27.2749254720106","0.0645909241470686","-1.04339185160649","-1.05299768135144"
"3927","0.7250745279894","5.7250745279894","-26.2749254720106","0.0645909241470686","-1.04339185160649","-1.05299768135144"
"3927","0.7250745279894","5.7250745279894","-26.2749254720106","-0.935409075852931","0.956608148393508","0.947002318648559"
"3935","-0.2749254720106","5.7250745279894","-26.2749254720106","-0.935409075852931","0.956608148393508","0.947002318648559"
"3939","-0.2749254720106","5.7250745279894","-26.2749254720106","0.0645909241470686","-0.0433918516064922","0.947002318648559"
"3947","-0.2749254720106","6.7250745279894","-24.2749254720106","0.0645909241470686","-0.0433918516064922","0.947002318648559"
"3947","-0.2749254720106","6.7250745279894","-24.2749254720106","1.06459092414707","-3.04339185160649","-2.05299768135144"
"3955","0.7250745279894","5.7250745279894","-26.2749254720106","1.06459092414707","-3.04339185160649","-2.05299768135144"
"3959","0.7250745279894","5.7250745279894","-26.2749254720106","-0.935409075852931","1.95660814839351","0.947002318648559"
"3968","-0.2749254720106","3.7250745279894","-27.2749254720106","-0.935409075852931","1.95660814839351","0.947002318648559"
"3968","-0.2749254720106","3.7250745279894","-27.2749254720106","2.06459092414707","0.956608148393508","2.94700231864856"
"3976","-1.2749254720106","8.7250745279894","-27.2749254720106","2.06459092414707","0.956608148393508","2.94700231864856"
"3976","-1.2749254720106","8.7250745279894","-27.2749254720106","2.06459092414707","-1.04339185160649","0.947002318648559"
"3988","-0.2749254720106","7.7250745279894","-27.2749254720106","2.06459092414707","-1.04339185160649","0.947002318648559"
"3988","-0.2749254720106","7.7250745279894","-27.2749254720106","-0.935409075852931","0.956608148393508","-1.05299768135144"
"3996","0.7250745279894","5.7250745279894","-27.2749254720106","-0.935409075852931","0.956608148393508","-1.05299768135144"
"3997","0.7250745279894","5.7250745279894","-27.2749254720106","0.0645909241470686","-2.04339185160649","1.94700231864856"
"4008","0.7250745279894","6.7250745279894","-26.2749254720106","0.0645909241470686","-2.04339185160649","1.94700231864856"
"4009","0.7250745279894","6.7250745279894","-26.2749254720106","-0.935409075852931","2.95660814839351","-0.0529976813514409"
"4017","0.7250745279894","5.7250745279894","-27.2749254720106","-0.935409075852931","2.95660814839351","-0.0529976813514409"
"4017","0.7250745279894","5.7250745279894","-27.2749254720106","-0.935409075852931","2.95660814839351","1.94700231864856"
"4025","2.7250745279894","6.7250745279894","-25.2749254720106","-0.935409075852931","2.95660814839351","1.94700231864856"
"4029","2.7250745279894","6.7250745279894","-25.2749254720106","2.06459092414707","-0.0433918516064922","0.947002318648559"
"4037","0.7250745279894","6.7250745279894","-26.2749254720106","2.06459092414707","-0.0433918516064922","0.947002318648559"
"4038","0.7250745279894","6.7250745279894","-26.2749254720106","1.06459092414707","0.956608148393508","-0.0529976813514409"
"4045","-0.2749254720106","6.7250745279894","-25.2749254720106","1.06459092414707","0.956608148393508","-0.0529976813514409"
"4049","-0.2749254720106","6.7250745279894","-25.2749254720106","2.06459092414707","-2.04339185160649","-1.05299768135144"
"4058","0.7250745279894","5.7250745279894","-25.2749254720106","2.06459092414707","-2.04339185160649","-1.05299768135144"
"4058","0.7250745279894","5.7250745279894","-25.2749254720106","-0.935409075852931","-1.04339185160649","-1.05299768135144"
"4066","-1.2749254720106","5.7250745279894","-29.2749254720106","-0.935409075852931","-1.04339185160649","-1.05299768135144"
"4066","-1.2749254720106","5.7250745279894","-29.2749254720106","0.0645909241470686","0.956608148393508","1.94700231864856"
"4078","-0.2749254720106","5.7250745279894","-27.2749254720106","0.0645909241470686","0.956608148393508","1.94700231864856"
"4078","-0.2749254720106","5.7250745279894","-27.2749254720106","-0.935409075852931","0.956608148393508","1.94700231864856"
"4086","-0.2749254720106","6.7250745279894","-27.2749254720106","-0.935409075852931","0.956608148393508","1.94700231864856"
"4087","-0.2749254720106","6.7250745279894","-27.2749254720106","-1.93540907585293","-2.04339185160649","-0.0529976813514409"
"4099","-0.2749254720106","4.7250745279894","-24.2749254720106","-1.93540907585293","-2.04339185160649","-0.0529976813514409"
"4099","-0.2749254720106","4.7250745279894","-24.2749254720106","-1.93540907585293","-1.04339185160649","1.94700231864856"
"4107","-0.2749254720106","5.7250745279894","-23.2749254720106","-1.93540907585293","-1.04339185160649","1.94700231864856"
"4107","-0.2749254720106","5.7250745279894","-23.2749254720106","-2.93540907585293","1.95660814839351","-1.05299768135144"
"4115","0.7250745279894","6.7250745279894","-29.2749254720106","-2.93540907585293","1.95660814839351","-1.05299768135144"
"4119","0.7250745279894","6.7250745279894","-29.2749254720106","0.0645909241470686","0.956608148393508","0.947002318648559"
"4127","0.7250745279894","5.7250745279894","-25.2749254720106","0.0645909241470686","0.956608148393508","0.947002318648559"
"4128","0.7250745279894","5.7250745279894","-25.2749254720106","0.0645909241470686","0.956608148393508","0.947002318648559"
"4136","-1.2749254720106","6.7250745279894","-26.2749254720106","0.0645909241470686","0.956608148393508","0.947002318648559"
"4140","-1.2749254720106","6.7250745279894","-26.2749254720106","-0.935409075852931","0.956608148393508","1.94700231864856"
"4148","1.7250745279894","6.7250745279894","-26.2749254720106","-0.935409075852931","0.956608148393508","1.94700231864856"
"4148","1.7250745279894","6.7250745279894","-26.2749254720106","2.06459092414707","0.956608148393508","-0.0529976813514409"
"4156","0.7250745279894","5.7250745279894","-26.2749254720106","2.06459092414707","0.956608148393508","-0.0529976813514409"
"4156","0.7250745279894","5.7250745279894","-26.2749254720106","1.06459092414707","2.95660814839351","-1.05299768135144"
"4168","-0.2749254720106","7.7250745279894","-27.2749254720106","1.06459092414707","2.95660814839351","-1.05299768135144"
"4169","-0.2749254720106","7.7250745279894","-27.2749254720106","-0.935409075852931","1.95660814839351","-0.0529976813514409"
"4177","0.7250745279894","7.7250745279894","-27.2749254720106","-0.935409075852931","1.95660814839351","-0.0529976813514409"
"4177","0.7250745279894","7.7250745279894","-27.2749254720106","-0.935409075852931","-0.0433918516064922","-3.05299768135144"
"4189","1.7250745279894","6.7250745279894","-25.2749254720106","-0.935409075852931","-0.0433918516064922","-3.05299768135144"
"4189","1.7250745279894","6.7250745279894","-25.2749254720106","2.06459092414707","-0.0433918516064922","-1.05299768135144"
"4197","-0.2749254720106","5.7250745279894","-27.2749254720106","2.06459092414707","-0.0433918516064922","-1.05299768135144"
"4197","-0.2749254720106","5.7250745279894","-27.2749254720106","2.06459092414707","-1.04339185160649","-0.0529976813514409"
"4205","-0.2749254720106","6.7250745279894","-27.2749254720106","2.06459092414707","-1.04339185160649","-0.0529976813514409"
"4209","-0.2749254720106","6.7250745279894","-27.2749254720106","-1.93540907585293","1.95660814839351","-0.0529976813514409"
"4218","1.7250745279894","5.7250745279894","-27.2749254720106","-1.93540907585293","1.95660814839351","-0.0529976813514409"
"4218","1.7250745279894","5.7250745279894","-27.2749254720106","-0.935409075852931","-1.04339185160649","-1.05299768135144"
"4226","-0.2749254720106","4.7250745279894","-25.2749254720106","-0.935409075852931","-1.04339185160649","-1.05299768135144"
"4230","-0.2749254720106","4.7250745279894","-25.2749254720106","3.06459092414707","-3.04339185160649","-2.05299768135144"
"4238","0.7250745279894","5.7250745279894","-27.2749254720106","3.06459092414707","-3.04339185160649","-2.05299768135144"
"4238","0.7250745279894","5.7250745279894","-27.2749254720106","1.06459092414707","-1.04339185160649","-0.0529976813514409"
"4246","-0.2749254720106","9.7250745279894","-24.2749254720106","1.06459092414707","-1.04339185160649","-0.0529976813514409"
"4247","-0.2749254720106","9.7250745279894","-24.2749254720106","1.06459092414707","-0.0433918516064922","-2.05299768135144"
"4259","-1.2749254720106","5.7250745279894","-27.2749254720106","1.06459092414707","-0.0433918516064922","-2.05299768135144"
"4259","-1.2749254720106","5.7250745279894","-27.2749254720106","-0.935409075852931","-4.04339185160649","-1.05299768135144"
"4267","0.7250745279894","2.7250745279894","-29.2749254720106","-0.935409075852931","-4.04339185160649","-1.05299768135144"
"4267","0.7250745279894","2.7250745279894","-29.2749254720106","-2.93540907585293","-4.04339185160649","-0.0529976813514409"
"4279","-0.2749254720106","2.7250745279894","-26.2749254720106","-2.93540907585293","-4.04339185160649","-0.0529976813514409"
"4279","-0.2749254720106","2.7250745279894","-26.2749254720106","-0.935409075852931","-1.04339185160649","0.947002318648559"
"4287","-0.2749254720106","7.7250745279894","-26.2749254720106","-0.935409075852931","-1.04339185160649","0.947002318648559"
"4287","-0.2749254720106","7.7250745279894","-26.2749254720106","2.06459092414707","0.956608148393508","-0.0529976813514409"
"4295","2.7250745279894","7.7250745279894","-25.2749254720106","2.06459092414707","0.956608148393508","-0.0529976813514409"
"4299","2.7250745279894","7.7250745279894","-25.2749254720106","-1.93540907585293","0.956608148393508","-0.0529976813514409"
"4308","1.7250745279894","4.7250745279894","-25.2749254720106","-1.93540907585293","0.956608148393508","-0.0529976813514409"
"4308","1.7250745279894","4.7250745279894","-25.2749254720106","-0.935409075852931","-0.0433918516064922","-0.0529976813514409"
"4316","-0.2749254720106","8.7250745279894","-27.2749254720106","-0.935409075852931","-0.0433918516064922","-0.0529976813514409"
"4320","-0.2749254720106","8.7250745279894","-27.2749254720106","1.06459092414707","1.95660814839351","-2.05299768135144"
"4328","0.7250745279894","6.7250745279894","-27.2749254720106","1.06459092414707","1.95660814839351","-2.05299768135144"
"4328","0.7250745279894","6.7250745279894","-27.2749254720106","1.06459092414707","0.956608148393508","-2.05299768135144"
"4336","1.7250745279894","4.7250745279894","-27.2749254720106","1.06459092414707","0.956608148393508","-2.05299768135144"
"4340","1.7250745279894","4.7250745279894","-27.2749254720106","1.06459092414707","1.95660814839351","-0.0529976813514409"
"4349","0.7250745279894","4.7250745279894","-23.2749254720106","1.06459092414707","1.95660814839351","-0.0529976813514409"
"4349","0.7250745279894","4.7250745279894","-23.2749254720106","-0.935409075852931","-2.04339185160649","-1.05299768135144"
"4357","-0.2749254720106","10.7250745279894","-26.2749254720106","-0.935409075852931","-2.04339185160649","-1.05299768135144"
"4357","-0.2749254720106","10.7250745279894","-26.2749254720106","-3.93540907585293","1.95660814839351","-2.05299768135144"
"4369","0.7250745279894","4.7250745279894","-27.2749254720106","-3.93540907585293","1.95660814839351","-2.05299768135144"
"4369","0.7250745279894","4.7250745279894","-27.2749254720106","-4.93540907585293","-0.0433918516064922","-1.05299768135144"
"4377","-0.2749254720106","2.7250745279894","-29.2749254720106","-4.93540907585293","-0.0433918516064922","-1.05299768135144"
"4377","-0.2749254720106","2.7250745279894","-29.2749254720106","-0.935409075852931","-1.04339185160649","-3.05299768135144"
"4390","-0.2749254720106","9.7250745279894","-25.2749254720106","-0.935409075852931","-1.04339185160649","-3.05299768135144"
"4390","-0.2749254720106","9.7250745279894","-25.2749254720106","2.06459092414707","-0.0433918516064922","-2.05299768135144"
"4398","1.7250745279894","9.7250745279894","-28.2749254720106","2.06459092414707","-0.0433918516064922","-2.05299768135144"
"4398","1.7250745279894","9.7250745279894","-28.2749254720106","-0.935409075852931","0.956608148393508","-1.05299768135144"
"4406","0.7250745279894","5.7250745279894","-24.2749254720106","-0.935409075852931","0.956608148393508","-1.05299768135144"
"4410","0.7250745279894","5.7250745279894","-24.2749254720106","-0.935409075852931","0.956608148393508","1.94700231864856"
"4418","0.7250745279894","5.7250745279894","-27.2749254720106","-0.935409075852931","0.956608148393508","1.94700231864856"
"4419","0.7250745279894","5.7250745279894","-27.2749254720106","3.06459092414707","-3.04339185160649","-2.05299768135144"
"4427","-1.2749254720106","6.7250745279894","-28.2749254720106","3.06459092414707","-3.04339185160649","-2.05299768135144"
"4430","-1.2749254720106","6.7250745279894","-28.2749254720106","3.06459092414707","-2.04339185160649","-1.05299768135144"
"4439","-0.2749254720106","6.7250745279894","-25.2749254720106","3.06459092414707","-2.04339185160649","-1.05299768135144"
"4439","-0.2749254720106","6.7250745279894","-25.2749254720106","1.06459092414707","-3.04339185160649","-1.05299768135144"
"4447","-0.2749254720106","5.7250745279894","-25.2749254720106","1.06459092414707","-3.04339185160649","-1.05299768135144"
"4447","-0.2749254720106","5.7250745279894","-25.2749254720106","3.06459092414707","-3.04339185160649","-1.05299768135144"
"4459","-1.2749254720106","6.7250745279894","-28.2749254720106","3.06459092414707","-3.04339185160649","-1.05299768135144"
"4459","-1.2749254720106","6.7250745279894","-28.2749254720106","-1.93540907585293","1.95660814839351","-0.0529976813514409"
"4468","-0.2749254720106","6.7250745279894","-31.2749254720106","-1.93540907585293","1.95660814839351","-0.0529976813514409"
"4468","-0.2749254720106","6.7250745279894","-31.2749254720106","2.06459092414707","-3.04339185160649","-1.05299768135144"
"4479","1.7250745279894","6.7250745279894","-28.2749254720106","2.06459092414707","-3.04339185160649","-1.05299768135144"
"4480","1.7250745279894","6.7250745279894","-28.2749254720106","2.06459092414707","0.956608148393508","-3.05299768135144"
"4488","-0.2749254720106","6.7250745279894","-26.2749254720106","2.06459092414707","0.956608148393508","-3.05299768135144"
"4488","-0.2749254720106","6.7250745279894","-26.2749254720106","1.06459092414707","0.956608148393508","-2.05299768135144"
"4496","0.7250745279894","4.7250745279894","-26.2749254720106","1.06459092414707","0.956608148393508","-2.05299768135144"
"4500","0.7250745279894","4.7250745279894","-26.2749254720106","-2.93540907585293","-0.0433918516064922","-0.0529976813514409"
"4508","-1.2749254720106","6.7250745279894","-27.2749254720106","-2.93540907585293","-0.0433918516064922","-0.0529976813514409"
"4509","-1.2749254720106","6.7250745279894","-27.2749254720106","-1.93540907585293","-2.04339185160649","-0.0529976813514409"
"4517","-1.2749254720106","4.7250745279894","-27.2749254720106","-1.93540907585293","-2.04339185160649","-0.0529976813514409"
"4520","-1.2749254720106","4.7250745279894","-27.2749254720106","2.06459092414707","-1.04339185160649","-1.05299768135144"
"4529","-0.2749254720106","6.7250745279894","-27.2749254720106","2.06459092414707","-1.04339185160649","-1.05299768135144"
"4529","-0.2749254720106","6.7250745279894","-27.2749254720106","1.06459092414707","2.95660814839351","0.947002318648559"
"4537","-0.2749254720106","5.7250745279894","-24.2749254720106","1.06459092414707","2.95660814839351","0.947002318648559"
"4541","-0.2749254720106","5.7250745279894","-24.2749254720106","-1.93540907585293","-1.04339185160649","-0.0529976813514409"
"4549","0.7250745279894","6.7250745279894","-27.2749254720106","-1.93540907585293","-1.04339185160649","-0.0529976813514409"
"4549","0.7250745279894","6.7250745279894","-27.2749254720106","6.06459092414707","-3.04339185160649","-1.05299768135144"
"4558","-1.2749254720106","6.7250745279894","-29.2749254720106","6.06459092414707","-3.04339185160649","-1.05299768135144"
"4558","-1.2749254720106","6.7250745279894","-29.2749254720106","5.06459092414707","-0.0433918516064922","-0.0529976813514409"
"4570","-0.2749254720106","8.7250745279894","-27.2749254720106","5.06459092414707","-0.0433918516064922","-0.0529976813514409"
"4570","-0.2749254720106","8.7250745279894","-27.2749254720106","2.06459092414707","0.956608148393508","-2.05299768135144"
"4578","0.7250745279894","6.7250745279894","-26.2749254720106","2.06459092414707","0.956608148393508","-2.05299768135144"
"4578","0.7250745279894","6.7250745279894","-26.2749254720106","2.06459092414707","-1.04339185160649","-0.0529976813514409"
"4590","0.7250745279894","3.7250745279894","-26.2749254720106","2.06459092414707","-1.04339185160649","-0.0529976813514409"
"4590","0.7250745279894","3.7250745279894","-26.2749254720106","0.0645909241470686","-0.0433918516064922","-2.05299768135144"
"4598","-1.2749254720106","4.7250745279894","-25.2749254720106","0.0645909241470686","-0.0433918516064922","-2.05299768135144"
"4599","-1.2749254720106","4.7250745279894","-25.2749254720106","1.06459092414707","-0.0433918516064922","-1.05299768135144"
"4607","-0.2749254720106","6.7250745279894","-26.2749254720106","1.06459092414707","-0.0433918516064922","-1.05299768135144"
"4611","-0.2749254720106","6.7250745279894","-26.2749254720106","0.0645909241470686","1.95660814839351","-0.0529976813514409"
"4619","-2.2749254720106","6.7250745279894","-28.2749254720106","0.0645909241470686","1.95660814839351","-0.0529976813514409"
"4619","-2.2749254720106","6.7250745279894","-28.2749254720106","0.0645909241470686","-0.0433918516064922","0.947002318648559"
"4627","0.7250745279894","5.7250745279894","-26.2749254720106","0.0645909241470686","-0.0433918516064922","0.947002318648559"
"4627","0.7250745279894","5.7250745279894","-26.2749254720106","2.06459092414707","-0.0433918516064922","-2.05299768135144"
"4639","-0.2749254720106","7.7250745279894","-25.2749254720106","2.06459092414707","-0.0433918516064922","-2.05299768135144"
"4640","-0.2749254720106","7.7250745279894","-25.2749254720106","1.06459092414707","-2.04339185160649","-0.0529976813514409"
"4648","-0.2749254720106","6.7250745279894","-27.2749254720106","1.06459092414707","-2.04339185160649","-0.0529976813514409"
"4648","-0.2749254720106","6.7250745279894","-27.2749254720106","1.06459092414707","-1.04339185160649","1.94700231864856"
"4660","-0.2749254720106","6.7250745279894","-25.2749254720106","1.06459092414707","-1.04339185160649","1.94700231864856"
"4660","-0.2749254720106","6.7250745279894","-25.2749254720106","-0.935409075852931","-0.0433918516064922","0.947002318648559"
"4668","0.7250745279894","6.7250745279894","-28.2749254720106","-0.935409075852931","-0.0433918516064922","0.947002318648559"
"4668","0.7250745279894","6.7250745279894","-28.2749254720106","2.06459092414707","0.956608148393508","-0.0529976813514409"
"4680","-2.2749254720106","6.7250745279894","-28.2749254720106","2.06459092414707","0.956608148393508","-0.0529976813514409"
"4680","-2.2749254720106","6.7250745279894","-28.2749254720106","-3.93540907585293","1.95660814839351","-0.0529976813514409"
"4689","-0.2749254720106","5.7250745279894","-24.2749254720106","-3.93540907585293","1.95660814839351","-0.0529976813514409"
"4689","-0.2749254720106","5.7250745279894","-24.2749254720106","-1.93540907585293","-1.04339185160649","-0.0529976813514409"
"4697","-0.2749254720106","5.7250745279894","-25.2749254720106","-1.93540907585293","-1.04339185160649","-0.0529976813514409"
"4701","-0.2749254720106","5.7250745279894","-25.2749254720106","-1.93540907585293","0.956608148393508","0.947002318648559"
"4709","-0.2749254720106","5.7250745279894","-27.2749254720106","-1.93540907585293","0.956608148393508","0.947002318648559"
"4709","-0.2749254720106","5.7250745279894","-27.2749254720106","-1.93540907585293","2.95660814839351","0.947002318648559"
"4717","0.7250745279894","5.7250745279894","-29.2749254720106","-1.93540907585293","2.95660814839351","0.947002318648559"
"4721","0.7250745279894","5.7250745279894","-29.2749254720106","-1.93540907585293","1.95660814839351","-0.0529976813514409"
"4730","-0.2749254720106","8.7250745279894","-25.2749254720106","-1.93540907585293","1.95660814839351","-0.0529976813514409"
"4730","-0.2749254720106","8.7250745279894","-25.2749254720106","-1.93540907585293","0.956608148393508","-0.0529976813514409"
"4738","0.7250745279894","6.7250745279894","-25.2749254720106","-1.93540907585293","0.956608148393508","-0.0529976813514409"
"4738","0.7250745279894","6.7250745279894","-25.2749254720106","-1.93540907585293","3.95660814839351","-2.05299768135144"
"4750","-1.2749254720106","2.7250745279894","-25.2749254720106","-1.93540907585293","3.95660814839351","-2.05299768135144"
"4750","-1.2749254720106","2.7250745279894","-25.2749254720106","-0.935409075852931","2.95660814839351","0.947002318648559"
"4758","-0.2749254720106","7.7250745279894","-25.2749254720106","-0.935409075852931","2.95660814839351","0.947002318648559"
"4758","-0.2749254720106","7.7250745279894","-25.2749254720106","1.06459092414707","0.956608148393508","-0.0529976813514409"
"4770","1.7250745279894","5.7250745279894","-28.2749254720106","1.06459092414707","0.956608148393508","-0.0529976813514409"
"4770","1.7250745279894","5.7250745279894","-28.2749254720106","1.06459092414707","1.95660814839351","0.947002318648559"
"4779","-1.2749254720106","3.7250745279894","-25.2749254720106","1.06459092414707","1.95660814839351","0.947002318648559"
"4779","-1.2749254720106","3.7250745279894","-25.2749254720106","0.0645909241470686","0.956608148393508","0.947002318648559"
"4787","-0.2749254720106","5.7250745279894","-26.2749254720106","0.0645909241470686","0.956608148393508","0.947002318648559"
"4791","-0.2749254720106","5.7250745279894","-26.2749254720106","0.0645909241470686","0.956608148393508","-0.0529976813514409"
"4799","-1.2749254720106","5.7250745279894","-25.2749254720106","0.0645909241470686","0.956608148393508","-0.0529976813514409"
"4799","-1.2749254720106","5.7250745279894","-25.2749254720106","-1.93540907585293","0.956608148393508","-1.05299768135144"
"4808","0.7250745279894","5.7250745279894","-25.2749254720106","-1.93540907585293","0.956608148393508","-1.05299768135144"
"4811","0.7250745279894","5.7250745279894","-25.2749254720106","-0.935409075852931","1.95660814839351","-1.05299768135144"
"4820","-0.2749254720106","6.7250745279894","-26.2749254720106","-0.935409075852931","1.95660814839351","-1.05299768135144"
"4820","-0.2749254720106","6.7250745279894","-26.2749254720106","1.06459092414707","-0.0433918516064922","1.94700231864856"
"4828","-0.2749254720106","6.7250745279894","-29.2749254720106","1.06459092414707","-0.0433918516064922","1.94700231864856"
"4828","-0.2749254720106","6.7250745279894","-29.2749254720106","0.0645909241470686","-2.04339185160649","-1.05299768135144"
"4840","-0.2749254720106","5.7250745279894","-25.2749254720106","0.0645909241470686","-2.04339185160649","-1.05299768135144"
"4840","-0.2749254720106","5.7250745279894","-25.2749254720106","-0.935409075852931","-0.0433918516064922","-1.05299768135144"
"4848","-1.2749254720106","6.7250745279894","-23.2749254720106","-0.935409075852931","-0.0433918516064922","-1.05299768135144"
"4849","-1.2749254720106","6.7250745279894","-23.2749254720106","-4.93540907585293","-0.0433918516064922","-2.05299768135144"
"4861","-0.2749254720106","6.7250745279894","-22.2749254720106","-4.93540907585293","-0.0433918516064922","-2.05299768135144"
"4861","-0.2749254720106","6.7250745279894","-22.2749254720106","-2.93540907585293","-0.0433918516064922","-0.0529976813514409"
"4869","0.7250745279894","5.7250745279894","-27.2749254720106","-2.93540907585293","-0.0433918516064922","-0.0529976813514409"
"4869","0.7250745279894","5.7250745279894","-27.2749254720106","1.06459092414707","-1.04339185160649","0.947002318648559"
"4877","-0.2749254720106","6.7250745279894","-26.2749254720106","1.06459092414707","-1.04339185160649","0.947002318648559"
"4881","-0.2749254720106","6.7250745279894","-26.2749254720106","0.0645909241470686","2.95660814839351","-0.0529976813514409"
"4889","-0.2749254720106","7.7250745279894","-25.2749254720106","0.0645909241470686","2.95660814839351","-0.0529976813514409"
"4890","-0.2749254720106","7.7250745279894","-25.2749254720106","-0.935409075852931","-0.0433918516064922","-2.05299768135144"
"4897","0.7250745279894","5.7250745279894","-25.2749254720106","-0.935409075852931","-0.0433918516064922","-2.05299768135144"
"4901","0.7250745279894","5.7250745279894","-25.2749254720106","-1.93540907585293","-0.0433918516064922","-1.05299768135144"
"4910","-1.2749254720106","5.7250745279894","-26.2749254720106","-1.93540907585293","-0.0433918516064922","-1.05299768135144"
"4910","-1.2749254720106","5.7250745279894","-26.2749254720106","-0.935409075852931","-2.04339185160649","-0.0529976813514409"
"4918","-0.2749254720106","6.7250745279894","-29.2749254720106","-0.935409075852931","-2.04339185160649","-0.0529976813514409"
"4918","-0.2749254720106","6.7250745279894","-29.2749254720106","0.0645909241470686","-0.0433918516064922","-0.0529976813514409"
"4930","-1.2749254720106","7.7250745279894","-25.2749254720106","0.0645909241470686","-0.0433918516064922","-0.0529976813514409"
"4930","-1.2749254720106","7.7250745279894","-25.2749254720106","-0.935409075852931","2.95660814839351","-0.0529976813514409"
"4938","-0.2749254720106","5.7250745279894","-27.2749254720106","-0.935409075852931","2.95660814839351","-0.0529976813514409"
"4939","-0.2749254720106","5.7250745279894","-27.2749254720106","2.06459092414707","0.956608148393508","-0.0529976813514409"
"4951","1.7250745279894","6.7250745279894","-27.2749254720106","2.06459092414707","0.956608148393508","-0.0529976813514409"
"4951","1.7250745279894","6.7250745279894","-27.2749254720106","2.06459092414707","0.956608148393508","-0.0529976813514409"
"4959","-0.2749254720106","5.7250745279894","-24.2749254720106","2.06459092414707","0.956608148393508","-0.0529976813514409"
"4959","-0.2749254720106","5.7250745279894","-24.2749254720106","1.06459092414707","-0.0433918516064922","0.947002318648559"
"4967","1.7250745279894","6.7250745279894","-27.2749254720106","1.06459092414707","-0.0433918516064922","0.947002318648559"
"4971","1.7250745279894","6.7250745279894","-27.2749254720106","0.0645909241470686","1.95660814839351","1.94700231864856"
"4979","1.7250745279894","6.7250745279894","-26.2749254720106","0.0645909241470686","1.95660814839351","1.94700231864856"
"4980","1.7250745279894","6.7250745279894","-26.2749254720106","0.0645909241470686","2.95660814839351","1.94700231864856"
"4988","-1.2749254720106","5.7250745279894","-23.2749254720106","0.0645909241470686","2.95660814839351","1.94700231864856"
"4991","-1.2749254720106","5.7250745279894","-23.2749254720106","1.06459092414707","-1.04339185160649","-0.0529976813514409"
"5000","0.7250745279894","8.7250745279894","-26.2749254720106","1.06459092414707","-1.04339185160649","-0.0529976813514409"
"5000","0.7250745279894","8.7250745279894","-26.2749254720106","0.0645909241470686","0.956608148393508","0.947002318648559"
"5008","-0.2749254720106","6.7250745279894","-27.2749254720106","0.0645909241470686","0.956608148393508","0.947002318648559"
"5008","-0.2749254720106","6.7250745279894","-27.2749254720106","0.0645909241470686","-0.0433918516064922","2.94700231864856"
"5020","0.7250745279894","6.7250745279894","-26.2749254720106","0.0645909241470686","-0.0433918516064922","2.94700231864856"
"5021","0.7250745279894","6.7250745279894","-26.2749254720106","-4.93540907585293","0.956608148393508","2.94700231864856"
"5029","-0.2749254720106","6.7250745279894","-27.2749254720106","-4.93540907585293","0.956608148393508","2.94700231864856"
"5029","-0.2749254720106","6.7250745279894","-27.2749254720106","-1.93540907585293","-0.0433918516064922","-2.05299768135144"
"5041","-0.2749254720106","9.7250745279894","-27.2749254720106","-1.93540907585293","-0.0433918516064922","-2.05299768135144"
"5041","-0.2749254720106","9.7250745279894","-27.2749254720106","1.06459092414707","-0.0433918516064922","-0.0529976813514409"
"5049","0.7250745279894","6.7250745279894","-25.2749254720106","1.06459092414707","-0.0433918516064922","-0.0529976813514409"
"5049","0.7250745279894","6.7250745279894","-25.2749254720106","1.06459092414707","-0.0433918516064922","-0.0529976813514409"
"5061","0.7250745279894","4.7250745279894","-24.2749254720106","1.06459092414707","-0.0433918516064922","-0.0529976813514409"
"5061","0.7250745279894","4.7250745279894","-24.2749254720106","-3.93540907585293","0.956608148393508","0.947002318648559"
"5070","0.7250745279894","7.7250745279894","-27.2749254720106","-3.93540907585293","0.956608148393508","0.947002318648559"
"5070","0.7250745279894","7.7250745279894","-27.2749254720106","0.0645909241470686","1.95660814839351","-2.05299768135144"
"5078","-1.2749254720106","7.7250745279894","-27.2749254720106","0.0645909241470686","1.95660814839351","-2.05299768135144"
"5082","-1.2749254720106","7.7250745279894","-27.2749254720106","-2.93540907585293","2.95660814839351","0.947002318648559"
"5090","-0.2749254720106","5.7250745279894","-25.2749254720106","-2.93540907585293","2.95660814839351","0.947002318648559"
"5090","-0.2749254720106","5.7250745279894","-25.2749254720106","0.0645909241470686","0.956608148393508","3.94700231864856"
"5098","-0.2749254720106","7.7250745279894","-27.2749254720106","0.0645909241470686","0.956608148393508","3.94700231864856"
"5098","-0.2749254720106","7.7250745279894","-27.2749254720106","0.0645909241470686","-0.0433918516064922","-0.0529976813514409"
"5111","0.7250745279894","5.7250745279894","-27.2749254720106","0.0645909241470686","-0.0433918516064922","-0.0529976813514409"
"5111","0.7250745279894","5.7250745279894","-27.2749254720106","-0.935409075852931","1.95660814839351","1.94700231864856"
"5119","-1.2749254720106","8.7250745279894","-29.2749254720106","-0.935409075852931","1.95660814839351","1.94700231864856"
"5119","-1.2749254720106","8.7250745279894","-29.2749254720106","1.06459092414707","4.95660814839351","-0.0529976813514409"
"5131","-0.2749254720106","4.7250745279894","-27.2749254720106","1.06459092414707","4.95660814839351","-0.0529976813514409"
"5131","-0.2749254720106","4.7250745279894","-27.2749254720106","0.0645909241470686","-0.0433918516064922","-1.05299768135144"
"5139","-0.2749254720106","7.7250745279894","-27.2749254720106","0.0645909241470686","-0.0433918516064922","-1.05299768135144"
"5139","-0.2749254720106","7.7250745279894","-27.2749254720106","1.06459092414707","-1.04339185160649","-1.05299768135144"
"5147","-0.2749254720106","7.7250745279894","-27.2749254720106","1.06459092414707","-1.04339185160649","-1.05299768135144"
"5148","-0.2749254720106","7.7250745279894","-27.2749254720106","1.06459092414707","-1.04339185160649","-1.05299768135144"
"5159","-0.2749254720106","5.7250745279894","-27.2749254720106","1.06459092414707","-1.04339185160649","-1.05299768135144"
"5160","-0.2749254720106","5.7250745279894","-27.2749254720106","-1.93540907585293","1.95660814839351","-1.05299768135144"
"5167","0.7250745279894","4.7250745279894","-28.2749254720106","-1.93540907585293","1.95660814839351","-1.05299768135144"
"5171","0.7250745279894","4.7250745279894","-28.2749254720106","1.06459092414707","0.956608148393508","-1.05299768135144"
"5180","-2.2749254720106","6.7250745279894","-27.2749254720106","1.06459092414707","0.956608148393508","-1.05299768135144"
"5180","-2.2749254720106","6.7250745279894","-27.2749254720106","1.06459092414707","-0.0433918516064922","-1.05299768135144"
"5188","-0.2749254720106","4.7250745279894","-26.2749254720106","1.06459092414707","-0.0433918516064922","-1.05299768135144"
"5192","-0.2749254720106","4.7250745279894","-26.2749254720106","0.0645909241470686","-3.04339185160649","-1.05299768135144"
"5201","-1.2749254720106","5.7250745279894","-24.2749254720106","0.0645909241470686","-3.04339185160649","-1.05299768135144"
"5201","-1.2749254720106","5.7250745279894","-24.2749254720106","0.0645909241470686","-3.04339185160649","-1.05299768135144"
"5209","-0.2749254720106","4.7250745279894","-23.2749254720106","0.0645909241470686","-3.04339185160649","-1.05299768135144"
"5209","-0.2749254720106","4.7250745279894","-23.2749254720106","1.06459092414707","-1.04339185160649","-2.05299768135144"
"5221","1.7250745279894","5.7250745279894","-30.2749254720106","1.06459092414707","-1.04339185160649","-2.05299768135144"
"5221","1.7250745279894","5.7250745279894","-30.2749254720106","-1.93540907585293","-2.04339185160649","-2.05299768135144"
"5229","-0.2749254720106","5.7250745279894","-27.2749254720106","-1.93540907585293","-2.04339185160649","-2.05299768135144"
"5229","-0.2749254720106","5.7250745279894","-27.2749254720106","-1.93540907585293","-1.04339185160649","-0.0529976813514409"
"5242","0.7250745279894","6.7250745279894","-26.2749254720106","-1.93540907585293","-1.04339185160649","-0.0529976813514409"
"5242","0.7250745279894","6.7250745279894","-26.2749254720106","-1.93540907585293","1.95660814839351","-2.05299768135144"
"5250","0.7250745279894","6.7250745279894","-26.2749254720106","-1.93540907585293","1.95660814839351","-2.05299768135144"
"5250","0.7250745279894","6.7250745279894","-26.2749254720106","-1.93540907585293","1.95660814839351","-2.05299768135144"
"5258","-0.2749254720106","7.7250745279894","-26.2749254720106","-1.93540907585293","1.95660814839351","-2.05299768135144"
"5262","-0.2749254720106","7.7250745279894","-26.2749254720106","2.06459092414707","-0.0433918516064922","-2.05299768135144"
"5270","-0.2749254720106","5.7250745279894","-29.2749254720106","2.06459092414707","-0.0433918516064922","-2.05299768135144"
"5271","-0.2749254720106","5.7250745279894","-29.2749254720106","-1.93540907585293","-3.04339185160649","-0.0529976813514409"
"5278","-1.2749254720106","7.7250745279894","-28.2749254720106","-1.93540907585293","-3.04339185160649","-0.0529976813514409"
"5282","-1.2749254720106","7.7250745279894","-28.2749254720106","2.06459092414707","-0.0433918516064922","-1.05299768135144"
"5291","0.7250745279894","7.7250745279894","-25.2749254720106","2.06459092414707","-0.0433918516064922","-1.05299768135144"
"5291","0.7250745279894","7.7250745279894","-25.2749254720106","1.06459092414707","0.956608148393508","-0.0529976813514409"
"5299","-0.2749254720106","6.7250745279894","-24.2749254720106","1.06459092414707","0.956608148393508","-0.0529976813514409"
"5299","-0.2749254720106","6.7250745279894","-24.2749254720106","1.06459092414707","0.956608148393508","-0.0529976813514409"
"5311","-1.2749254720106","3.7250745279894","-27.2749254720106","1.06459092414707","0.956608148393508","-0.0529976813514409"
"5311","-1.2749254720106","3.7250745279894","-27.2749254720106","2.06459092414707","0.956608148393508","-2.05299768135144"
"5320","1.7250745279894","5.7250745279894","-27.2749254720106","2.06459092414707","0.956608148393508","-2.05299768135144"
"5320","1.7250745279894","5.7250745279894","-27.2749254720106","5.06459092414707","-1.04339185160649","-2.05299768135144"
"5332","2.7250745279894","7.7250745279894","-27.2749254720106","5.06459092414707","-1.04339185160649","-2.05299768135144"
"5332","2.7250745279894","7.7250745279894","-27.2749254720106","3.06459092414707","-3.04339185160649","-2.05299768135144"
"5340","-0.2749254720106","6.7250745279894","-25.2749254720106","3.06459092414707","-3.04339185160649","-2.05299768135144"
"5340","-0.2749254720106","6.7250745279894","-25.2749254720106","3.06459092414707","-3.04339185160649","-2.05299768135144"
"5348","-0.2749254720106","6.7250745279894","-25.2749254720106","3.06459092414707","-3.04339185160649","-2.05299768135144"
"5348","-0.2749254720106","6.7250745279894","-25.2749254720106","4.06459092414707","-3.04339185160649","-2.05299768135144"
"5361","-0.2749254720106","6.7250745279894","-26.2749254720106","4.06459092414707","-3.04339185160649","-2.05299768135144"
"5361","-0.2749254720106","6.7250745279894","-26.2749254720106","4.06459092414707","-2.04339185160649","-1.05299768135144"
"5369","-0.2749254720106","4.7250745279894","-27.2749254720106","4.06459092414707","-2.04339185160649","-1.05299768135144"
"5373","-0.2749254720106","4.7250745279894","-27.2749254720106","0.0645909241470686","-1.04339185160649","-2.05299768135144"
"5381","-1.2749254720106","8.7250745279894","-27.2749254720106","0.0645909241470686","-1.04339185160649","-2.05299768135144"
"5381","-1.2749254720106","8.7250745279894","-27.2749254720106","0.0645909241470686","-1.04339185160649","-2.05299768135144"
"5389","-0.2749254720106","5.7250745279894","-25.2749254720106","0.0645909241470686","-1.04339185160649","-2.05299768135144"
"5393","-0.2749254720106","5.7250745279894","-25.2749254720106","-0.935409075852931","-1.04339185160649","-1.05299768135144"
"5397","-0.2749254720106","5.7250745279894","-25.2749254720106","-0.935409075852931","-1.04339185160649","-1.05299768135144"
"5401","-0.2749254720106","5.7250745279894","-25.2749254720106","-0.935409075852931","0.956608148393508","-0.0529976813514409"
"5410","-1.2749254720106","6.7250745279894","-25.2749254720106","-0.935409075852931","0.956608148393508","-0.0529976813514409"
"5410","-1.2749254720106","6.7250745279894","-25.2749254720106","-0.935409075852931","1.95660814839351","-2.05299768135144"
"5422","-0.2749254720106","7.7250745279894","-26.2749254720106","-0.935409075852931","1.95660814839351","-2.05299768135144"
"5422","-0.2749254720106","7.7250745279894","-26.2749254720106","-1.93540907585293","-0.0433918516064922","-0.0529976813514409"
"5430","-0.2749254720106","5.7250745279894","-27.2749254720106","-1.93540907585293","-0.0433918516064922","-0.0529976813514409"
"5430","-0.2749254720106","5.7250745279894","-27.2749254720106","1.06459092414707","-0.0433918516064922","-0.0529976813514409"
"5442","-0.2749254720106","8.7250745279894","-26.2749254720106","1.06459092414707","-0.0433918516064922","-0.0529976813514409"
"5442","-0.2749254720106","8.7250745279894","-26.2749254720106","2.06459092414707","0.956608148393508","-1.05299768135144"
"5446","-0.2749254720106","8.7250745279894","-26.2749254720106","2.06459092414707","0.956608148393508","-1.05299768135144"
"5447","-0.2749254720106","8.7250745279894","-26.2749254720106","-1.93540907585293","1.95660814839351","-0.0529976813514409"
"5459","0.7250745279894","5.7250745279894","-24.2749254720106","-1.93540907585293","1.95660814839351","-0.0529976813514409"
"5463","0.7250745279894","5.7250745279894","-24.2749254720106","-0.935409075852931","-3.04339185160649","-2.05299768135144"
"5471","-0.2749254720106","5.7250745279894","-28.2749254720106","-0.935409075852931","-3.04339185160649","-2.05299768135144"
"5471","-0.2749254720106","5.7250745279894","-28.2749254720106","-1.93540907585293","-1.04339185160649","-1.05299768135144"
"5479","-1.2749254720106","3.7250745279894","-23.2749254720106","-1.93540907585293","-1.04339185160649","-1.05299768135144"
"5483","-1.2749254720106","3.7250745279894","-23.2749254720106","0.0645909241470686","-0.0433918516064922","0.947002318648559"
"5491","-2.2749254720106","7.7250745279894","-26.2749254720106","0.0645909241470686","-0.0433918516064922","0.947002318648559"
"5492","-2.2749254720106","7.7250745279894","-26.2749254720106","1.06459092414707","-3.04339185160649","-0.0529976813514409"
"5500","-2.2749254720106","7.7250745279894","-26.2749254720106","1.06459092414707","-3.04339185160649","-0.0529976813514409"
"5500","-2.2749254720106","7.7250745279894","-26.2749254720106","0.0645909241470686","-0.0433918516064922","0.947002318648559"
"5512","-0.2749254720106","7.7250745279894","-27.2749254720106","0.0645909241470686","-0.0433918516064922","0.947002318648559"
"5512","-0.2749254720106","7.7250745279894","-27.2749254720106","-1.93540907585293","-0.0433918516064922","-0.0529976813514409"
"5520","1.7250745279894","7.7250745279894","-27.2749254720106","-1.93540907585293","-0.0433918516064922","-0.0529976813514409"
"5520","1.7250745279894","7.7250745279894","-27.2749254720106","1.06459092414707","-0.0433918516064922","-1.05299768135144"
"5532","-0.2749254720106","4.7250745279894","-26.2749254720106","1.06459092414707","-0.0433918516064922","-1.05299768135144"
"5533","-0.2749254720106","4.7250745279894","-26.2749254720106","0.0645909241470686","0.956608148393508","-2.05299768135144"
"5541","-1.2749254720106","6.7250745279894","-27.2749254720106","0.0645909241470686","0.956608148393508","-2.05299768135144"
"5541","-1.2749254720106","6.7250745279894","-27.2749254720106","0.0645909241470686","-1.04339185160649","-1.05299768135144"
"5549","-1.2749254720106","6.7250745279894","-27.2749254720106","0.0645909241470686","-1.04339185160649","-1.05299768135144"
"5549","-1.2749254720106","6.7250745279894","-27.2749254720106","-2.93540907585293","-2.04339185160649","-2.05299768135144"
"5561","-1.2749254720106","7.7250745279894","-27.2749254720106","-2.93540907585293","-2.04339185160649","-2.05299768135144"
"5561","-1.2749254720106","7.7250745279894","-27.2749254720106","-0.935409075852931","0.956608148393508","0.947002318648559"
"5569","-1.2749254720106","6.7250745279894","-27.2749254720106","-0.935409075852931","0.956608148393508","0.947002318648559"
"5573","-1.2749254720106","6.7250745279894","-27.2749254720106","0.0645909241470686","0.956608148393508","-1.05299768135144"
"5581","-1.2749254720106","5.7250745279894","-27.2749254720106","0.0645909241470686","0.956608148393508","-1.05299768135144"
"5582","-1.2749254720106","5.7250745279894","-27.2749254720106","-1.93540907585293","-1.04339185160649","-0.0529976813514409"
"5589","1.7250745279894","5.7250745279894","-26.2749254720106","-1.93540907585293","-1.04339185160649","-0.0529976813514409"
"5593","1.7250745279894","5.7250745279894","-26.2749254720106","-0.935409075852931","0.956608148393508","-1.05299768135144"
"5598","1.7250745279894","5.7250745279894","-26.2749254720106","-0.935409075852931","0.956608148393508","-1.05299768135144"
"5598","1.7250745279894","5.7250745279894","-26.2749254720106","2.06459092414707","-0.0433918516064922","0.947002318648559"
"5610","0.7250745279894","6.7250745279894","-25.2749254720106","2.06459092414707","-0.0433918516064922","0.947002318648559"
"5610","0.7250745279894","6.7250745279894","-25.2749254720106","0.0645909241470686","-1.04339185160649","-4.05299768135144"
"5622","0.7250745279894","5.7250745279894","-27.2749254720106","0.0645909241470686","-1.04339185160649","-4.05299768135144"
"5622","0.7250745279894","5.7250745279894","-27.2749254720106","4.06459092414707","-1.04339185160649","0.947002318648559"
"5630","-0.2749254720106","5.7250745279894","-27.2749254720106","4.06459092414707","-1.04339185160649","0.947002318648559"
"5631","-0.2749254720106","5.7250745279894","-27.2749254720106","0.0645909241470686","-1.04339185160649","-0.0529976813514409"
"5643","-0.2749254720106","3.7250745279894","-26.2749254720106","0.0645909241470686","-1.04339185160649","-0.0529976813514409"
"5643","-0.2749254720106","3.7250745279894","-26.2749254720106","-0.935409075852931","-0.0433918516064922","-1.05299768135144"
"5647","-0.2749254720106","3.7250745279894","-26.2749254720106","-0.935409075852931","-0.0433918516064922","-1.05299768135144"
"5647","-0.2749254720106","3.7250745279894","-26.2749254720106","-0.935409075852931","-0.0433918516064922","-0.0529976813514409"
"5659","-0.2749254720106","4.7250745279894","-27.2749254720106","-0.935409075852931","-0.0433918516064922","-0.0529976813514409"
"5663","-0.2749254720106","4.7250745279894","-27.2749254720106","2.06459092414707","0.956608148393508","-2.05299768135144"
"5671","0.7250745279894","5.7250745279894","-24.2749254720106","2.06459092414707","0.956608148393508","-2.05299768135144"
"5671","0.7250745279894","5.7250745279894","-24.2749254720106","3.06459092414707","-1.04339185160649","-1.05299768135144"
"5680","-3.2749254720106","7.7250745279894","-26.2749254720106","3.06459092414707","-1.04339185160649","-1.05299768135144"
"5680","-3.2749254720106","7.7250745279894","-26.2749254720106","2.06459092414707","0.956608148393508","-0.0529976813514409"
"5692","-2.2749254720106","6.7250745279894","-27.2749254720106","2.06459092414707","0.956608148393508","-0.0529976813514409"
"5692","-2.2749254720106","6.7250745279894","-27.2749254720106","0.0645909241470686","-1.04339185160649","-2.05299768135144"
"5696","-2.2749254720106","6.7250745279894","-27.2749254720106","0.0645909241470686","-1.04339185160649","-2.05299768135144"
"5700","-2.2749254720106","6.7250745279894","-27.2749254720106","-0.935409075852931","0.956608148393508","-1.05299768135144"
"5712","-1.2749254720106","6.7250745279894","-29.2749254720106","-0.935409075852931","0.956608148393508","-1.05299768135144"
"5712","-1.2749254720106","6.7250745279894","-29.2749254720106","0.0645909241470686","-2.04339185160649","0.947002318648559"
"5721","-0.2749254720106","6.7250745279894","-29.2749254720106","0.0645909241470686","-2.04339185160649","0.947002318648559"
"5721","-0.2749254720106","6.7250745279894","-29.2749254720106","-2.93540907585293","1.95660814839351","0.947002318648559"
"5729","1.7250745279894","5.7250745279894","-27.2749254720106","-2.93540907585293","1.95660814839351","0.947002318648559"
"5733","1.7250745279894","5.7250745279894","-27.2749254720106","2.06459092414707","-2.04339185160649","-2.05299768135144"
"5741","-2.2749254720106","5.7250745279894","-25.2749254720106","2.06459092414707","-2.04339185160649","-2.05299768135144"
"5741","-2.2749254720106","5.7250745279894","-25.2749254720106","-0.935409075852931","-0.0433918516064922","-0.0529976813514409"
"5749","-2.2749254720106","5.7250745279894","-25.2749254720106","-0.935409075852931","-0.0433918516064922","-0.0529976813514409"
"5749","-2.2749254720106","5.7250745279894","-25.2749254720106","0.0645909241470686","2.95660814839351","0.947002318648559"
"5762","0.7250745279894","7.7250745279894","-27.2749254720106","0.0645909241470686","2.95660814839351","0.947002318648559"
"5762","0.7250745279894","7.7250745279894","-27.2749254720106","4.06459092414707","-2.04339185160649","2.94700231864856"
"5770","0.7250745279894","5.7250745279894","-26.2749254720106","4.06459092414707","-2.04339185160649","2.94700231864856"
"5770","0.7250745279894","5.7250745279894","-26.2749254720106","1.06459092414707","0.956608148393508","0.947002318648559"
"5782","0.7250745279894","8.7250745279894","-24.2749254720106","1.06459092414707","0.956608148393508","0.947002318648559"
"5782","0.7250745279894","8.7250745279894","-24.2749254720106","-0.935409075852931","1.95660814839351","-0.0529976813514409"
"5790","-0.2749254720106","6.7250745279894","-27.2749254720106","-0.935409075852931","1.95660814839351","-0.0529976813514409"
"5790","-0.2749254720106","6.7250745279894","-27.2749254720106","-0.935409075852931","-1.04339185160649","-2.05299768135144"
"5798","-0.2749254720106","6.7250745279894","-27.2749254720106","-0.935409075852931","-1.04339185160649","-2.05299768135144"
"5798","-0.2749254720106","6.7250745279894","-27.2749254720106","-2.93540907585293","-3.04339185160649","-1.05299768135144"
"5811","-0.2749254720106","6.7250745279894","-25.2749254720106","-2.93540907585293","-3.04339185160649","-1.05299768135144"
"5811","-0.2749254720106","6.7250745279894","-25.2749254720106","1.06459092414707","-1.04339185160649","1.94700231864856"
"5823","-0.2749254720106","7.7250745279894","-26.2749254720106","1.06459092414707","-1.04339185160649","1.94700231864856"
"5823","-0.2749254720106","7.7250745279894","-26.2749254720106","-0.935409075852931","-0.0433918516064922","-0.0529976813514409"
