Timer,AX,AY,AZ,GX,GY,GZ
"1001","-10,9785257648148","78,1115990619908","-46,3163625257772","27,0718433377795","-9,97855005772107","35,296599459129"
"1001","-11,3064117300926","86,1583805303645","-47,1544526012227","-17,3380012144445","-1,64501976802192","44,5956116982545"
"1001","53,8974265153978","-142,675985017067","68,8694663466561","-3,41260735746898","-3,76048478663341","43,6245162652606"
"1001","32,2856879339911","-66,4040012682147","30,6556223318911","-71,6181726685087","-7,78518401149075","48,2385539919995"
"1001","25,4149856600125","-69,2750993305134","-40,1134808811471","-48,9164230550155","-7,29738539417448","47,6623622184759"
"1001","24,7910960515809","-57,962414955868","-22,0901300732228","9,01782528360162","-3,8667780230461","46,0519499355845"
"1001","81,0803771107377","27,494530170031","-63,5293976661483","-4,58621154876048","-4,57522325626254","45,8065299477354"
"1001","62,384457024835","0,951750802259228","-47,4702389444135","55,0923217920119","-12,9594816528135","42,0469845282077"
"1001","151,438988089849","96,7133687076272","19,7461644054299","34,9819663506456","-11,1160947115124","42,0065654482469"
"1001","119,487198205402","61,6373869202185","-0,129332277485998","27,5735373017629","7,43650382369575","36,0726617437418"
"1001","9,64374288781204","58,5225189901134","12,7038524603988","26,4768749413295","3,42142858423922","36,2067231028392"
"1001","41,6820304427411","54,7768623196893","5,78239757105073","-13,3242530306382","32,7564121632507","41,0179842434123"
"1001","-53,0372466977178","-14,7837313057864","-53,9616356379223","-1,5883855993572","24,8008303102729","40,9848830901767"
"1001","-17,4243304708569","7,56441641687911","-35,2935964943078","-42,9087432123096","36,4171711735915","38,611027804033"
"1001","26,265812381431","-68,0739742294819","-20,2546680627707","-28,602833547317","31,7906430563579","38,6485023572929"
"1001","16,5920618801911","-40,1807677729637","-22,6469883996173","-15,9691644660569","13,813718004721","29,3010722923449"
"1001","-29,7855495014078","15,7936673171132","-35,5416548453845","-17,3937049097114","17,0455302270644","29,5637127078373"
"1001","-15,7469873685731","1,1931795387261","-31,6349487666447","38,8637926303626","28,0033267006448","23,9218882212139"
"1002","-86,5021651648132","78,6862537374123","-65,8999831588298","21,7852486936775","26,1288611816261","24,2491141071558"
"1002","-61,2252878545997","51,2370330913201","-54,1198020306789","35,8387291512585","20,5526171185078","26,8631747360371"
"1002","4,71298527928379","69,3146580333161","-10,8113177561845","28,816010072484","21,4531998486008","27,0286564831074"
"1002","-13,7023767349831","59,6421935583857","-23,4220710309029","-5,79429503734717","3,93368682562588","24,8227789361891"
"1002","56,0183359707076","-34,2251748453113","-22,9270360084618","3,41062917294903","8,33771150882323","24,9951147068372"
"1002","30,4969608418697","-4,69573570245795","-24,8082823491742","-19,7391258964872","1,87826167181171","25,1378878792345"
"1002","6,82845390459291","4,13382082375333","-35,8202369653695","-11,2907470017804","4,44632354492546","25,2561770721483"
"1002","11,2343566565301","5,24749558248911","-32,4618882572996","3,11915926748944","-4,32786050038542","20,6686012199666"
"1002","1,69381183477545","44,2475957195512","-24,6158136069195","0,197312395065665","-1,63128002534931","20,8673097719722"
"1002","5,43888567175918","31,5836849107994","-26,7336233909996","25,1252436037105","-3,86305000399594","21,031957384783"
"1002","38,0697063892977","44,3976417255014","-20,2012211684305","17,1801070235605","-2,70329594420157","21,1683844010084"
"1002","27,7820637788769","38,4651272779595","-22,6341670556866","1,19563394115944","-3,89016349867718","21,2814289137237"
"1002","90,6055382762181","-12,2522192770422","-16,1773626468667","4,67186205288086","-3,33701091294998","21,3750991141898"
"1002","68,4539875987994","3,60674340980059","-18,6284436490337","-14,9482046638961","1,7417679819108","26,1382233285776"
"1002","72,0366662473639","-13,7242029337743","-3,37543671045468","-8,50088730798188","0,653893061304797","26,0850584433823"
"1002","67,8834392534408","-5,87299384107223","-8,71640188062909","-1,52526069431331","6,73834339121483","27,2123805621871"
"1002","96,8838332695084","10,0913876559881","4,08324186058683","-2,55108591761797","5,02909680084262","27,1465072069029"
"1002","86,738132308647","5,91304167779478","-0,846259158650792","17,7624702651196","14,1266188521373","28,2632981213942"
"1002","47,303566813891","20,7583263562149","-2,02879424800621","11,511417630273","11,5517728969852","28,1886989181255"
"1002","58,9831312284366","15,3120839450445","-2,31247189247763","-3,99361210178173","23,5704166339599","33,9837585131937"
"1003","14,1251208529234","-26,485787190801","-34,0625137815075","-0,381696542676962","20,0953527624111","33,7856906394013"
"1003","30,522843613373","-13,4916243952474","-23,6790125865101","-13,0954038444724","23,657536059661","40,6498150982601"
"1003","-11,4563728683892","-8,62038628970151","-35,2690053376113","-8,69351504846236","21,9986734001667","40,3376020714809"
"1003","4,62175837923067","-8,45427868317347","-30,0493218564771","8,00517172735069","16,5036023204407","40,0788944963006"
"1003","-44,4875864606748","14,4734634601737","-56,9589445133079","3,73107350829605","17,4347461165943","39,8645228700346"
"1003","-26,094674797557","6,96205053692356","-47,4142780062579","7,67242816751427","8,04427375224756","45,5437623941416"
"1003","-21,7474746640134","8,68514870656474","-29,2836182794276","5,78787246881801","10,5088259434459","45,2497242197159"
"1003","-20,7200055309463","7,09763478071609","-33,9342650210616","-1,61343482407028","-4,79835648335298","45,0060767411242"
"1003","-25,7681054362908","-7,36730398314566","-17,4488000188477","0,291918346129438","-0,561404652817237","44,8041842661301"
"1003","-23,9612335817742","-2,83001197545211","-23,4941115517229","-2,60282614785076","-5,4602493359624","48,1510149497625"
"1003","-21,7705278632913","-14,0681424717648","-49,5858660314247","-1,42206890287373","-3,30463043083078","47,9242837473034"
"1003","-22,2527503429958","-9,75839681182369","-41,8450016101948","10,9310249619953","-10,6105894713133","45,3936592577696"
"1003","60,5247348270856","65,2190731197157","-4,78583840695908","7,42707881820207","-8,36123245056722","45,2967196107649"
"1003","33,0893530439705","41,1676513068206","-15,8957376241515","25,3223114294892","-23,7494343686463","45,216392960329"
"1003","-5,14071763210652","40,6919118623657","-22,0811059693004","19,3868481085417","-19,5429858154541","45,1498322601358"
"1003","3,82353145512824","37,5780263628511","-21,5649103300627","-2,89682502833907","-11,4652593649952","46,2660530060184"
"1003","39,4515623777326","-5,42212422266366","-5,60008514972011","2,79666404793225","-12,4240513009788","46,1909818340212"
"1003","28,8723161779708","8,28422935867074","-10,7702926621024","-23,0638532468191","-20,9025644534072","47,3001505866884"
"1003","38,7174274454575","37,9745481449263","-4,97012832858126","-14,3826482143642","-19,0946659349533","47,2192359545049"
"1003","34,0443384751338","30,0820033394235","-7,57873033076173","10,3950879571878","2,69158537131201","47,1521880375108"
"1004","36,4671410311254","61,6442968719671","-20,5252804575432","4,40744462169741","-2,10604189873043","47,096630432505"
"1004","35,0397750864543","50,1998771516228","-16,6310207244121","18,1657859043209","2,58171236455694","41,1937208412345"
"1004","6,48404524181213","26,3328754522819","-29,7777137788524","13,0595393738801","0,346619378315341","41,302420197408"
"1004","15,7348434369129","32,6194425172477","-24,9314662144822","-17,574404872243","2,75213620033085","39,0497419815774"
"1004","28,5031758579403","0,672699935288424","-13,2082392051434","-9,24412924121716","1,65779662373191","39,1831156615408"
"1004","25,520995843295","12,0250878248882","-16,3959611987243","-8,60356433851816","12,6103338327827","39,2936324764429"
"1004","-66,8935478956579","-2,86344330495913","-17,1606619458808","-7,42227781849905","9,73388823709316","39,385209513079"
"1004","-36,7359034857709","3,57244649874842","-17,3441055566722","18,6668827530971","18,391967946653","24,2332223789183"
"1004","-130,136026187508","80,8194998962649","-114,194194205626","11,0503861425529","15,6516749933201","24,6779014336634"
"1004","-95,2113252656945","56,3113852438868","-82,4275047958082","20,9137658028622","9,74945289771556","22,7036245199326"
"1004","52,371392818964","83,8961391929762","-0,882367632013661","16,7052046823741","10,5273071562306","23,0676885818053"
"1004","8,25285278122083","71,4995510376191","-23,3205528182699","6,92919010472549","-8,66191921208575","19,8552374097869"
"1004","-62,1386836654827","-15,9774803718862","-19,902682864365","9,16247645093233","-3,88653003933697","20,1933188687558"
"1004","-44,7758590211971","11,0817178210782","-24,0827720588751","-21,1112933812909","-2,08862908910672","14,6165885928032"
"1004","-24,7992892927978","73,8989576182927","-35,6461947301373","-11,6790846505577","-1,41173183321707","14,9955684044807"
"1004","-29,0777885221949","56,9365434561172","-32,4201373682363","11,5942037525698","-15,7684470364662","11,7954768011679"
"1004","-5,39794705643884","107,454999181308","-22,8456874204361","6,180786074247","-12,1736508789938","12,1437997123257"
"1004","-13,8011708707167","88,5484247570622","-25,548878274771","-0,502236193148954","-15,6907557998333","-1,62406664648483"
"1004","37,122153138461","-153,660401069445","-8,59623922944076","0,606399098978907","-14,0149214438235","-1,03247000222283"
"1004","19,1579789493952","-76,6418727291763","-14,5294806569108","0,920154400328395","-13,3839814152511","-0,542258013978042"
"1005","23,7303521043421","-5,3862817772746","8,68874582471756","1,00895040910055","-13,1464368642474","-0,136055923838222"
"1005","19,8110413151567","-18,3286703823269","0,258552468427912","-4,11688824187789","-4,93946835706098","-6,82771434657371"
"1005","8,3028162217504","128,225264802273","-40,4861946267989","-2,56755381425001","-6,84960155378917","-6,37259228305544"
"1005","11,5828250327955","78,3082672920941","-28,2604279536579","64,8335188867232","-5,94524654740599","-17,7092128947321"
"1005","37,0491344468911","78,6831185518194","-35,8882595460881","44,9087224516244","-6,60476315086935","-17,1030243436815"
"1005","29,0681457765555","71,77285280332","-31,7180955636771","-48,2966722095103","-14,9706012133199","-18,9434703912662"
"1005","76,5639697321301","-135,873174401721","2,72438382891306","-23,6747668786537","-13,1202813038526","-18,468510678419"
"1005","59,7896992970947","-68,5807860073726","-8,01323012284596","-44,1783457932213","-7,55312789550318","-5,18982608067173"
"1005","62,8796604264926","40,840615792537","-12,3491805850964","-33,9810715649544","-8,45713319415668","-5,18677114269234"
"1005","59,6099786969434","14,0345989629688","-12,3893291817409","-31,0951370550649","-8,79748492815509","-5,18423974357883"
"1005","62,3644792600943","74,5209271743312","-19,4394027663032","-30,2783876170352","-8,92562499880321","-5,18214216205176"
"1005","61,0155107789368","51,000524740691","-17,1306407564663","45,5003039964022","-0,856334219016333","-11,037277202761"
"1005","104,787881276985","-37,378781561504","-41,2183414658656","22,94646071888","-2,81830212658437","-10,8889906422942"
"1005","90,1335654383574","-11,5355756055742","-32,9967257687786","-40,097168440612","4,56056517329601","4,46175355368275"
"1005","144,870376011257","-37,04011329147","-13,4233413293285","-24,9391702292583","2,33865760726646","4,18176964291629"
"1005","124,807526724019","-25,14554988728","-18,7278936913701","-6,91338239640681","7,99615250023867","5,12114250125782"
"1005","217,066277572043","11,1535060236508","50,404023988213","-9,81189723377682","6,12616014486013","4,89953068357311"
"1005","183,871811212013","0,843002264725974","26,9880389080801","34,0095229431429","16,7866694547033","2,37314824915549"
"1005","176,026235088109","-1,62519095431004","21,370792070922","20,4114399584152","13,800277377484","2,27972366966369"
"1005","174,171918044769","-2,21604256631029","20,023274043319","16,5630412515152","12,6759214435147","2,2023096929148"
"1006","-22,0312893529836","-23,4848488880323","-84,1465060916826","15,473904450107","12,2526092214206","2,13816250778774"
"1006","42,5957042941642","-16,5763094769317","-50,135733151246","-3,72121833590917","47,8103874687993","10,2846309327466"
"1006","91,3797322125833","-7,88004502471582","-10,2949182825848","1,84636256564457","39,1976447134773","10,035001345607"
"1006","83,9099312678536","-9,79827856075195","-18,7375287239168","15,4409730844662","27,8374720871713","8,65677730660367"
"1006","90,9626697724975","53,1246162773924","-3,16171565502338","12,2883890474517","28,5604457714588","8,51474590233568"
"1006","87,6295981159157","32,1874944832406","-9,42524305316647","28,5660711694619","40,1971888369159","2,54018192744363"
"1006","-57,7773216984314","-11,5580670487976","-53,1704511115004","23,1728242610579","37,5783420075019","2,58950664313404"
"1006","-10,1445275445099","-0,0301546267530026","-39,6644632474658","-29,8632090617964","39,8393781653589","7,31587687390596"
"1006","-16,5229055288494","-37,764645850444","-52,2655151052572","-14,8729572952799","38,6906426193461","7,23226715515689"
"1006","-8,0304474631107","-23,7977656222563","-46,2883739963444","-10,6305603648332","38,2581516421655","7,16298602102249"
"1006","-20,1324232014267","21,8004430816466","-62,4556270478927","-9,42991797431211","38,0953217845957","7,10557791561604"
"1006","-14,9927485000713","8,71602898846918","-56,3339798380299","38,9855854987949","2,31686510371649","8,22938273302803"
"1006","-17,3052726189453","-4,97988260173686","-31,9840238281945","24,6876757985144","10,8465239571965","8,16059591566871"
"1006","-15,8518421530421","-2,25849603381113","-39,1427272560833","-6,83061496968986","2,69333296048268","13,9604705636612"
"1006","-4,9264326283187","-12,1707156798286","-51,4206879373546","0,249381411249641","6,62371301745244","13,7663938398328"
"1006","-8,34419102270408","-8,54356514363087","-48,3660406768444","-16,6337918440313","-4,88458151832314","25,3193232426977"
"1006","24,3573285588181","55,7068186013664","-24,7518254742442","-10,4119052146413","-1,21737470709072","24,8923736437808"
"1006","13,0863957612089","35,0874794485723","-32,0870253300333","48,0096105986967","-11,2012452214225","16,3389699644356"
"1006","-5,45034358391786","63,6031529281568","-28,5663303220144","31,5435063076506","-7,96010332394661","16,2514026758415"
"1006","-0,831537667407514","51,4294141433406","-30,7217528749963","-24,6262606511072","-19,7278912532576","18,5215914589213"
"1007","113,133602622622","-150,434161482956","58,5268241892728","-10,5228880487879","-16,1583819074963","18,4027274792805"
"1007","76,069483257639","-85,7575334714405","28,9366126529866","-51,1732171107277","-14,8144863604648","18,3042337701705"
"1007","0,290680450124974","-28,0201064961224","4,23712837270212","-36,67768240725","-14,3085189945365","18,2226193840161"
"1007","20,3802143032569","-38,1985581918786","8,31198367013828","54,9911747985052","16,7286058043944","7,6126199631304"
"1007","-124,781671755465","87,8896610410885","-98,0772477097458","29,9344134101421","9,41386833479716","7,82090526725302"
"1007","-74,0909634009709","45,0734517643837","-62,5988976181826","69,2018093043001","1,78939956042969","3,30799723446551"
"1007","-10,9643226611908","124,615137700729","-17,125694762066","53,3148901519557","1,9188398722974","3,56848714600135"
"1007","-25,0442194126974","92,6563266134279","-27,2171549741888","-6,12494062654902","-1,27944059832616","3,78433569533013"
"1007","-75,9905280996533","44,5117100851461","-50,7593164911886","9,05296995369485","-0,483571044919062","3,96319327938259"
"1007","-61,0317863834955","55,9865490623072","-44,406831719298","-20,9913160136359","6,31009603305124","4,11139921114615"
"1007","-133,333126033066","46,4091721806724","-85,1255920660729","-9,49416096584479","4,86786463644235","4,23420640619057"
"1007","-107,421687057923","51,1164794831946","-70,8935914471871","4,06159100311349","-3,79266012471459","5,50734219361909"
"1007","-44,860730195037","41,6796620294736","-39,3177157749775","1,89800959292407","-2,05328771637407","5,56229480654284"
"1007","-62,0743274214992","45,4206173316437","-47,7429976009083","-15,8842025614197","-37,1155784183783","11,4647030857377"
"1007","46,7306822923029","48,0767644461473","-14,5619216771586","-10,9167532773887","-28,3162880338622","11,3555883300023"
"1007","8,44695611677508","47,7126096434399","-26,6021329623835","-11,2279031553569","-44,4854992554659","6,57967455517557"
"1007","115,799296373715","3,61009316926128","-1,32868269395172","-10,3159618022537","-38,5730952959497","6,62223123640086"
"1007","75,1722289712768","18,0525554728352","-11,2658496293342","-23,7937898447968","-39,5941300047856","1,97199626214473"
"1007","100,8429047003","-61,2389615699392","65,5553058269004","-19,6081551541568","-37,9785425011973","2,11869358599457"
"1008","86,9102184025209","-33,2202634799112","38,9838874576379","-20,1405666815517","-3,27663955385971","-0,102498549743005"
"1008","-112,147734855898","1,65684803869627","-51,8756227454083","-19,2912446731381","-11,2116134320404","0,0569652949306899"
"1008","-48,1954658969358","-5,99404970960481","-25,6718570087629","15,2889145668185","24,7650900775273","-8,01052132774379"
"1008","-73,6441294824677","0,977498842516501","-73,9492794166577","5,07545876226928","14,310069782034","-7,69544541546259"
"1008","-56,6589701865294","-2,35360803015871","-54,5305217773294","5,61892392733728","2,25629242106817","-12,1198640410517"
"1008","-3,26234902380609","-31,3208487353","-35,7912827483375","3,77273021318226","2,7181287265122","-11,7860495617347"
"1008","-18,6419546620563","-22,2552089522511","-39,295937760453","-5,33470985422353","-10,0960485093311","-12,6808170452934"
"1008","-45,2043790425924","96,1154859135557","-13,7350085270166","-2,91220997817028","-6,92049749041381","-12,4222440824251"
"1008","-38,4824592579103","58,4518071284593","-22,6032123031984","35,5471541655881","-4,10141759918595","-9,86523470540395"
"1008","-45,711960916664","59,9993211573199","-42,3317063752268","24,4315536361066","-4,04005354447457","-9,74643186426521"
"1008","-42,4206675723594","54,369774795833","-37,0643631713749","-2,75213135794786","-5,64045732865297","-8,4766141860734"
"1008","34,1941030502476","-45,572229298513","18,762644981168","3,55460347391113","-5,24299826934664","-8,42441104264364"
"1008","9,30215180197851","-13,4969746426975","1,15495300919696","-53,0381719650605","-18,0814130924979","-0,181531783634235"
"1008","-7,16299729967574","-85,0462155580808","-32,9908258592059","-35,0545151557755","-14,9149873573378","-0,351272907736368"
"1008","-5,05456703504602","-57,1741227276659","-24,1820365938579","-5,92709890667598","-7,22882229489551","0,679449920495196"
"1008","7,78930102693784","65,6985791177173","-44,9503390118945","-11,6837376068319","-8,33503438159814","0,533533005410508"
"1008","3,8249740066671","29,1126190706045","-36,9324348183117","55,3666584377031","-7,12800864507359","-1,93012671233273"
"1008","25,8154226078051","106,624513816764","7,23362965377736","34,3426168668971","-7,67357181487055","-1,97157765751254"
"1008","18,0129075327856","76,1797985516636","-6,17139921361576","21,5246363000125","-7,87897256984692","-3,17729959229484"
"1008","-38,5043221798994","49,5250003492127","-21,7078978073818","21,8970146790774","-7,95630453153445","-3,17639137662618"
"1009","-20,8622783890391","54,1442071584711","-18,4349392830098","-38,0922348815512","-6,3619125537423","0,338485083905246"
"1009","29,1623025465947","-96,1627973302836","-45,8115606404619","-20,0698155226101","-6,76163501651658","0,251000891532687"
"1009","14,9857086992991","-46,1442331482601","-36,3789221760095","-37,2901486622193","-8,53563468114313","4,86400779024104"
"1009","64,54448556998","16,8873229037938","1,08607970370965","-29,1636817816516","-8,20353326853811","4,68646233851587"
"1009","46,2577980338515","2,97621311425536","-9,92646311296953","46,966746168186","-16,1960340156702","3,36796904289186"
"1009","-58,5922359251365","78,8737012381929","-63,6114626282258","25,5124479268053","-14,2051551926388","3,27543204795717"
"1009","-26,3737436046721","52,0425191649808","-47,4899254687989","17,7236690973862","-3,71456154946371","9,05562669626855"
"1009","44,732489764434","-10,7201366997933","3,90044650251752","16,5193637986811","-5,76492569838457","8,84524262542275"
"1009","25,5385851157108","6,25534410733654","-10,7715475037831","-35,3311555445813","-13,0309013032083","16,8705354568447"
"1009","73,9115109049811","-5,52648197134931","-9,0108717132263","-20,0053910097432","-11,7664907958533","16,5204966986749"
"1009","55,3445451794125","0,653110421495472","-11,5885042372512","-3,64911317956588","-12,9139559226502","18,5731949631619"
"1009","15,6832455930981","0,371806391527288","-59,7298369212762","-6,0201166863067","-12,3459685957947","18,2741128220798"
"1009","26,3092209679553","1,3044660640817","-44,2784327984298","5,32779199918959","0,855930105274296","18,0262857722639"
"1009","35,875283022839","-7,27533656079275","-3,60948218776575","1,5393680103326","-2,17364646726028","17,8209299914131"
"1009","34,1362402331032","-4,32922366025206","-14,8534316348418","-9,83473301030003","-1,69075413884619","18,8221416115188"
"1009","24,9069737569512","-14,1876469037593","-12,2704042587316","-7,05372172430583","-2,50894852160581","18,6517709606815"
"1009","27,7256188310701","-10,5476182464736","-14,6507633463765","2,31828142443237","-9,31102074321041","16,1678482571022"
"1010","35,446403316658","-6,15501787450507","-29,3026710054878","-0,0293443519969361","-7,87195382496764","16,1096068877867"
"1010","33,2712256156806","-7,10348957816523","-24,8175084840231","7,89120124486743","-7,33015509691459","10,2044734616098"
"1010","68,0300796117911","6,75436900021982","-21,9814549042278","5,1327979072168","-7,1261716281831","10,3113300914188"
"1010","56,2454017696589","2,07175032059642","-22,3011156852456","14,6540788026946","-3,80235941338473","15,0853727258144"
"1010","25,2417012889111","50,2479795629785","-31,1783518730598","11,3487001789092","-4,55096713451565","15,041265570157"
"1010","33,9139169044234","33,7807082360895","-28,3079068214448","17,2812021587276","3,28472187208882","15,0047172619805"
"1010","65,9456290089858","5,190077312428","2,30256258342317","14,9601618307237","1,23480451479283","14,9744324065948"
"1010","56,5163859227926","12,3458723129721","-7,35430998204901","-6,30059206174172","-2,78398902451232","12,6065883471039"
"1010","43,7058777077096","14,0588715136044","-6,15067026010149","-0,317606215823373","-2,29703695876829","12,6445326871957"
"1010","46,6780893921139","14,4689400330552","-7,86192983777674","-2,05833831452158","1,13331097302616","13,8473489600395"
"1010","42,0896331382873","39,2156967860004","-50,5150970561071","-0,55098357674078","0,424813211501005","13,8440330391719"
"1010","44,005142656044","31,1397310173911","-36,7471401596545","6,74357192680641","8,27560334010416","12,6699107530205"
"1010","62,0943577434782","-4,24520498138621","3,51796928969948","4,80800689155769","6,23137145065358","12,6970032392279"
"1010","56,3697786058249","6,28412654981022","-7,82285737515408","-12,909674260625","-2,65580232673342","11,5480781306402"
"1010","30,3256902818464","7,04409042458063","-5,26306981762474","-7,92396203279892","-1,00176170328158","11,5960496374294"
"1010","38,1701197928599","8,22601535533845","-7,64900389162926","3,78898399384008","7,73850776483697","9,293050785001"
"1010","17,0967408963378","36,6787713738393","-34,6230230634036","1,10386936360383","6,02915868637294","9,38472750878792"
"1010","25,1160071641752","27,4899710115836","-26,0938045983066","14,0798709535145","5,38560059691222","3,6038200179784"
"1010","65,8116337913954","20,0084570676248","-15,247182464202","9,75221416508554","5,143305433374","3,81361340944543"
"1011","53,4301236068632","21,217485218299","-17,6451926837958","-5,20847456710004","0,181562205036281","-1,86941961390397"
"1011","46,9764336589534","-26,0296602534418","-5,89967580722346","-1,44250485180561","1,31350024352458","-1,57852495562382"
"1011","47,4510915968991","-10,3399790117484","-10,0820506977127","-14,1126132274775","6,6101878528074","-4,85160615176109"
"1011","5,23572418824811","3,97959780957485","-33,9667958157103","-9,69838548258001","5,6043540539928","-4,56376426896462"
"1011","19,2580407089933","1,40750814608597","-26,6964932216175","17,3057310312088","8,47267844649206","-5,49662581232529"
"1011","20,8085941820506","94,104311902512","-35,5130881664937","9,94817645453505","7,5525827148754","-5,26961855385536"
"1011","22,1750704849112","63,2946556342503","-31,62809592291","30,1867770869545","12,0766938216545","-7,42426384030333"
"1011","45,4254647293853","1,34022131357573","-13,0950215235789","22,9145112529207","10,7799903203446","-7,20965758801442"
"1011","37,9207402363731","17,5091792757765","-18,6491332469936","-25,5023350966979","10,2917904327886","-8,20320403280192"
"1011","-11,4715138102011","-52,5659698190077","-28,7820587812016","-12,2048054444165","10,1079865562903","-8,02648182323047"
"1011","3,85453171646482","-27,3409996199493","-26,212840305592","-34,1963106702184","10,0387856697745","-0,851797536962453"
"1011","2,18592790973865","-38,9086247700973","-29,1167331829334","-25,4201350408163","10,0127320152716","-0,906672115589207"
"1011","4,79155018291158","-31,6777556121507","-27,8133463309547","26,8563126287711","6,75590914322701","-0,952142583607635"
"1011","31,8621151105245","61,6051283525786","-32,7810093995542","12,6510902337407","7,52973788795106","-0,989820566993676"
"1011","23,2602953238511","31,9357716496698","-30,9726991604019","8,63086476830847","7,82107905096962","-1,02104149991795"
"1011","42,3910154964782","-10,3789397557649","-28,7787940943206","7,4930992097373","7,9307669810804","-1,04691195701421"
"1011","34,9125980937566","-0,508501433675602","-29,2524995031985","-16,8667548632351","-1,76897782760637","-3,41109813408908"
"1011","57,83613272973","-17,5124046813418","-6,4846987394815","-9,76084655395275","0,579135430251834","-3,37012277982691"
"1011","49,2541543380556","-10,5829059559963","-14,0229444553304","5,98611621202887","9,58071843822785","-3,33616956174036"
"1011","154,808319589494","101,994584895092","8,81025849507914","2,44267021410904","7,96975209771927","-3,30803506384056"
"1011","118,756250057582","65,9440925070969","0,287702071185488","30,6286616437496","4,11622057615503","-3,28472210510845"
"1012","133,162698850172","46,7504166911562","3,52356281304224","21,6055899425657","4,66539264700963","-3,26540439605316"
"1012","123,567690798273","48,1557138905027","1,29981153610367","-11,853846119422","14,6131936829384","2,60747589773866"
"1012","121,299892145805","48,4921227701517","0,766357155078826","-3,32321401629215","12,3584718766532","2,47389350417317"
"1012","120,763893561926","48,572654442996","0,638387098541579","-0,908956536646242","11,509584732301","2,3632037438789"
"1012","78,3096555357717","-25,3538432959297","-27,5540810084338","-0,225696596754131","11,1899846016606","2,27148340029937"
"1012","92,2755145255219","-1,05083315138218","-18,3171555390864","-44,6740569160809","30,5517404753531","5,7096054866508"
"1012","46,1942262089114","47,0217033222527","-26,661978483421","-31,2534045027104","25,8413074664764","5,55852067257388"
"1012","63,302824869474","34,5296093683933","-22,6638131331397","65,2622186954548","46,7969590230353","-8,62316759734042"
"1012","-10,2540400182882","50,9059242067753","-46,3462438725455","38,5771424187936","40,6866166997821","-8,37447428728453"
"1012","16,3606531461256","43,8261894219356","-38,0274082016093","-10,1827620532292","40,009622059766","-6,99702607122621"
"1012","-12,6218742502416","-24,7719230738973","-34,2716970332107","0,0176785875985139","38,754738266518","-6,85563753353306"
"1012","0,528049520633282","-3,1933705666374","-34,3707416982218","-29,7182934513071","35,0352693578469","-5,56710477417704"
"1012","37,1453727247951","-12,1126706867576","-51,9956073679776","-19,1338823597925","35,6349150739672","-5,49939383969294"
"1012","26,7999476631582","-6,24782883128296","-46,2236259885894","13,050439350323","5,01404594319123","-11,3001599915309"
"1012","31,4093787915238","30,3684081346248","30,8457666022131","5,15893664297598","12,4855007889523","-11,1068219904064"
"1012","28,4988267258045","19,1338331709756","6,33389769261438","30,3973932527704","13,6749448669225","-5,0897440677105"
"1012","-118,571877840591","14,6838162643692","-126,274202574906","21,5401385860921","15,1227623244465","-5,10384064767156"
"1012","-70,3323224206323","14,6185432369505","-86,0854814623903","-22,1743072203409","12,4208417183684","1,9127263485163"
"1012","136,834125499263","-55,8216307232733","43,2428872637845","-10,5459493777885","13,4035873230961","1,72683177189279"
"1012","74,7983148869094","-32,684042471666","6,26739328801678","-14,1229618008044","-21,9435681302352","3,91554406954763"
"1013","21,3357738586961","30,9550313922417","-57,1660644341747","-11,1352934654045","-13,2515273516823","3,72916660702494"
"1013","30,6997992096427","13,1893530363868","-41,3830791589705","48,0878945964684","-1,86149956883074","-6,96764215677923"
"1013","50,5494853751649","75,8398143144091","11,6861883910589","30,8486718774854","-2,57323299344918","-6,83128927655225"
"1013","45,2409969710473","52,8374756616581","-3,58305634600658","25,9697928109135","-2,84119569850669","-6,71830382072301"
"1013","-5,39582051349837","64,9371683265736","-14,2864288131401","24,589019365715","-2,94208180110927","-6,62468120558139"
"1013","10,6360700450555","57,8336688357862","-12,8540545155045","-20,4434838375095","13,2550045378072","3,99526853849194"
"1013","-71,9935172384175","-1,9670640432185","-114,596857331371","-7,18814992686937","9,35309536690229","3,79522832460232"
"1013","-42,5231795046519","16,7174605118907","-81,003878234622","-13,7386904548349","-11,5980295215641","2,45809529835664"
"1013","64,970131740888","45,8388714547187","-76,4654994915523","-9,59256145456559","-7,48598293912481","2,35011294973877"
"1013","33,3763831034009","38,8101379125416","-73,3767904941263","8,75073225742124","-33,5374436182921","-0,0821132238299438"
"1013","285,165406279988","51,2124651812367","122,736433613104","3,94207488128823","-26,3456381372322","-0,0975175368375888"
"1013","197,676227362926","46,1814122647738","58,7819191680061","6,01515413286626","-12,2734247020163","-8,30990435137275"
"1013","176,997991244686","44,9770471839429","43,4399084535603","4,60185709092546","-13,9753338047556","-8,11489641418581"
"1013","172,110650270015","44,6887386982225","39,7595225604857","4,20187935032929","-14,6160907948837","-7,95330789008049"
"1013","-197,646929235346","-101,511216521829","-49,1288925563627","4,08868149579142","-14,8573313639229","-7,81941153950526"
"1013","-76,039846052739","-53,5094810620209","-20,4522819831327","-47,453043109129","40,2510787092394","1,66253541349755"
"1013","-82,5707389207464","-1,52440842455513","-133,260586946122","-32,0398864563675","26,9990134328893","1,51951721579114"
"1013","-64,1143280418149","-12,0798948707123","-92,3221046268855","41,0017815309116","-25,0719982104369","-0,941740551191982"
"1013","245,35899670575","-19,8885747227303","107,590547486696","21,6733321419623","-15,6763734616162","-0,981201179034458"
"1013","145,503613681678","-18,7578656042443","47,5474755830354","11,0522113865815","-26,7505481477924","-1,01389925638103"
"1014","-13,8983001617772","-0,881052222789696","36,6639996914276","11,0463239076815","-21,9198982198057","-1,04099371282077"
"1014","25,4267501706874","-6,60158823172282","32,0531690848908","-0,974269611835565","28,6040157955409","11,8216760631389"
"1014","34,7213016363863","-7,97100611048342","30,9470796527099","2,62377758285828","17,6259195046485","11,4800105654873"
"1014","36,9180867954179","-8,29882597277267","30,6817405118081","3,64206230629883","13,4927422830414","11,196897866078"
"1014","-147,745746354325","-25,9834386757623","-30,9857822004407","3,93024745837842","11,9366296845953","10,9623035007771"
"1014","-86,3913993554752","-20,2168924599204","-10,7791678182278","-4,57314122339624","30,8328471779761","14,2820365480156"
"1014","-87,7630137974632","-98,0640774225992","-146,740662251431","-1,97968853186342","25,9471421931299","14,0328515725993"
"1014","-79,087197515332","-71,6996260377293","-99,3563848856317","0,471275128564931","-21,3504858182586","27,8828661400932"
"1014","-24,1272094505774","33,2060299957152","-7,02431140556341","0,16492329882871","-11,1577151914332","27,3593395856485"
"1014","-41,1373103073245","2,31900555097289","-30,8748248070173","65,3238279022804","-26,8022907527494","29,2682814607559"
"1014","18,3336501504635","170,986446662696","30,2878920467916","45,7644746096564","-20,6923651006478","28,8500791283336"
"1014","-3,61027368392935","111,363119244165","6,96018008521143","65,9838187133798","-13,5214996313021","26,1607968059022"
"1014","-8,7967623905888","97,090112233872","1,36410903435062","56,7061030817374","-13,8217184459523","25,9323892464314"
"1014","-10,0225989960798","93,6733500715418","0,0216708536212473","54,0804132047231","-13,9347487504178","25,743124947953"
"1014","-119,658508303773","-42,7118317864794","-14,3812505718706","53,337315700555","-13,9773038772256","25,5862957485978"
"1014","-83,571166849255","1,6394258329579","-9,83635888981294","-72,2132304726173","0,618236744306762","40,684213285198"
"1014","-75,0418541192375","-59,928653456074","-87,9510640732176","-34,7453389386477","-2,886643297235","40,1947307902585"
"1014","-73,0259346107826","-33,6672073971189","-61,689954584354","49,6890169120252","-30,1823171713662","42,13188243677"
"1014","-76,0767642921721","187,414295586374","-57,1503031227692","30,5848165066159","-24,4589493410596","41,737055436615"
"1015","-74,7978337694398","118,338175861944","-55,06128881365","56,0839424480365","-19,0571271401871","37,895767877537"
"1015","29,55968017203","129,972119390264","40,4858154748106","45,3004599093769","-19,0233784934076","37,7127795526029"
"1015","-4,77522020416502","116,757125942673","9,40655391597639","-14,4120349205142","-38,4927554710283","51,6176463440956"
"1015","-12,8903401065733","113,593637719441","1,95096820838682","1,6887089014482","-33,8228410624202","51,1395717340575"
"1015","-14,8083643416493","112,836342017538","0,162452154426267","6,24538661654669","-32,0646506303936","50,743426983425"
"1015","28,8295087318073","51,0335758798375","-31,948584532269","7,53497373307188","-31,4027041095812","50,4151713928569"
"1015","14,1434041675633","71,2388411253207","-21,6516821661688","-52,1946962292292","-26,282965051644","44,2862973326881"
"1015","58,2908129820153","-59,491551283894","-27,982117288149","-34,0988131481103","-27,355418754533","44,2077567968707"
"1015","41,7251381725524","-13,7866146106531","-24,5007216323646","13,9472500614796","11,2049760727057","40,6285522263317"
"1015","34,2825128483726","5,95758907010481","16,8169718943832","2,54478492982012","1,72269766422989","40,6627325147476"
"1015","34,5234340034462","5,68408069258536","3,72864900245865","-0,682231122180368","-1,84731448435762","40,691055168883"
"1015","36,344024254926","-19,0299854349368","9,38945190242444","-1,59551017891301","-3,19139933317098","40,7145240386455"
"1015","35,7743242710041","-10,9461939788653","5,74741856822092","13,5989288941595","7,66711051057271","29,0202246395795"
"1015","35,6396745814091","-9,0110451517572","4,87373334176693","8,89911295293881","4,75526426305813","29,3300314730868"
"1015","35,6078498676656","-8,54779705791317","4,66414550857625","5,85202661731684","10,1530020208169","17,8729989751752"
"1015","30,309383819284","102,481762059244","-64,0304454167938","5,98966953897054","8,18521290305207","18,3794111824413"
"1015","32,057081153182","66,0607160398693","-41,5095502797703","14,6135719880282","18,808902409176","18,7990371850619"
"1015","-9,85740093978582","-72,9433976715332","-53,7081319441827","12,0542259442263","15,8086479308623","19,1467499367469"
"1015","4,23603040543502","-32,2190764261832","-46,6344424981799","-31,5948359298616","16,3025798246721","10,0638765043018"
"1015","92,222147531217","51,4755435724595","-18,535880457651","-18,9479737554139","15,4885417618264","10,5375771456394"
"1016","65,0178359531965","29,5108879533422","-26,7953329978405","-13,6517908021309","18,4290759205822","12,1014721448347"
"1016","106,206542404545","61,2257385429141","-9,41547169781621","-13,1529160231042","17,536166665852","12,3973552171908"
"1016","88,9415725871152","47,8178388901123","-16,24622703082","17,8940837822851","2,58843018349389","6,7856582875217"
"1016","127,188517410934","14,6777384572287","-12,6045211240308","8,68070716429983","5,96071092266693","7,13566384282235"
"1016","112,228256561052","23,7444528410131","-14,7309144439459","24,9601116563812","3,98333741371438","1,56881417560868"
"1016","94,5831854896361","20,6330588019314","7,6404239924629","18,567352196595","5,23886998245379","1,95598131035516"
"1016","98,4127389217953","22,8882337333829","0,00707116296908466","-10,7136989550004","8,95858315060414","1,10542319064233"
"1016","49,9357152436129","12,8644094144332","-0,0639787505658165","-3,00054052781853","8,35902939648611","1,40062915398509"
"1016","66,478077232434","16,4648433222891","-1,08102287237912","6,05032186989816","24,368370818271","1,64524430458747"
"1016","21,0057503672122","-14,3643089920722","-47,087876335543","4,61180992573829","20,3957769863466","1,84793862426404"
"1016","38,2582782409025","-3,74438531715657","-32,1244332525022","-4,38025196679991","12,4060952188179","-2,66960224007878"
"1016","1,77204081166867","18,1646296223436","13,7077924434539","-1,92509886900477","13,3980353681464","-2,41295121030463"
"1016","16,1484482489463","12,4093473755984","0,702458008429734","-14,9661819608504","25,136042444888","-4,54303291578731"
"1016","19,5463398647981","11,0316117239568","-2,41738399144004","-10,6569439133698","22,5553208143901","-4,30807265713241"
"1016","20,3494380994196","10,7018007008958","-3,16580104697832","-0,852436719807123","29,7012316229414","-0,599254735881224"
"1016","45,2303249232357","3,58039361519639","40,6574263862436","-3,0776593598016","27,3916175513326","-0,526034113605691"
"1016","37,110970494979","5,87562640984006","26,1701545439918","-26,0282854659997","15,1575153687763","-2,80811090837197"
"1016","-100,608956120637","61,0040987496188","-67,0708286536726","-19,5235510066524","17,5514606277821","-2,69909763681353"
"1016","-56,1593263034914","43,201099088916","-38,4383530677946","42,411992909164","-1,0293186715452","-3,78014110432868"
"1016","-167,345287562657","-22,6821748405007","-112,534812559061","24,9403950658853","3,97514660870552","-3,67592114758921"
"1016","-124,624303875407","-3,4537272071559","-84,3097684832975","9,69381373852226","28,5883900878423","-4,76093647736977"
"1017","28,3283768162321","-62,2327941534715","22,7874243274412","11,378872880258","23,8551057917514","-4,66000770646959"
"1017","-16,5209622059372","-40,3036967834791","-8,52109331442197","-44,8048951626549","17,2025362586242","5,9659961036225"
"1017","-27,1211899544063","-35,0541715717412","-16,0316751284272","-27,7054850125592","17,6978899036556","5,7709724424277"
"1017","-29,6265742202451","-33,7975072191818","-17,8333841658886","9,75662832143553","-21,0797790984967","-6,10437541094592"
"1017","-30,2187266219158","43,9703243368009","4,61584259135946","1,35879545589166","-11,679302912082","-5,94458991987802"
"1017","-30,3586829837344","18,5868768344867","-2,9988256548299","69,3786957361789","-3,26956795620669","-16,3545592781814"
"1017","-86,8285002429376","88,2168171976414","-68,1894851777958","47,6290339328293","-3,10336098931997","-15,9805239894395"
"1017","-68,1752504272847","61,8852701330721","-47,8280340052086","8,85085108600397","0,206228634165696","-6,29959181994585"
"1017","-47,8936862216626","78,4698370922826","-78,1457493109515","16,8762226114416","-0,547733794091866","-6,27772581901216"
"1017","-52,1000994183316","69,4399550095511","-65,4186481374687","-11,7583269616436","-12,1961439070324","1,94001531407157"
"1017","24,5062218795385","-34,8372702546197","18,5995358058193","-1,86220187353298","-9,58168964019243","1,74944410107306"
"1017","-1,38772638292265","-1,7998081009524","-7,24539164847677","12,957431603967","-16,714900344786","2,76290658918564"
"1017","-7,50781097889595","6,10890731862702","-13,4453160378376","10,1515417866741","-14,4005047719952","2,60268731838346"
"1017","-8,95430477282112","8,00214534329624","-14,9326122394526","-47,3032114521734","-24,893699348323","13,012297235794"
"1017","-41,0418516654665","-24,9962999682089","-31,130394160411","-30,5635033122814","-21,8443144327207","12,6379641052093"
"1017","-30,6258052390875","-13,8956752907859","-26,0160705030082","-0,0711478410386182","-9,33169365089316","21,6987792163388"
"1017","19,4545453595351","-49,9718396291236","-21,2689772393865","-6,44149456581879","-11,6207785862328","21,2068004903396"
"1017","4,29113277961208","-36,6079786840789","-22,1301998388407","5,49154806853925","-38,4587140232121","12,5995120265046"
"1017","-27,5111381706925","-14,0421027878354","-46,9783462847505","0,868723064089979","-32,5630108415149","12,4672944384252"
"1018","-19,0276662253226","-19,6401415286191","-38,9391534664629","-3,87356365138926","-35,2138402033167","7,67223707059921"
"1018","65,8688781081946","31,8381761282725","14,0325708730076","-3,21568004265533","-33,2118590989659","7,69893088499231"
"1018","38,9343400439534","14,1613794885485","-2,26007344725389","7,27244553832931","-30,8346201526816","11,2351739468076"
"1018","32,5683100420479","9,92979676275985","-6,16850627481745","4,24069400166038","-30,9396061536469","11,1653946623295"
"1018","31,0636865772421","8,91681388299118","-7,10609791846363","22,2695625907176","-35,8496534332494","8,76482451691902"
"1018","18,3625294165503","47,4078213427896","-10,8512374050547","16,3719196393488","-34,6982522280972","8,77565119195682"
"1018","22,3605864334914","34,6220407279389","-9,74965670553581","14,7028254344306","-27,77072994558","7,61324781957028"
"1018","92,087809724877","-14,2146563487634","-28,846615655742","14,230454440143","-29,1625657847291","7,65005089503219"
"1018","69,5679733855207","0,0945080351307191","-22,4277738643453","-25,3939925916573","-19,9455407839169","17,0515438970193"
"1018","51,8998301441047","49,2958822970275","-5,04696638321065","-13,6081226194026","-22,4753947062272","16,8418595143842"
"1018","54,7239304244008","35,0740166307014","-9,87749473738644","-1,68765094293571","-18,5573464094082","16,668109715239"
"1018","50,1004677546509","86,2485220865412","-18,0767296939641","-3,31403365902323","-20,0822283612085","16,5241362236342"
"1018","52,0077034385109","67,4989969718534","-16,0436393272483","25,4145065889424","-9,29178737457789","10,5479629859041"
"1018","52,4584822695864","63,0106177587466","-15,5559224794194","16,5449818379585","-12,2292610753654","10,5959542255798"
"1018","52,5650247154233","61,9361613211876","-15,4389243727192","10,6008349903186","-5,21766495049061","16,4925941342914"
"1018","52,5902062279132","-70,3670772401264","-27,7316318984495","10,9185796997917","-7,57784757026927","16,3786995604299"
"1018","52,5961579269407","-27,0386583683399","-23,6805222497508","-33,633225225784","-3,59591920315368","18,6270728870138"
"1018","15,5609551109742","-6,10274674938262","-36,7895886705424","-20,2418487103009","-5,09675075090689","18,4901320666622"
"1018","27,8076135206794","-7,09097658756892","-31,9343148752394","-21,6029189245845","-5,66180343420219","19,5480340587254"
"1019","51,8659117113765","34,9271838355881","-9,64825902656811","-18,9881159305546","-5,87454185603054","19,4246384883271"
"1019","45,5521368737119","20,9857552747414","-16,3020702456874","2,35577584725399","-1,08411562111941","16,9796405281576"
"1019","65,2236408814417","26,4514370080641","-10,8578067295243","-3,60368111368784","-2,28055332112848","16,9536531887522"
"1019","57,8730387807905","22,7598462678851","-13,5517855686734","22,1815645075053","-9,22503153204632","11,0752462700438"
"1019","56,1357098021681","21,8761300649325","-14,1980425619964","13,4790568097033","-7,83957948250698","11,2042491619929"
"1019","55,7250887484596","21,6645805237384","-14,3530727706044","-7,8707290082814","-0,82393867806339","1,94014719110064"
"1019","59,1553338146815","-31,2044729049679","-30,2312581890086","-2,91294012192168","-2,18259850399697","2,26367726771201"
"1019","57,9660788496762","-13,8605993388128","-25,040266715283","-20,3967201382502","-4,31763144446079","3,70313712714729"
"1019","75,3214768655507","43,1096975376867","-4,43378634128086","-14,3448114598087","-4,12145655977034","3,89591008577827"
"1019","69,4234586482178","26,747605415401","-10,4905099294748","11,4057961516787","-0,800584222782874","-0,629851870031899"
"1019","60,9748583831274","3,46399408800919","-1,38279023331447","4,6934855373986","-1,55029878754863","-0,380013045216719"
"1019","62,9780154213735","8,89021680838855","-5,19794473217921","19,9637280686774","-3,45606805460558","-10,7153619265236"
"1019","28,1785040099667","-5,6563432892282","-32,5148187479275","14,2853652933821","-3,17357698470792","-10,2794942174206"
"1019","39,9535723936051","-0,138590309618347","-24,0678475289459","-4,49156648987566","3,42680664976911","-9,91832317569219"
"1019","42,7366325086865","1,18228409254655","-22,0415085899257","0,19436680856083","1,91180537532421","-9,61904768760512"
"1019","43,3944141326913","1,49848331218212","-21,555411338101","-3,63043424609937","11,0824594427646","-3,51418727557749"
"1019","-7,59591199957542","33,2652238911671","-17,9185805746226","-1,71289266685146","8,53514718519487","-3,45554505783618"
"1019","9,35242610851659","22,869745990299","-19,0461433897885","14,2826980455521","15,6936363912676","0,107171261524536"
"1019","-28,969355230278","-2,50676713318996","-36,9177396713953","9,80961633858297","13,3887579992104","0,0593283898753503"
"1019","-14,0267821349968","4,4184435957274","-31,2049463528258","-0,0412603122052699","7,65046647033933","-2,32306468733832"
"1020","-5,20413195836558","-18,5723478888005","-17,5137336037268","2,17083928982667","8,49003945188193","-2,29717603244031"
"1020","-6,11888157884198","-10,0760281132767","-21,2293566600045","-14,3730096946385","18,547174419431","7,09527300376866"
"1020","-38,0807497108774","18,3670800214799","-41,4819117753343","-9,0550907725721","16,3336160811777","6,87809456164433"
"1020","-27,6349988671167","10,1759700881506","-35,3402852657786","-5,83307487409271","7,38269206853479","2,0126364746995"
"1020","-25,1661255155408","8,21513068917154","-33,8669741081336","-5,92121091273539","9,01273116993306","1,98099446716417"
"1020","-24,58260253885","7,74573262469874","-33,513542364301","14,6577210475864","8,00292267652913","-3,90209805301571"
"1020","-3,28090889454507","18,1970474384725","-15,827651928385","8,48177251384327","8,62273677247715","-3,7769777693196"
"1020","-10,2462125315478","14,6989488931942","-21,5849941126452","15,3188630115301","-0,884949067795073","-2,50192529795121"
"1020","16,3258936762017","12,1009383561627","-22,9661195303587","12,2538306286426","1,53547306151244","-2,44538447208862"
"1020","6,6062622100483","12,47901025833","-23,2974368914614","-2,3495222838511","-0,8002686216882","-2,39853330933788"
"1020","-16,8547682903729","30,1756526105947","-49,7785752729284","1,51757717950972","0,320340811427057","-2,35971124726841"
"1020","-10,3998280825655","24,411986127835","-41,1311199260187","2,61200648921212","-2,50477134966915","-5,84166619170871"
"1020","21,1078267044268","23,0322434050589","-10,8949175222461","2,92174134999967","-1,56840651220779","-5,72690239588403"
"1020","11,5547216608311","22,7019519166898","-19,6415727776611","6,44337876143707","3,65464914138597","-6,80318083310136"
"1020","9,29682686516625","22,6228846634344","-21,7398027432617","5,44003872266599","2,62109342121339","-6,69501245136827"
"1020","8,76316907693666","22,6039570471999","-22,2431458910117","-5,14585461573993","-5,88556777816438","-5,43400675603627"
"1020","165,601716435693","82,4602922540431","-3,00267608768348","-2,14177236978345","-4,08826680443966","-5,38910544516419"
"1020","113,670809492339","62,789078133782","-9,38709114524691","3,85938294821819","-1,78808850976592","-6,52327370982479"
"1020","166,651818175399","54,5588317866035","-2,11809175257348","2,55777222791608","-1,92208731235724","-6,46307430777636"
"1020","142,17398172627","54,5886236667997","-5,37433577954623","7,340371719904","-1,97253693348623","-2,89906766599301"
"1021","187,534391974993","14,1016400512133","9,68552107634312","5,69389704558839","-1,99153086643816","-2,9458413437473"
"1021","169,255412393216","27,4096113438174","4,29822124685918","-11,9419685321165","9,36586652983507","-5,32734845977422"
"1021","138,480419247113","-29,2655090304239","11,8064180229459","-6,93310164702158","6,64184799066088","-5,30072567496002"
"1021","146,206690282122","-8,83275570105016","8,60755491506905","-26,1194156737892","21,8513431344545","-5,2786653600428"
"1021","148,032809337678","-3,94143473429899","7,84018153258137","-19,5493418018852","17,5776127184282","-5,26038562343212"
"1021","148,464416097259","-2,77051956618087","7,65609678487816","-14,2559634338589","50,0622282571696","-9,9307370899021"
"1021","85,0750965958801","22,1583734414882","-18,7897220518798","-14,7578823815867","41,292461026104","-9,80070880185615"
"1021","106,092908715632","14,1260085947505","-10,1337939202408","9,13792394724026","59,0962944362941","-17,8925864735326"
"1021","-45,9041692729383","-52,939536762827","-29,178655515047","1,90068530701972","52,7993144097419","-17,5977216032554"
"1021","7,1710282905258","-31,9941086977085","-21,7473161198192","-5,2984972337962","56,9225727443953","-31,4098846509685"
"1021","-123,140040265219","-35,7831289907393","-34,0455012222474","-4,33594065960332","54,4749509505994","-30,8549933669402"
"1021","-72,9393125611705","-31,6901684926601","-28,9957055861889","-9,21449599617032","61,6709729258485","-39,7661934113652"
"1021","-166,893158098727","-4,30116418868479","-105,229179067787","-7,59517782241529","59,3802253614423","-39,1502398453597"
"1021","-129,09933063675","-12,7446121249019","-79,5167820165687","22,0519294854427","42,2827055108331","-49,1822167637837"
"1021","-120,166686648724","-14,7658577816348","-73,3486502673625","13,4423687521414","45,8456077007929","-48,4949673496879"
"1021","-118,055439019807","-15,2497162759043","-71,8689807834253","23,0247009522918","32,575453367377","-51,4396189396345"
"1021","-108,738201212295","14,5648877447007","-71,514023744452","18,7366004817742","36,5793321670566","-50,8796319528879"
"1021","-111,536054092636","4,70209512006315","-71,428873309923","15,806033900212","5,61662628947767","-44,5587393788191"
"1021","-101,615443583371","35,7927383413599","-37,9663454057311","15,9766531223748","13,9593819675546","-44,3210874308735"
"1022","-105,270688162337","24,2354120039196","-48,9390393415239","24,6098882069503","-13,7462598896449","-45,2955376275706"
"1022","-116,716500697831","-31,3496648129701","-67,4122677251939","22,0531833959235","-5,17724216561409","-45,1029917823595"
"1022","-113,421740558391","-14,6559700029843","-62,8437995764126","-0,99125560726846","-5,19808019124093","-37,9151956301548"
"1022","60,1944934066381","124,907527473435","-37,1063241842611","5,48692882794028","-3,20592556356979","-37,9592053840182"
"1022","3,22902504045076","81,3171150309847","-44,9321764066534","-18,4345219162675","-30,0555108817953","-26,2819266826407"
"1022","-10,234873238659","70,8821680176238","-46,8095154762618","-10,2045409119285","-23,1641937997028","-26,6058372980678"
"1022","-13,4170915556387","68,3841847898807","-47,2598692373759","43,6343176208378","-61,1573337906401","-29,2169871116157"
"1022","-0,0600304144365484","90,6741801183496","-36,8072407931389","28,8712737264281","-50,4614878649808","-29,3806520920036"
"1022","-4,90306326098572","83,0100993526013","-40,2997659263995","28,1271582125422","-49,6815898026453","-36,5445168269082"
"1022","189,717212577643","-156,507427652648","62,7089391120803","25,9165657941374","-47,3879635835808","-36,4806768935297"
"1022","124,716090004568","-78,844639278502","28,4196365521841","-67,4264940039257","-56,2654707519594","-24,7140312051563"
"1022","-105,812115420404","151,020412799349","-34,3694322970573","-39,8435493365345","-53,6077907171648","-24,9638900679179"
"1022","-38,2979012363921","86,0469542853369","-18,4318649555384","9,1704612148329","-42,8661510358814","-25,1709294605225"
"1022","-233,97855518219","-54,5103743207384","-157,17756915344","-0,958064766534089","-44,8219980901449","-25,342487553825"
"1022","-160,228055019178","-17,1578714230048","-109,461194224425","66,572031387947","17,7584091452386","-30,1701434623476"
"1022","-142,796982112953","-8,21619441848353","-98,0145412122452","44,6837499301576","2,31949905103311","-30,1704616258009"
"1022","-138,677114424049","-6,07567955467138","-95,2686103787282","-69,6812067586658","9,49491173337238","-14,9428550741666"
"1023","59,8252083087942","-153,454821481942","-15,4049140862269","-39,047677233236","4,19640491292115","-15,324873961038"
"1023","-5,25838499615655","-104,735367150466","-41,2464591304527","-32,0950598490742","-56,2446955368617","-10,9559259825378"
"1023","-98,2415329234449","186,864982417805","-79,1275627418264","-29,1273969232905","-43,0003512542522","-11,3357048473234"
"1023","-76,2182792097532","97,6701075893021","-70,2148383239066","133,109506272847","0,950218859488913","-29,2210186996109"
"1023","200,58876235121","-78,6159290601444","113,214620681486","85,0242347807327","-6,50269588480371","-29,0412435081065"
"1023","112,012640314623","-32,8163889447805","54,2174053140172","-23,0188252389627","-15,8026943718913","-11,3216577735939"
"1023","-72,9417675993832","-37,6981304695867","-98,9841384892041","1,40386669957726","-15,3040793925073","-11,6387594880096"
"1023","-23,6560985063024","-29,8667524506595","-56,7355663890503","-86,1186866413549","-41,0924651185982","5,66910143648843"
"1023","-12,0073355922249","-27,9920279392318","-46,6005813695481","-55,888478198012","-34,8016137397051","5,01083409903447"
"1023","-9,25412801839408","-27,5432445980045","-44,1693057964463","28,2145277859611","9,77802830573676","-2,56287069699899"
"1023","14,3240228356243","-30,9570394445974","58,5003457059909","8,01655192705787","0,561954786913704","-2,83863463591594"
"1023","6,89676424920033","-29,7742551198497","25,129707793495","16,0362319102968","-15,8958884706617","5,13248277813468"
"1023","-224,132931994576","-48,857863606652","-42,71931490688","10,3058846335454","-14,092152473686","4,73755289470051"
"1023","-148,737246132474","-42,4262177979874","-24,9955769075467","-8,48575930350683","46,6566978908661","13,7813010138793"
"1023","172,430137965646","119,329277836316","17,9785931256207","-3,80398969738654","32,5282193197581","13,2751801453599"
"1023","76,3386684154987","67,0513254492469","6,28764140491405","14,6908958689253","32,0794657658636","15,1985448134075"
"1023","-122,73754287694","59,8185416363457","-107,403861293856","9,92514056191601","28,9105131607921","14,7922935731217"
"1023","-69,7895892395204","55,0871123697297","-71,6772487580573","41,1991849919495","-37,2228525788633","20,3125366388034"
"1023","-57,2752383124177","53,954473082139","-63,1068127681848","31,0500643606993","-22,1216067544961","19,8867500916178"
"1024","-54,3174473428344","53,6833347677937","-61,0508559381634","0,705923986075405","-1,82452995752715","18,3625579264176"
"1024","-147,091715559238","-87,2306690117351","-76,3986489811354","8,11821712247933","-3,18282111662","18,0995736295709"
"1024","-116,019092723153","-40,9635492596849","-71,0804219935865","-65,3315699800765","-18,3057706628365","30,7667790992431"
"1024","72,9807330064821","123,285557750943","12,9205620854484","-42,1186225392514","-14,9994564287184","30,2631469184714"
"1024","14,6512062137858","75,6045417341878","-13,9284914341294","34,8474568599425","-36,4837489793518","33,3599484063203"
"1024","11,446798527493","9,61133523508268","-73,172612743114","15,6296566573467","-30,5724363291148","32,926036685019"
"1024","4,68943059266443","24,8134665186739","-57,3846500289361","61,7005080509687","-23,4763472794205","23,1954893844414"
"1024","123,020382547306","-68,3811058856037","23,8475810016505","44,7390374619251","-23,8047188981844","23,1325110271554"
"1024","82,9881311866409","-35,6906086060784","-0,665667052175712","-54,4956636674978","-27,1753623899845","38,3081957524905"
"1024","73,5264313944266","-27,8649518196777","-6,54613565631974","-27,5801146842327","-26,4443863203015","37,8831531230907"
"1024","71,2901404061572","-25,9915968928656","-7,95679779821105","-30,2646724791535","-21,2986581152983","45,7305744270061"
"1024","35,4886272799281","87,1361361765912","0,505352245129193","-25,024430215459","-22,361327084312","45,2331468085431"
"1024","47,0268706263854","50,2173642305797","-2,46466757663608","62,3080934949038","-17,8908938139816","34,278593994183"
"1024","118,536231494409","-16,7207360378695","-3,17714387831696","37,0241046925665","-19,2078066489534","34,2013736151516"
"1024","96,4376068072937","0,255200634019406","-3,34805939771411","-2,75432940055165","-11,5860805817521","39,9942599999831"
"1024","98,2691465437325","-67,8661551108973","-1,62894963040791","4,98796063412496","-13,7165535038725","39,7943926240073"
"1024","94,7020344916915","-43,1734735749057","-2,21655340321175","-66,6514443045039","0,0929005281905955","47,8283998556071"
"1024","21,549369729679","64,8532111051734","-49,8804992649273","-43,9261399096526","-3,70793567002116","47,485582070509"
"1024","45,259596373121","32,7133181219149","-34,3145750991042","5,43009761035094","4,60211737981792","41,3446414065099"
"1025","50,8635541541725","25,0194684539823","-30,5804747403669","-5,60157458471065","1,73079479945728","41,2561021766288"
"1025","52,1880603802863","23,177666343951","-29,6847036097496","54,8049633535176","13,6378171403738","34,1544885445349"
"1025","82,4831272041081","89,6400852420545","7,49250479538142","34,9006409391651","10,1207285862747","34,269911321013"
"1025","72,6434246575189","67,5502769727965","-4,58907662801674","5,22965637685327","8,79656910424884","34,3655535618792"
"1025","114,408993788868","-101,474795469579","-19,808094195745","10,8324595991681","8,29803223010749","34,4448051491049"
"1025","99,2803665780603","-48,9370800876537","-16,458975335463","-47,6765254105008","9,73384347553464","34,5104750248933"
"1025","162,723313103545","65,7553238753335","10,7461016660717","-29,2351758104234","9,27441646532069","34,5648907500166"
"1025","139,718175834334","35,2111126859767","2,27231152735011","8,60672032456221","15,5954730809994","31,095857110394"
"1025","137,808163430264","78,957045016082","9,04009196527497","0,316369935914377","13,9753071185353","31,2213278272042"
"1025","135,356728316013","60,4292213580101","5,66361081914409","44,3288342697287","8,49480507723629","30,1539214163501"
"1025","134,777326900336","55,9939144335775","4,85362875031711","29,7848187654819","9,43143401545569","30,2694413842111"
"1025","134,640384258641","54,9321627741834","4,65932263000218","-0,0861328866153741","29,2661514332037","24,5082910103445"
"1025","27,0254852106807","-42,1557601911979","-34,1097223382737","6,46007757254178","24,733785170035","24,7344556501487"
"1025","62,5904963366417","-10,3972776491608","-21,4100056482617","-31,1780380168011","44,1329706973181","21,4077375185013"
"1025","-77,1500827595869","16,5720184246011","-60,6061322773107","-18,8300156173836","38,4366296937887","21,6511344757649"
"1025","-26,1780380521001","12,0280980932414","-46,0088679547722","1,83449910692277","41,1625175349315","14,8245715895614"
"1025","-153,45889469633","23,2646418597581","-44,2672494243422","-2,31722861579716","39,1887954282138","15,1679083921231"
"1025","-104,541970564675","18,9545163584615","-42,8494535832484","34,281560841191","44,9397304277383","4,91003430722104"
"1025","-103,562249665039","-3,20463313251186","-28,4284546530994","22,6393983524466","43,1049176253308","5,41009959816103"
"1025","-97,3306907414851","3,49077033253387","-32,969009733237","7,32561815718171","26,1790540549088","1,13896786490992"
"1026","-95,8578497753111","5,09355811260053","-34,0582408108774","9,99165932141067","29,8065836455049","1,59979975210739"
"1026","-95,5097409732838","5,47724352922141","-34,3195358110609","-6,42371948656495","3,57270567456832","-2,7038417748364"
"1026","-153,627851161987","28,4570708168099","-99,5063095574879","-1,06944217033134","10,6958323086597","-2,26994832746628"
"1026","-134,364178558169","20,9581263628833","-78,1439262282607","19,3327596767875","-6,10444295623241","-4,25316246908806"
"1026","-34,5741765107124","114,236122353364","-83,5799802448985","14,106794685586","-0,4296302384016","-3,89650402098726"
"1026","-64,9886171293275","82,5655955364456","-78,8840320337548","24,6467196209179","-29,1397341425395","-4,77234241246021"
"1026","150,042528259747","-18,3284210599285","145,776521185274","20,6296278394888","-20,9488894224947","-4,4980843236585"
"1026","74,8655540575544","10,5189348571944","72,6702086677831","-23,4319912176942","-43,8412039259416","-4,27082711334849"
"1026","-313,268763853172","-74,1273167404635","-129,678833470596","-10,9018870106548","-36,4600017892842","-4,08251602336921"
"1026","-195,005058223456","-42,3904686770805","-73,2202257316529","-31,3935919929701","11,7771636164893","0,759021843223391"
"1026","-167,05320338267","-34,7931024362882","-59,6764036517095","-23,1929573185597","1,93812231161757","0,770842949318764"
"1026","-160,446728599217","-32,9743971357033","-56,4273841685983","11,750710138021","-24,4953055575641","6,63751136770914"
"1026","-51,302743156143","161,128484328987","-110,211407103832","2,64013093397316","-20,4473080781227","6,49878165659072"
"1026","-86,5063517645041","97,5940525522468","-92,1136246141652","51,5714308382308","-41,6523620236291","0,526953548406375"
"1026","76,2470704492463","55,9755751041955","10,794034802998","35,4194968847444","-35,6359179725078","0,578545272659735"
"1026","17,714155581888","61,0126822887048","-20,5195075313432","-5,20845007474079","-59,346879268377","-5,2355776657199"
"1026","-27,8658769954243","-38,1364849235302","-3,38974645090783","4,29341899617987","-52,2738919792965","-5,05330743678552"
"1026","-20,6388055744457","-4,8714359897645","-13,2804981779412","-49,6781106556786","-23,6348504384038","4,4687233390712"
"1026","132,743060879846","54,1495582412948","12,5085846749636","-31,9526140658214","-28,8524496460479","4,3589196139083"
"1027","82,9951607401594","39,2783749458876","2,69511253586472","-14,9171871417745","-37,3108673148979","3,09655883152168"
"1027","71,2371486270243","35,7184175832811","0,340964497836532","-17,0959844016807","-36,4954029860537","3,05053466113759"
"1027","68,4581197943613","34,8662126059214","-0,223770685225885","21,7781544806052","-45,9294278686716","-4,01584991404996"
"1027","96,0196601233526","-26,9592735108985","-5,63957644595849","9,77993950974964","-43,481272898967","-3,87123544725779"
"1027","86,5338833194069","-6,75944711687294","-3,9387708926593","-38,2574099121527","-16,5834486957339","-3,75140423120414"
"1027","-25,0542787795495","-133,969914087922","-28,1723139175081","-25,852478688081","-22,4566041717131","-3,65210904546362"
"1027","10,5716439637639","-89,4223555311023","-19,9856842473756","-36,077671237259","11,0493458350101","1,11566798454286"
"1027","68,3740455071043","190,61561712118","-21,5420196695227","-30,9715069219107","1,66410395759875","1,06636899013024"
"1027","54,035754556261","104,652867805915","-19,9153680551531","87,2288843984955","-13,2339230895787","-9,5168530773166"
"1027","50,6468718454673","84,0745643679314","-19,5251515596819","52,6808227065214","-11,8429270923369","-9,28637937879296"
"1027","49,8459028829258","79,1484007010076","-19,4315427549491","8,56357015951351","-8,07221288154576","-13,7809015450601"
"1027","33,7837596765535","-115,698363686144","-24,6894187651054","16,0779295111536","-8,65256509633168","-13,505176638076"
"1027","38,987441161538","-52,3420072806856","-22,9507275371748","-107,135670614413","7,36400557202608","3,12254083493217"
"1027","-12,692100845961","-68,8664111410098","-19,013412744242","-69,0063990787326","3,39413350136817","2,90068937833141"
"1027","5,09333976119552","-54,8221268373802","-20,0688926229739","24,2000822538999","3,52301108702151","7,4023561530022"
"1027","5,76966679549128","142,207390599678","-37,9231969715141","2,57848446236283","2,57153260544179","7,13255144980007"
"1027","7,9295179940215","79,3735553437754","-32,2062555013296","106,346683068465","-10,7747478594043","-3,63338724218053"
"1027","70,1676855082157","117,150408150081","-16,7539370642348","71,714160953515","-7,79953002097497","-3,55431717426713"
"1027","49,8777963968447","96,193668703896","-21,0470895166945","-15,3517351340841","-11,5499018878691","8,22494858997036"
"1028","15,1002247623886","-213,409259584238","-44,9584089986353","5,00771205454348","-9,96189092149265","7,98554704224125"
"1028","23,8804786546098","-114,523955244283","-37,6944813130206","-100,834677894734","6,87105346695967","18,3295445161354"
"1028","36,5375970224311","-23,9488482636236","-11,3103937238528","-65,7891734713152","3,20854044789003","17,9008432502651"
"1028","33,5291313518872","-40,2664096466343","-18,9811305280328","33,4125282004324","-4,66439804115133","15,2028612452206"
"1028","39,8726669781677","161,81919425035","-29,6218120033081","9,48764002793092","-3,62850485601098","14,9672449080256"
"1028","37,3719738539248","93,195716762315","-27,1743988006454","97,1510770045684","-4,86200517196028","12,429257973447"
"1028","93,2176685158631","134,86844974457","-5,46596320805308","66,9607400932702","-4,32640949795953","12,3262176107156"
"1028","74,4169061210236","111,844330590981","-12,2583394094028","-48,0367948949355","-2,50125451033461","14,5835850120132"
"1028","50,5731808889501","-208,817182324425","1,95323678674415","-18,5822915978418","-2,81409629812142","14,4540969101492"
"1028","55,9376704590871","-106,579151505469","-3,63755658941969","-80,6429354629852","10,0561763417161","20,2036729338092"
"1028","23,6962645442973","37,6169635900074","-40,1809405189571","-57,2067422045855","6,90174485389805","19,9679174937826"
"1028","35,0759460941486","4,13553628165874","-28,9473113162894","73,0491961305151","7,33763017142599","6,8874436251079"
"1028","74,802165280256","184,506208909286","-3,37104496407779","37,9129794459901","6,50173797462809","7,04863112584508"
"1028","63,1915337779764","120,684474637293","-10,235569527891","67,4598263534503","7,81053727752484","-6,87430038166427"
"1028","5,77424840557058","-134,037038278365","-1,32163273088355","52,821890885587","7,30329115060537","-6,41119465361946"
"1028","23,2035623059273","-59,0138756493624","-5,18327369502561","-85,2459868082133","18,4768649773786","-4,85607886837154"
"1028","-16,7681875490093","-93,8727706264154","-2,58941928547183","-46,3206300927124","15,6836381374099","-4,56747047542088"
"1028","-1,21558769369643","-72,2175120878571","-3,96718108245569","-37,021339499397","16,255514503228","-4,32832223902577"
"1028","-68,0856236111755","91,4216939707332","-81,7425575221331","-33,3895436841636","15,4708219942668","-4,13015794315699"
"1029","-43,890485527272","40,5946760292128","-56,4000466612608","96,4125133405728","11,9283768476869","-14,5083256501319"
"1029","12,9738760949719","63,6396591362233","-9,83810311375621","58,1478435314527","12,5946707842063","-14,1079387062912"
"1029","-2,58612239978557","49,1563120920294","-21,6683859641641","9,54477305954333","3,10448428199989","-18,4616664467889"
"1029","-9,79105418801718","-107,484195561365","1,89531332221006","17,7895993511949","5,53149479089257","-18,069275706657"
"1029","-9,49395370744348","-57,9817851899805","-7,45200476690028","-81,1794164404314","3,19823358697606","-6,03038448447244"
"1029","-76,4423601711504","-39,0891320903462","-46,6566497825016","-50,1886757473078","4,31977690336253","-6,05465379104762"
"1029","-54,2657451169481","-38,5664900002589","-35,0614289306844","18,6766622308808","9,6125509717656","-6,07476395418822"
"1029","-4,93305759243987","77,7591283621079","-28,7596370651167","3,16626807628897","8,60524375191411","-6,09142774556146"
"1029","-18,2731817814418","39,6058863048162","-29,2479039347722","58,8713019573251","-6,38556277201663","-10,7907343058364"
"1029","19,1377598018744","-25,8671154685208","-13,5240386726998","39,6364050675481","-3,02949760520193","-10,684698943108"
"1029","4,97990797426548","-9,54045430679061","-18,7520499176243","-32,7698654827525","-5,01297616484186","-9,4254607214381"
"1029","-35,4029371133675","-81,3384651303957","-18,2460838584394","-14,2615920202494","-3,75974210540399","-9,38202398408321"
"1029","-23,9475004089036","-55,5259244047984","-19,1247079592005","-36,4953922463841","-1,6644012358698","0,0249658384444453"
"1029","1,68743907824213","-21,1769367077162","-12,2950382146179","-26,787788618419","-1,87551991036658","-0,180163739236402"
"1029","-5,25369354920538","-28,9542600570915","-14,6566727715113","37,7711901499057","-3,57851155493558","-6,20701246141927"
"1029","10,7422370913957","104,751211226227","-50,4254156982399","20,0420516154405","-3,21967611456504","-6,20101221379831"
"1029","4,52290613883182","59,7584676402352","-39,0059583227207","35,6283966596807","-6,33159090804818","-7,36741488638892"
"1029","-4,00163701072886","-51,3671598215047","-18,6654455308894","28,0394941784206","-5,50320527534767","-7,33392573253837"
"1029","-2,016429219647","-20,9691112465037","-23,7859719253554","-46,2218078490151","-6,81483074763826","0,893446639931702"
"1030","30,1984437648796","-85,8773974500095","8,42776923751982","-25,2385275598794","-6,30864865392212","0,7108561162333"
"1030","19,8124911058044","-60,415551124418","-2,84449541242151","-19,3000413172285","-4,49456767556228","6,41643012595266"
"1030","-10,8606179811529","21,3860553745741","-40,7508041317474","-17,6193880367015","-4,81157875114121","6,14421350084359"
"1030","-2,11026645233015","-2,03176171876657","-29,8441261522943","56,6868077216444","-3,30742429976361","3,57589863914994"
"1030","36,994505513897","59,2656550493948","-32,508061381663","34,7162328245979","-3,74112056626743","3,44772778659137"
"1030","25,2369937630339","35,9394160943524","-30,1471112311721","-4,12447072202572","-8,77492498426918","6,8556460564532"
"1030","45,3855081276531","-62,9570924073722","7,38157810406246","3,88320679606331","-7,67011748460922","6,67953359376204"
"1030","37,1476483445399","-33,6315604428455","-4,61568676651126","-40,2092568958043","-4,00715126107814","7,70497696919786"
"1030","22,8550777981784","-26,6114302113993","-19,814477686159","-25,6878820407161","-4,6280698468283","7,55468536558687"
"1030","26,477001193134","-24,9309072962113","-16,4605066672099","19,6295686034787","1,63218630911666","6,25877529994052"
"1030","16,7511613388262","116,320483830837","-33,2570304430413","8,45487777794069","-0,0108706053464073","6,18495134230195"
"1030","20,4524403376128","70,1341299834223","-27,2863386157344","41,3491061256442","4,2410506231634","-0,904468841885388"
"1030","16,0363005491993","2,73811140006981","-31,1343646491634","29,6585143694351","2,84186951781312","-0,778942265123938"
"1030","17,9925373957865","18,60442870649","-29,0574653426261","-26,8767225606624","3,93859444785671","1,66782150098169"
"1030","36,0913784659131","-55,0643958360101","-2,15758033877962","-11,8767817558027","3,35150378833913","1,69527203198421"
"1030","30,3690744478283","-28,6997022615337","-10,7045828056554","-23,0845492578225","1,50696129531022","1,71801823839299"
"1030","-4,49271650713625","77,9666254610943","-23,3155817238017","-17,2564638586123","1,81250382158608","1,73686632209466"
"1030","6,26763198630587","46,5010816758618","-20,3408268093251","35,9026332731339","5,1745523181739","-2,93301419755676"
"1030","-8,82561962082944","70,6597087806765","-44,2687628740018","20,9472098426069","4,44034029232052","-2,80259567102903"
"1030","-2,39293873831957","58,4429528389223","-36,0088213306099","20,1486489220516","10,6579422527124","-3,86590220122522"
"1031","2,65473393457452","-14,9061195060612","-23,4666852879306","17,9226478881193","8,99882632903731","-3,74698496823708"
"1031","1,84776110284454","7,53511835995857","-26,4579596769495","-41,0849804171799","5,12716682288446","1,0370513879302"
"1031","1,65703151820258","-52,2354643717512","-14,8547605917448","-23,7847520484014","5,66951383309192","1,00122528367358"
"1031","1,61195221314133","-29,5437222848079","-19,0712760131874","-10,3036596766202","-2,24383090265828","-1,37121039521316"
"1031","-19,5624792312419","67,4402826548006","-37,6838793119391","-11,4883705281844","-0,223150389558914","-1,33707078744222"
"1031","-12,5670969279232","38,65692356235","-32,1488457292562","32,8180739753454","3,78463568039425","-1,30878184232122"
"1031","-9,15007676129589","24,7241272327845","-25,540718019673","19,3572579122447","3,29353937867454","-1,2853409047033"
"1031","-9,34245745681836","25,3888068423452","-26,9554981645542","-8,49014743394454","4,73215194808665","-2,43729177909205"
"1031","-21,7334635089551","-36,0735579043616","-29,0549995286427","-2,37125235477477","4,27377961695168","-2,39182749860926"
"1031","-17,6621016795285","-15,7868052335647","-28,5586476714254","-31,5453545617711","-2,39282209426573","3,50271850760601"
"1031","9,7548936181854","1,39386116371806","-10,838472213883","-21,8019284725547","-0,90275146710155","3,38708887301381"
"1031","1,23495331741113","-1,49332288744076","-16,5875897845455","20,4463234351972","-5,21227097322955","-1,3942232957162"
"1031","-6,06969521525145","52,3945499223726","-40,8481798791575","9,40301749223334","-3,83477522048933","-1,35613986063643"
"1031","-4,79616297948024","34,2945677456847","-33,6680385146232","30,3155018243523","1,55436316752987","-0,15320833015676"
"1031","-2,73151310817913","12,3555430820733","-28,4253774608011","22,2339520759196","0,583336446615474","-0,156428745623146"
"1031","-3,24352913040366","17,103641412369","-29,1677185956244","-26,4119300262522","-1,40575531447144","2,18365199641075"
"1031","16,0355836873062","-53,9448911595833","-8,22447128796803","-13,179219870583","-1,15463458650254","2,12270226711864"
"1031","9,59223917235441","-29,9529356176204","-15,2004080552593","-16,3021839270648","-9,1776240005455","4,4149470351236"
"1031","11,596638417279","39,1725031971849","-25,6744143598631","-13,1860151884388","-7,1982239494481","4,31435920415225"
"1031","10,0703820433457","19,7201853798236","-23,1870175489054","28,9036436765899","-3,20597968753915","3,05963494550003"
"1032","23,8188329825205","55,5576826137998","-24,3504279867226","16,8154542554752","-3,70292737234831","3,0199385924209"
"1032","19,0683058693309","41,1366880366489","-23,6295178298269","18,5453399516505","-5,51353165971018","2,98704518716289"
"1032","28,5273980588596","7,75406657075041","-21,6964685275274","16,034915569311","-5,19521163404934","2,95978887706026"
"1032","24,7630727352067","16,7627247447552","-22,2327504715817","-22,4493321228621","-1,82835249743727","6,45132749700346"
"1032","29,1643114031832","-23,3354551134274","-11,8007352884222","-11,3407738960088","-2,56075335063896","6,34450497783838"
"1032","27,204552648051","-8,93440953269942","-15,2982053247136","-3,04596770677659","2,03402357792939","2,74186523838347"
"1032","10,8685272400261","43,8101872524409","-24,9377642987437","-3,69845140992215","0,763925269106923","2,75662655128527"
"1032","16,0074761385986","28,4365204724044","-22,2501924102739","30,4566812167339","1,90924897804379","1,59748351965462"
"1032","31,3312611946025","44,123026289227","-25,1256935572745","20,1229384665276","1,34045542219492","1,63698819618171"
"1032","26,9530673372066","36,8781606835029","-23,8154958298656","3,46246503124872","-0,497198338024484","1,66972277338587"
"1032","-2,30009637387366","-49,3656189896502","-18,2208614994563","6,74737802253729","-0,189062251555716","1,6968474745336"
"1032","6,78586198222562","-22,0111972417365","-19,8787679727479","-28,3797393911585","6,42097655404851","1,7193236900584"
"1032","10,6969938296074","5,66444078008328","-7,95570804539812","-17,3210784301848","4,90961038466339","1,73794805246394"
"1032","10,6213973824901","0,289609025506998","-12,0954922382495","11,5634816891881","-3,77694313963137","0,582006041657668"
"1032","5,31258580053273","46,5395182372748","-28,9295779375194","4,73811218214913","-2,04737038034267","0,62416316524975"
"1032","7,05783794762364","30,6111123093592","-23,9678968178513","28,5613059453555","-3,01970514089938","-7,54052678258498"
"1032","3,94303551352271","35,6011389070605","-40,3787479667389","20,3035171949501","-2,38578244406933","-7,30599601158034"
"1032","5,20684595281068","31,7956828497456","-34,3155373606378","-12,9393358441589","1,0998989124423","-0,0834100847053323"
"1032","-10,3672826609959","-50,1035219151521","-9,97959967318044","-4,34740849624202","0,412233802095868","-0,0985921486603018"
"1033","-5,048257986155","-23,7090685083712","-17,1416659481488","-20,8026895857836","1,77683957645295","2,23157686796888"
"1033","-9,08204046498133","3,73676625596728","-29,4204333408207","-14,4597050296364","1,29060419953477","2,16241403154591"
"1033","-7,03543273107932","-1,69307724731591","-26,3659796018322","18,2412385363927","1,10753994768583","-1,40901993936257"
"1033","7,55747152854826","37,5012080568994","-22,113027316887","9,49594517962009","1,03861752472801","-1,36840073495272"
"1033","3,0065325857735","23,8837825144363","-23,0927891039979","13,8888947940361","-0,610838215956963","-1,33474263166932"
"1033","-6,88733096755105","-21,6307715295359","-21,5677129903481","11,132145157678","-0,231846878552147","-1,30685267338247"
"1033","-4,22576469398068","-8,52633165786998","-22,2018633817791","-17,119877452286","-0,089159264831037","2,23038154360932"
"1033","-7,12399451761303","-26,5166729925203","-22,3539893448064","-9,11549326089717","-0,0354383664885043","2,16142355545619"
"1033","-5,80899672428373","-18,8233140188515","-22,3904827522689","-6,85016940559577","-0,0152128203218311","3,2756578470037"
"1033","-3,7345463885072","14,7094174473285","-22,399237134241","-6,20905922813599","-0,00759804226782471","3,19894064910879"
"1033","-4,24424605205743","4,73669354903578","-22,4013372177642","18,0102362139919","-1,6282380568519","3,13537083261743"
"1033","6,21717388160858","25,2373384569559","-34,7226151380371","10,8645483524158","-1,23839779814157","3,08269526990616"
"1033","2,68975065279395","17,1449117366605","-30,6783592244185","8,84224447639986","-4,33863949225243","0,696297702273055"
"1033","26,5471103793798","-20,0045785005454","-8,58685797659707","8,26991147694991","-3,5058590184836","0,718868134815587"
"1033","18,1858433483085","-8,89765705790941","-15,2873407840582","-19,3638985386175","-4,81582986354969","4,25169445781925"
"1033","-1,42683895496958","-7,99942607843379","-27,4553791912074","-11,184553762598","-4,30902481414312","4,17908397687926"
"1033","3,93766576893839","-6,78440189877131","-24,3743627412511","4,86620267159189","2,37581148006905","0,604793200257235"
"1033","21,0784094511137","26,9581187629879","-16,5948171625456","1,40873343680919","0,892606047113625","0,643045182975664"
"1033","16,1296572681524","16,0356155214219","-18,728586566354","21,0341091105792","0,334189473965046","1,84611637630477"
"1033","22,014602436305","20,4633728674202","-28,0410082007237","14,5882942446299","0,123949501646676","1,84301168901868"
"1034","19,4055205731105","17,5233172612593","-25,2749595289694","-4,40583445061878","1,66830253392837","0,669064436371845"
"1034","15,2615629004203","-14,8715385575208","-12,2906396135732","0,218629866036403","1,24974075472828","0,69630195978177"
"1034","16,2821305148322","-4,62642283214722","-16,1758387744109","-12,2085156215969","-2,15485870783867","1,89024629269097"
"1034","7,70510327829427","-0,41326889940962","-34,708962811","-7,72552685610541","-1,43666682597768","1,87957885731245"
"1034","10,6779063542285","-0,404697619995992","-29,1548629950378","8,99611205333066","3,70424822085111","0,699364919729285"
"1034","6,08958987693022","41,8520833222659","-27,8224932690703","4,72850952645958","2,63976713111955","0,72140970901514"
"1034","8,00513243113881","27,9677772416537","-27,5028718820775","10,3886921485756","3,86250429898388","0,739676580693799"
"1034","19,0397630388961","-3,52575464510121","-13,3453133734113","7,99058261418272","3,32285637427238","0,754812973997349"
"1034","15,6478192580666","4,93512567036374","-17,9490650207354","-8,14101382044173","-0,127331183463244","1,93873000349468"
"1034","-2,79035391404483","-10,6455927234757","-27,8540092373387","-3,70642314534186","0,573697096300009","1,91975369011637"
"1034","2,85174830749558","-4,37540305927972","-25,2301004580385","-2,45138792906524","2,46113631424416","0,73265480542629"
"1034","-8,16026645817325","21,7741863399045","-21,0804313492991","-2,09619992875244","2,17174410780548","0,748994552868222"
"1034","-3,76297737946226","14,034039470725","-22,0849696765764","10,0232492659679","6,9333107236983","-0,408840547857577"
"1034","6,09457073225026","15,702381870182","-24,0860583732277","6,45317925401727","5,7260075770043","-0,368252086600518"
"1034","3,42442123403787","14,1017601637795","-23,5660983593172","8,87679159294709","3,64795937801065","-1,50599408786913"
"1034","-9,55221025181114","-7,40877127225921","-35,7621395910169","7,56269905517098","3,86558862320065","-1,44875597463982"
"1034","-5,61926212274193","-0,55809753891566","-31,6878407221104","-11,6960885405041","0,70051067519552","0,941422238104459"
"1034","4,1285381102625","-20,0455047334842","-14,8694642585423","-6,14652544127153","1,50888074841498","0,921984544016029"
"1034","1,43244948932097","-12,7105227984446","-19,8349138574888","-1,14196222037572","0,189719556603199","2,07725260755562"
"1034","-8,0230166142433","33,0607141050536","-29,826625582177","-1,725618854217","0,693064504110364","2,03453703416033"
"1034","-5,25783425818151","19,0177205902426","-27,2235314091678","15,2790964023605","0,882570390788876","4,341891086342"
"1034","7,74125842684579","12,1347930800885","-21,3187449136898","10,0916074216059","0,953918044646667","4,25382319156208"
"1035","3,81361904550808","12,4871146150113","-22,9022491672025","1,75553570744391","-3,88974083516358","0,666724009677613"
"1035","2,88531390514791","-6,79529527610983","-32,0826680195188","3,39634083847326","-2,71334485728128","0,694362622846294"
"1035","2,66590719542967","-0,41123979761213","-29,2849532783061","-8,1582215707887","-3,8939468448551","3,0600139389009"
"1035","0,850401924589964","15,2019252422766","-18,0531475985555","-4,42828273194948","-3,33843531658333","3,02025263596792"
"1035","1,42130375349018","10,9395028602263","-21,3587563647789","10,3632456129318","0,117724778024845","0,644556151621934"
"1035","6,84718171739241","24,0040470881324","-25,6719580809372","6,54940175122342","-0,581054882970384","0,675993773262703"
"1035","5,12959843538089","19,1315198311787","-24,7066494943115","12,3380027880688","0,779366340044395","0,702043784126842"
"1035","13,5418846750191","10,9226487702305","-20,9548610066319","9,97623699872743","0,291555508527131","0,723629484017756"
"1035","10,5301447468431","12,9575576008456","-22,0548466812049","-6,14507377860126","-1,51560881685021","1,91289057257232"
"1035","9,81831420811333","-2,40083653922459","-27,5990533663588","-1,7075721556655","-1,19599366932662","1,89834248210762"
"1035","9,65007168785855","2,92257450274409","-25,9290498350171","-7,31967156911654","-2,69916770565229","3,0576621952591"
"1035","4,31936302789129","23,5636769453537","-25,5284336737764","-4,90795398730563","-2,26510231967155","3,01830392152258"
"1035","6,05943975837649","17,5048738328653","-25,4323300993616","16,3784625097114","-0,478172782309409","1,81431602738928"
"1035","24,1071909683005","19,5757068725631","-18,3688335082153","10,4027394473988","-0,805406187378972","1,81666111313231"
"1035","18,3728117632544","18,0714359063567","-20,674375480927","6,99455814563721","-0,928607298040073","-0,524144949317472"
"1035","2,90829560631192","3,62642436557986","-24,747671764383","7,03000744173938","-0,974991662939806","-0,463796238923354"
"1035","7,25322739666808","8,16848667723163","-23,7248124051354","-8,4128665702494","-0,992455055076505","1,92895949354755"
"1035","2,98921618651981","-1,3078881614128","-23,4794392772944","-3,7833602968508","-0,999029901268305","1,91165759769629"
"1035","4,98140891588747","2,42359764522982","-23,4205768625136","0,960817287129093","3,86901549202577","1,89732080784477"
"1035","10,7432117243974","20,9230013031662","-23,4064563925815","0,303468813818379","2,70180086757443","1,88544098004937"
"1035","9,10502492707993","15,3515048692703","-23,4030690413855","8,70238044175711","0,638845719560717","-1,63852683664012"
"1036","6,95418824709481","10,4965375964712","-23,4022564517069","6,07935965894742","0,862157393913476","-1,55857597262788"
"1036","7,44583385091667","11,334325004192","-23,4020615200486","0,186048692511397","2,56973961848218","-0,320952028357922"
"1036","5,79838716530774","-14,8743258630915","-11,0812406255318","1,5181804843188","2,21263249968816","-0,295425429610982"
"1036","6,40900996484815","-6,14831749950562","-15,1256061747892","-8,40675007110558","0,454677216925559","0,897101187716302"
"1036","-0,501260447091391","4,7436378105454","-23,1362490002091","-5,21560849316885","0,792819228182444","0,885258997239161"
"1036","1,86548381788299","2,35102255787559","-21,057917378486","5,98945540212624","2,54363427930554","0,875446257773378"
"1036","0,66122031607173","15,8631729731755","-27,5997899941168","3,16060485413477","2,20280402028808","0,867315172902787"
"1036","1,37659031557031","11,0977964997679","-25,1691159538613","10,9449588429108","-2,79603698906488","-1,48217171029794"
"1036","-5,50892289370405","11,7176444286786","-28,1062441740095","8,14801186575998","-1,67806600819763","-1,42901614821051"
"1036","-3,13632721614729","10,8660275233112","-26,8108301287962","2,20547798002347","3,61336310062368","2,12915378907892"
"1036","2,71538456259298","-12,2258161462603","-22,979852837535","3,52367917446662","2,60554951280455","2,07754366990373"
"1036","1,09844792373603","-4,75368687817679","-24,0608419567662","-4,68820427013819","-1,02089917467724","0,863403585810573"
"1036","7,77087411955639","9,35933439461828","-19,0398280273513","-2,012252569073","-0,38623198951707","0,857336309391767"
"1036","5,347914915533","5,73779816516601","-20,8353399599984","12,4809864696867","-1,77079111565465","3,19505807021561"
"1036","-11,0975888116488","17,1951480376602","-30,0666172093028","8,58272363647692","-1,29206803748923","3,13215362924549"
"1036","-5,98451532488572","12,9378804903723","-27,2811028589191","0,611516311264897","2,13518173747406","0,737280153580417"
"1036","7,56950595567208","-3,92677439427839","-30,133108646552","2,35558185364825","1,42551754135913","0,752827233693835"
"1036","3,77302501780338","1,03605847975589","-28,8172746312548","-7,45276717224543","-2,08867996506406","3,1084591986966"
"1036","8,16666364436319","3,98470633019655","-26,741509395779","-4,22863181069977","-1,41175098766265","3,06039560729109"
"1036","6,20510860478909","3,69057219281097","-27,2435552988766","0,117811209815244","-2,78039884171741","0,677819636087672"
"1036","-1,31310099864447","19,4656839243935","-20,3235484327709","-0,652100275608777","-2,29568527981084","0,703556740385759"
"1037","0,909955666299261","14,242029359671","-22,6635120709129","9,43194446543344","-2,11319398077401","4,23900704794455"
"1037","15,5445639709762","5,94910323601034","-17,9445127955991","6,28583385449911","-2,04448727058181","4,16857086717745"
"1037","11,0034818596553","7,96389043720134","-19,8124748453231","1,96147264872931","1,22839418152401","1,76745640083632"
"1037","9,93018834733157","-3,87809312041364","-25,5409109297343","2,73763351705583","0,460611380974765","1,7778320377416"
"1037","9,67651335635875","0,287098396873663","-23,9151020802198","-14,212601041919","3,41856032563135","0,61505492371562"
"1037","16,671149071057","8,32664298095452","-14,7245348033434","-9,00969345793633","2,53220761718171","0,65154830737325"
"1037","14,3243447080479","6,25119971363499","-17,5198150449795","9,63267956836342","-5,91903266777851","-1,66096160908203"
"1037","4,95143261227426","30,4029590269419","-30,5111473044177","4,90866474425447","-4,10086610360881","-1,57716599424352"
"1037","7,73612676724342","22,1845590300741","-26,6276303306524","12,1566675607539","-0,16932513285998","-3,85048008188452"
"1037","8,39429459972614","-4,43140520828263","-16,8954627846959","9,20792763160005","-0,689127186373096","-3,73420580889214"
"1037","8,54985383589648","3,19709791947654","-19,5608188575182","-8,79649253783582","-0,884829059484502","2,2190151535664"
"1037","15,6412128491932","-5,54042531003306","-18,4400989619707","-3,89193042980637","-0,958509459322219","2,15200507630126"
"1037","13,3172692242927","-1,6320685595278","-19,1712501278491","-9,37184687534219","3,88427115778268","3,26785345622907"
"1037","0,422464164093999","6,34599330318405","-24,6269773204551","-6,92272014083157","2,70754452007447","3,19247373291551"
"1037","4,37475212662893","4,25583191543907","-22,9357484958802","7,50632507671363","0,641008164947692","1,95863755179833"
"1037","5,30888300667811","17,84038563866","-27,8103723826376","3,5898947254184","0,862971539625044","1,93624958969535"
"1037","5,52966664120402","13,092341524352","-25,9797430290792","5,91548349120541","-3,92398156442845","0,746323726318484"
"1037","3,81820120692374","-9,17163967769944","-30,8209262052343","4,57364926421089","-2,72623625470564","0,760320967500077"
"1037","4,41369305178603","-2,5013314868006","-28,9822747793515","-11,2590102885246","4,2187342622132","1,94329406664886"
"1037","8,08173484139451","-7,94700602050087","-10,9400958707136","-6,73981737125582","2,83346756247364","1,92353558863622"
"1037","6,94868359043923","-5,25062583107719","-16,6119682235887","1,40711961638375","-0,93508960748781","-0,435586047509025"
"1037","-2,13735561715602","11,2403740234762","-17,9725903339087","-0,287212606500843","-0,3539252817687","-0,39041408614515"
"1038","0,715141498031787","6,18809325891119","-18,298989168705","14,6861803089615","-0,135120938153526","0,818391177049461"
"1038","-2,13796145306513","19,0635562208283","-39,4986158767387","9,92380600947303","-0,0527426181738407","0,820037885527303"
"1038","-0,81229783640641","14,1457655015383","-32,5841818124494","3,42503577966619","1,60177917454724","0,821402389949044"
"1038","11,846561819137","-8,15885071012732","-16,8445975838991","4,58581631197224","1,22469517064765","0,822533052930382"
"1038","7,83850770530353","-1,49826998333016","-21,068838015235","-12,2555668876478","-0,540781271001639","3,16621920895294"
"1038","-10,7452843318886","0,0961817107000638","-30,8827415102808","-7,02185323849725","-0,205470923975673","3,10825701716121"
"1038","-5,13759940986658","0,477871582630846","-28,2369930260324","8,19525899508151","-0,0792289006071355","1,88885344454588"
"1038","10,2969723090136","26,9784485888092","-20,5618636226586","4,50185979375502","-0,0316996531337542","1,87842470800286"
"1038","5,94496309298788","18,3223233398924","-22,7206813611248","12,0415375349098","-0,0138052206372855","4,21253245231753"
"1038","6,68000539598068","9,20771080154658","-14,4380059221704","9,17534463860893","-0,00706809073532341","4,14663334558029"
"1038","5,85373406147186","11,0257975422829","-17,4510798008283","-3,65474501959383","-1,62803853377025","0,577903783890251"
"1038","3,89479516651365","0,897340303965912","-28,7345478569226","-0,285793639130369","-1,23832267908318","0,620763930389371"
"1038","4,43179618181006","4,47272652568461","-25,4413323476612","-7,91729348312624","-2,71510428466409","1,82765356513629"
"1038","6,32236547910245","12,3710798096009","-26,4114354136605","-5,07708719554338","-2,2711023312962","1,82771293528288"
"1038","5,76920517757953","10,2618372810812","-25,644152865459","4,31166875341119","1,1430751806518","0,656387500896912"
"1038","10,929408889738","20,3205958162221","-23,6999793175853","1,9687841934285","0,428489368047273","0,685797529433332"
"1038","9,1490329861007","16,7285246806935","-24,2335926729361","6,45669237468857","0,159452758668021","1,88154205520681"
"1038","8,72823770866944","7,0655635448872","-26,1217114560843","4,72681699893486","0,0581623385259377","1,87236630530654"
"1038","8,62878193354538","9,7523831505189","-25,5746511563157","-4,34770377068497","-1,60347972892519","0,693388416154707"
"1039","15,6598676572478","-5,44995248921659","-23,6833065936095","-1,91588739147655","-1,22907645914797","0,716457426529322"
"1039","13,3216783241433","-0,0891831821907348","-24,2295930630244","-2,94464771520034","0,535390704670422","0,735572993786622"
"1039","5,71445047927405","11,7577937552423","-22,6005308113162","-2,23579757095392","0,199700371531165","0,751412637778045"
"1039","7,9164675112252","8,5937975846127","-23,209736029477","9,98374168344039","0,0733152860226741","-0,406836861354473"
"1039","3,14597426633791","14,8788351363189","-28,6362096806763","6,44199819785795","0,0257321766444178","-0,366591781130511"
"1039","5,01845899028574","12,3833869437978","-26,9379632413233","3,72265839428615","-1,61568946026931","-1,50461831663472"
"1039","14,2792647248679","-2,29889883362689","-10,6895765923692","3,95305698830554","-1,23367333843708","-1,44761597569167"
"1039","11,4680740152874","2,18636327934989","-15,7917607114479","-6,28367550408879","2,15716693723817","-1,40038238983662"
"1039","9,03999559905981","1,49945981356776","-31,0966053705102","-3,18077711251824","1,43379481680559","-1,36124344228085"
"1039","9,46611458399219","2,33502454289456","-26,7680755205","2,84834420094241","1,16145022338114","2,18531197260608"
"1039","-6,30600402014018","14,8593432677588","-25,7297070501449","1,55464814779466","1,05891437015642","2,1240777655077"
"1039","-1,03377466124208","10,8574934331179","-25,4806134507962","11,4904564164322","-2,22670352000783","3,24471217798952"
"1039","9,03056727259808","9,89950545732075","-16,6203055825329","8,30239334430475","-1,46371590017778","3,17329828267189"
"1039","6,4092938929489","9,67017627214551","-19,4948115587314","-2,90179930187465","-2,79996327138164","0,771373657249565"
"1039","2,26245473183915","-0,948404264027566","-23,7045962810937","-0,0727021813351196","-2,30305115208042","0,781077975786427"
"1039","3,28234130090753","2,50965316090827","-22,714479052879","-2,70601754387178","7,62507437402958","0,789119220324675"
"1039","-1,76755075805741","8,61930582741131","-25,9971815962295","-1,45127313963685","5,36294487456592","0,795782399555476"
"1039","0,038897517495693","7,0818728983049","-24,784667171398","2,3378117869463","-1,98275891809631","3,1440529389023"
"1039","3,9931511942504","8,47444624915035","-20,9735766211301","1,41016217252449","-0,748365521282385","3,08988948343888"
"1039","2,92774667464536","7,80780921394165","-22,059336358918","4,58160692668203","1,33988196926023","1,87363364011914"
"1039","0,912288190335261","11,1694528734733","-25,8400198021412","3,47915872899213","1,12609268670033","1,86581319192837"
"1040","1,43593069171726","9,97418426965647","-24,7469657213952","-1,98381440402319","-0,577904423308387","-0,483416289838605"
"1040","10,3779349663965","2,64559850654906","-22,7246430328999","-0,529892536105327","-0,219447533712263","-0,430047438392896"
"1040","7,49139491711123","4,89123556672004","-23,2395092370426","3,31556168124784","-3,33150484894021","0,785549975878659"
"1040","-0,245436676760396","12,471265135298","-16,3225778253861","2,40386516153444","-2,50317287468955","0,79282483305576"
"1040","1,92594825923496","10,2858202742806","-18,6632792324804","0,428855963527004","-0,567804697448656","1,97022759427151"
"1040","5,96645541929165","9,76265474205617","-24,5051204822476","0,869907849130004","-0,839151982657695","1,94585339292806"
"1040","4,92143707676378","9,63741608745095","-22,9065163309013","6,14569895692586","-0,941312356246453","-0,417092948670014"
"1040","6,43809304866391","2,56498082159965","-31,3235810765456","4,63880263190117","-0,979775029362031","-0,375090235277148"
"1040","5,79655761177085","4,87193679839805","-28,3427457693324","-2,65562313607521","-0,994255959405914","-0,340285721350797"
"1040","16,2268179062248","5,42419042554208","-13,5467902244022","-0,720021384312595","-0,999707929275655","-0,311445818120754"
"1040","12,6920300366059","5,55639237120599","-17,997397183577","-3,60620521556534","-1,00176055817245","2,05520091735543"
"1040","-0,488960395368122","9,10926712882872","-33,145935382411","-2,4230252141301","-1,00253335873603","2,01626444420897"
"1040","3,39568710277559","7,95977662767431","-28,7799092679327","4,77978547233051","3,86769646455336","0,812626064745672"
"1040","14,8957194605125","7,68460436387102","-22,4522140697691","2,81825570103501","2,70130426286636","0,81526076721146"
"1040","11,6137742805962","7,61873189716461","-23,9342670042604","0,546132789838232","0,638658751327507","-0,353930681478624"
"1040","5,54713599372608","-6,48194676660184","-20,7695746270724","0,903098408948794","0,862087001668574","-0,322752378255369"
"1041","7,11327433800317","-1,85745588579383","-22,0103984409969","-2,4298558426924","-0,677300735276727","-0,296917245210891"
"1041","7,48343415522459","9,81326609248263","-29,3485012946093","-1,37311651013932","-0,256869556771044","-0,275509598532799"
"1041","7,57092214170169","6,60707690149399","-27,1088344560857","5,79391015388429","4,77194064747052","0,913603950612406"
"1041","5,82795202400794","5,83955917343975","-19,5311197389729","3,82225313260592","3,66525286091869","0,898933605250039"
"1041","6,41599767620369","5,65582595378658","-21,7133062290172","1,54726410448793","-1,62192820338782","-1,45597187509524"
"1041","3,02768725591297","3,85122902809635","-20,4766790674981","1,90341858274387","-0,612515256229907","-1,40730630007162"
"1041","4,22685355533517","4,41923326928327","-21,1800253077688","0,28722438436594","-0,232478272600093","-0,195606139965555"
"1041","0,98298267827139","1,03397827134651","-24,8689718028318","0,829824641319623","-0,0893969803171905","-0,191560646463333"
"1041","2,2162875422181","2,22359464451521","-23,753910999749","0,983386149185799","-1,65903479050579","0,983166182082445"
"1041","9,56237381255869","7,79021362879801","-23,4864197219778","1,02684565071741","-1,24999255507076","0,956574635040228"
"1041","7,2986354659806","6,12278588241568","-23,4222513972678","7,9071035991941","-1,09599098636727","-1,40820905545791"
"1041","8,52724461520266","9,24485396884744","-14,6063051439662","5,85428805319355","-1,03801046233188","-1,36772881597719"
"1041","7,8176287564086","7,99223425796565","-17,4914530017888","5,2733199342605","2,23083265497314","-0,162811232563965"
"1041","-4,69562682380897","2,4105331385558","-28,7442329602666","5,10889992298662","1,46152944934002","-0,164385954183432"
"1041","-0,653158906044134","4,07435042859966","-25,4436557013848","-3,52258072052573","-0,451614805336805","1,00568382152763"
"1041","16,1751188280813","9,75448660999117","-17,6114398098448","-0,965379384457449","-0,171900367200466","0,975233322357121"
"1041","11,1525147158566","8,11423332401337","-19,7325741634014","1,47532476588777","-1,69009674426677","2,12137589621079"
"1041","-2,38012395360193","9,48219289132869","-29,0419647830253","1,16606938824838","-1,26168716553341","2,07109871054802"
"1041","1,42141080562624","8,80966365385476","-26,275189002933","6,22951574826746","0,523112999570981","0,858063128979788"
"1041","-2,97103334051136","12,1698968009598","-27,371579384777","4,66252365432601","0,195077900593948","0,852911071374365"
"1041","-1,0091959831865","10,9742905398095","-26,6345918262193","2,50205900327207","0,0715749577290431","-1,49410731425651"
"1042","18,8546168504273","1,88501023385388","-15,8971327737577","2,89062506962443","0,025076955095002","-1,43890629245691"
"1042","12,5494673115498","4,70916116366097","-19,3213300605621","-2,15037554181162","1,63107770492148","-2,56453995533924"
"1042","-4,81359958622894","5,38522417061641","-28,9433116779746","-0,577031067911959","1,23572586441828","-2,49726856573447"
"1042","0,0826060760801529","5,54706438409425","-26,2515231678026","5,01921060174084","-0,536628291193188","1,07259810435443"
"1042","8,29442601227248","9,10703413662245","-18,5653492497899","3,60300511374522","-0,203907355840429","1,03068019472305"
"1042","6,2353054867733","7,95924207995961","-20,7215175261596","1,48521463816083","-3,32565407959937","-0,175428678650703"
"1042","7,51227645251533","4,16324897585281","-19,478648870722","1,88585793936162","-2,50097010055388","-0,174841090115565"
"1042","6,81409100229848","5,25454027857371","-20,1804978427013","-8,30269353283234","2,68003848332371","-2,51710345933952"
"1042","13,7036658129278","3,75516674000501","-29,1494169300191","-5,18615941216346","1,63065233261187","-2,45796148168499"
"1042","11,3320301026821","4,39623727475033","-26,3009656350406","-0,870168660303975","-2,01144813687647","-0,0662056785769232"
"1042","9,0078413580197","8,07092819483399","-23,8575417451284","-1,64869845401805","-1,38267373924092","-0,0843361412664436"
"1042","9,45851486712823","6,95059881259141","-24,2713902306618","4,99892798717471","2,10106931827998","3,41476438736605"
"1042","6,03773627596213","4,92179360847664","-24,3706680995394","2,88027530862973","1,41267445178778","3,31420785758657"
"1042","7,22922866059853","5,43612546222273","-24,3944838088954","2,2806745974383","-0,470008373556109","2,05950953589605"
"1042","3,98354403897965","5,55924945533039","-20,8799757646456","2,11098136904743","-0,178825418245169","2,0198346748414"
"1042","5,21642022090382","5,58872365096568","-22,0368825047136","0,345966808522957","-3,31621090380681","0,815584448424468"
"1042","12,5624051714219","3,83516565692878","-25,8346333603118","0,846449357422616","-2,49741481026937","0,817712158981917"
"1043","10,2986428777084","4,41538791849172","-24,7456735710447","0,988091116498118","-2,18914375185667","-0,351899396065803"
"1043","-2,58193820883324","8,07551259634606","-26,2445542404227","1,02817720533001","-2,07308183338279","-0,321069203628586"
"1043","1,3737116172997","6,95169625545066","-25,6041198393299","9,62447005752744","-0,40587839911393","-1,46689715400864"
"1043","2,30863708029202","4,92205632124867","-18,4100440475196","7,05731021107596","-0,778187852801093","-1,41635926335364"
"1043","2,52960851602851","5,43618835205795","-20,6842614528719","2,8967980843195","0,705147142203327","-1,3744822850104"
"1043","9,63642782880897","5,55926451029457","-21,2298221236491","3,71932994365334","0,263612494566036","-1,33978195833607"
"1043","7,31613827549924","5,58872725491766","-21,360696350888","-2,91584345598773","0,0973777577038006","2,20309550268066"
"1043","3,2404372220487","14,3988487935411","-35,4729764148284","-0,793666437353173","0,034791530580902","2,13881364969573"
"1043","4,27713742001828","11,5078710827469","-30,8583629481294","1,52392131323464","1,63473517531088","0,914173445485882"
"1043","-0,768780705338791","9,0551969484603","-13,9103707346735","1,1798227158446","1,23710287668904","0,899405503150289"
"1043","1,03860681708437","9,46806039254652","-18,8447268878986","4,51641846826252","-0,536109855610135","0,887168411468255"
"1043","8,52037863060072","4,28505310281036","-23,5486478531876","3,46070971824788","-0,203712168433982","0,877028446845452"
"1043","6,28870982375714","6,04431222866368","-22,6770686765733","-0,272046051115926","-0,0785667413264481","-1,47412304508324"
"1043","5,76125059854977","6,46545473988189","-33,0286496045579","0,671545299802653","-0,031450354750547","-1,42234682001895"
"1043","5,63658459371823","6,56627048222976","-29,5118842422774","0,938591451734179","-1,6372182873057","0,963305533623685"
"1043","0,316175327187788","11,8722455254687","-18,107585933533","1,01416828612548","-1,2417787927123","0,940117597862562"
"1043","2,05868633916926","10,1424231936316","-21,3718155448188","-0,681432299391467","0,53060836405706","-0,250471143982783"
"1043","14,8160686802888","7,96771373494179","-20,3947590688661","-0,161304874669253","0,197899853411688","-0,237023180717399"
"1044","10,8313005931453","8,44711811082736","-21,1603735676588","-1,73109302626426","1,6961443292038","0,945494772814834"
"1044","1,07125261313987","5,0406535200465","-19,583925787437","-1,17535937612329","1,26022299782324","0,925359149597269"
"1044","3,76444645546379","6,22519260752089","-20,2057526601015","4,13288786205864","-2,15091221591116","-1,43407499863295"
"1044","11,4555803005441","4,74814130997941","-25,6352541125484","2,63517695900475","-1,43518099909952","-1,38916199271112"
"1044","9,27339461351555","5,39455548313709","-23,9377340106493","-2,93965962460996","-4,41272700453532","-2,52332056655678"
"1044","8,75763081908108","7,30991188467043","-25,2906275058958","-1,51739627496409","-3,53375245374407","-2,46311313445325"
"1044","8,63572905186178","6,76842194323179","-24,6151723277848","4,0360878674793","1,66769615439107","3,44364942122879"
"1044","1,55232504624401","6,63879667633073","-22,6930271935114","2,60778155522722","0,626005531249029","3,33814272945867"
"1044","3,87814885254691","6,6077661648968","-23,2319249319962","-1,23042319384344","0,233816226159375","-0,263406682034224"
"1044","9,71880600933905","4,83972417364699","-19,8409796116335","-0,316674999317098","0,0861596690111853","-0,247741895721479"
"1044","8,0992565892711","5,41647916488626","-21,027527740589","-5,20904361422675","-3,21644585368404","-0,234761656367042"
"1044","4,18917681735569","7,3151601134568","-23,0722786611148","-3,59363474169982","-2,45985395984924","-0,224005900729226"
"1044","5,26502192453782","6,7696782972379","-22,5627927523133","5,4484908187206","4,31902535132064","0,956281221261484"
"1044","7,28294806185147","8,39971114256487","-22,4405724784278","3,00750625886989","2,87122646292826","0,934297074432407"
"1044","6,75988879501455","7,78991865421623","-22,4112531290786","0,599692663157865","0,702633282806509","0,916080452631933"
"1044","13,6908550167331","5,88332898185819","-34,7249938601484","0,91825640934168","0,886172969696689","0,900985697652286"
"1044","11,329002246302","6,42691755804926","-30,6789298546615","-0,708576356609362","-2,29173946091144","0,888477800722152"
"1044","-5,10205885748557","4,79643149702032","-24,4279901779331","-0,168986924765189","-1,48820148150317","0,878113440000442"
"1044","0,0144281711623973","5,40611549174455","-25,9284559491485","1,7007121028754","-1,18567499738572","-0,301849362233091"
"1045","10,0419601049731","12,5945203291544","-22,7681806164922","1,22985634536499","-1,07177587134831","-0,279596475825224"
"1045","7,41198661084638","10,3153258775761","-24,0100640326218","7,96455773413695","-1,02889363923587","-2,60390642958314"
"1045","5,02673923288235","9,76971797889505","-19,0276469411052","5,87054817006947","-1,01274877583858","-2,52988862502059"
"1045","5,46298141628756","9,63910692949687","-20,83241784641","-3,30702635654087","3,86385043076401","1,04556829565891"
"1045","2,03879195346755","-4,47706926325031","-31,8260268155529","-0,904375260820488","2,69985625778147","1,00828260949158"
"1045","3,22947817201231","0,143711721626675","-28,4632771810421","-5,37536889176437","0,638113587441614","2,14876137399096"
"1045","5,27454722741287","11,8135456016885","-22,3762573853699","-3,64070652260596","0,861881751241222","2,09379101220636"
"1045","4,75790324159798","8,60714381216516","-23,9160458000812","3,71817940131332","-2,30088493642421","4,39099043582463"
"1045","6,3994415114254","11,3608026155621","-24,2854247338664","1,80082054313032","-1,49164468969415","4,29450815819409"
"1045","5,78742224642346","10,0199907740651","-24,3740348282279","2,97517768817759","-1,18697134142271","-0,470938024788965"
"1045","7,40641838512923","2,65656395559137","-20,8750702707454","2,30753295645434","-1,07226393590004","-0,419707631399127"
"1045","6,78907124397493","4,89386054485911","-22,0357057286778","0,401592949035958","0,594429533623742","-3,89138071770795"
"1045","4,87951198492682","5,42943866981959","-32,8747934256183","0,862192132890342","0,221928081741966","-3,76809711338474"
"1045","5,42818397237568","5,55764872892046","-29,4749757743411","-2,44143274364706","3,32869771653896","-3,66594119113696"
"1045","10,8488078703912","5,5883404590128","-26,8992849347176","-1,37639289334082","2,49837496722737","-3,58129220226625"
"1045","9,12998277977742","5,59568763834231","-27,2814039797692","0,642014059764009","-2,68475657460251","1,17434861743982"
"1045","-1,85815327618335","14,40051501389","-16,8124067497785","0,213244189558822","-1,63616970285656","1,11499325127657"
"1045","1,54477958160586","11,5082699530507","-20,301005184688","5,2428667069699","5,25264369520298","-0,10556474096785"
"1046","2,34906932347883","2,0128375832912","-22,897993594085","3,66630211429452","3,84623422914491","-0,11695005890315"
"1046","2,53916475466003","4,73976127830769","-22,5209836104734","-1,93085088241419","0,0697169540947598","3,38773966779704"
"1046","6,11139032028118","5,3925494184645","-20,6704323177203","-0,51490330943993","0,647884355377934","3,29181448933443"
"1046","4,95569272005055","5,548817947983","-21,2265046605817","-3,54815467013269","-0,757946548084083","-0,301795437148819"
"1046","6,44618943600042","5,5862264911468","-33,6806746591076","-2,40659630689158","-0,287232146757606","-0,279551792132317"
"1046","5,79847120852786","5,59518158342258","-29,6682981476879","1,35045579460226","-0,110011434724037","0,910254486445376"
"1046","5,64538175664876","12,6397801589688","-18,1451079729624","0,413740558004842","-0,0432890640356128","0,896158154265318"
"1046","5,60919876953708","10,3261604602167","-21,3808166847062","1,86563003238693","-0,018168553576089","-0,286897054198736"
"1046","10,8915910667011","-2,55198435677616","-25,6772501180611","1,2765298321638","-0,00871085536728535","-0,267206614047837"
"1046","9,14009467071227","1,36516436318317","-24,707918997973","-4,04116048621805","-3,25216394905986","3,26323327419469"
"1046","6,9624770486176","5,82410347819888","-24,4753867278233","-2,54612207293139","-2,47330157538246","3,18864533286778"
"1046","7,44779292513759","4,89151235996664","-24,4196046988134","3,02795816832419","1,06694856564143","0,784090612396613"
"1046","2,27155405232398","6,42887654655538","-13,8455596386827","1,60548076593573","0,399828224732295","0,791615567450479"
"1046","4,04814001482433","5,79690045200642","-17,3089582116353","-0,514084726558488","0,148662036710794","-0,373523693879394"
"1046","7,99533567631377","16,2092963147008","-30,4605649831469","-0,113943773577533","0,0540997064432417","-0,338987645405456"
"1046","6,92826298119277","12,7018811062028","-26,6154961674642","1,71628988630945","4,88901842136503","-0,310370199460252"
"1046","3,14876214840669","1,29857172618656","-20,4127731081597","1,23426501985912","3,70933183193471","-0,286657057725327"
"1046","4,25546983961129","4,56877582635355","-21,924805535264","-2,33613225249022","-1,60533277608168","-1,43838237687691"
"1046","9,80798655211545","0,069776708934846","-18,7673049208605","-1,34659176075037","-0,606267192785476","-1,39273119560227"
"1046","8,12033458249848","1,99277801190709","-20,0098539625136","0,650448089785305","-0,230125919985997","0,987845791363866"
"1047","4,19415864169385","16,5380278535444","-25,5882600896336","0,215631107646052","-0,0885113358498675","0,960452278012521"
"1047","5,26619938832522","12,0199612166198","-23,9264606422353","3,52655261502862","-1,65870135149762","-0,233621312119603"
"1047","-3,29866207417124","3,89594316763167","-21,7677019634948","2,46357778703037","-1,24986701759351","-0,22306098255526"
"1047","-0,322983594086399","5,95116464577897","-22,249838618483","0,445755256684887","-2,71945064815965","-0,214310425562638"
"1047","2,14397182383618","4,68254277349546","-18,8452769153094","0,874690524600463","-2,27273870705031","-0,207059492036883"
"1047","1,72704149321018","5,37885209301047","-20,0285586182309","-4,15488518354084","-0,481047829269549","2,14169807543007"
"1047","8,68309149362128","5,54553899609131","-30,8730789095125","-2,57830734335599","-0,806488622647514","2,0879381838229"
"1047","6,32716732264627","5,58544155502594","-27,4745644800847","1,30185978798631","7,18851980149358","-0,299357886242791"
"1047","0,479395886629657","10,8768348174163","-23,1390756792275","0,399987383441091","5,1985851014884","-0,277531975610905"
"1047","2,09726383308641","9,14352180719409","-24,099037830262","1,86173774115247","-5,29165308590608","-0,259446472337876"
"1047","14,8251865453544","5,20736301565152","-17,2888802225413","1,27542827332124","-3,24115511034564","-0,244460365496548"
"1047","10,833455618133","6,26510057479601","-19,6551955344274","2,82648621938604","-2,46915682385138","-0,232042497170228"
"1047","1,07176195745066","4,75769473011455","-30,7835130597552","2,2654517265584","-2,17850481567899","-0,221752736433665"
"1047","3,76456683997367","5,39684244091796","-27,4530785812619","-1,32730609060632","1,17793750397137","-0,213226379636075"
"1047","6,16466453772557","5,54984563869109","-21,3738108492894","-0,344093865273551","0,441614791328202","-0,206161224079882"
"1047","5,73193225603398","5,5864725062103","-22,9154589019852","1,65115502014701","0,164394389629456","-0,200306856942994"
"1047","2,10235900298516","9,11646790068054","-28,5656157142899","1,21583117628021","0,0600228283582536","-0,195455779808049"
"1047","3,24450236672456","7,9615003937164","-26,9210284964023","-0,624359607117651","0,0207276583944423","-2,53418531421348"
"1047","7,04174629677662","7,68501700982468","-24,7663988492378","-0,145152710030125","0,00593329905289178","-2,47211594000029"
"1047","5,93923222081993","7,61883067894759","-25,2495260151732","-0,00953218137469274","3,24737717678954","-0,0779344218356464"
"1047","18,0241873971301","0,560531729652874","-4,24409602154828","0,028849836715125","2,46775834722013","-0,0940548754888892"
"1047","13,8804898531285","2,87087174679333","-11,2051158210123","0,0397123464491047","-2,69628351999116","1,0639619376337"
"1048","-13,5536021301901","8,70577660373003","-42,7968707872556","0,0427865495158815","-1,64050951796227","1,02352404787867"
"1048","-5,03770266402133","7,10257281644129","-33,3753982357961","3,47763581000912","2,00399593330608","0,990016186518212"
"1048","28,720711889239","8,47940152570846","2,32681446929331","2,44973382318678","1,37612699465431","0,962250722500347"
"1048","18,6995782559185","7,80899543920136","-8,10860280181858","3,87581650023971","-3,73078208961332","2,11061818460085"
"1048","14,5674159287256","4,12728199028419","-24,6928336132278","3,27941270835719","-2,6534979904954","2,06218459778484"
"1048","14,5907713957875","5,24593027541913","-20,6712149520137","-7,19131344596289","0,999105863352697","3,19342592898443"
"1048","-10,0947815022136","10,7955604725633","-30,2671347676753","-4,154637690847","0,374285917184428","3,13080119561391"
"1048","-1,92925952398214","9,12406584349549","-26,569094307267","-1,57823730035331","1,76255246060261","4,25028338274898"
"1048","17,6371580586561","5,20270552472833","-15,1213100222492","-1,84908923276405","1,28522519936658","4,17791472427707"
"1048","12,2617185788255","6,26398563533397","-18,3751078083588","6,65920493019019","-0,517992134406809","-1,73892493210419"
"1048","2,17298273391138","10,0392689658335","-29,7163229804995","4,06714054077683","-0,196890971880337","-1,64176838162952"
"1048","4,7884905656462","8,94302002728995","-26,4369603928152","-3,53439905938111","-0,0759986080661288","-0,389887369048461"
"1048","0,115726668507753","5,15936563888555","-29,1704972183472","-1,68571371164148","-0,0304834703643707","-0,352547001797056"
"1048","2,01130991222051","6,25361066095327","-27,8262437536703","3,98845228484714","-0,0133473362476307","0,849768803828386"
"1048","9,51392695450707","6,51555791460649","-18,7032186318452","2,59430019062532","-0,00689570043382635","0,846038183126849"
"1048","7,28718495767342","6,57826449522844","-21,5147015211829","7,35070951271007","-1,62797363001567","-1,49980236382361"
"1048","4,9972421215344","11,8751167277149","-29,2295888531516","5,69682274831515","-1,23829824326909","-1,44362535501164"
"1048","5,45600971714935","10,1431105200786","-27,0803086207048","-3,35619245511417","-1,09158815896621","-2,56845029029473"
"1048","-6,78109618094789","2,68603713453056","-24,8046084642251","-0,918289777328829","-1,0363528283084","-2,5005087684838"
"1048","-2,67335975339085","4,9009160197517","-25,2586920971553","4,92263084285033","0,607949816919451","2,24128782014803"
"1048","14,1703443188632","5,431127653762","-14,8069584096663","3,57567203895487","0,22701837476425","2,17046077288845"
"1048","9,15138625139756","5,5580530485164","-18,299698185595","3,19446870867804","0,0836003250413652","2,11177168464667"
"1049","0,910553547576978","7,34905095989251","-17,3774588781366","3,08658420724126","0,0296044226030055","2,0631404171871"
"1049","2,96281684950992","6,77779130115273","-18,1562234351179","-7,24588591438962","0,0092753392988722","-0,319905944796654"
"1049","10,5024655256397","6,64103957214144","-27,1435937567144","-4,17008226617145","0,0016215802296878","-0,294558618232971"
"1049","8,2844760268627","6,60830308339859","-24,2995687174342","0,134381338980175","6,49276769608085","-0,273555180380518"
"1049","9,52389800446741","3,07923899226132","-16,5768748683272","-0,64741075696684","4,93663925242869","-0,256151198918665"
"1049","8,81683777850898","4,23442944047306","-18,7242823999863","2,56531318971515","-2,1432600323307","-1,41310444833594"
"1049","-5,45946184493707","9,79280733038021","-31,5601968575022","1,4745474322127","-0,808793079195727","-1,37178526271206"
"1049","-0,833692785979628","8,12340677900881","-27,6393967989853","-3,98511944890216","-0,306375513569093","1,0052021227551"
"1049","21,4233935134145","9,48438889066531","-12,6179536647766","-2,53026187735956","-0,117218779745756","0,9748341745335"
"1049","14,6838987724615","8,81018934598372","-17,0144685392768","-2,11852207526124","-0,0460025795197814","0,949670522202105"
"1049","9,56371005258011","3,36695408288406","-16,3090353066678","-2,00199543516395","-0,0191901733626588","0,928819281478342"
"1049","10,353543576792","5,06391820024148","-17,1398093449524","-1,96901718583473","3,23791836342481","-1,43120784557273"
"1049","-0,0416661788019752","8,9913755652596","-27,8997667806685","-1,95968399878057","2,464197169498","-1,38678619694574"
"1049","3,50140595325476","7,93155500392183","-24,480966617741","1,47693661918347","2,17289649860973","-2,52135192191164"
"1049","13,1570582426752","5,9172347818158","-21,9007220746041","0,449535944921708","2,06322381350556","-2,46148186555576"
"1049","10,4391902776042","6,43503414163218","-22,2817487344081","0,158770884086455","-1,22508104443314","-1,24049738796004"
"1049","13,3241130878994","8,31960192045814","-18,8529318141804","0,076481352143839","-0,463105049360822","-1,22875867344272"
"1049","12,0059701563116","7,77074160492657","-20,030394947402","0,0531925599901917","-0,17622636449657","-1,21903167678243"
"1049","1,11253610116126","5,87873825921994","-23,8330770640182","0,0466015899461039","-0,0682185265047291","-1,21097164057577"
"1049","4,53785195942969","6,42581860199908","-22,7453002320456","-1,67225333757575","1,59595260224345","2,30983099989517"
"1049","0,056487750691359","8,31739584663633","-27,7646858610581","-1,15870713314775","1,22250150652884","2,2272573905677"
"1049","1,99730867978058","7,77021350110401","-25,9687833163887","4,13760061976177","-0,541607170349526","2,15883480298614"
"1050","11,2742658082017","7,63922555071894","-22,0177441344583","2,63651071837885","-0,205781869360153","2,1021381110347"
"1050","8,46689251169532","7,60786883154447","-23,0699316776159","-6,37326138595376","-0,0793459693908519","-1,45896609629852"
"1050","13,0943086363139","7,60036246294724","-21,5622297358273","-3,92312046202498","-0,0317437287200304","-1,40978738772407"
"1050","11,1880073591345","7,59856554123474","-22,2005480070892","0,204274094363298","-0,0138218147902606","-0,197662032139573"
"1050","-1,60808712695606","4,07690795819152","-29,3941161617636","-0,627630381325642","-0,00707433831899101","-0,193264210876718"
"1050","2,36753127008564","5,23387142288062","-27,1197769796384","-0,863067987648631","-0,0045339601591166","-0,189620064605571"
