Timer,AX,AY,AZ,GX,GY,GZ
"1001","-0,128128065345376","3,87184364613169","-28,1281053443628","-0,699697677573412","-2,1000980000021","-0,16916906090097"
"1005","-0,128128114080844","3,87186548559052","-28,1281229731412","-2,39192457568413","-0,352624886066397","1,57380270392842"
"1013","-1,89259256595205","0,348799414545977","-22,8435204406195","-1,93504143648759","-0,898487067563741","1,03530367268306"
"1014","-1,30868814826861","1,50761275944995","-24,5817397007575","1,53191882743807","-1,0454664879619","-2,55942658782607"
"1022","-1,17078148277006","7,06713923563136","-24,9974317148131","0,724208070880882","-1,08529029972204","-1,55385241562356"
"1022","-1,13820413714943","5,39698603934226","-25,0968651761063","0,446226443992348","4,09066953867765","3,89426391663211"
"1034","4,16080077536145","8,51907481351857","-26,8814469763825","0,350534874021696","2,49377849685121","2,40179932442245"
"1034","2,41258620074034","7,2658877052549","-26,3083242328664","-2,99391197108746","2,06088982296219","-3,18105336071236"
"1042","-3,29170416930315","1,68373053584152","-24,4104345403112","-2,14522890111164","1,9435414046083","-1,72587377302356"
"1042","-1,63923031532676","3,34846196778281","-24,9564536911166","-3,50882456659433","0,182812549390598","0,400078094503951"
"1054","0,514903769866992","3,74667066882841","-25,0870630930997","-2,97823883578017","0,705510273438638","-0,0116538538771279"
"1054","0,0237754811052822","3,84192337238596","-25,1183052498287","0,515919114248521","-0,881713456583232","-0,125583409280572"
"1062","-0,092243895059628","5,62550513291436","-25,1257784664751","-0,281226076832837","-0,311981579109067","-0,157108637394559"
"1062","-0,119651185483956","5,0521431854236","-25,1275660820847","-3,86714642957716","-3,61537297289793","-1,88912384628173"
"1071","1,63764409636012","3,15419627425702","-25,1279936850458","-3,10159020760686","-2,5108636249651","-1,36838644292529"
"1075","1,0527704635485","3,70020173816906","-25,1280959689437","-2,83804946437191","1,24638478663776","5,66887349687422"
"1083","0,914605597938334","3,83080786620764","-25,1281204355557","-2,74732624725","0,26490800384138","3,61614015752379"
"1083","0,881966872206578","3,86204923979941","-25,128126288042","-1,06034242070527","3,45668267717574","-2,12174350702643"
"1091","-2,65328281111526","9,15191336222374","-26,8889247190096","-1,47960261517045","2,32191602156532","-0,709462258109362"
"1095","-1,48841585523361","7,41726456572617","-26,310112931445","1,68757333947432","-1,44353460798633","-3,76525647778896"
"1103","7,6056095685311","10,5239254855644","-34,9756445885657","0,777865444859942","-0,464281300589562","-2,61081941800874"
"1104","4,7538937961679","9,26704800115558","-32,0484654886044","0,464700862307952","1,53009464005058","2,87849841103783"
"1112","-2,97484669221584","-1,59838301095287","-24,3050874330608","0,356894767246487","1,07073448518335","1,3974369879346"
"1112","-0,800609268962549","1,80257363187235","-26,4528484123605","3,63128798756665","-4,24054324113648","-2,45896851671346"
"1124","-2,05075825432501","9,65928068229771","-23,445005153164","2,75848935849386","-2,68033616527945","-1,5260670654933"
"1124","-1,34608130680209","7,5386283350434","-24,7255201153844","-7,47648487170446","4,65827936763693","2,17865814780815"
"1132","-1,17961526988221","10,5529560595098","-28,5534171582221","-4,99984819657603","2,64764751250702","1,20378553495072"
"1132","-1,14029095035505","9,27399220063407","-27,4690614957591","0,819985336663885","-3,08415238052108","-5,95913728506827"
"1144","2,3965380727018","0,164075093215016","-23,6880863398134","-0,176552068640562","-1,63794138456617","-3,94117587957077"
"1144","1,23204420469761","2,98495587410032","-24,7836658569304","-5,48686526825029","2,2119362662407","1,78708611005237"
"1153","-2,57058394270454","-1,6226721611238","-26,8065287611969","-4,314926810006","1,25556962267011","0,372142465975054"
"1153","-1,46887987788898","0,275169532966748","-26,2904035737056","-3,91149003626198","0,996315635729113","1,70390805575185"
"1161","-2,97239372536465","7,77232702495992","-27,9277419275358","-3,7726079735871","0,926036491013377","1,07241835023538"
"1165","-2,32756923170586","5,56566935583878","-27,3193981229714","4,5539647882952","-0,821932721322663","-2,548903798726"
"1173","1,35229727071839","6,79862732093237","-27,1738804787685","2,42036585890368","-0,295776085052207","-1,55095288437413"
"1175","0,221593187387868","6,09355452679113","-27,1390722262384","3,34163255734841","5,03360897932027","-1,27481180658164"
"1181","-0,0455133617092776","-1,11828910304571","-21,8483548957821","2,65877622813055","3,47831048074853","-1,1984013401471"
"1185","-0,108612018221098","1,15661648898994","-23,5827996023853","-5,85505826370867","-0,401138851765318","0,546033976691831"
"1194","-0,123517831901274","6,98317175382535","-29,2800750188161","-3,78592369901828","0,547211434862441","0,0287333175146597"
"1194","-0,127039036531463","5,37690107200944","-27,6428802134345","-3,0736294933383","4,26212790242222","-1,83769987643546"
"1202","3,39966857609569","6,75347338699407","-29,0120553862496","-2,82842406102694","3,2691756825203","-1,35415701515134"
"1202","2,23278372440998","6,08275357173266","-28,3395661526194","3,87899765057958","-0,457831575851076","-1,22035680017726"
"1214","-1,57040924575131","2,40072133850775","-24,6571106692673","2,18801017289677","0,531843045711075","-1,18333320007784"
"1214","-0,46883860917774","3,51996829649754","-25,7762563845701","-3,3613656624305","2,52904401926585","0,550203452744425"
"1222","-1,97238397644518","3,78769549185312","-22,5223653003033","-2,27172389630187","2,07044968057516","0,0298870452125206"
"1222","-1,32756692871583","3,85173663185471","-23,7440248922597","-3,55237013973117","-3,24062044660016","-1,83738063066356"
"1234","2,35229781475439","9,14944655578559","-25,7970465247551","-2,99322928649093","-1,68035709430746","-1,35406867726792"
"1235","1,22159331590565","7,41667449830231","-25,2881353945962","5,47801647371353","-4,71523302306662","0,502959567288092"
"1243","-2,57305275915384","1,71979918450702","-26,9271993723587","3,39422084865115","-3,53793390843474","0,0168142805490506"
"1243","-1,46946308710512","3,35708969562689","-26,3192683421622","1,02112701655002","-3,21878905813875","-0,117706046566482"
"1251","0,555007930759725","3,74873444694409","-24,413052403778","1,20419562166345","-3,13227456559851","-0,154928907511307"
"1255","0,0332492985066882","3,84241703423851","-24,9570798918292","-2,04428867483428","0,349013546970284","1,55806314990032"
"1263","-1,85377560636663","3,86482618725961","-25,0872128821693","-1,16257096595437","-0,707271164608408","1,03206188689315"
"1263","-1,29954803951857","3,87018652319423","-25,1183410798189","-2,51479452664815","-4,45144673502882","0,88651308925379"
"1271","0,595147011063421","3,87146873146444","-25,1257870371152","-1,98029397917421","-3,46642613750408","0,846238561445339"
"1272","0,0427313649305336","3,8717754394895","-25,1275681322072","1,51521163642228","0,258430999114279","2,5583861979895"
"1284","1,67600377270183","3,87184880495971","-26,8887912064768","0,718530375763807","-0,731826482212612","2,03215127690847"
"1284","1,06183218086532","3,871866354198","-26,3100809948508","0,444274918712001","-1,00026767248003","-1,56004602312614"
"1292","-6,13833260559609","5,63266758306345","-27,9324488250953","0,349863189157162","-1,07303730461209","-0,554036027854048"
"1292","-3,83922959305333","5,05385646476432","-27,3205240268422","-2,99414299264816","5,82290728722321","-1,99895686094261"
"1304","3,75896702497672","10,1977942199042","-27,1741497983171","-2,14530844496102","3,69227521340131","-1,39877812513077"
"1304","1,55389118588147","8,42823940310197","-27,139136648274","1,45840583469284","-5,52989017697142","2,21388002563528"
"1312","-4,25832365216193","-0,799028518000202","-21,8483703057243","0,698975125896848","-3,02985518699832","1,21353171300936"
"1313","-2,63134482621494","1,9937815998417","-23,5828032884892","-6,18546730302053","2,8346131912624","-2,50985659156688"
"1321","3,04430598902016","4,422627102819","-25,758481838472","-4,55541874800499","1,42436626198547","-1,54014820679466"
"1325","1,38506660489448","4,00361415828713","-25,2789106071401","-0,682773573129575","-0,686844383806455","0,451469858626412"
"1333","-0,770665703424479","9,18577611102721","-28,6857898068467","-1,34962551896662","-0,259156039460119","0,00256666231394739"
"1333","-0,279914963368986","7,42536463577726","-27,5007254263198","3,38807021205176","5,04353602234874","5,04822729337793"
"1341","-1,92775448954514","1,72187789119174","-27,2172545080837","2,01900967585805","3,48100152554915","3,44440234046634"
"1345","-1,31702409225703","3,35758692843748","-27,1494474228266","3,20346673262352","-3,85824492978878","-3,89255667167887"
"1353","2,35478835202733","3,74885338650865","-25,3724307356807","2,61121300142989","-1,84778410650563","-1,92275248611822"
"1354","1,22218165623817","3,84244548493548","-25,947363068216","-5,87143178110114","2,1550516366281","-1,37769175916439"
"1362","0,954625652455589","7,38642705482188","-24,3240915580766","-3,79156023990077","1,24014921134368","-1,22686905392027"
"1362","0,89142082113484","6,23415796829401","-24,9358001934158","1,89168792536184","-2,46570013591636","2,26144865403541"
"1374","0,876489925749175","13,0017199058928","-28,6037167772012","0,848131361491711","-1,47028998097082","1,22669433666812"
"1374","0,872962796060522","10,6205408140172","-27,4810933139567","2,14464231623389","-1,20045199253189","2,66366138368401"
"1382","-4,41917956050147","-7,55701460475095","-21,9301673554128","1,59096284870331","-1,12730371325926","2,06128177102838"
"1382","-2,66934386346251","-1,90513982943618","-23,6023693856272","-5,22265024921464","2,35036105662687","-1,55198538013538"
"1394","-4,01974939002899","6,4899935211766","-25,7631621069984","-3,56821888076395","1,29309412129241","-0,551805582838006"
"1394","-3,33875607391787","4,49813434349567","-25,2800301412672","0,312820014377142","1,00648785988728","-1,99833967879284"
"1402","2,1134243136843","9,30406680754194","-25,1644635406627","-0,351142415035324","0,928794000057415","-1,39860734584536"
"1403","0,401394446504493","7,45366012158446","-25,1368196666849","2,73179543009047","0,907732576536279","-1,2326565656763"
"1411","-0,00303885882740864","1,72864625540511","-23,3694101389202","1,79308878482365","0,902023199222448","-1,18673664452852"
"1415","-0,0985782542534518","3,35920594125235","-23,9466405325029","-0,185811136830474","2,62939327478353","-1,17403023148201"
"1423","-1,88491726687074","3,74924065918076","-25,8455127874599","0,132957699247753","2,0976525789138","-1,17051426437073"
"1423","-1,30690464288902","3,84253812170845","-25,2997286685298","-1,41305955037931","-1,5043284384941","2,27704247944423"
"1431","0,593409158544512","3,86485515174192","-26,9299725179037","-0,945271977537442","-0,480761426748825","1,23100927409978"
"1435","0,0423208315327961","3,87019345158439","-26,3199316868099","7,49452565289912","-3,66112618764048","-2,50502040925842"
"1444","-1,85163263552453","5,63226741979148","-26,1740081088228","5,39990409075397","-2,52326650770586","-1,53880999609126"
"1444","-1,29904180490344","5,0537607445216","-26,1391027557263","1,36733086347405","-2,21481298667851","2,17513207599545"
"1452","0,595266599011386","3,15458319919574","-26,1307532916329","1,9791279921922","-2,13119672334485","1,20280984240239"
"1456","0,0427596152256952","3,70029429176317","-26,1287560750325","-1,12176762235864","-0,379612055368189","2,65705235122137"
"1464","1,67601044627713","3,83083000530213","-27,8890753659276","-0,189242892626305","-0,904788605919699","2,05945299836917"
"1464","1,06183375736592","3,86205453553655","-27,3101489666351","-1,52397626820664","0,681763158325096","-4,99907526361909"
"1472","-0,847023091472365","7,39111759794423","-23,6500739910413","-0,983454769884384","0,111849122880558","-2,9522270407885"
"1472","-0,297952890993221","6,23527996013494","-24,7745731902468","7,48138132569608","3,41519113688355","2,78402816449049"
"1484","-1,93201559434842","2,437206103459","-25,0435567372949","5,39537919021629","2,31066840296905","1,37129630774107"
"1485","-1,3180306942638","3,52869556059584","-25,1078984003514","-3,60148460507188","-4,90441920974079","-2,46620185404404"
"1493","0,590780848245108","5,55058011037192","-28,6448831792537","-1,69863162491043","-2,86030113253552","-1,52806858835157"
"1493","0,041699945038814","5,03422089758172","-27,4909404395492","-4,35508461214965","-2,30617707890367","2,17810431026829"
"1505","3,4395298339879","4,91070624083015","-32,4973050033035","-3,2695616610384","-2,15596390372683","1,20363228363046"
"1505","2,24220016076607","4,88116116822455","-30,694842270672","3,7271371762741","4,8004273611525","4,38057185101106"
"1513","-1,56818479829689","4,87409389913902","-23,2204997094366","2,13573259860774","2,68618130527606","3,25965668735077"
"1513","-0,468313127319172","4,87240338739129","-25,4326147777317","6,55515348480145","2,11304680393691","-3,94367728596473"
"1521","-0,208490127813216","3,11120198092662","-22,4401652076878","5,07652765901708","1,95768023451029","-1,93689797295861"
"1525","-0,14711206630513","3,6899173755559","-23,7243623860569","-0,399743228600549","0,186645334717313","2,06497791770223"
"1533","-1,89638242317712","7,34994187820775","-25,7923431948941","0,715064726111812","0,706549273369187","1,17232929716017"
"1534","-1,30961306004343","6,22543060572472","-25,2870103441295","2,7545870666609","-2,61034958838457","0,925326214522034"
"1542","0,592769348385253","9,47803823278388","-30,4485243190179","2,45668734100694","-1,50950187477047","0,856978466675075"
"1545","0,0421696889958259","8,25607163405286","-28,6831737861628","-5,92462683879648","0,517836146692439","0,838066092846142"
"1554","3,43964080173725","-4,36180562158783","-28,2608966974408","-3,8098725005018","0,0674114256660048","0,832832886264907"
"1554","2,24222637470925","-0,380039323166125","-28,1598867640929","0,229631382734605","-0,054690704858864","-2,6151990315804"
"1562","-1,56817860576959","7,61559912128113","-24,6141308260701","-0,379779885651591","-0,0877904207109101","-1,56929731072781"
"1562","-0,468311664456677","5,52817957595924","-25,7659754784717","1,06618446070348","-5,2835165235683","-1,27988785750954"
"1575","-0,20848978224079","8,55045668531491","-31,3238912322186","0,563953935489992","-3,6919854578152","-1,19980592443477"
"1575","-0,147111984670457","7,27339434290609","-29,6533611817692","3,70256756903497","3,65512145162717","2,26893724053509"
"1583","-0,132612689990363","1,68552614594256","-20,4497802787796","2,78302716948479","1,64679145764411","1,22876648903295"
"1583","-0,129187517459867","3,34889148304684","-23,2482564016799","-4,15653260508212","-0,626548869363018","-0,782349082340352"
"1595","-3,65591781577741","5,50757044119029","-25,6784572298894","-2,5454580533086","-0,242810997922746","-0,338841003393366"
"1595","-2,48903832313882","5,02393285701929","-25,259768483177","-3,64660241309797","-0,138786486214861","1,50717318763306"
"1603","-0,449616332848948","8,42983937305389","-25,1596168918913","-3,02566850211887","-0,110587291291906","1,01798022332914"
"1604","-0,96784309260858","7,24454232370474","-25,1356603339093","3,81109676346961","1,62597479509783","-2,5639672681018"
"1611","-1,09026394833015","5,20021871936007","-26,8907268851494","2,16463546867293","1,09672588987278","-1,55512106800812"
"1615","-1,11918346210159","5,71121044367671","-26,3105440149362","4,90935062840994","0,953255924994591","2,17061867066228"
"1624","2,40152430069073","2,31184711917843","-29,69335661191","3,85421170119146","0,914363769301992","1,20156094669491"
"1624","1,23322210276198","3,49870931936956","-28,5025354285565","-4,78778010915015","4,36165637004293","-2,51316899928607"
"1632","-0,806535973605622","3,78261028140697","-26,456890434957","-2,76276336885964","3,29615607985877","-1,5410647767627"
"1636","-0,288388607556284","3,85052023441818","-26,9675660790407","-5,37716179861916","-0,450517670011432","-1,27207568734583"
"1644","-0,165986507033616","3,8667644968007","-25,3289241782479","-4,27716167520292","0,533825715497591","-1,19764423385673"
"1644","-0,137071423808171","3,87065017259123","-25,9369561705087","1,06876829669052","0,800663699578088","2,26953539777659"
"1652","-0,130240805425282","3,87157963777676","-27,8431962593184","-0,0909091801001545","0,872998731027833","1,2289320039726"
"1653","-0,128627206490467","3,87180196860869","-27,2991745481207","2,82138004606126","2,62152525769104","0,940988640639762"
"1665","-0,128246025552449","3,87185515080378","-30,6906370016922","1,82392805645102","2,09551969942218","0,861312386476936"
"1665","-0,128155979070406","3,87186787214274","-29,501884889718","-3,48669998643317","-1,50490662418846","0,839265323457529"
"1673","1,63563500653799","5,63266794616034","-27,4567348241354","-2,31486991216927","-0,480918162606836","0,833164723060472"
"1673","1,05229585568502","5,05385655161817","-27,9675288564702","3,05578733394605","3,25450246886702","-2,61510720965904"
"1685","-2,6130459466174","6,67620017860878","-24,5681182434629","1,9046221571532","2,26710856311099","-1,56927190286059"
"1685","-1,4789106892216","6,06426959086549","-25,7549691321023","-0,147416062771009","1,9994436372487","0,443411096712086"
"1693","-1,21099359289337","2,39629991540604","-22,5172733263119","0,146175103879579","1,92688443659007","0,000336737806948736"
"1693","-1,14770346057725","3,51891067896456","-23,742806876963","1,90299569572386","0,178297141641446","3,32431833159765"
"1702","2,39478701329131","9,06983359970585","-34,6007403270576","1,50777662652679","0,704286226708974","2,24409088420651"
"1706","1,23163055143209","7,39763084284","-31,1979902451387","1,37172348732198","-4,33988084628587","-1,50140062209036"
"1714","-2,5706816601338","3,47604091661605","-23,3408541987575","1,3248875471304","-2,70726482319667","-0,537808371747221"
"1714","-1,46890296170525","4,53798496320219","-25,4614039289054","-2,00274079261844","-2,26469165737673","-0,271174613778216"
"1722","-2,97239917846117","3,03120810098417","-20,686254627087","-1,14826821529444","-2,14471794381899","-0,19739489952319"
"1726","-2,32757051989241","3,67078260197468","-22,5440247368435","2,45738694143447","1,34564036845516","1,54631246694083"
"1734","1,35229696640972","7,34536478355666","-26,5100029248217","1,69862437453609","0,291814426692179","1,02881037801574"
"1735","0,221593115500942","6,22433575109495","-25,4586766822344","3,09317492385911","-1,72277682876065","-0,837678553172441"
"1743","3,48202604911321","11,2385733713414","-26,9679933546928","2,57324533240658","-1,26889668618545","-0,354151114832248"
"1743","2,2522390538232","9,4379938971976","-26,3290263838524","2,39426091946744","-1,14585785233754","1,50293675614825"
"1755","-3,32958302162008","-1,55749224508733","-29,6977776494282","2,3326459996748","-1,11250421287501","1,01680796852243"
"1755","-1,64817844744918","1,81235482447062","-28,5035929538567","-2,65582255988387","-1,10346263445131","-0,840999716814786"
"1763","-1,2509797638466","4,37922927950059","-24,696346367113","-1,37308991930382","-1,101011623356","-0,355070107634933"
"1763","-1,15714940518149","3,99323327010277","-25,7856416799842","-0,931512535737921","-1,10034719784224","-0,220609460241913"
"1775","-1,13498383270937","5,66169890968193","-24,2854073218665","-0,779500667084813","-1,10016708390306","-0,1834031131583"
"1775","-1,12974765318276","5,06080084428444","-24,9265468092622","5,89583940201607","-6,28687161682585","1,55018410723042"
"1783","2,39902871880923","1,39547018092527","-28,6015033402387","4,19380790213412","-4,69289496392296","1,02988169215255"
"1784","1,23263257074013","2,5187122040133","-27,4805638532636","1,95213537966791","4,38379268690073","-4,28396595921761"
"1791","-0,806675238923807","2,7873950308016","-25,4516347689141","2,18044542966042","1,84432126923247","-2,75435052079441"
"1796","-0,288421506242242","2,85166476067912","-25,9663089081194","-2,70821721123834","-2,3019198369494","1,11549027203143"
"1804","-3,69353370650397","6,38863233295146","-31,3718115833732","-1,3911266420986","-1,42589205495048","0,186306473558034"
"1804","-2,49792433576698","5,23468547737","-29,6648238720392","-0,937721630765096","2,26941906794715","-0,070806187884243"
"1812","-0,451715478154366","6,71945499452327","-23,9741162503956","-0,781638131938886","1,27115218781196","-0,141951337834706"
"1816","-0,96833897430464","6,07461627125425","-25,6128820917898","2,58359839643532","2,72945757818713","-0,161637775418451"
"1824","4,20092805110146","0,63797784103841","-27,7656767775244","1,74207234047397","2,12477823180253","-0,167085171692246"
"1824","2,42206547942918","2,33751778734454","-27,280631657923","1,45237917898561","-1,49697515645833","-1,89188443389579"
"1833","-1,52569516261003","4,5048498194102","-25,4038103941971","1,35265305973046","-0,478768082775892","-1,36915031981354"
"1833","-0,458275788524673","4,02328207621207","-25,9548691756982","1,31832260190882","1,52616753106471","3,94537020231036"
"1845","-3,73365843220249","5,66888667331711","-26,0866840723072","1,30650443087152","1,06966991578564","2,41594095265905"
"1845","-2,50740301119834","5,06252017868619","-26,1182145869298","2,95818865057841","0,945921531642605","-4,900432167549"
"1853","6,60112422724537","1,39588145081881","-29,6473508417116","2,52677665804148","0,912375545715276","-2,92493169943068"
"1853","3,75283422271273","2,51881058099289","-28,4915307117355","4,03401679330187","-0,825635960616636","2,79158100589066"
"1865","-0,447557567751937","4,54821559390274","-22,9326640119497","3,55288029944359","-0,296779967358238","1,37338623995582"
"1865","0,56018267786365","4,03365529822212","-24,6029665932833","-4,89151266242009","-0,153416513925792","-0,742331629261652"
"1874","-6,256837411211","5,67136797881964","-25,0025079298073","-2,79847303119648","-0,114553231591701","-0,327767850931915"
"1874","-3,86722401718771","5,0631137143293","-25,0980794037279","1,23355562046789","-3,56185365938658","-0,213054705309868"
"1886","1,98858418025214","10,2000085814846","-28,6425344461091","0,621571023006952","-2,49635549097754","-0,181312651453831"
"1886","0,371903426067323","8,42876908496636","-27,4903786156077","2,06664950750435","4,70815325612261","-0,172529368792232"
"1894","-0,010005531022598","0,961895214509914","-23,693185458171","1,56411402664466","2,6611674366084","-0,170098963542987"
"1894","-0,100223993219271","3,17579681581364","-24,7848855811806","-5,23189288655107","-4,80940515576803","1,55386547287782"
"1902","-0,121536326355297","3,70536865184064","-30,32841458493","-3,57140063468768","-2,83454451244273","1,03090035575915"
"1906","-0,126570944909432","3,83204380729826","-28,6544431811674","-1,3440278905814","-0,570277131106266","-0,837100239451467"
"1915","-0,127760274290869","7,38393894264885","-22,9716331583192","-1,5772606021746","-0,956474516744603","-0,353991090754995"
"1915","-0,12804122991091","6,23356280447511","-24,6122881287929","1,65395483081448","2,39666981339927","-0,220310887556727"
"1923","-0,128107600137414","5,95838941679809","-25,0047376687765","0,766292360474494","1,30564760159648","-0,183320495684935"
"1927","-0,128123278795009","5,89256712548574","-25,0986127639093","0,460716858033762","1,00989088511897","3,27349889181211"
"1935","-0,128126982568778","2,35522817590869","-23,3602709343414","0,355523284111298","0,929716499670828","2,23002873478275"
"1935","-0,128127857512315","3,50908619693626","-23,9444544076336","0,31931066920534","-2,54985292263173","0,218000191252944"
"1943","-1,89189777810265","7,30668652340059","-25,8449898599006","0,306844570474882","-1,49310230469083","0,661255643430752"
"1943","-1,30855365105444","6,21508379643124","-25,2996035827051","3,61405833717951","-1,20663600774777","-4,38596776404839"
"1955","0,593019612873816","4,19317215217493","-35,7339277521808","2,75255809604912","-1,12898008979413","-2,78257524399239"
"1956","0,0422288090475594","4,70952488388502","-32,2298490726569","-0,855516315712384","-2,83684673784352","-0,615611660489484"
"1964","-0,0878846601203669","3,07224095930743","-24,3484749248875","-0,0975865710824082","-2,29981900966729","-1,01599533579861"
"1964","-0,118621402167086","3,6805977835107","-26,4632268292214","-4,80392900616085","6,49034858677084","-1,12678473239151"
"1976","-3,65342177933885","3,82611854204991","-25,2082847323258","-3,42407517918359","3,87320667846242","-1,15744105320165"
"1976","-2,48844868373683","3,86092753953845","-25,9080988568699","2,01819370410126","1,43482826993381","4,00395186621798"
"1984","3,07806238564003","9,15164504819102","-24,3146994421485","0,891680647612986","1,77382725287438","2,43215097218775"
"1984","1,39304088812563","7,41720038421293","-24,933553571401","3,8153866394209","-3,32102951096322","-1,44936287690865"
"1992","2,75875749158899","-0,0408720530573667","-25,081585316474","2,82186484176452","-1,70215456148437","-0,523409107380898"
"1997","2,08138111555369","2,17513487719562","-25,1169949493965","-4,14316283716125","0,465611429884042","-3,71377406835381"
"2005","-1,60617512735739","6,22680437622904","-30,4078561318282","-2,54085554538871","0,0532542338186483","-2,59657381952857"
"2005","-0,477287593622084","5,19597574966055","-28,6734458350446","-1,98926541726229","-1,78744625396872","-0,564143564129519"
"2013","-1,97437988245771","4,94939848169181","-24,7369756805803","-1,79938194671405","-1,28642741713585","-1,00175369786194"
"2017","-1,32803842216419","4,89041646711455","-25,7953603323925","-0,078262460191149","0,578307664509659","-1,12284395615412"
"2025","-2,93912270798434","3,11551076307662","-22,5269350213413","-0,485771542271263","0,0838041785875784","-1,15635060858971"
"2025","-2,31970960975135","3,6909480490388","-23,7451179830993","4,3412022967498","-0,050246921106652","4,0042536010489"
"2033","3,11792366536351","3,8285943562938","-22,2757139332582","3,00287551761064","-0,086585789973724","2,43223446465239"
"2033","1,40245732963893","3,86151976165619","-22,9242281219278","-0,769345192769635","-0,0964366109930991","-6,61921554484805"
"2046","-0,76655748754265","3,86939561637323","-28,3617457343798","-0,0679223855738928","-0,099106993362752","-4,12382486506858"
"2046","-0,27894447835587","3,87127954420468","-26,6624160910748","-4,79371718726105","3,35800468587823","5,18312950794886"
"2054","-0,163755517690657","9,15412127844192","-29,777525457218","-3,42055978702113","2,29516617323132","2,75843894909476"
"2054","-0,136544396557403","7,41779270584079","-28,5226688662485","3,67515646315788","-1,45078601609145","-3,08236828214526"
"2066","-0,130116305627052","1,72006666307015","-24,7009093819928","2,11783837297755","-0,466247028351846","-1,69856681537702"
"2066","-0,128597795867512","3,35715367729332","-25,7867331666908","-1,7297695280721","-1,92827380618838","-1,3156577734705"
"2074","-1,89200879177475","3,74874975154866","-24,2856684087273","-1,05429856567786","-1,32460326175521","-1,20970374907119"
"2074","-1,30857987584596","3,84242069514536","-24,9266092620145","0,833983155092637","0,567958872036662","0,542906508860435"
"2082","-1,17075629611836","9,14721815606603","-30,362315310158","0,48401923846236","0,0809988050138699","0,0278679219072176"
"2086","-1,13819819244829","7,41614145847335","-28,662552335292","5,33080285139291","1,67791037821718","-0,114647414729706"
"2095","2,39703244550085","3,48046871083291","-22,9735728920616","3,99929553552711","1,11080470271963","-0,154082559379519"
"2095","1,23216099052536","4,53904410472483","-24,6127521188631","3,54092759653634","-2,50076313165669","1,55829734126378"
"2103","-2,57055635435504","1,2706644197454","-28,52644271865","3,38313562274005","-1,47979493547847","1,03212668953483"
"2107","-1,46887336068529","2,48885829539521","-27,4626091297273","-3,29419423256032","-1,20302861664186","-0,836760902991449"
"2115","-2,97239218580375","11,5842390424027","-28,9689340078084","-1,59284771141519","-1,12800219022711","-0,353897193615912"
"2115","-2,32756886801495","8,75988112094901","-28,3292513908704","-2,66291617995224","4,07908949814685","-0,220284905459997"
"2123","1,3522973566332","2,80189522761238","-26,4154403786684","-2,03128447403361","2,49063944047669","-0,183313306228929"
"2127","0,221593207683548","4,37672731287792","-26,9576511025128","4,80916347970818","0,331121096134328","-1,89637488978603"
"2135","1,71825635698735","2,99263479225838","-23,5657554553896","3,16396994075382","0,745714082614159","-1,37039286522482"
"2135","1,07181352093946","3,66155575200469","-24,7544039461802","-4,02539404440025","-0,87081491898878","2,22173445630028"
"2144","-2,60843528297038","5,5823606626141","-26,7995292252679","-2,50031394402304","-0,309027179410814","1,21570509740943"
"2144","-1,47782151082917","5,04182290003338","-26,28872926393","1,33619611267592","-1,88565430148457","0,937328648768732"
"2156","2,31680313183425","8,43411872445776","-31,4489354897376","0,656904746156496","-1,31304987206916","0,860299637166882"
"2156","1,21320839680447","7,24556595726579","-29,6832721394197","0,423060455602765","-1,1578269957131","-4,33089068343455"
"2164","-2,57503353099202","1,67886951347591","-22,2177320996897","0,342560165271144","-1,11574883475852","-2,76733497096529"
"2164","-1,46993100540315","3,34729919679751","-24,4319527572633","1,97060074360157","2,35349337867101","-2,33468647751681"
"2176","2,31866710818849","3,74639253055646","-24,9616009124973","1,53104948886246","1,29394323808646","-2,21496914516309"
"2176","1,21364872447191","3,84185684088552","-25,0882943237359","-3,58752267347401","1,00671804034758","6,43461722587491"
"2185","-0,811159798358985","7,38628624941747","-26,8793967948879","-2,34957786060617","0,928856397886167","3,82802763174533"
"2185","-0,289480895000637","6,23412428722323","-26,307833823707","1,3880866183187","-2,5500860809276","-3,78640445529351"
"2193","-0,166244538409096","2,43692966306737","-27,931911295086","0,674767918097991","-1,49316550975784","-1,89337931052296"
"2197","-0,137132378633823","3,52862943523342","-27,3203954480681","-4,53804797707638","-1,20665314151726","3,80031180672926"
"2205","1,63351450910099","5,55056429298891","-23,6525249798215","-3,33254632472968","-1,1289847344543","2,37580212306078"
"2206","1,05179492996881","5,03421711401674","-24,7751594740399","-2,91755550849309","2,34990536167988","-3,18824698221413"
"2214","0,914375147361706","11,9538934599324","-30,3260880712255","-2,77469599666624","1,29297059049737","-1,72786430679851"
"2217","0,88191243280093","9,60910058614848","-28,653886672182","-1,06976438593304","2,73537215908861","-4,77034847328246"
"2226","0,874243756452726","0,244234013954947","-24,7322970707531","-1,48284610225553","2,12638156948699","-3,61222841428648"
"2226","0,872432182844998","3,0041301259303","-25,7942411950312","3,34220937188538","0,232377266073354","3,60140045404781"
"2234","-0,891765479608821","3,66430546994825","-22,5266673203618","2,00322220061329","0,718946386562408","1,59746982163846"
"2234","-0,308522398143396","3,82222137227447","-23,7450539482302","-3,42497844247053","-4,33590673769818","-2,40361781609433"
"2246","-0,170742718144243","9,14238641806425","-29,3188867400696","-2,29362243079206","-2,70618751304284","-1,51075107960089"
"2246","-0,138194984919576","7,41498569239806","-27,652164092389","-3,55990865341531","1,19343595465015","2,1828962048017"
"2254","-0,130506224588078","7,00178631022736","-27,2534790866235","-2,99582440026858","0,250554517248199","1,20495823954883"
"2255","-0,12868990653523","6,90294779123785","-27,1581124495628","5,4771231125284","1,72387391605163","-0,788937017256138"
"2267","1,63550887670022","1,59691423094087","-23,6137064047666","3,39391331138093","1,12326460030975","-0,340663938190969"
"2267","1,05226605999736","3,32769524989281","-24,7658739556358","-3,94623663563272","2,68936788357389","-1,9399150804672"
"2275","-2,61305298526122","7,26329727032453","-25,0414758545482","-2,47306421142279","2,11391062863632","-1,38244078763171"
"2275","-1,47891235196245","6,20470495827429","-25,1074006470203","-3,62168102084918","3,68683218822486","0,495108775207609"
"2283","2,31654544212124","9,47308059638003","-25,123170053108","-3,01708937749391","3,11322324672759","0,0146419029747113"
"2287","1,21314752268984","8,25488575270601","-25,126942141863","0,502544916013626","-3,95794307979828","-0,118307160986162"
"2296","-2,57504791130153","0,920301805179806","-25,1278444366923","-0,285830109874014","-1,8748105017217","-0,155095240726038"
"2296","-1,46993440246778","3,16584754881252","-25,1280602682944","-2,21297876158098","2,14772526158197","-1,88856672316268"
"2304","-1,20887312210542","1,94219172659941","-21,6065178337833","-1,87639468508824","1,23816316137707","-1,36823228245873"
"2308","-1,14720254115635","2,6494896209354","-22,764154428114","-5,07203167884803","-2,46623851873802","2,22233230700126"
"2316","-1,13263408217493","4,57947440823842","-33,6058467246731","-4,17212142310896","-1,47043592697798","1,21587052752683"
"2316","-1,12919257094175","4,04113249941753","-30,199211710609","-0,550824463470321","-1,2004915558986","-0,785917499041271"
"2324","0,635390132143653","9,19475060961622","-25,8627404389955","-1,3042023802985","-1,12731443818429","-0,339828413114258"
"2324","0,0522380089367862","7,42751136248472","-26,8254436359966","-1,56355077358402","2,35035814929045","-1,93968388393049"
"2336","-0,0855201839669245","-0,0384056364418268","-21,7733340058441","-1,65283078511257","1,29309333316522","-1,38237681368278"
"2337","-0,118062841288887","2,17572485137276","-23,5648543827777","3,28369258582438","-2,45134792616542","-1,22816544634361"
"2345","-1,88952011644062","0,94455440669718","-22,232594344865","1,9830779488292","-1,46639935217865","-1,18549391553736"
"2345","-1,30799197535978","1,65005478102949","-22,9139137883636","-0,12040786003422","0,529520473936876","2,27289748898566"
"2357","0,593152297683862","7,10120365828196","-31,8808725772394","0,155472607600959","0,0705788389621587","1,22986232176354"
"2357","0,0422601532181973","5,40513465398799","-29,0257957421204","1,90619633725827","-0,0538320754505317","-0,78204585657348"
"2365","-0,0878772556779696","8,52102397466339","-28,3428528865383","1,50887843907119","-0,0875576615500679","-0,338757098374718"
"2365","-0,11861965301354","7,26635395113357","-28,17949092785","-1,93940240541842","-0,096700068091541","-3,66267936614931"
"2377","-1,88965165223363","1,6838420633279","-21,0972261381737","-1,12646413982753","-0,0991784118962383","-2,58243550277038"
"2377","-1,30802304809779","3,34848864548543","-23,4031273734908","5,77639812669514","1,62906753938135","-0,560231377696667"
"2386","2,35691467126425","3,74667705021404","-23,9547057951174","4,15269055298633","1,09756427783987","-1,00067116427982"
"2386","1,22268395723984","3,84192489883234","-24,0866449911872","-1,37352434995056","-0,775434589141989","0,600747513290525"
"2394","0,954744311164921","7,38630252908041","-32,9221903937876","-0,275909492935846","-0,283171268443231","0,0438729949766667"
"2398","0,891448851915693","6,23412818136694","-30,0356790865099","3,41344676276215","1,57919034850571","3,33636516557015"
"2406","-0,887273166433623","-1,08466346751299","-25,8236229497885","2,68349808202765","1,08404345851931","2,24742434046103"
"2406","-0,307461177716778","1,16465984084269","-26,8160866164398","-4,19079523521847","-0,779099842775759","0,222813695836957"
"2414","-0,17049202573925","5,2242987164334","-23,531892810021","-2,55725287484121","-0,284164853512402","0,66258757902465"
"2414","-0,138135763781022","4,19537638839822","-24,746303900871","-1,99491015538467","-1,87891456713988","0,784276564266282"
"2427","1,6332774791406","7,47084917476948","-26,7975916703812","-1,80132513316783","-1,31122284996259","0,817948889284314"
"2427","1,05173893631345","6,25435199003175","-26,2882657950485","6,54407898061405","-4,61516729492123","0,827266293565964"
"2435","2,67813163386666","2,4417681896345","-27,9272305645341","4,41696269525743","-3,51080786932385","0,829844494581226"
"2435","2,06233484611706","3,52978682515369","-27,3192758034232","5,34046102709244","3,70423547340586","-2,61602594369454"
"2447","-3,37444414693768","3,79004411305854","-25,4130541885338","4,65837293187938","1,66010539539636","-1,56952612398822"
"2447","-1,65877600391763","3,85229842902002","-25,9570803187481","-7,16670228624704","1,10597808855994","-1,27995117198667"
"2455","-1,25348322764308","5,6279868772644","-33,1304011084317","-4,23745375081492","0,955764031497198","-1,19982344406194"
"2455","-1,15774079915037","5,05273682604034","-30,8462807386585","0,0824376466418497","-0,81387411383756","-1,17765145460636"
"2463","-1,13512353787583","3,15433827485504","-26,7783183026655","-0,430450947418397","-0,293591539895022","-1,17151628605546"
"2467","-1,1297806557742","3,7002357051337","-27,8052496103401","1,04874107915253","-0,152552187950531","2,2767652119514"
"2476","-1,12851850520674","2,07001896017088","-21,0077065039162","0,557949096646626","-0,114318928192884","1,23093255194521"
"2476","-1,1282203470171","2,6800662747202","-23,3817140111958","2,04474782441713","-0,103954571497095","-2,50504163889823"
"2484","-2,89191962692483","8,10838249667583","-25,7103806863165","1,55657442906416","-0,101144978739416","-1,53881587050405"
"2488","-2,30855881240796","6,40685185344552","-25,2674046687339","3,04427459866834","-3,55821892052023","-1,27145339682113"
"2496","-0,406981606394201","11,2822317649075","-26,9222405211837","2,55641152232789","-2,49537017791907","-1,19747204104271"
"2496","-0,957771478980473","9,44843711455883","-26,3180821702385","2,38846592402191","1,25058478456235","0,546291121259352"
"2504","-1,08788472816131","-1,55499419648898","-27,9343627300033","2,33065108752736","0,266046548576722","0,02880447149328"
"2508","-1,11862141824042","1,81295236511196","-27,3209818385785","2,31074848006037","-0,000844256002331699","-0,114388263895349"
"2517","0,637887358570672","4,37937221299607","-25,4134622772081","2,30389705907568","-0,0731936061497592","-0,154010850250663"
"2517","0,0528279294500919","3,99326746021925","-25,9571779347706","-2,66571930809814","-0,0928062281545185","1,55831718375888"
"2525","-1,84915054077747","9,18330115013039","-26,0872363343319","-1,37649684920021","-0,098122861145938","1,03213218011348"
"2525","-1,29845545895122","7,42477261778267","-26,1183466896458","0,723067231909387","-0,0995641057871996","-0,836759383703993"
"2533","2,35917482558561","1,72173627872976","-24,3649913479669","0,445836719669583","-0,0999548015751763","-0,353896773216802"
"2537","1,2232178741418","3,35755305431613","-24,9455835445876","0,350400835084834","-0,100060712254302","-0,220284789132168"
"2545","-0,808899275394754","3,74884528371825","-21,5628688597058","0,31754727941779","-0,100089422755665","-0,18331327404008"
"2545","-0,288946891014066","3,84244354672396","-22,7537134639224","-3,00526766073473","-1,82901499186465","-0,173082957219556"
"2557","-0,166118390494571","9,14722362223148","-30,0817551529685","-2,1491380830877","-1,29769596262944","-0,170252145931796"
"2558","-0,137102578675884","7,41614276599635","-27,8346444816836","-1,85441769714679","0,575252962250981","-0,169468837585877"
"2566","1,63352154875358","1,71967199256074","-29,0579259685561","-1,7529609689166","0,0829761031368046","-0,169252089840296"
"2566","1,05179659294795","3,35705927093571","-28,3505385320952","4,90497562425522","-0,0504713976330389","-0,169192113988566"
"2574","-4,37693360149879","3,74872716926763","-22,898938263979","3,1969530229367","-0,0866466415674425","-0,169175518186006"
"2578","-2,65936408848083","3,84241529339669","-24,5948992942382","-0,702534515080694","-5,28320646538599","1,55412099766615"
"2586","1,27391727677666","5,62562280188062","-25,0005782079242","-0,0449229831147748","-3,69190140655674","1,03097106153179"
"2587","0,203077458994666","5,05217133218968","-25,0976178085242","-3,13004710820961","3,65514423642839","-0,837080674593134"
"2594","-1,81365705142709","4,91500003808258","-28,6424240311659","-2,19209308415","1,64679763419846","-0,353985677000682"
"2598","-1,29007082180737","4,88218825727547","-27,4903522040255","8,06531072173174","-4,08438276741443","3,22627445779193"
"2607","2,36115553081693","4,87433958188939","-28,9755702335487","5,59639536984048","-2,63800383835524","2,21696135248877"
"2607","1,22368577670527","4,87246215543461","-28,3308387957702","-0,220780117907442","-3,97483402247886","0,214384341035569"
"2615","-4,33632817044268","3,11121603841706","-26,4158200906333","0,776672312661525","-3,33722490826211","0,660255108472767"
"2615","-2,64977185588532","3,68992073814935","-26,9577419307421","2,77579531849437","5,48020851297068","-2,66295269649237"
"2627","1,27618325262701","5,58914565151454","-23,5657771817717","2,46398822667739","2,8704578848086","-1,58251113548381"
"2627","0,203612751118086","5,04344588952275","-24,7544091431953","4,01240203870466","2,16300090706758","2,16303961778025"
"2636","-0,0497608853134519","4,91291288629112","-25,0387334373738","3,54543947625137","1,97122190337521","1,19946376155144"
"2636","-0,10961541193732","4,88168900437027","-25,10674465269","3,38468882562622","1,91923402649444","0,932834539966269"
"2648","-1,8875245777881","3,11342312807666","-25,1230131373166","3,32935083120404","1,90514103773899","0,859056080965288"
"2648","-1,30752056869297","3,6904486805487","-25,1269046071398","-1,65695691308086","-6,74326825186546","-0,884650938159795"
"2656","-1,17050605568655","7,35006896793946","-30,4102265513818","-0,373480417448892","-4,0876981879164","-0,367148753123221"
"2656","-1,13813907807949","6,22546100596587","-28,6740128464395","3,37985822513899","1,81893298252085","1,49934020465978"
"2664","5,92458583790946","4,19565441150518","-24,7371113113894","2,67193531509382","0,420115636287008","1,01581277367859"
"2668","3,59301536544375","4,71011864768656","-25,7953927756848","-2,53902309331159","-1,68799665283082","-0,841275095265607"
"2676","-2,24908133603059","3,07238298937163","-24,2877398129087","-1,33288200596379","-1,25946839909813","-0,355146307076325"
"2677","-0,629161511231022","3,68063175752374","-24,9271047480446","4,04958671738831","-2,87221979760431","-0,220630545242759"
"2685","-3,77402681536744","3,8261266687347","-26,8408397698164","2,90248761099023","-2,30940801701603","-0,183408947548324"
"2688","-2,5169392459027","3,86092948346558","-26,2986108688355","2,50760171967543","-2,15683975358297","-0,173109430851979"
"2697","1,30756233808633","10,9124425442197","-22,6473140437914","2,37166327609218","-2,11548121097633","-0,170259471399698"
"2697","0,211025441453628","8,59918540404372","-23,7739130026704","-2,64239096370459","1,35356592671835","1,55382105905755"
"2705","1,71575993054745","1,00265930399321","-29,3257899115732","-1,36846612716638","0,293962904571743","1,03088806609638"
"2705","1,07122378940734","3,18554770704518","-27,6538153515079","4,03733697598466","-1,72219441462077","-0,837103640100411"
"2717","-2,60857459541893","1,94690406293773","-21,9714829796006","2,89827066929306","-1,26873880407106","-0,353992031742023"
"2718","-1,47785442064874","2,65061682577828","-23,6122522055976","0,850397454011599","-4,60365062570989","-1,943603071595"
"2726","-1,2107440702662","9,8621351320901","-25,7655261068771","1,14542241270466","-3,50768590513847","-1,38346128456224"
"2726","-1,14764451577565","7,5871517217014","-25,2805956170568","-0,408768605110533","3,70508178236863","-2,95175745185407"
"2734","-1,1327384899657","7,04296893559154","-25,1645988041504","0,0562051692387979","1,66033481470355","-2,38571766743748"
"2734","-1,12921723522403","6,91279879749472","-25,1368520221128","0,216271184718917","1,10604028005362","-2,2290898875594"
"2746","0,635384305693193","3,36006765192035","-23,3694178784346","0,271373495268657","0,955780890504984","-2,18574971588787"
"2746","0,052236632552727","4,51024381396648","-23,9466423838177","1,9460949171417","-4,27170511606584","1,27282670696275"
"2754","-0,0855205091105246","6,5461663977956","-29,367107292371","1,52261342168218","-2,68878359532137","0,229842735806141"
"2758","-0,118062918097653","6,03316512442931","-27,6636985916646","-5,2461793621392","6,38490720580299","3,3878244948126"
"2767","-0,125750420682994","5,91045369675754","-25,4954411420602","-3,5763187168437","3,84462339548381","2,26166355246548"
"2767","-0,127566441618107","5,88110075893259","-25,9767875226355","-4,65722611645424","-0,301837935896345","-1,49653812286025"
"2775","-0,127995440763169","-1,16910867508515","-24,3311299749339","-4,02932568443687","0,5741301469683","-0,536462878939051"
"2779","-0,128096783353942","1,1444602964766","-24,9374838036249","-3,81317258975554","0,811589514087008","-0,270802305051537"
"2787","-0,128120723543155","1,69787286337821","-25,0825254396907","-3,73876244770451","0,875960525012449","-0,197291878691626"
"2787","-0,128126378940902","1,83025079244332","-25,1172198296611","2,90986342834548","-2,56442521124695","3,26963289729651"
"2795","1,63564199898505","7,1443070792077","-25,1255188307485","1,19863563681373","-1,49705259294874","2,2289589828772"
"2795","1,05229750751279","5,41544512024595","-25,127503976448","2,26530250365641","-2,93662464683658","0,217704182260997"
"2807","4,44203329920306","5,0018962067326","-30,4103699222998","1,63249980517969","-2,32686702612519","0,661173735352011"
"2808","3,24279155507008","4,90297407880819","-28,6740471411888","8,03766949568875","-0,432654794220268","0,78388534230338"
"2816","-0,568045093051256","3,11851458107684","-22,9763224837597","6,24263254391338","-0,919167548993591","0,817840635007538"
"2816","0,531719875290973","3,69166657122268","-24,6134098293607","-0,998314647346799","2,40678306880728","2,55052826239284"
"2828","0,79151766840282","3,82876622893345","-25,0050059828826","0,509008068157138","1,30838912526118","2,02997692266551"
"2828","0,852889775397215","3,86156087410188","-25,0986769454401","1,02790000233346","1,01063406342317","1,88593616281312"
"2832","0,867387725790927","3,8694054505923","-25,1210833177896","1,20652720444739","0,929917962090778","1,84607892123975"
"2836","0,870812580760266","3,87128189657908","-25,1264429885794","-3,69923862793514","0,908037262652508","-1,61153374672337"
"2844","2,63539134913169","3,87173074803022","-28,649319099816","-2,38803578809073","0,902105794209348","-0,568283096805784"
"2848","2,05223829642622","3,87183811462996","-27,4920015249178","3,03060017098347","0,900497878612708","1,44368470733338"
"2857","-3,37682925775975","3,87186379703938","-27,2151677249674","1,89595154164954","0,900062001293172","1,00041244807563"
"2857","-1,6593394393295","3,87186994034797","-27,1489482581096","6,47260947803758","-4,28680951590371","0,877755433921341"
"2865","0,51015338575055","10,9150595339878","-30,654702427105","5,04811209884287","-2,6928781294675","0,843815247485045"
"2869","0,0226532965063829","8,599811395766","-29,4932892327882","-5,37678299474383","2,92596167801675","2,55771564744518"
"2877","-0,0925089890484805","1,00280904307173","-22,172287624371","-2,96552608410139","1,44912921200187","2,03196573015726"
"2877","-0,119713808712785","3,18558352507733","-24,421082303844","4,48755322926225","2,77770398390958","-3,2833892890703"
"2885","-0,126140411045323","3,70770966175291","-24,9590006677655","3,05325644643152","2,13785697427354","-1,75419095150727"
"2885","-0,127658569152976","3,83260378381965","-25,087672337476","2,55950350011764","-4,95126531440104","-1,3310494211772"
"2898","-1,89178691797927","10,9056669527664","-26,8792480139279","2,38953032935413","-2,8730002782946","-1,21396274229982"
"2898","-1,30852746253578","8,5975646624516","-26,3077982348597","3,98677010072657","2,87713376715878","0,541728011036994"
"2906","0,593025799395073","2,763068648828","-31,4534968441991","3,53661574810255","1,4358928338314","0,0275418220415217"
"2906","0,0422302704912458","4,36743987995797","-29,6843632289494","1,72589868567838","1,04519805100975","-0,114737649196238"
"2918","1,67588539901907","1,22961617969432","-22,2179930915446","2,10256403470868","0,93928764436341","-0,154107527985173"
"2918","1,06180421741637","2,47903943450423","-24,4320151872899","2,23223010388232","-4,2761761417426","-1,88829341507018"
"2926","2,68050935810126","6,29949924861908","-26,7224128769806","2,27686731178644","-2,68999561085978","-1,36815665590221"
"2927","2,06289653659326","5,21336457896474","-26,2702828044639","-4,33077682290093","4,65566086374496","-4,67081446115801"
"2934","1,91699768307075","4,95355794128819","-26,1621319487598","-2,60544117322915","2,64693768267515","-3,58468654926108"
"2935","1,88253195516178","4,89141142219929","-26,1362619429794","-2,01149885208379","-1,35542701656061","-3,28414618410042"
"2947","-3,41691903530926","1,35495172825133","-27,8908707918251","-1,80703574896837","-0,44039689965353","-3,20098423779416"
"2947","-1,66880985894962","2,50902006983585","-27,3105784378403","1,57485533266513","-0,192348509871174","3,71519503903121"
"2955","0,507916185814222","4,5458736745663","-27,1717707838998","0,739062563454307","-0,125107003240122","1,62895770234718"
"2959","0,0221248021253663","4,03309510416377","-27,1385675809622","-1,20440952336988","1,62203875943921","1,05167898212373"
"2967","-1,85640354932949","9,19282804080878","-28,8914223072759","-0,873444747066318","1,09565890061286","0,891941297938432"
"2967","-1,30016883923654","7,42705147831794","-28,3107103619736","-4,07101617033737","0,952966683183913","0,847740590628441"
"2975","0,595000359368437","3,48307841997119","-22,8894112474375","-3,17177183693883","0,914285360991631","0,835509897935807"
"2979","0,0426967213586709","4,53966835489884","-24,5926204035961","0,449295880661772","-2,5540360298663","-0,891166357171043"
"2984","-0,0877741250612443","4,79240780431149","-25,0000330905167","-0,304160952143255","-1,49423627066053","-0,368951622184375"
"2984","-0,118595290438446","4,85286383098544","-25,0974874148219","2,74796867680118","0,521974380449514","-1,94774251108914"
"2996","-3,65341561095773","3,10652806102209","-26,8815958095696","1,79865638304353","0,0685332272340833","-1,38460670090179"
"2996","-2,48844722657839","3,68879936003804","-26,3083598345477","-0,183894505587996","-3,51222217681178","-1,22878247414644"
"3008","-2,21324641184154","10,8712685076476","-24,4104430563697","0,13361749458042","-2,48290127880712","-1,18566465211372"
"3008","-2,1482356446419","8,58933645225142","-24,956455728182","0,242920176877289","-2,20387069106821","-1,17373360252306"
"3016","-0,369108418604717","1,00030340548331","-21,5654695183007","0,280547341680362","-2,12823046162679","-1,17043218474211"
"3017","-0,948824684993527","3,18498416912703","-22,7543355491795","0,293500395542959","4,8079454040332","4,00035711519993"
"3029","-2,84954093836029","3,70756629403013","-26,5603098955378","0,297959450729429","2,68821931298359","2,43115627554863"
"3029","-2,29854768268391","3,83256948983471","-25,4707102589893","3,61099965775892","0,384681485375281","1,99694572981691"
"3033","-2,1683863882575","3,86247062540121","-25,2100747909443","2,7515051535941","0,760233351501441","1,87679616498076"
"3037","-2,13763834843629","3,86962306580412","-25,1477300131705","-2,51163138284586","-2,59579678963882","-3,32632596095688"
"3045","3,16093441151415","5,63213098181939","-28,6544110192987","-1,3234524807017","-1,50555686986952","-1,76607187538946"
"3049","1,41261777050738","5,05372810815359","-27,4932195271758","7,36433799584582","0,518905567354429","-1,33433696876979"
"3057","0,999612430212761","1,39377836144407","-23,6938650126526","5,35508732757549","0,0677013265865376","-1,21487243327004"
"3058","0,902048060515036","2,51830751577045","-24,7850481326302","-0,303849785401517","6,86105902693533","2,26476821585812"
"3066","-2,64853902625597","4,54809525920795","-25,0460623746127","0,748075795144721","4,70261747146269","1,22761288623437"
"3069","-1,48729522957911","4,03362651380586","-25,1084977562369","1,11019844710562","0,659666783847682","-0,782668293551608"
"3078","2,31456515254353","7,43215812453736","-26,8842295159254","1,23485823054305","1,56369476117576","-0,338929331713579"
"3078","1,21267971831634","6,24509697594388","-26,3089898249274","2,93352463199603","0,0798428804018205","1,50714874647349"
"3086","0,952381006941832","5,96114842485796","-26,1713907829745","2,51828613363345","0,67759702761436","1,01797346026289"
"3086","0,890890567882937","5,89322708840506","-26,1384766836127","2,37534135787731","0,839637545147241","0,882614707822267"
"3098","-2,65117476393258","2,35538604099839","-24,369806502289","2,32613298968278","0,883563847364912","0,845159847818581"
"3098","-1,48791787064454","3,50912395873441","-24,9467353437975","-1,00231205225099","-2,56236408579143","-2,61178806176176"
"3107","-2,97689107584002","5,54589852509928","-32,1279265597097","-0,148120622535278","-1,49649385849734","-1,56835346783084"
"3107","-2,32863164209534","5,03310104848504","-29,8456888192574","0,145932561008657","-1,20755539766185","-1,27962668855715"
"3119","-0,411723416694044","4,91043836960144","-27,5389737448229","0,247159606544692","-1,12922932004738","-1,19973365687635"
"3119","-0,958891638184227","4,88109709263134","-27,9872006504631","0,282006754344483","2,34983905887584","3,99224916121172"
"3127","-1,08814934369049","3,11328154103134","-24,5728237949909","0,294002794566245","1,29295261698647","2,42891273919749"
"3127","-1,11868392844258","3,69041481250709","-25,7560947139984","-1,35762019413536","2,73536728678948","0,273033001529431"
"3135","-1,12589712213445","3,82846680453226","-26,0391366309143","-0,92618712298372","2,12638024869336","0,676483666497967"
"3135","-1,12760109694395","3,86148925089613","-26,106841097782","-0,777667407560564","0,232376908029692","-4,381754047079"
"3148","-2,89177334130289","7,39098238017994","-29,64463026934","-0,726539880849423","0,718946289503139","-2,78140927447555"
"3148","-2,30852425531363","6,23524761564426","-28,490879942747","-0,708939362425652","-4,33590676400922","4,55458674367127"
"3156","3,12056598484243","2,4371983665608","-24,6933053771111","-0,702880429621496","-2,7061875201753","2,58451608989381"
"3160","1,4030815255254","3,52869370990682","-25,7849142661471","-0,700794657723112","-2,26439961968877","2,03938162903229"
"3168","-0,766410033569809","2,02898560561052","-27,8068273843881","-0,700076636158473","-2,14463877759603","1,88853852102042"
"3168","-0,27890964526168","2,67025097448279","-27,2904750052595","0,955923135327417","4,80349740141557","-1,59978483254588"
"3176","-0,163747289058851","9,86683167875331","-21,8845708900334","0,525996760294036","2,68701353858702","-0,565032077364641"
"3180","-0,136542452705357","7,58827514960712","-23,5914625757342","3,68950090995081","-3,07348095102292","4,89116813798821"
"3184","-0,130115846430327","7,04323766288201","-23,9997561346546","2,77852900599554","-1,63504854983342","3,40094280370679"
"3185","-0,128597687391339","6,91286307786044","-24,0974211661574","2,46492929150732","0,483802676081486","-0,457998429175127"
"3197","-1,89200876614939","1,59928599693913","-29,4031740247635","2,35697340340573","0,0581855571095829","0,474201365563309"
"3197","-1,30857986979248","3,32826258336128","-27,6723258611337","-4,30320050869024","1,67172611247138","2,45544050118989"
"3209","0,593013419213829","3,74183891610348","-29,0190988726023","-2,59594809860681","1,10912825827055","2,00366537117952"
"3209","0,0422273459174886","3,84076760278885","-28,3412509754668","-2,00823088577412","0,956617986476186","1,8786555440159"
"3217","-0,0878850057560021","7,38602570043084","-26,4183107149302","-1,80591076004476","0,915275164371345","1,8440643152178"
"3217","-0,118621483816691","6,23406196313207","-26,9583376954685","1,57524260718339","0,904067860630538","1,83449264283883"
"3229","1,63788734307957","5,95850881703082","-25,3267167214986","0,739195881702461","0,901029759921781","1,83184408378749"
"3229","1,05282792579062","5,8925956863759","-25,9364281403004","0,451388965516275","2,62912397105863","-3,33876456487137"
"3234","0,914619172260232","5,8768290698295","-26,0822729218893","0,352312181312672","2,09757957546388","-1,769513737551"
"3237","0,881970078872523","5,87305764834108","-26,1171594266533","-1,33754733902724","1,95348734397451","3,83458641115114"
"3246","-0,889512339701467","7,63295254415938","-31,4078954752763","-0,919277094690269","1,91442650287138","2,38528618291769"
"3250","-0,307990138258463","7,0539246283045","-29,6734552461142","0,880463946177021","-3,28291555501579","5,43083695204257"
"3258","-1,93438669614152","1,63302833861208","-23,9761809007006","0,500020130202227","-1,69182254592957","4,27356544676426"
"3258","-1,31859082031875","3,33633385166926","-25,6133759622726","0,369053333585896","-1,26050553066909","3,95333907473509"
"3266","2,35441824340907","7,26536364951716","-26,0049978817746","0,32396835363427","-1,14358315932385","3,86472985133743"
"3266","1,22209422537339","6,20519924231218","-26,098675007631","0,308447966255527","-1,11188758405715","-1,32966480739364"
"3279","-2,57293442916697","2,43001070644721","-29,6426769163311","0,303105113166878","-1,10329547734628","0,233004238835824"
"3279","-1,46943513397847","3,52697440026775","-28,4904126949078","6,92427622755321","-1,10096631003791","0,665407384574731"
"3286","-1,20875517976735","3,78937137267583","-28,2147876721118","5,20359720554806","-1,10033491420766","0,785056827235699"
"3287","-1,14717467960408","3,85213750752313","-28,1488573483381","-5,32325765015503","2,35767181837723","0,818164794349622"
"3299","0,631142213469707","10,9103394774712","-22,85069552604","-2,94710012309419","1,29507593877224","0,827326036241258"
"3299","0,0512345218931197","8,59868234423355","-24,5833594880922","-2,12911405916627","1,00702509535706","-0,893430897797578"
"3307","-3,6132966658027","11,5673211568063","-32,041005976175","-1,84752447886267","0,928939635037892","-0,369578238864938"
"3307","-2,47896991668648","10,2774283745569","-29,8248971576117","-1,75058799640623","0,907772055589194","-0,224623977325863"
"3319","-2,21100758421434","-0,595899994816323","-27,5340003176275","-1,71721786381505","0,902033901291511","-0,184513962458036"
"3320","-2,14770676575101","2,8031675767042","-27,986010991912","-1,70573028224684","-0,828439396481334","-0,173415197401973"
"3328","1,39478623250917","3,6162346315227","-24,5725392251334","-1,70177571209566","-0,297539928958679","-0,170344079473556"
"3328","0,231630366987703","3,81072268500247","-25,7560266440436","-5,01191955043118","3,3042130464066","5,00038149463931"
"3336","-0,0431422759007936","3,85724480482295","-26,039120348379","-4,15142797885787","2,28058421651956","3,4311630215364"
"3336","-0,108051895942198","3,86837303400653","-26,1068372029512","-3,85520598782471","-1,45473892519837","-2,17292817449247"
"3348","5,16792362765145","5,6318319705021","-29,6446293376849","-3,75323233593731","-0,467318591703489","-0,723625468982014"
"3348","3,41426883503509","5,05365658375874","-28,4908797198923","-0,406622981987851","-3,65748207415668","-0,32259170530522"
"3356","1,23623274775633","1,39376125259647","-26,4541023548392","-1,25456139441811","-2,52227865335534","-0,211622424010648"
"3360","1,72171465972709","2,51830342328331","-26,9668991619988","-1,54646199298451","-2,21454519693426","-0,180916327650745"
"3369","-3,45490895101928","6,30889131130843","-27,0895616807469","-1,64694801672675","-2,13112413030815","-0,172419702795072"
"3369","-1,67778422760663","5,21561118824473","-27,1189029194121","-1,68154006969655","-3,83742794909253","-1,89336054173543"
"3377","2,26956588204101","8,47568939896916","-23,6043273687429","-1,69344829418492","-3,29997656569936","-1,36955877077432"
"3377","1,20204952777134","7,25550978603077","-24,7636304623729","3,26971011370531","2,03247030372743","2,22196525697116"
"3385","0,949869833988111","6,96363919994601","-25,0409392042989","1,97826451907869","0,47800180604803","1,21576896181908"
"3385","0,890297352777638","6,89382288920114","-25,1072722786874","1,53368772368736","0,0566130444189634","4,38393016788579"
"3397","0,876224528497731","1,59473152728218","-26,8839363780572","1,3806433152951","-0,057617953952739","3,26058596075292"
"3398","0,872900101191884","3,32717314069728","-26,308919705479","-3,63929960850702","-0,0885839458756138","-3,94342014850923"
"3410","-4,41919437092822","7,26317238025483","-33,2145621343364","-2,3674019361599","-0,0969782755184954","-1,93682682094794"
"3410","-2,66934736213386","6,20467508419883","-30,866412305926","-0,273801867872557","-0,0992538289814319","-3,10487816494045"
"3418","-0,492210788716768","4,19068235730584","-25,0223368022902","-0,553085476053237","-0,0998706910517788","-2,42808740540349"
"3418","-0,977905193104417","4,70892931756022","-26,6244165909681","2,6622770552612","-3,55787348379285","1,20576991107209"
"3426","-1,09264092120902","-0,449495563996768","-23,4860447708667","1,76915726464889","-2,49527653616629","0,211287578809685"
"3430","-1,11974497508482","1,31659388915469","-24,7353369137841","1,46170309386302","-2,20722540322944","-0,0638937143052006"
"3434","-1,1261477734863","1,73904772980533","-25,0341713034739","1,3558627932368","-2,12913986442611","-0,140038600567896"
"3434","-1,12766030838452","1,8400999427394","-25,1056533767164","2,97518013876608","1,34986330870369","-3,60769235288793"
"3446","2,3995218128681","10,6682570872714","-28,6443461629348","2,53262593376694","0,292959190683485","-2,56722015210711"
"3450","1,23274905449073","7,77997848672819","-27,4908119836513","4,03603039129485","-3,45138428980633","-0,55602116728379"
"3459","-2,57041743583625","3,56749960821067","-28,9756802142003","3,55357347532855","-2,46640920971493","-0,999506165055481"
"3459","-1,46884054392385","4,55986215376923","-28,3308651034686","3,38748893370549","-2,1993999844686","-1,12222204567473"
"3467","-2,97238443349081","4,79723822095596","-24,6550293524773","3,33031476114566","-2,12701853258453","-1,15617852093731"
"3467","-2,32756703668385","4,85401928098813","-25,7757585274146","1,65488010615093","1,35043836403551","-4,61215839920563"
"3479","3,11606750315125","10,1499925722354","-27,8046373045002","2,07811607295874","0,293115077955889","-3,56845594319253"
"3479","1,40201884790848","8,41680510705821","-27,289951131648","-1,08769123237192","1,73541132706873","0,166928803001764"
"3483","0,997108643694895","8,00222151961585","-27,1668366710168","-0,17751218378202","1,12639218722975","-0,799460069487387"
"3487","0,901456590309592","7,9030518946157","-27,1373873265114","-1,51993800212145","-0,767619855645432","0,656424248268892"
"3500","-2,64867874943182","-2,68545196032871","-23,6087488938005","-0,982064607261533","-0,281052833186749","0,0592791972094473"
"3500","-1,48732823642492","0,781746480677035","-24,764688104294","-0,796903086553253","-1,87807095378062","-0,105955661165426"
"3508","2,31455735532691","5,13270470382563","-28,5627862574576","-0,733161713437127","-1,31099416138558","-0,151677480970722"
"3508","1,21267787637763","4,17346682864307","-27,4713026121127","-0,71121891111412","-1,15726972911007","-0,16432907777583"
"3516","-0,811389142082055","9,22640537406289","-23,688622421499","-0,703665158343383","-1,11559776969409","-0,167829876790406"
"3520","-0,289535072933953","7,43508327612223","-24,7837940892612","2,61044039030053","0,62461654352038","-3,6153824234705"
"3528","1,59751237702439","3,4849996498521","-25,0457624037156","1,75131262722252","0,0963576920282753","-2,56934805674494"
"3528","1,04329013600822","4,54012791879042","-25,1084260023078","3,11131271815068","-1,77576167309493","-4,00319382300188"
"3537","0,912366057451193","4,79251773335878","-25,123415321137","2,57948922103431","-1,28325993508529","-3,39995052675172"
"3537","0,881437824916573","4,85289012633992","-25,1270008107037","0,740657767503119","0,579166312556088","0,213555612638046"
"3549","-0,889638074205758","4,8673313819845","-25,1278584704532","1,10764481033551","0,084036942800877","-0,786558054687039"
"3549","-0,308019840556384","4,87078577321026","-25,1280636252117","1,23397914771016","-0,0501838228684182","4,10657818728433"
"3557","-0,170623998821682","3,11081504281188","-30,4105037919457","1,27746941558641","-0,0865686851636169","2,46054850407192"
"3561","-0,138166939820043","3,68982481881005","-28,6740791632055","1,29244082747056","-0,0964319741833087","-3,16479697414773"
"3569","-0,130499599486191","0,30673161421716","-24,7371271745568","1,29759469716948","-0,0991057364060891","-1,72137550017628"
"3569","-0,128688341485516","1,49748567539508","-25,7953965702015","1,299368903442","-0,0998305457886079","-1,32196912076516"
"3577","1,63550924641236","7,06470867524195","-26,0485377516039","1,29997966934827","-0,100027028720602","-1,21145014984021"
"3577","1,05226614733456","5,39640494569252","-26,1090898737625","4,61169511277715","-5,28683365035694","0,54242326566312"
"3585","0,914486463174832","4,99734174044982","-26,12357412116","3,75174456217982","-3,69288467188851","0,0277342046116839"
"3585","0,881938728967312","4,9018846369513","-26,1270387961407","1,79995622178888","5,38379547688822","-3,56126826270445"
"3597","-2,65328945940072","4,8790510143857","-27,8886645877181","2,12805814937799","2,84432202554845","-2,55437423141659"
"3597","-1,48841742575999","4,8735891440758","-27,3100507072678","0,58525379228954","2,15591594047984","-0,552466597280692"
"3605","-2,97700908588786","3,11148561744602","-30,6932386112511","1,05414739505222","1,96930129494793","-0,998522586827706"
"3609","-2,3286595196427","3,68998522225345","-29,5025072024485","1,21556280129393","0,18979559750742","2,32463396568373"
"3618","-0,411730002215033","7,34995810733924","-27,4568836831882","1,27112963611245","0,707403253580372","1,2441782227073"
"3618","-0,958893193883734","6,22543448778116","-27,9675644639976","4,60176356368497","-2,61011808953839","-0,778084531162254"
"3625","2,43938971661053","2,43485103724112","-22,8073297298537","3,74832565217149","-1,50943911955075","-0,337660967640419"
"3629","1,24216706079793","3,52813222176442","-24,5729862608929","3,45453186531373","-1,21106462768639","-0,21579221060329"
"3634","0,959346810292521","3,78964832701537","-24,995336545289","3,35339411641393","-1,13018060989116","-0,182070141277545"
"3634","0,892536101601371","3,85220375582341","-25,0963639872595","6,63008289759972","-2,83717217748913","-0,1727389723442"
"3646","-0,887016325129315","5,62796423115469","-25,1205300513258","5,75807450939926","-2,29990723056688","-0,170156962538646"
"3650","-0,307400504021979","5,05273140902366","-25,1263106455986","-7,78813287127922","6,49032467165407","-5,33931827055094"
"3658","1,59329202112721","3,15433697908857","-28,6492874429821","-4,45137961745713","3,87320019549962","-3,76966695238445"
"3658","1,04229316012719","3,70023539518252","-27,4919939525091","0,00879422206491065","1,4348265125179","0,111252091709749"
"3667","-2,61540888625077","5,59161294810073","-30,7367599756959","-0,455802505266658","1,77382677647019","-0,814866265165962"
"3667","-1,47946888712723","5,04403607419148","-29,5129176420371","2,6957664655611","0,136805932297517","0,652161229498949"
"3679","2,31641397166004","4,91305406021612","-25,6985768602105","1,78068590725886","0,693038697826895","0,0580995854862132"
"3679","1,21311646538518","4,88172277359227","-26,7861752205553","-3,50158598410405","0,843823507293183","-3,55286591657531"
"3683","0,952484179826856","4,87422823681037","-27,0463319773907","-2,31999437824686","0,884698587250306","-2,55204923438245"
"3687","0,890914940443083","4,87243552136112","-27,1085622460219","1,39827065536876","2,62469688061694","1,17146867183568"
"3699","-0,887399292493548","3,11120966746761","-25,3626508800024","0,678273746430753","2,09637946998626","0,201796148884484"
"3700","-0,307490972511998","3,68991921419933","-25,9450236977017","0,430416678506907","0,22424423052213","-0,0665200696215229"
"3708","-1,93426877807443","7,34994231801672","-29,6059230668107","0,345092525920725","0,71674166528029","-0,140765334295262"
"3708","-1,31856296450003","6,22543071092833","-28,4816210649816","1,97147250218517","0,850248960184014","-1,88460152232008"
"3716","0,590655109894924","7,71724122691335","-24,6910906260604","1,53134958949315","0,886440413244602","-1,36713507936127"
"3720","0,0416702418323764","7,07408673146936","-25,7843844911203","1,37983841866486","0,896251272460807","-1,22394793535941"
"3728","-0,0880166106134144","5,15944523562077","-26,0459036295932","1,32768109119161","0,898910821896389","-1,18432689618597"
"3728","-0,11865257286981","5,70145730531125","-26,108459783957","6,27698384980257","0,89963177844509","0,549928489005877"
"3736","-0,12588971499852","5,83110820159578","-26,1234234018078","4,98076848385901","0,899827216942363","0,0298109605253635"
"3736","-0,127599347154116","5,86212108091594","-26,1270027436241","4,53454970706664","2,62879798304558","-1,83740168391098"
"3749","-0,128003214047354","5,86953945372546","-27,8886559638491","4,38094005083707","2,09749120591163","-1,35407450287151"
"3749","-0,128098619639089","5,87131395052638","-27,3100486444127","-0,639197458066559","-3,2332899700475","-2,94362589202259"
"3757","1,63564855657286","4,11094138439404","-32,4540351488456","0,632633228864205","-1,67836993249538","-2,38346759915886"
"3757","1,05229905661363","4,6898550400916","-30,684491993019","-0,585294951254472","0,472059019764724","1,21811657182472"
"3769","-2,61304519046111","3,06753587427298","-24,9788209233279","-0,00456356743686692","0,0550020607571606","0,214703999555774"
"3769","-1,47891051059459","3,67947231320123","-26,6140074635232","0,195351704778256","1,67086312323255","-3,5095322104117"
"3777","-1,21099355069626","7,3474433882815","-28,7659459697842","0,264172018573109","1,1088943172372","-2,54005844790921"
"3778","-1,14770345060901","6,22483295951643","-28,2806960495108","0,287863233047836","0,956554569222969","-2,27179722802462"
"3786","-1,13275241215825","5,95630121196537","-28,1646228278916","0,296018872165679","0,91525797308195","-2,19756718191361"
"3786","-1,12922052406756","5,89206762068995","-28,136857768663","-3,01267875907743","-0,824854585824968","1,26955671867154"
"3798","0,635383528768745","2,35510869287852","-24,608622221991","-2,15168933446464","-0,296568150549907","0,228937903636427"
"3798","0,0522364490196425","3,5090576162407","-25,7646578040211","-5,1668011476645","-0,15335909415647","-1,78230165053517"
"3806","-1,84929026636878","3,78508562474227","-29,5627790095423","-4,20474556687674","-0,114537666113517","-1,3388278786298"
"3810","-1,29848846636763","3,85111234389319","-28,4713008783899","-3,87356042917171","3,35382170494858","-4,66269895161754"
"3818","-2,93214211347235","10,9100942552873","-26,4494190378229","-3,7595508047518","2,29403224150063","-3,58244092222761"
"3818","-2,31806058191264","8,59862368635909","-26,965778898664","-3,72030328733467","2,00674216759013","-3,28352480096381"
"3826","3,11831321568163","1,00252493945533","-25,3284966793957","-3,70679243128857","1,92886293835249","-3,20081229606176"
"3830","1,40254935322203","3,18551556664879","-25,936853911514","4,57662161797797","-3,27900209412623","1,99195069303766"
"3835","0,997233965116891","3,70769340589504","-26,0823747676277","2,42816541374052","-1,69076167628801","0,428830150643202"
"3835","0,901486195024964","3,83259989537018","-26,1171837884563","5,00007012829075","2,19761762462733","-1,72698985139056"
"3847","-0,884902041999257","7,38407196056666","-22,6039161475142","3,88544165366048","1,25168809360298","-1,32352265708956"
"3847","-0,306901046313274","6,23359462275597","-23,7635320970341","0,190228504238887","0,995263422236678","-1,21188002588806"
"3859","3,35717972206681","2,43680296575424","-32,8449008301955","0,918160964504307","0,92575125465046","-1,18098760817071"
"3859","2,22274657026676","3,52859912885997","-30,0171911934287","4,48025501423465","-4,27984561623281","0,550852496968928"
"3868","1,95475910225818","3,78976001257885","-29,3407946529447","3,70649664926805","-2,69099034012805","0,0300666409913428"
"3868","1,89145234601989","3,85223047134179","-29,1789985922636","3,44013233958644","-2,26027993447808","-0,114039011401525"
"3880","-3,41481176882474","5,627970621586","-22,0971083700397","3,3484371170408","-2,14352200420897","-0,153914209264939"
"3880","-1,6683120587851","5,0527329376338","-24,4030992030035","-3,30613910312461","3,07488235261493","-1,88823992221898"
"3884","-1,25573593261267","4,9151343757722","-24,9546990566532","-1,59695970211687","1,48949895815213","-1,36814185399825"
"3888","-1,15827295628983","4,88222039124967","-25,0866433793266","2,3029260611923","-0,669188068339011","0,499065405627041"
"3896","5,91982960609957","3,11355023739588","-25,1182048530481","1,64545161724992","-0,254369726375701","0,0157367345668626"
"3900","3,59189179944255","3,69047908547524","-25,1257544512671","1,41911774569096","-0,141919851912569","-5,28787998322106"
"3908","3,04196238535803","3,82848217881706","-25,1275603375756","1,34120289761307","-0,111436691001877","-3,75543356284716"
"3909","2,91205240253523","3,8614929284707","-25,1279923109422","-0,34137168111862","1,62574453794405","0,115190585548419"
"3917","-7,70125455328703","3,8693891977956","-26,8888926712896","0,0794063854667417","1,09666347125379","-0,813776452112185"
"3920","-4,20843909190493","3,87127800886186","-26,3101052655352","1,88001073763668","-2,50459656798826","-1,07082913408693"
"3929","0,14420913162862","3,87172981807672","-22,6500635376085","1,49986411433803","-1,48083411188569","-1,14195768723431"
"3929","-0,827563533242872","3,87183789218232","-23,7745706897546","1,36899962552942","-1,20331031888286","-1,1616395323486"
"3933","-1,05712566788751","3,87186374382925","-24,0435561391697","1,32394986477517","-1,12807855469423","-1,16708565784901"
"3937","-1,11135519663184","3,87186992761994","-24,107898257278","-8,62607396503694","-4,56552013391554","4,00128312621894"
"3949","2,40337357408229","3,87187140680104","-22,3624920519235","-6,05134385385804","-3,49734940700968","2,43141251027637"
"3949","1,23365895714434","3,87187176062555","-22,9449857055537","-0,197741909753819","3,70788382316429","-3,17285913894316"
"3958","-0,806432775369893","3,87187184526142","-30,1275080410472","-1,18265462722784","1,66109439812559","-1,72360636628797"
"3958","-0,288364229007533","3,87187186550657","-27,8455887083507","6,75705469718959","-2,35158938279621","-1,3225864194355"
"3970","-0,16598074808207","3,87187187034927","-30,8213408911034","4,49027903313901","-1,43935658539693","-1,2116209613678"
"3970","-0,1370700633694","3,87187187150766","-29,5331496481203","-2,91306298593115","2,26576907322599","3,98895984805302"
"3978","-0,130240484048442","9,15426296489139","-22,1818223540626","-1,46164426857958","1,2701627391626","2,42800255968087"
"3978","-0,128627130571525","7,41782659766016","-24,4233630394945","-0,961997140728471","1,0002715700541","1,99607307116582"
"3986","-0,128246007618095","7,0024658632006","-24,9595462265045","-0,789994913262785","0,927108874447831","1,87655469328411"
"3986","-0,128155974833768","6,90311034232662","-25,0878028367461","-0,730783592704622","0,907275768955507","0,120191069193574"
"3999","-0,128134706363369","8,6401412377861","-25,1184821987052","-0,710400249221812","0,901899366812173","0,634191069417156"
"3999","-0,128129682106521","8,05564418516299","-25,1258207931717","-0,703383336110912","0,900441919816893","4,22300286803713"
"4007","1,63564121867729","0,872642630682387","-26,8883732377917","-0,700967781977341","0,900046831858921","3,21605607718114"
"4007","1,05229732318046","3,15444733277434","-26,3099810155004","-4,01164142258406","-0,82897805566209","1,21413384404664"
"4019","-4,3768153138527","3,70026179211179","-29,6932219407734","-3,15133223406809","-0,297685949881881","1,66018579393283"
"4019","-2,65933614535635","3,83082223128903","-28,5025032148208","-1,19942043350411","-0,153662109673962","-1,66297187638538"
"4027","1,27392387778895","7,38364673804063","-24,6960856983002","-1,52747986024896","-0,114619808230814","-0,582516442715109"
"4027","0,203079018353688","6,23349290826528","-25,7855793272302","8,29410209977043","-0,104036134723864","-0,283545698092632"
"4035","-0,0498869691570855","5,95837269741718","-26,0461894379381","5,6751562081482","-0,101167089079493","-0,200818078466077"
"4036","-0,109645196759774","5,89256312616019","-26,1085281501616","-1,84941949808422","-1,82930712803745","1,54536524568057"
"4047","-3,65130132776741","5,87682128132924","-24,3626427241714","-0,439735163006535","-1,29777515554989","1,02854827424294"
"4047","-2,48794776885545","5,87305578530869","-24,9450217468027","0,045545012023515","0,575231494458788","-0,837751079403213"
"4055","-2,21312842480076","4,11135803644541","-23,3235315070432","0,212601453254535","0,0829702836001715","-0,354171183426049"
"4055","-2,1482077725295","4,68995470449932","-23,9356662275458","3,58161538858312","-3,50830854761135","-0,220360720653297"
"4067","-0,36910183436763","10,1107478384374","-31,1252787942385","2,74138969516561","-2,48184036353948","-0,183334284905225"
"4067","-0,948823129597316","8,4074176502175","-28,8450554658955","2,45214418010928","-2,20358309580881","1,55020315256393"
"4075","-2,8495405709286","4,47838194999743","-23,0172281827472","2,35257216197697","-2,12815249966719","1,02988696215015"
"4075","-2,29854759588541","5,53854494533746","-24,6231945940061","2,31829475306706","-2,10770460667707","-2,56067257730715"
"4084","-0,404616653850893","5,79213908140904","-28,5289405897075","2,30649484398","-2,10216154657782","-1,5542094004562"
"4084","-0,95721280556456","5,85279955166934","-27,4632066279003","-2,66482502738459","-0,371741135372187","2,17087093643684"
"4096","0,676016961321743","2,34571565418329","-25,4474828690742","-1,37618899538472","-0,902654939502561","1,20163075067211"
"4096","0,0618352964167736","3,5068107734972","-25,9653157613509","-4,24408457348868","4,1401771297464","-0,789857760302259"
"4104","-1,84702272790194","5,54534520432277","-26,0891829266109","-3,23135018571065","2,50719921088633","-0,340918715228065"
"4104","-1,29795280510688","5,03296869251251","-26,1188123202983","-2,8827190001816","-1,39330763084577","1,50659826798809"
"4116","-1,16824586015729","4,91040670965985","-29,647493821308","-2,76270361906072","-0,450665660433953","1,01782113842013"
"4116","-1,13760515144297","4,88108951947932","-28,4915649128795","-1,06563604105567","-0,195132188276485","4,32915640645729"
"4124","2,39717253974721","6,63487379158199","-28,2150632860715","-1,48142493024217","-0,125861608944733","3,24542961859411"
"4125","1,23219408502926","6,05438419639211","-28,1489232760156","0,0311934178136261","-1,83600137315118","-3,94761403079235"
"4133","0,956990891373442","2,39393529969862","-21,0899142651007","-0,448091640243198","-1,29958984633502","-1,9379873020469"
"4133","0,891979562201094","3,51834505586688","-23,401378351743","4,35417350526528","2,30365735026612","3,78796841520526"
"4145","-0,887147796591067","7,30890126994602","-25,7150844549581","3,00734082248927","1,2804335771796","2,37238660693666"
"4145","-0,307431561563003","6,21561357038041","-25,2685298241583","4,19944976012528","2,73197359776402","-1,46590015945099"
"4153","3,35705439829758","4,19329887567645","-25,1617126306662","3,60983016906911","2,1254602799594","-0,527985107021087"
"4153","2,2227169649969","4,70955519652282","-25,1361616408464","1,75110256014678","-3,22570805153677","-1,99174836075202"
"4161","-1,57278731920754","3,07224821018039","-33,9340349233993","2,11124040310486","-1,67631460924066","-1,39678347490974"
"4165","-0,469400382150666","3,68059951794104","-31,038512333159","2,23521692119252","-2,98521939106275","-2,95544380951777"
"4174","5,08256217137341","7,34771301900189","-26,8243006707988","2,2778955158964","-2,34004019696894","-2,3867377123753"
"4174","3,3941038737968","6,22489745598528","-27,8162487293176","-1,01891767745344","-0,43622580653532","2,94050362874675"
"4182","-4,05983996851267","4,19551960867666","-22,7711345568672","-0,15383706592917","-0,920135586917453","1,4145943324499"
"4182","-1,82068725493854","4,71008640244975","-24,5643282680524","0,143964690201194","0,67760286474112","2,71565483006116"
"4194","-1,29173156879421","10,1155634003574","-28,5148595897674","0,246482172124716","0,110721341285767","2,07566877755771"
"4194","-1,16677621572327","8,40856954692601","-27,4598384109086","1,93752614372807","-1,771867943256","-4,99458822655347"
"4202","-1,13725797691786","2,7178604560745","-23,6858801505342","1,51966364366558","-1,28220441418063","-2,9509854413936"
"4203","-1,13028487491976","4,35662594602981","-24,7831381299047","-0,279937032293086","-4,60730091310852","-0,662212122248486"
"4219","0,635132096862422","4,74862351666361","-30,3279965893967","0,100555103937336","-3,50867543312749","-1,02889005992852"
"4219","0,0521770531884777","4,84239049938607","-28,6543431953948","3,54304372352654","-1,48193981967741","0,592939116959122"
"4223","-0,0855345835607867","4,86481984004412","-28,2540003345322","2,72811149954118","-1,93252784280157","0,0417123486485003"
"4227","-0,118066242909065","4,87018500492144","-28,1582371336101","0,791820601289738","-2,05467424162061","-3,55740039735721"
"4231","1,63801850779803","10,1538594613957","-26,3745332605964","1,12525748312842","-2,08778595781984","-2,55330396183681"
"4231","1,05285891086959","8,41773007842601","-26,9478659984182","4,55154745347459","-0,367844168947033","2,89441340227501"
"4243","0,914626491874301","0,959254651371046","-23,5634148294386","3,73103888651351","-0,901598541216937","1,40184079454481"
"4243","0,881971807987049","3,17516518527108","-24,7538440615034","-1,51867684219016","-2,77520764427856","-0,734458024198208"
"4251","-0,889511931232248","8,98760865704622","-26,799395299191","-0,325877861802056","-2,28310974772724","-0,325589160820945"
"4252","-0,307990041765663","7,37796239243288","-26,2886972284147","6,70775047026938","-2,14971076052513","-1,93574376781988"
"4260","-0,170616959444825","6,99293022695483","-31,4489278267473","5,12905877536297","-2,11354866775606","-1,38128655173325"
"4264","-0,138165276906034","6,90082938982567","-29,6832703064096","4,58559825518882","-3,8326635537954","2,21872008526227"
"4272","-0,130499206655539","3,35720453406917","-20,4569346301927","4,39851338108649","-3,2986850228748","1,21487099659812"
"4272","-0,128688248687019","4,50955894767598","-23,249967743779","-3,94465307357112","-3,15393294059263","4,38368169365688"
"4280","-1,89203015947018","4,78520554471002","-27,4396636190359","-1,8167664798664","-3,11469322567581","3,26051720592702"
"4284","-1,30858492354277","4,85114102910551","-26,4418513114555","-2,73999963505109","3,81161510792349","-2,22014724986528"
"4292","2,35678193926713","4,86691299273302","-27,9639686760486","-2,05782025346414","1,68921410443815","-0,736691368495"
"4293","1,22265260192219","4,87068569325912","-27,3280636687716","-0,167229176791032","-2,34396663055767","-2,04949906888468"
"4301","-4,33657223761727","4,87158813442598","-28,9367503340871","-0,516398103643289","-1,43729019284488","-1,41276356226442"
"4301","-2,6498295119438","4,87180400103241","-28,3215529605641","2,67490658803069","0,537411449290852","0,486718218569686"
"4313","1,27616963251982","3,11105860593002","-28,1743959223183","1,77350494853841","0,0727179420301343","0,0123201681880062"
"4313","0,203609533636268","3,68988307983104","-28,1391955218658","-0,192552821662871","-5,24000556126348","-1,84224152741232"
"4321","-0,0497616453801024","7,34993367456854","-26,3699784505333","0,130636891734997","-3,68019040982916","-1,35541372665656"
"4321","-0,109615591488082","6,22542864338987","-26,946776474328","-1,41385848234441","1,92940109314435","-1,22070454240038"
"4333","-1,88752462020343","4,19564667028092","-25,323951243077","-0,94554700779366","0,45006157626883","-1,18342942315946"
"4333","-1,30752057871276","4,71011679596273","-25,9357666296513","2,52717319117162","-5,13771441353174","0,550176827040609"
"4342","2,35703336975083","3,07238254643379","-24,3213176555425","1,72264810995291","-3,65246109905018","0,0298796776652366"
"4342","1,22271199741729","3,68063165157169","-24,935136667694","4,75719762687368","0,208000229894671","-0,114090745663838"
"4350","-0,809018778798116","5,5869236744262","-26,8427610288431","3,80183342516217","-0,745497366776163","-0,153928524553145"
"4354","-0,288975121337232","5,04291438600625","-26,2990704396988","-1,49430600593148","2,45386196627336","1,55833996394428"
"4362","-1,92989477325407","8,43437981114305","-29,6906120986486","-0,317488264648318","1,32115137700941","1,03213848357475"
"4362","-1,31752969208992","7,24562840997607","-28,501878932836","0,0876281896229078","-2,44374188952531","-0,836757639485348"
"4370","0,59089920013198","1,67888445234963","-24,695936368196","0,227088477961473","-1,46433749092803","-0,353896290577416"
"4374","0,04172790333891","3,34730277022046","-25,7855436070259","-6,34791305729771","2,25899719405196","-3,66686850290107"
"4382","-0,0880029892192292","3,74639338532984","-26,0461808935592","-4,61134027746157","1,26832700316453","-2,58359467074248"
"4383","-0,118649355083964","3,84185704534985","-26,1085261063208","-0,70202441456078","-2,45806163772964","2,88603171848273"
"4391","-1,88965866876223","9,14708332936149","-29,6450333283852","-1,35625257118444","-1,46821931997228","1,39952151494616"
"4391","-1,30802470561435","7,41610920752533","-28,4909763556672","1,73003627209405","0,52902711303834","-0,735099787594448"
"4403","2,35691427970864","3,48046099631039","-22,9325314083323","0,792483199247385","0,0704450975975826","-0,325766741935784"
"4403","1,22268386474255","4,53904225938814","-24,6029348741044","-1,18601960809396","-3,51170390276115","1,51079094137056"
"4411","-0,809025424587918","3,03146100937093","-26,7632973735211","-0,867114066443838","-2,48276078393012","1,01898128500651"
"4411","-0,288976691274058","3,67084309841167","-26,280062497421","-4,06883684995756","1,25400296699951","0,882893581068364"
"4423","3,36141399758584","7,345379254484","-31,4468623734574","-3,17102161155216","0,266973157038952","0,845237014298051"
"4424","2,22374683438404","6,22433921258373","-29,6827762438504","3,76105933265496","1,72832471727365","-2,61176670917367"
"4432","-1,57254403286757","5,95618310623315","-23,9784105110328","2,14741021293335","1,12447113335819","-1,56834755939727"
"4432","-0,469342910548972","5,89203936944815","-25,6139092916837","-3,37534209331435","-0,76814061918176","2,16695879367326"
"4440","-1,97250310770239","2,35510193509761","-26,0051254557532","-2,27653524637283","-0,281194002919042","1,20054822917363"
"4444","-1,3275950711268","3,50905599975944","-26,0987055237055","-1,8982738400853","1,57972635002127","2,65642654457542"
"4452","0,588521452762415","2,0242882070396","-26,1210901537956","-1,7680583323417","1,08418875899675","2,05927983261601"
"4452","0,0411662073975293","2,66912734279822","-26,1264446237723","1,58827320721488","-2,50797824060339","-3,27583125632198"
"4460","-1,85190539271434","8,1057658716828","-27,8885224599235","0,743681631956385","-1,48175082318453","-1,75209958280456"
"4464","-1,29910623841243","6,40622594897852","-27,3100167098773","-2,85857201544699","2,25427674939428","3,83940504841212"
"4473","-2,93228804993923","2,47809689152295","-23,6500423548322","-2,09863848778826","1,26704737457662","2,38661953876476"
"4473","-2,31809505652597","3,53847675850404","-24,7745656227716","1,47447184636786","-2,45840852228009","-1,46196179226415"
"4481","1,35453535783168","3,79212277091605","-25,0435549271323","0,704505808733907","-1,46831335420414","-0,526895329012894"
"4481","0,222121891346952","3,85279565015099","-25,1078979673551","5,40670478117299","2,25791940823331","-0,268154886716179"
"4493","-0,0453884658217623","3,86730878299961","-21,6016949515375","4,02542457793204","1,26803483459882","-0,196559316656781"
"4493","-0,108582514029858","3,87078036746598","-22,7630007803618","3,54992245159439","-0,729223053228518","1,54654367946841"
"4501","-0,123510862117736","10,9147989049195","-30,0839767066345","3,38623207825731","-0,270644142984835","1,02887435638947"
"4501","-0,127037390057504","8,59974905251907","-27,8351758839162","-1,63737569135691","-0,146331556795233","-2,56095277349928"
"4513","-3,655409890566","1,00279413038197","-30,8188501125834","-0,366739632672435","-0,11263262572809","-1,55428693300552"
"4514","-2,48891833582081","3,18557995791766","-29,5325538465033","-4,89658424931576","1,62542034131091","0,447557558894702"
"4522","-0,449587988210487","7,22930287054882","-29,2248679606891","-3,45597150625258","1,09657558731278","0,00148409738111865"
"4522","-0,967836396746527","6,19657339691978","-29,1512685832938","0,351460881835274","0,953215180643885","1,60134389159873"
"4530","0,67350734733744","5,94954144069062","-22,0904752695648","-0,337840396663699","0,914352724233203","1,0440380176711"
"4534","0,0612424495872668","5,8904506633315","-24,4015125456764","-3,88663576229665","-2,55401776888964","-2,55675686595576"
"4542","1,68037665152627","5,87631597394879","-26,7151165545454","-3,10829935983197","-1,49423132043455","-1,55312589150065"
"4542","1,06286518728109","5,87293491428305","-26,2685375024749","-4,49611166704413","-1,20694206383499","-1,27541309520349"
"4550","-2,61054915039059","2,35053209270167","-24,4009174363068","-3,97386245322681","-1,1290630561558","-1,19856772156498"
"4554","-1,47832087033462","3,50796287989063","-24,9541771715818","2,82893086139379","0,620966343856925","-1,17730398604981"
"4563","0,55291545409323","3,7848237605571","-28,6081126049391","1,1707748106141","0,0953681878227038","-1,17142013869959"
"4563","0,0327549921451089","3,85104970520263","-27,4821448090026","0,599958892094893","-3,50494769628826","0,553499893041726"
"4571","-1,85389237649985","5,62768817881986","-27,2128099692563","0,403456993083812","-2,48092929652258","0,0307991968659578"
"4571","-1,29957562416055","5,05266537648558","-27,1483842759434","-1,31994087026641","2,98341723686321","-3,56042015459377"
"4583","0,595140494735555","3,15432118390941","-23,6113793967542","-0,913216113498018","1,46470439208893","-2,55413955305275"
"4583","0,0427298255765375","3,70023161692877","-24,7653173284104","-0,773202171197424","-0,675909434197567","1,17089026377748"
"4591","-0,0877663048423866","9,11320610640231","-26,8021397386988","-0,725002734816133","-0,25619176911238","0,20163609870336"
"4591","-0,118593443065908","7,40800567521322","-26,2893537064932","2,60309498495853","5,04433958331689","3,38001949051986"
"4604","3,40166368105633","3,47852260732223","-29,6882878272171","1,74878399049065","3,48121935663532","2,25950384474181"
"4604","2,23325502862562","4,53857859098716","-28,5013229602089","-3,51256813618437","-2,12926809345298","0,226156192229637"
"4612","-5,09783733722597","6,55294416058389","-24,695803377893","-2,32377495560814","-0,650171451904788","0,663512474771643"
"4612","-2,82966338422065","6,0347863854112","-25,7855117953506","-1,91453598742966","1,47970312630894","0,784532490389248"
"4620","-2,29385200238257","5,91084150719788","-24,2853762530765","-1,77365653437408","1,05707424208167","0,818019706109486"
"4624","-2,1672771263565","5,88119352434131","-24,9265393775154","-1,72515914816089","-5,97316407628021","0,82728588915343"
"4632","-0,373606593277881","7,63489866985376","-26,8407045315073","-1,70846404877983","-3,87893664314422","0,829849916838538"
"4633","-0,949887290083486","7,05439014734858","-26,2985785194304","-3,3584693985572","0,146606738030714","-2,61602444331215"
"4641","2,44151718384183","3,39393672318508","-24,4081033367532","-2,92647945940274","-0,76214005046339","-1,56952570882029"
"4644","1,24266963299064","4,51834539636907","-24,9558960603032","-2,77776804361437","-1,00848514166954","3,88992471387233"
"4653","-2,56807389473896","3,02651025828852","-28,6085237682246","-2,72657452454985","-1,0752649143518","2,40059873821161"
"4653","-1,46828692853995","3,66965886405415","-27,4822431604812","-2,70895128842964","4,09338563564077","1,98849021244269"
"4661","0,555285775034072","5,58429895107419","-28,9736305262575","-2,70288453511743","2,49451486907729","1,87445645503367"
"4661","0,0333149337391076","5,04228654438774","-28,3303748120272","-4,35654866545455","0,332171655898792","0,11961046972359"
"4673","-1,8537601013369","10,1950266605994","-28,17650613538","-3,92581825201535","0,745998870680836","0,634030412854693"
"4673","-1,29954437676096","8,42757739469949","-28,1397002910954","2,84546995301375","-0,870737718009202","-0,9469173579099"
"4682","0,595147876317699","0,961610158659993","-22,8485051307606","1,17646834999483","-0,309006251598363","-0,384378374352879"
"4682","0,0427315693297993","3,17572862960802","-24,5828355390382","0,60191887825525","1,5721869440786","1,49457262931325"
"4694","-0,0877658929150547","1,94455531046227","-26,758489552899","0,404131713234478","1,08214496014309","1,01449354707565"
"4694","-0,118593345756196","2,65005499721279","-26,278912452454","-1,31970859960505","-2,50853227812119","-2,56493205958073"
"4702","-1,8896454376627","11,6227977720647","-24,4033991551446","-0,913136154925455","-1,48190101290139","-1,55538803360232"
"4702","-1,30802158002793","8,76910448356367","-24,9547708060959","4,19408313760908","-1,2035995367721","3,89383672278582"
"4710","5,88445444587117","1,04330445229809","-32,1298486661485","2,95223012876609","-1,12815695651992","2,40168122267269"
"4714","3,58353511522104","3,1952701471937","-29,8461485928242","-7,40979011418417","0,621211971352142","-1,45779410268354"
"4723","-2,25132085825298","3,71002673052238","-22,2566926309185","-4,97688869933423","0,0954347730678767","-0,525742095646259"
"4723","-0,629690554206339","3,8331580335486","-24,4412722320057","0,827889084022681","3,41074149859828","1,45545614592983"
"4731","-0,246612363536502","5,62340843784048","-26,7246271895604","-0,173831224117977","2,30946218517208","1,00366970020542"
"4731","-0,15611769295673","5,05164164973691","-26,2708124746072","6,10433953639339","-1,44691062152608","0,878656741892329"
"4743","1,62902960286684","8,43646739853836","-27,9230556784662","4,26558353245553","-0,465196477813726","0,844064646679887"
"4743","1,05073545928599","7,246127767079","-27,3182771582806","-6,30191901793602","3,25876433798536","-2,61209111276205"
"4751","0,914124868299192","1,67900390005122","-28,9344093717219","-3,93975435431428","2,26826388002651","-1,56843732449017"
"4751","0,881853309306388","3,34733134246531","-28,3209929954161","-3,12658529732183","-1,45807874928964","2,16693395494708"
"4763","0,874229789692695","3,74640021989564","-28,1742619769923","-2,8466539591584","-0,468223958611842","1,20054135609749"
"4764","0,87242888347328","3,84185868019828","-28,1391634817462","2,21696946101881","3,25794364178838","-0,790159204579377"
"4772","-2,65553597292252","7,38628668938654","-28,1307678174771","0,960108686223038","2,26804140388457","-0,34100212729411"
"4772","-1,48894812029197","6,23412439246514","-28,1287595496576","0,527437625330755","0,270778727588007","-1,94000866012337"
"4780","-1,21336473810681","2,43692968824155","-22,845888072926","0,378491735151254","0,729356339762851","-1,38246668187835"
"4784","-1,1482635968894","3,52862944125516","-24,5822095310342","0,327217498885919","0,853668574069079","0,495101610060432"
"4792","-1,13288473567432","3,78976726339378","-24,9975427788903","0,309566476078743","0,887367409746898","0,0146399203206193"
"4792","-1,12925178288962","3,85223220575825","-25,0968917248872","0,30349015727163","0,896502564724831","-3,56489155692168"
"4800","-1,12839356941391","9,14956509853466","-28,6422503498042","0,301398400286836","0,898978942759631","-2,55537682618945"
"4804","-1,12819083339901","7,41670285407984","-27,4903106589281","1,95643091279684","-4,28710311380865","-0,552744023351641"
"4813","0,635626772889969","3,48060299832874","-27,2147632648025","1,52617156137049","-2,69295771863754","-0,998599352862125"
"4813","0,0522939106479908","4,53907622669252","-27,1488515100373","-3,58920188735771","2,92594010280834","0,601320800242455"
"4821","-1,84927669219187","3,03146913445098","-25,3722881915722","-2,35015592562904","1,44912336334661","0,0440316281063262"
"4825","-1,29848525973594","3,67084504195494","-25,9473289712421","-3,57937016234102","-0,680133173962273","-1,83346671034038"
"4833","0,595398071835532","7,34537971938532","-26,0848804330147","-3,00252397422483","-0,2573367498383","-1,35298566390434"
"4833","0,0427906730885573","6,22433932378951","-26,1177831510561","2,16331161272527","1,58619362700152","0,503259245832579"
"4841","1,67601778308496","5,95618313283391","-26,1256535788986","0,941637111159258","1,08594192275779","0,016897204022616"
"4841","1,06183549054213","5,89203937581113","-26,1275362086056","-2,79042635531207","-2,50750298908989","1,60560882268793"
"4853","-2,61079239594583","2,35510193661965","-27,8887835702565","-2,07517952108563","-1,48162199095214","1,04521815854852"
"4853","-1,47837833230172","3,50905600012352","-27,3100791682442","-1,82895765405753","2,25431167352104","-0,833138387784199"
"4862","0,552901879836301","5,54588226919779","-30,6932454192012","-1,7441964151373","1,26705684188622","-0,3528948144014"
"4862","0,032751785494511","5,03309716002514","-29,5025088309304","3,25224020472965","2,72834740274731","-0,220007539035786"
"4870","1,67364629379652","6,67123447050583","-25,6960870416903","1,97225054823819","2,12447728298661","-0,183236556699245"
"4874","1,06127527294905","6,06308177874425","-26,7855796485731","1,53161742982832","-3,22597452453231","1,55023019474781"
"4882","-4,3746944502103","7,67840688032671","-20,0030013906621","1,37993062200535","-1,67638684533021","1,02989444494083"
"4882","-2,65883513313133","7,06479744046804","-22,3805885341361","-0,328039762472759","0,472596599423611","0,885913340560586"
"4890","1,2740422320502","1,63562914756259","-26,4709084998978","0,0839958638719149","0,0551477890411841","0,846072606138155"
"4894","0,203106977214685","3,33695597289194","-25,4493251797226","0,225838059245491","1,67090262757839","0,835048353156134"
"4903","1,71388934947482","9,02630949379622","-30,4873505095988","0,274666867003891","1,10890502616273","0,831997853320388"
"4903","1,07078190150538","7,38721974748489","-28,6924611262233","5,25873384066738","-4,23019588638595","-0,892138168280597"
"4911","-0,844909268822255","5,23434758273248","-24,741524194686","3,9744859655625","-2,67753118144673","-0,369220530167066"
"4915","-0,297453542063825","5,71937416912278","-25,796448350471","5,18813956086771","-0,527713609744184","-1,94781692009974"
"4923","-1,93189763300797","2,31379990654294","-26,0487893405671","4,60593666231815","-0,944936303146762","-1,38462729047598"
"4923","-1,3180028282226","3,49917643190491","-26,1091500545895","-5,5290007415764","2,39979761788464","0,494503752211657"
"4931","5,88209657275453","5,54351904714781","-27,884385547628","-3,01792664853096","1,30649549376069","0,0144744882253599"
"4931","3,58297811418011","5,03253187029446","-27,3090271481739","4,46951447090671","-0,718797052598814","-5,28822925697808"
"4944","-0,48768272486606","8,43189628255947","-28,9321967418414","3,04704665066783","-0,267817839653083","-3,75553020971658"
"4944","0,55070390051886","7,24503434256537","-28,3204637277795","2,55736579403684","-5,33231875483935","0,115163842579096"
"4952","0,796002270113693","1,67874234966123","-21,1309472504601","2,38879442958193","-3,70521487470641","-0,813783852107782"
"4952","0,853949174142409","3,34726877883549","-23,4111935636665","3,98651676913923","1,92261740580633","0,652460741934084"
"4960","-2,65990143994476","3,74638525448963","-29,2390263448623","3,53652853936086","0,448222639287532","0,0581824629959794"
"4964","-1,48997937581558","3,84185510042873","-27,6330612487527","0,0701160698701893","-3,40929513043695","-1,82955106003945"
"4972","0,550161362007989","9,14708286413059","-29,0097066607456","0,876812570595599","-2,45499958721621","-1,35190217184195"
"4973","0,0321043921838726","7,41610909624071","-28,3390043305055","-0,501236846368457","1,26152853366238","-1,21973286682267"
"4981","-1,85404606791483","5,24125800072633","-24,6569762797497","0,0243732170876853","0,269013204310001","-1,18316055267953"
"4985","-1,29961193072748","5,72102716162369","-25,7762242381985","1,86106571220163","-1,7289578346013","2,27354314933346"
"4993","-2,93240750977949","2,31419530725683","-24,2831546418313","1,49334233848346","-1,27057224693223","1,23004098119635"
"4993","-2,31812327655821","3,4992710129296","-24,9260079615097","-0,288998073313374","-2,87522985325685","0,941295503594052"
"5001","1,35452869140539","7,30433870224527","-25,0797803841854","0,0974358640742943","-2,31022398956597","0,861397297934718"
"5001","0,222120316535162","6,21452219064029","-25,1165632042343","-1,42528784997903","-0,428143163025485","-0,884003104515888"
"5013","-0,0453888378400019","4,19303781440235","-30,4077528571035","-0,949481537949238","-0,917944526021473","-0,366969492321827"
"5013","-0,108582601911833","4,70949274989097","-28,6734211314238","2,5258187393734","-2,77963875002607","-3,67048596340738"
"5022","-0,123510882878121","3,07223327276065","-28,258563833472","1,7221818434354","-2,28431094168285","-2,58459565128042"
"5022","-0,127037394961735","3,68059594486589","-28,1593287361054","-1,86597326186575","1,30779918956363","4,60904666274319"
"5034","-0,127870463920175","3,82611810224061","-22,8532003130831","-1,10118634766594","0,281556356145563","2,59958558933786"
"5034","-0,128067260038566","3,86092743433476","-24,5839586405896","0,817842157790081","-3,45447539543644","-1,40303236608425"
"5042","-0,128113749241917","9,15164502302599","-30,2803522641957","0,478462742017564","-2,46724715347222","-0,510589080854807"
"5042","-0,128124731399725","7,41720037819338","-28,6429465313524","2,01738485305747","-0,470709349914645","-1,98693473981558"
"5050","-1,89189703962018","-0,0408720544972603","-22,9688831255503","1,54715479716478","-0,929483462196295","-1,39545150712018"
"5054","-1,30855347660252","2,1751348768512","-24,6116303127899","-0,270473274024724","2,40398660821895","-1,23178331961341"
"5062","4,120559081889","4,4660073451111","-30,2869714103422","0,103812978168207","1,30763105453409","-1,18649501029029"
"5063","2,40307989483873","4,0139908410378","-28,6445298507627","1,88841264385309","-0,718489222270459","2,27262047798235"
"5071","-3,29394984659174","9,18825824434917","-24,7300588912896","1,50275644875491","-0,267734392326199","1,22978567058169"
"5075","-1,63976081231766","7,42595836943724","-25,7937058158585","-0,285757290276632","-3,60337834755053","-0,78206706657456"
"5083","0,514778450410958","5,24361397611708","-26,0481333181453","0,0985514952267237","-2,50761209537226","-0,338762967353316"
"5083","0,0237458768543322","5,72159071793196","-26,1089931320785","-1,42490379684923","2,97618400468073","6,67707055181426"
"5091","-0,0922508884802996","5,83592417367004","-29,645145042333","-0,949349328655701","1,46274359149599","4,61840834882791"
"5091","-0,119652837541722","5,86327307573456","-28,4910030779752","2,5258642520797","1,0524768138396","0,602176043485663"
"5103","-1,88989572171032","4,10901798327076","-26,4541318624588","1,72219751106646","0,941260787505032","1,49085212813808"
"5104","-1,3080807047001","4,68939495683241","-26,9669062203091","-1,8659678683244","-2,54672347152892","-5,15641171662624"
"5112","2,35690105102859","3,06742582099141","-25,3287663380802","-1,10118449095332","-1,49225396615791","-2,99576330803833"
"5112","1,22268073972768","3,67944598812954","-25,9369184146719","-0,837909797466534","0,522511747942504","-0,674602519590379"
"5124","-4,33656559061543","5,58664006021064","-26,0823901969746","-0,747278167280184","0,0686788980037058","-1,03231858294209"
"5124","-2,64982794172065","5,04284654464385","-26,1171874792019","-4,02758365257574","-0,0543471156516332","0,591990416951348"
"5132","1,27617000345408","3,15197249018111","-22,6039170303515","-3,1568203053818","-0,0876972797879771","0,0414498356943252"
"5132","0,203609621262175","3,69966980241577","-23,7635323082114","0,45444290660965","-1,82565570231528","-0,110889189492654"
"5140","-0,0497616246802093","7,35227468766724","-31,0841038496742","-0,302389101814271","-1,29678531898161","-0,153042628103721"
"5144","-0,10961558659814","6,22598862067346","-28,8352062969088","-0,562926557170235","2,30441760774973","1,55858509864664"
"5153","-0,123754905146101","4,1957806185097","-24,7756692633193","-0,652615900231608","1,28063966946132","1,03220631432669"
"5153","-0,127095040411915","4,71014883677674","-25,8046159522636","0,972261370536915","-2,45472389289216","2,60984497715065"
"5161","3,39965534628299","6,59398427276272","-29,5723371172363","0,531621155376578","-1,46731451671264","2,04639033670098"
"5165","2,23278059912754","6,04460330209101","-28,4735872061279","-1,27582068990944","-1,19964539709371","-3,27939788394162"
"5173","-1,57040998403768","4,15239271177822","-28,2107629652414","-0,898027855876637","-1,12708505958223","-1,75308649747222"
"5173","-0,468838783583339","4,69977032066942","-28,1478946265055","5,8550367247844","-2,83633302885847","2,11584003749336"
"5181","-0,208614303742889","3,06990763882531","-22,8504652401194","4,17976168635661","-2,29967975229837","1,18640325648618"
"5181","-0,147141400420523","3,68003964632383","-24,5833044030163","1,94730000632836","-0,425284807844181","2,65251251639318"
"5193","1,63115007502076","5,58678206501327","-21,476210613448","2,17878086493329","-0,917169676771106","2,05819678940696"
"5194","1,05123637902957","5,04288051261424","-22,7329845541323","-2,70879023332707","-2,77942870217592","-4,99942286678451"
"5202","-2,61329622709082","3,15198061542048","-28,3159997051677","-1,39132390346598","-2,28425400144663","-2,95232322539173"
"5202","-1,47896981304944","3,69967174599715","-26,6514735050689","4,02946824579631","-3,87893873355924","1,06070962577439"
"5214","2,31653186807222","7,35227515257768","-28,0141109271217","2,89556187934055","-3,31122940104905","0,171148226311563"
"5214","1,21314431608836","6,22598873188142","-27,3400578440988","-4,11779282317715","-3,15733349839881","-1,79829252098007"
"5222","-0,811278954895742","0,674186583039883","-27,1788223454001","-2,53212198389528","-3,11561505641406","-1,34325268162961"
"5222","-0,289509043383406","2,34617902593376","-27,1402543354089","2,9809988718986","-4,83322371500737","-1,21733948302469"
"5230","-3,69379061571397","6,2677186444312","-21,8486376598053","1,87887642312643","-4,29883687261623","-1,18249828405284"
"5234","-2,49798502550316","5,20576256408751","-23,5828672403791","1,49947362951077","-0,696138531951263","2,27372640441117"
"5243","3,07580961289625","4,95173951675945","-25,7584971359539","1,36886520214072","-1,71951109012001","1,23009168935638"
"5243","1,39250871497585","4,89097644965318","-25,2789142663432","6,29116137314771","-0,268011402525063","-0,78198238870809"
"5251","-2,53267736553296","3,11564471256243","-28,685790682139","4,98564905948805","-0,874535653885762","-0,338739536303776"
"5255","-1,45992519631875","3,6909800901535","-27,5007256356923","1,22472464371442","-1,03895359066636","4,95378511171535"
"5263","0,55726106942896","5,58939905165911","-30,7388486202373","1,93003617102111","-1,08352436895683","3,41826942605309"
"5263","0,0337815580991395","5,04350650358967","-29,5134172520125","0,517085239993379","-1,09560671420647","1,27008791082335"
"5271","1,67388955727353","6,67372441639144","-25,6986963683999","1,03068054778247","-1,09888202310461","1,67566873611404"
"5272","1,06133273914982","6,06367738119265","-26,7862038072691","-2,10402078884594","-2,82868768729431","-1,65868762123832"
"5284","2,68039798065546","7,67854935020069","-27,0463388154175","-1,18313359123239","-2,29760723618193","-0,581330954714816"
"5284","2,06287022586738","7,06483151968488","-27,1085638816982","-2,52187315705191","-0,424722985587204","-0,283217663988546"
"5292","-1,61054796012391","1,63563729941244","-18,3194631471188","-1,98273077932573","-0,917017376749924","-0,200727308780162"
"5292","-0,478320589157578","3,33695792283862","-21,2170841568798","-1,79713241455802","-1,0504696301463","1,54539036238575"
"5304","-1,97462390728859","3,74391886712262","-27,192594798455","-1,73324065900779","-1,08664616243322","1,02855522423812"
"5304","-1,3280960682198","3,84126513324793","-25,6219546849985","8,22326947862869","0,632464809309646","-0,837749156283417"
"5312","4,11594252988016","9,14694174222935","-35,8110350928983","5,65077226209008","0,0984852172928988","-0,354170651283269"
"5313","2,4019893254369","7,41607533946295","-32,2482933774855","-1,85781360825241","-5,23302051124173","1,50293135025447"
"5321","-1,53043775821137","-0,0411411671017796","-22,5920898263275","-0,442624813654042","-3,67829688700578","1,01680647266796"
"5324","-0,459396133240424","2,17507050431721","-25,2822972679654","1,70030285171021","1,92991439350319","-0,841000130729799"
"5333","-1,97015337765304","4,46599194700985","-27,686599906171","1,4380001408465","0,450200722866447","-0,35507022216856"
"5333","-1,32703999372499","4,01398715776626","-27,2617162355188","-0,308049481268712","1,77799445144686","1,50268243172527"
"5341","2,35242229275803","7,42746033226414","-23,6384887379632","0,0908774663131202","1,13793571485658","1,01673759490058"
"5345","1,22162272138006","6,24397325008454","-24,7718019633143","0,228207033032074","-9,40907954163491","-2,56431111342387"
"5353","-2,57304581269021","5,96087962629611","-25,0428938515849","0,275482380083797","-6,26818778631833","-1,55521621278575"
"5354","-1,46946144614003","5,89316279099101","-25,1077398361215","1,94750939007912","3,22784103502411","0,447300419674332"
"5362","2,31877803230756","0,59457362983051","-28,6448452502191","1,52310035032114","0,802045550196409","0,00141294488209837"
"5362","1,2136749281083","2,32713537115805","-27,4909313668115","-0,278753954943186","0,144455539949866","1,6013242031276"
"5374","-0,811153608266466","6,26316334566891","-27,2149117399711","0,100962375245633","-0,0338054157987442","1,04403256971213"
"5374","-0,28947943271331","5,20467292309905","-27,1488870257384","1,88743133119267","-3,53996436272213","2,61311739752867"
"5382","1,59752552092964","10,2338699645065","-28,8938907491045","1,5024186344175","-2,49042169197927","2,04729584184876"
"5382","1,04329324099672","8,43686882831846","-28,3113008205877","6,33713679571461","1,25192623108585","-3,27914732335406"
"5390","0,912366790943514","0,963832697167587","-28,1719435799977","5,00147597942692","0,266410190870004","-1,75301716533403"
"5394","0,881437998189674","3,17626026741767","-28,1386089143018","-5,39283735785885","-1,72966346524716","2,11585922225595"
"5402","-0,889638033273404","1,94468247980475","-21,0874470391558","-2,97105275695189","-1,27076353084983","1,18640856506493"
"5403","-0,308019830886922","2,65008541649707","-23,4007881839719","1,17414549762177","-1,14636392072198","2,6525139853198"
"5411","-1,93439371043964","9,8620080174123","-29,2365373471462","0,601119242352288","-1,112641399013","2,05819719587082"
"5415","-1,3185924773084","7,58712131549307","-27,6324658731093","-1,25189615377564","0,625417963029416","0,170453016666005"
"5423","2,35441785197794","5,28216463130069","-29,009564245124","-0,889791896382992","0,0965749426029651","0,648098956215377"
"5423","1,2220941329055","5,73081214910741","-28,338970264266","4,20211933804739","5,13996836448268","-4,38960832565877"
"5431","-0,809164737108505","4,07733293634976","-21,1353740689329","2,95499656991766","3,50714261833648","-2,7835826167924"
"5435","-0,289009601110653","4,68181579953713","-23,4122524717882","2,52567779255563","3,06451260032597","-2,33918233233869"
"5443","-0,166133204518629","8,34800395717077","-25,7176855767578","2,37788591728417","2,94452347515055","-2,21621318450236"
"5444","-0,137106078197026","7,22496704925906","-25,2691520202155","-0,984496241193307","-4,00367458734448","-0,458894704495788"
"5452","-1,89401870574365","6,95633328662992","-35,7266436480236","-0,141987575800458","-1,88720750002761","-0,972630488375662"
"5452","-1,30905467839787","6,89207529304493","-32,2281066933162","0,148043846435388","0,415446869634046","0,60850659477925"
"5464","-1,17086845886104","3,35511052812861","-26,1088551736117","0,247886411075272","0,0396555137719123","0,0460199954895804"
"5464","-1,13822468868508","4,50905805523797","-27,6451120422582","-1,37349563950662","-0,0622148389010769","-0,10962458936714"
"5472","2,39702618628725","6,54588276078726","-28,0125892463305","-0,931652203865123","-0,0898300796239806","-0,15269270303565"
"5472","1,23215951190955","6,0330972776148","-28,1004908845713","-4,09105393632548","-1,82623386641641","-3,61119384523959"
"5484","-0,806786989746697","7,67123449863363","-22,8391261243087","-3,17866978589375","-1,29694204898608","-2,56818904332006"
"5484","-0,288447905171105","7,06308178547251","-24,5805920528489","-2,86458390921998","-1,15346045137228","1,16700265635205"
"5492","-1,92977022882831","5,15681281986503","-24,9971558733062","-2,75646066104732","-1,11456514225196","0,200560366331103"
"5493","-1,31750027092459","5,70082762364693","-25,0967991759228","3,90377086431891","-1,1040213157493","1,65642990302492"
"5501","-1,17286356359989","4,07016054883662","-21,599040087675","2,19653828745429","-1,10116307191906","1,05928076192611"
"5505","-1,13869599284833","4,68010014314942","-22,7623657290437","-1,70267728669452","2,35744731955145","4,34062861912343"
"5513","-1,13062457783443","1,30440544292692","-31,8446218315093","-1,04497213187242","1,29501508113356","3,24860407249233"
"5513","-1,12871786515648","2,49692924831613","-29,0171244561146","-4,13006402754192","-0,721909188269085","-0,500151786441625"
"5521","-1,12826744187506","8,06457557623266","-26,5799816581454","-3,19209890858625","-0,268661484280218","0,462537191162805"
"5525","-1,12816103825442","6,39637310801433","-26,9970098650809","-1,2134542554409","-0,14579409328438","-0,994370917389687"
"5533","-2,89190561639886","2,47574006271158","-27,0967642503218","-1,532310967041","-0,112486928929733","-0,397509157512037"
"5534","-2,3085555026974","3,53791299805502","-27,1206257954386","1,66942862609076","-0,103457949081165","-0,232352688095123"
"5542","1,35678888936185","3,79198791774285","-20,0831454237325","0,77161917435275","-0,101010353235484","-0,18665255914759"
"5542","0,222654243745054","3,85276339287159","-22,3997592247913","0,462550599891332","-0,100346853535156","-3,62059081169713"
"5554","1,71850700583972","5,62809809799816","-26,4754941860197","0,356154544988261","-0,100166990567537","-2,57078925983196"
"5554","1,07187273178957","5,05276343037006","-25,4504220894577","-1,33622461530064","-3,55795380532153","-0,557008768216585"
"5562","0,919118132230039","3,1543446386897","-32,2484099246997","-0,918821750479096","-2,4952983099041","-0,999779442209787"
"5562","0,883032869473334","3,70023722738185","-29,8745087978738","-4,08663708603499","2,97952205290567","2,32428618364871"
"5574","0,874508437528402","2,07001932429715","-22,2634764761668","-3,17714929664043","1,46364847699857","1,2440819886094"
"5575","0,872494708531229","2,68006636182029","-24,4428949479301","2,10319729853603","4,51055768461031","-2,50140308357392"
"5583","2,63578871865628","9,86917954854598","-28,4858123790629","0,920942914461695","3,33652057784902","-1,5378090528596"
"5583","2,0523321671427","7,58883676703226","-27,452890231868","3,82546009886481","-2,16849335874014","-4,71775864956663"
"5591","-3,37680708265354","1,76098091033088","-25,4450151565143","2,82533260404324","-0,660804723655614","-3,59767638533099"
"5595","-1,65933420089782","3,36694048671104","-25,96472547718","-2,48621647456853","-5,43885050934806","3,60542711798693"
"5603","-1,25361509067541","5,51188781645361","-31,3714328219913","-1,31470346446431","-3,73409373855833","1,59858403207112"
"5603","-1,15777194919222","5,02496558600041","-29,6647332711921","2,40009203871153","1,9147888594614","1,04327434225025"
"5611","-1,13513089645913","6,66928937385676","-25,7348916094395","1,67890075292106","0,446100459613534","0,889615666206706"
"5615","-1,12978239409444","6,06261650585088","-26,7948618163881","-3,53662525941087","0,047965156804386","-4,322778701433"
"5624","0,635250798051546","4,15670152359814","-25,2876128058685","-2,33205655786446","-0,0599622424719688","-2,76509032003033"
"5624","0,0522050940043446","4,70080100124945","-25,9270743675835","1,39411828132983","-1,8181372269999","1,11251848284458"
"5632","1,67824175443135","3,07015418068011","-26,0800354716844","0,676844302440873","-1,29474719404874","0,18548415548885"
"5636","1,06236085992956","3,68009861986748","-26,1166242219214","-2,88158059272826","-1,1528654652369","-3,51761757725443"
"5644","-2,61066828778513","7,34759320269555","-24,3645793285732","-2,10655913082331","-1,11440385209321","-2,54229573421477"
"5644","-1,47834901419541","6,22486879556907","-24,9454849883254","-1,83976000329768","0,62494019334672","-2,27241630321445"
"5652","-1,21086090824124","4,19551275302001","-28,6060334088974","-1,74791509583733","0,0964454277396945","-2,1977384850185"
"5652","-1,14767211644392","4,71008476255632","-27,4816474591364","-0,0605451303037297","-0,0468201033013333","1,26950931771892"
"5664","0,631024703822718","4,83317191498342","-28,9734880327272","-0,479672397423805","-0,0856568406167783","0,228924787410009"
"5665","0,0512067625555922","4,86261472728536","-28,3303407271517","4,34330191153976","-0,0961847893449126","-1,78230527990095"
"5673","-0,0857637955945913","6,63045456643819","-24,6549039201055","3,00359830455479","-0,0990387289928796","-1,33882888290462"
"5673","-0,118120389733388","6,05332710461719","-25,7757285236188","-0,769096375239328","-1,82873016747341","2,23046846512974"
"5685","-0,125763997223947","2,39368244020759","-26,0438330964676","-0,0678367307846229","-1,29761875180292","1,21812186819137"
"5685","-0,127569648808261","3,5182845711259","-26,107964506286","0,173570082453275","-1,15364389346995","-0,785294534896801"
"5693","-1,89176591230079","5,54808977078086","-27,884101960954","0,256673751598522","-1,1146148701419","-0,339656033904213"
"5693","-1,30852250035834","5,0336252009578","-27,3089593133995","-3,0262232147547","2,35380077630965","-0,216344261551316"
"5701","-2,93451245619269","4,91056374842911","-20,1281953603842","-2,15635197819146","1,29402656811886","-0,182222898233416"
"5705","-2,31862052865162","4,88112708361917","-22,41053530339","3,110356721455","1,00674062963724","-0,172781241427606"
"5714","1,3544112254011","8,39567980807131","-31,7604629491209","1,92340752722697","0,928862521440816","-0,170168658735404"
"5714","0,222092567507362","7,23637125434237","-28,9969934015826","3,17055594098988","-0,821166634738134","1,5538461876552"
"5722","1,7183743209014","6,95906120634452","-24,8143692190974","2,5998835467946","-0,295568412604913","1,0308950193823"
"5722","1,07184138758862","6,89272781953976","-25,8138730965845","-4,2195793220408","-0,153088082981124","4,33277405490864"
"5734","0,919110727780483","3,3552666144035","-26,0529573915709","-2,56716172205164","-0,11446419980414","3,24643065113796"
"5734","0,883031120318097","4,50909539153834","-26,1101470647644","4,62468912737137","5,08275940656108","2,94583065763545"
"5742","-4,41680111738157","6,54589169174116","-22,6022329423153","3,10046512356676","3,49163428737405","2,86265221168542"
"5743","-2,66878200316383","6,03309941392549","-23,7631294693531","-2,39150281853328","1,33139078143365","2,8396360639136"
"5755","1,27169248009665","5,91043797860994","-29,3232104583877","-1,28209853410166","1,74578718950213","2,83326730993889"
"5755","0,202551894638438","5,88109699910502","-27,6531983386476","-0,90018898745241","-1,59971288721446","-0,615078823041252"
"5763","-0,0500114917431479","2,35248448762402","-23,7321324193281","-0,768717616854127","-0,506618454269773","0,430735951945814"
"5763","-0,109674612765905","3,50842989855265","-24,7942018099215","-7,34646931631876","1,51861779070508","-2,72646250077822"
"5771","-3,65130827671896","3,78493547280762","-26,8090489924333","-5,61084327337524","1,06762331545535","-1,60008481125651"
"5775","-2,48794941040826","3,85107642710462","-26,2910064204998","-5,01335851104373","2,67428452089703","3,88146876342252"
"5783","1,31441061521911","9,14928863284925","-26,1670890992433","-4,80767593174058","2,10982179729037","2,39825890842901"
"5784","0,212643211919982","7,41663672266707","-26,1374477080926","1,88614014025694","-1,5010295798364","-3,1820330083341"
