Timer,AX,AY,AZ,GX,GY,GZ,A
"7","2.70386266094421","-1.19098712446352","0.858726752503575","-0.0411301859799714","0.0135908440629471","0","358.875"
"3.51852","1.70386266094421","0.809012875536481","-1.14127324749643","-0.0411301859799714","0.0135908440629471","0","358.875"
"7.03704","1.70386266094421","0.809012875536481","-1.14127324749643","0.958869814020029","1.01359084406295","0","358.875"
"10.55556","2.70386266094421","0.809012875536481","-0.141273247496425","0.958869814020029","1.01359084406295","0","358.875"
"14.07407","2.70386266094421","0.809012875536481","-0.141273247496425","0.958869814020029","1.01359084406295","0","358.875"
"17.59259","2.70386266094421","0.809012875536481","-1.14127324749643","0.958869814020029","1.01359084406295","0","358.875"
"21.11111","2.70386266094421","0.809012875536481","-1.14127324749643","1.95886981402003","2.01359084406295","0","358.875"
"24.62963","2.70386266094421","-0.190987124463519","3.85872675250357","1.95886981402003","2.01359084406295","0","358.875"
"28.14815","2.70386266094421","-0.190987124463519","3.85872675250357","1.95886981402003","-0.986409155937053","0","358.875"
"31.66667","3.70386266094421","-1.19098712446352","1.85872675250357","1.95886981402003","-0.986409155937053","0","358.875"
"35.18519","3.70386266094421","-1.19098712446352","1.85872675250357","0.958869814020029","0.0135908440629471","0","358.875"
"38.7037","4.70386266094421","2.80901287553648","-0.141273247496425","0.958869814020029","0.0135908440629471","0","358.875"
"42.22222","4.70386266094421","2.80901287553648","-0.141273247496425","-1.04113018597997","-1.98640915593705","0","358.875"
"45.74074","1.70386266094421","-1.19098712446352","-1.14127324749643","-1.04113018597997","-1.98640915593705","0","358.875"
"49.25926","1.70386266094421","-1.19098712446352","-1.14127324749643","-1.04113018597997","-0.986409155937053","0","358.875"
"52.77778","2.70386266094421","0.809012875536481","3.85872675250357","-1.04113018597997","-0.986409155937053","0","358.875"
"56.2963","2.70386266094421","0.809012875536481","3.85872675250357","0.958869814020029","1.01359084406295","0","358.875"
"59.81481","1.70386266094421","1.80901287553648","-0.141273247496425","0.958869814020029","1.01359084406295","0","358.875"
"63.33333","1.70386266094421","1.80901287553648","-0.141273247496425","0.958869814020029","2.01359084406295","0","358.875"
"66.85185","1.70386266094421","0.809012875536481","0.858726752503575","0.958869814020029","2.01359084406295","0","358.875"
"70.37037","1.70386266094421","0.809012875536481","0.858726752503575","-2.04113018597997","4.01359084406295","0","358.875"
"73.88889","4.70386266094421","-0.190987124463519","-0.141273247496425","-2.04113018597997","4.01359084406295","0","358.875"
"77.40741","4.70386266094421","-0.190987124463519","-0.141273247496425","-1.04113018597997","1.01359084406295","0","358.875"
"80.92593","2.70386266094421","-0.190987124463519","-1.14127324749643","-1.04113018597997","1.01359084406295","0","358.875"
"84.44444","2.70386266094421","-0.190987124463519","-1.14127324749643","-0.0411301859799714","1.01359084406295","0","358.875"
"87.96296","0.703862660944206","-2.19098712446352","0.858726752503575","-0.0411301859799714","1.01359084406295","0","358.875"
"91.48148","0.703862660944206","-2.19098712446352","0.858726752503575","0.958869814020029","0.0135908440629471","0","358.875"
"95","3.70386266094421","-0.190987124463519","-1.14127324749643","0.958869814020029","0.0135908440629471","0","358.875"
"102.91176","3.70386266094421","-0.190987124463519","-1.14127324749643","-2.04113018597997","1.01359084406295","0","358.875"
"105.82353","0.703862660944206","0.809012875536481","-2.14127324749643","-2.04113018597997","1.01359084406295","0","358.875"
"108.73529","0.703862660944206","0.809012875536481","-2.14127324749643","0.958869814020029","0.0135908440629471","0","358.875"
"111.64706","2.70386266094421","-1.19098712446352","-1.14127324749643","0.958869814020029","0.0135908440629471","0","358.875"
"114.55882","2.70386266094421","-1.19098712446352","-1.14127324749643","-1.04113018597997","-0.986409155937053","0","358.875"
"117.47059","1.70386266094421","0.809012875536481","-0.141273247496425","-1.04113018597997","-0.986409155937053","0","358.875"
"120.38235","1.70386266094421","0.809012875536481","-0.141273247496425","-0.0411301859799714","2.01359084406295","0","358.875"
"123.29412","2.70386266094421","-0.190987124463519","-1.14127324749643","-0.0411301859799714","2.01359084406295","0","358.875"
"126.20588","2.70386266094421","-0.190987124463519","-1.14127324749643","-2.04113018597997","1.01359084406295","0","358.875"
"129.11765","0.703862660944206","-0.190987124463519","-0.141273247496425","-2.04113018597997","1.01359084406295","0","358.875"
"132.02941","0.703862660944206","-0.190987124463519","-0.141273247496425","-1.04113018597997","-0.986409155937053","0","358.875"
"134.94118","-0.296137339055794","0.809012875536481","-0.141273247496425","-1.04113018597997","-0.986409155937053","0","358.875"
"137.85294","-0.296137339055794","0.809012875536481","-0.141273247496425","0.958869814020029","1.01359084406295","0","358.875"
"140.76471","1.70386266094421","-1.19098712446352","3.85872675250357","0.958869814020029","1.01359084406295","0","358.875"
"143.67647","1.70386266094421","-1.19098712446352","3.85872675250357","1.95886981402003","2.01359084406295","0","358.875"
"146.58824","1.70386266094421","-0.190987124463519","0.858726752503575","1.95886981402003","2.01359084406295","0","358.875"
"149.5","1.70386266094421","-0.190987124463519","0.858726752503575","-1.04113018597997","-0.986409155937053","0","358.875"
"152.41176","2.70386266094421","-0.190987124463519","-3.14127324749643","-1.04113018597997","-0.986409155937053","0","358.875"
"155.32353","2.70386266094421","-0.190987124463519","-3.14127324749643","-0.0411301859799714","-1.98640915593705","0","358.875"
"158.23529","1.70386266094421","-0.190987124463519","-0.141273247496425","-0.0411301859799714","-1.98640915593705","0","358.875"
"161.14706","1.70386266094421","-0.190987124463519","-0.141273247496425","0.958869814020029","0.0135908440629471","0","358.875"
"164.05882","1.70386266094421","2.80901287553648","-0.141273247496425","0.958869814020029","0.0135908440629471","0","358.875"
"166.97059","1.70386266094421","2.80901287553648","-0.141273247496425","0.958869814020029","-0.986409155937053","0","358.875"
"169.88235","2.70386266094421","-0.190987124463519","-1.14127324749643","0.958869814020029","-0.986409155937053","0","358.875"
"172.79412","2.70386266094421","-0.190987124463519","-1.14127324749643","-0.0411301859799714","-0.986409155937053","0","358.875"
"175.70588","0.703862660944206","-0.190987124463519","-1.14127324749643","-0.0411301859799714","-0.986409155937053","0","358.875"
"178.61765","0.703862660944206","-0.190987124463519","-1.14127324749643","-2.04113018597997","-0.986409155937053","0","358.875"
"181.52941","3.70386266094421","-0.190987124463519","-0.141273247496425","-2.04113018597997","-0.986409155937053","0","358.875"
"184.44118","3.70386266094421","-0.190987124463519","-0.141273247496425","0.958869814020029","-0.986409155937053","0","358.875"
"187.35294","0.703862660944206","-1.19098712446352","-0.141273247496425","0.958869814020029","-0.986409155937053","0","358.875"
"190.26471","0.703862660944206","-1.19098712446352","-0.141273247496425","-2.04113018597997","2.01359084406295","0","358.875"
"193.17647","1.70386266094421","0.809012875536481","-0.141273247496425","-2.04113018597997","2.01359084406295","0","358.875"
"196.08824","1.70386266094421","0.809012875536481","-0.141273247496425","-2.04113018597997","1.01359084406295","0","358.875"
"199","1.70386266094421","0.809012875536481","-0.141273247496425","-2.04113018597997","1.01359084406295","0","358.875"
"203.65385","1.70386266094421","0.809012875536481","-0.141273247496425","0.958869814020029","-2.98640915593705","0","358.875"
"207.30769","1.70386266094421","0.809012875536481","-3.14127324749643","0.958869814020029","-2.98640915593705","0","358.875"
"210.96154","1.70386266094421","0.809012875536481","-3.14127324749643","1.95886981402003","-0.986409155937053","0","358.875"
"214.61538","1.70386266094421","0.809012875536481","-1.14127324749643","1.95886981402003","-0.986409155937053","0","358.875"
"218.26923","1.70386266094421","0.809012875536481","-1.14127324749643","-0.0411301859799714","-1.98640915593705","0","358.875"
"221.92308","1.70386266094421","1.80901287553648","-1.14127324749643","-0.0411301859799714","-1.98640915593705","0","358.875"
"225.57692","1.70386266094421","1.80901287553648","-1.14127324749643","-1.04113018597997","-3.98640915593705","0","358.875"
"229.23077","-0.296137339055794","-0.190987124463519","-1.14127324749643","-1.04113018597997","-3.98640915593705","0","358.875"
"232.88462","-0.296137339055794","-0.190987124463519","-1.14127324749643","-5.04113018597997","1.01359084406295","0","358.875"
"236.53846","2.70386266094421","1.80901287553648","0.858726752503575","-5.04113018597997","1.01359084406295","0","358.875"
"240.19231","2.70386266094421","1.80901287553648","0.858726752503575","-3.04113018597997","-0.986409155937053","0","358.875"
"243.84615","-0.296137339055794","-0.190987124463519","-3.14127324749643","-3.04113018597997","-0.986409155937053","0","358.875"
"247.5","-0.296137339055794","-0.190987124463519","-3.14127324749643","-4.04113018597997","0.0135908440629471","0","358.875"
"251.15385","2.70386266094421","0.809012875536481","-1.14127324749643","-4.04113018597997","0.0135908440629471","0","358.875"
"254.80769","2.70386266094421","0.809012875536481","-1.14127324749643","0.958869814020029","0.0135908440629471","0","358.875"
"258.46154","1.70386266094421","-1.19098712446352","1.85872675250357","0.958869814020029","0.0135908440629471","0","358.875"
"262.11538","1.70386266094421","-1.19098712446352","1.85872675250357","1.95886981402003","-1.98640915593705","0","358.875"
"265.76923","2.70386266094421","0.809012875536481","0.858726752503575","1.95886981402003","-1.98640915593705","0","358.875"
"269.42308","2.70386266094421","0.809012875536481","0.858726752503575","0.958869814020029","-2.98640915593705","0","358.875"
"273.07692","2.70386266094421","-1.19098712446352","1.85872675250357","0.958869814020029","-2.98640915593705","0","358.875"
"276.73077","2.70386266094421","-1.19098712446352","1.85872675250357","-0.0411301859799714","0.0135908440629471","0","358.875"
"280.38462","2.70386266094421","-0.190987124463519","-0.141273247496425","-0.0411301859799714","0.0135908440629471","0","358.875"
"284.03846","2.70386266094421","-0.190987124463519","-0.141273247496425","-0.0411301859799714","1.01359084406295","0","358.875"
"287.69231","1.70386266094421","0.809012875536481","2.85872675250357","-0.0411301859799714","1.01359084406295","0","358.875"
"291.34615","1.70386266094421","0.809012875536481","2.85872675250357","0.958869814020029","-0.986409155937053","0","358.875"
"295","3.70386266094421","-1.19098712446352","-0.141273247496425","0.958869814020029","-0.986409155937053","0","358.875"
"302.79412","3.70386266094421","-1.19098712446352","-0.141273247496425","-1.04113018597997","0.0135908440629471","0","358.875"
"305.58824","2.70386266094421","-0.190987124463519","-0.141273247496425","-1.04113018597997","0.0135908440629471","0","358.875"
"308.38235","2.70386266094421","-0.190987124463519","-0.141273247496425","-1.04113018597997","-2.98640915593705","0","358.875"
"311.17647","2.70386266094421","1.80901287553648","-1.14127324749643","-1.04113018597997","-2.98640915593705","0","358.875"
"313.97059","2.70386266094421","1.80901287553648","-1.14127324749643","-1.04113018597997","-0.986409155937053","0","358.875"
"316.76471","1.70386266094421","1.80901287553648","-0.141273247496425","-1.04113018597997","-0.986409155937053","0","358.875"
"319.55882","1.70386266094421","1.80901287553648","-0.141273247496425","-0.0411301859799714","0.0135908440629471","0","358.875"
"322.35294","0.703862660944206","-0.190987124463519","-2.14127324749643","-0.0411301859799714","0.0135908440629471","0","358.875"
"325.14706","0.703862660944206","-0.190987124463519","-2.14127324749643","-2.04113018597997","1.01359084406295","0","358.875"
"327.94118","3.70386266094421","-1.19098712446352","-0.141273247496425","-2.04113018597997","1.01359084406295","0","358.875"
"330.73529","3.70386266094421","-1.19098712446352","-0.141273247496425","-1.04113018597997","-0.986409155937053","0","358.875"
"333.52941","4.70386266094421","1.80901287553648","-0.141273247496425","-1.04113018597997","-0.986409155937053","0","358.875"
"336.32353","4.70386266094421","1.80901287553648","-0.141273247496425","-0.0411301859799714","-0.986409155937053","0","358.875"
"339.11765","2.70386266094421","1.80901287553648","1.85872675250357","-0.0411301859799714","-0.986409155937053","0","358.875"
"341.91176","2.70386266094421","1.80901287553648","1.85872675250357","-1.04113018597997","-1.98640915593705","0","358.875"
"344.70588","2.70386266094421","0.809012875536481","-2.14127324749643","-1.04113018597997","-1.98640915593705","0","358.875"
"347.5","2.70386266094421","0.809012875536481","-2.14127324749643","-2.04113018597997","-0.986409155937053","0","358.875"
"350.29412","0.703862660944206","-2.19098712446352","-2.14127324749643","-2.04113018597997","-0.986409155937053","0","358.875"
"353.08824","0.703862660944206","-2.19098712446352","-2.14127324749643","0.958869814020029","-1.98640915593705","0","358.875"
"355.88235","1.70386266094421","-0.190987124463519","-0.141273247496425","0.958869814020029","-1.98640915593705","0","358.875"
"358.67647","1.70386266094421","-0.190987124463519","-0.141273247496425","-0.0411301859799714","-0.986409155937053","0","358.875"
"361.47059","1.70386266094421","0.809012875536481","-0.141273247496425","-0.0411301859799714","-0.986409155937053","0","358.875"
"364.26471","1.70386266094421","0.809012875536481","-0.141273247496425","0.958869814020029","0.0135908440629471","0","358.875"
"367.05882","0.703862660944206","-0.190987124463519","0.858726752503575","0.958869814020029","0.0135908440629471","0","358.875"
"369.85294","0.703862660944206","-0.190987124463519","0.858726752503575","-0.0411301859799714","-1.98640915593705","0","358.875"
"372.64706","2.70386266094421","0.809012875536481","-2.14127324749643","-0.0411301859799714","-1.98640915593705","0","358.875"
"375.44118","2.70386266094421","0.809012875536481","-2.14127324749643","-0.0411301859799714","-1.98640915593705","0","358.875"
"378.23529","2.70386266094421","-1.19098712446352","-0.141273247496425","-0.0411301859799714","-1.98640915593705","0","358.875"
"381.02941","2.70386266094421","-1.19098712446352","-0.141273247496425","-5.04113018597997","-0.986409155937053","0","358.875"
"383.82353","0.703862660944206","-3.19098712446352","-0.141273247496425","-5.04113018597997","-0.986409155937053","0","358.875"
"386.61765","0.703862660944206","-3.19098712446352","-0.141273247496425","-2.04113018597997","-1.98640915593705","0","358.875"
"389.41176","2.70386266094421","0.809012875536481","1.85872675250357","-2.04113018597997","-1.98640915593705","0","358.875"
"392.20588","2.70386266094421","0.809012875536481","1.85872675250357","-1.04113018597997","0.0135908440629471","0","358.875"
"395","0.703862660944206","-2.19098712446352","0.858726752503575","-1.04113018597997","0.0135908440629471","0","358.875"
"403.09375","0.703862660944206","-2.19098712446352","0.858726752503575","-0.0411301859799714","-2.98640915593705","0","358.875"
"406.1875","2.70386266094421","-1.19098712446352","-2.14127324749643","-0.0411301859799714","-2.98640915593705","0","358.875"
"409.28125","2.70386266094421","-1.19098712446352","-2.14127324749643","1.95886981402003","-2.98640915593705","0","358.875"
"412.375","1.70386266094421","-0.190987124463519","-1.14127324749643","1.95886981402003","-2.98640915593705","0","358.875"
"415.46875","1.70386266094421","-0.190987124463519","-1.14127324749643","-3.04113018597997","-2.98640915593705","0","358.875"
"418.5625","1.70386266094421","-0.190987124463519","0.858726752503575","-3.04113018597997","-2.98640915593705","0","358.875"
"421.65625","1.70386266094421","-0.190987124463519","0.858726752503575","0.958869814020029","-3.98640915593705","0","358.875"
"424.75","1.70386266094421","-0.190987124463519","-0.141273247496425","0.958869814020029","-3.98640915593705","0","358.875"
"427.84375","1.70386266094421","-0.190987124463519","-0.141273247496425","-1.04113018597997","-0.986409155937053","0","358.875"
"430.9375","2.70386266094421","1.80901287553648","0.858726752503575","-1.04113018597997","-0.986409155937053","0","358.875"
"434.03125","2.70386266094421","1.80901287553648","0.858726752503575","-2.04113018597997","-0.986409155937053","0","358.875"
"437.125","3.70386266094421","-0.190987124463519","-1.14127324749643","-2.04113018597997","-0.986409155937053","0","358.875"
"440.21875","3.70386266094421","-0.190987124463519","-1.14127324749643","1.95886981402003","1.01359084406295","0","358.875"
"443.3125","3.70386266094421","0.809012875536481","0.858726752503575","1.95886981402003","1.01359084406295","0","358.875"
"446.40625","3.70386266094421","0.809012875536481","0.858726752503575","0.958869814020029","-1.98640915593705","0","358.875"
"449.5","1.70386266094421","-3.19098712446352","-1.14127324749643","0.958869814020029","-1.98640915593705","0","358.875"
"452.59375","1.70386266094421","-3.19098712446352","-1.14127324749643","0.958869814020029","-4.98640915593705","0","358.875"
"455.6875","4.70386266094421","1.80901287553648","0.858726752503575","0.958869814020029","-4.98640915593705","0","358.875"
"458.78125","4.70386266094421","1.80901287553648","0.858726752503575","-1.04113018597997","-2.98640915593705","0","358.875"
"461.875","2.70386266094421","-1.19098712446352","3.85872675250357","-1.04113018597997","-2.98640915593705","0","358.875"
"464.96875","2.70386266094421","-1.19098712446352","3.85872675250357","0.958869814020029","0.0135908440629471","0","358.875"
"468.0625","1.70386266094421","-1.19098712446352","-2.14127324749643","0.958869814020029","0.0135908440629471","0","358.875"
"471.15625","1.70386266094421","-1.19098712446352","-2.14127324749643","1.95886981402003","-1.98640915593705","0","358.875"
"474.25","1.70386266094421","0.809012875536481","-1.14127324749643","1.95886981402003","-1.98640915593705","0","358.875"
"477.34375","1.70386266094421","0.809012875536481","-1.14127324749643","2.95886981402003","0.0135908440629471","0","358.875"
"480.4375","0.703862660944206","0.809012875536481","-1.14127324749643","2.95886981402003","0.0135908440629471","0","358.875"
"483.53125","0.703862660944206","0.809012875536481","-1.14127324749643","-0.0411301859799714","2.01359084406295","0","358.875"
"486.625","1.70386266094421","-1.19098712446352","0.858726752503575","-0.0411301859799714","2.01359084406295","0","358.875"
"489.71875","1.70386266094421","-1.19098712446352","0.858726752503575","-1.04113018597997","3.01359084406295","0","358.875"
"492.8125","2.70386266094421","-0.190987124463519","1.85872675250357","-1.04113018597997","3.01359084406295","0","358.875"
"495.90625","2.70386266094421","-0.190987124463519","1.85872675250357","4.95886981402003","3.01359084406295","0","358.875"
"499","2.70386266094421","0.809012875536481","0.858726752503575","4.95886981402003","3.01359084406295","0","358.875"
"503.13333","2.70386266094421","0.809012875536481","0.858726752503575","2.95886981402003","4.01359084406295","0","358.875"
"506.26667","1.70386266094421","0.809012875536481","1.85872675250357","2.95886981402003","4.01359084406295","0","358.875"
"509.4","1.70386266094421","0.809012875536481","1.85872675250357","1.95886981402003","-0.986409155937053","0","358.875"
"512.53333","2.70386266094421","0.809012875536481","-0.141273247496425","1.95886981402003","-0.986409155937053","0","358.875"
"515.66667","2.70386266094421","0.809012875536481","-0.141273247496425","2.95886981402003","0.0135908440629471","0","358.875"
"518.8","3.70386266094421","-0.190987124463519","0.858726752503575","2.95886981402003","0.0135908440629471","0","358.875"
"521.93333","3.70386266094421","-0.190987124463519","0.858726752503575","0.958869814020029","1.01359084406295","0","358.875"
"525.06667","0.703862660944206","-0.190987124463519","0.858726752503575","0.958869814020029","1.01359084406295","0","358.875"
"528.2","0.703862660944206","-0.190987124463519","0.858726752503575","-1.04113018597997","0.0135908440629471","0","358.875"
"531.33333","0.703862660944206","1.80901287553648","-0.141273247496425","-1.04113018597997","0.0135908440629471","0","358.875"
"534.46667","0.703862660944206","1.80901287553648","-0.141273247496425","2.95886981402003","-0.986409155937053","0","358.875"
"537.6","1.70386266094421","1.80901287553648","-0.141273247496425","2.95886981402003","-0.986409155937053","0","358.875"
"540.73333","1.70386266094421","1.80901287553648","-0.141273247496425","0.958869814020029","3.01359084406295","0","358.875"
"543.86667","2.70386266094421","0.809012875536481","1.85872675250357","0.958869814020029","3.01359084406295","0","358.875"
"547","2.70386266094421","0.809012875536481","1.85872675250357","0.958869814020029","-1.98640915593705","0","358.875"
"550.13333","2.70386266094421","-0.190987124463519","1.85872675250357","0.958869814020029","-1.98640915593705","0","358.875"
"553.26667","2.70386266094421","-0.190987124463519","1.85872675250357","-1.04113018597997","4.01359084406295","0","358.875"
"556.4","-0.296137339055794","-0.190987124463519","-1.14127324749643","-1.04113018597997","4.01359084406295","0","358.875"
"559.53333","-0.296137339055794","-0.190987124463519","-1.14127324749643","-0.0411301859799714","2.01359084406295","0","358.875"
"562.66667","1.70386266094421","-2.19098712446352","-0.141273247496425","-0.0411301859799714","2.01359084406295","0","358.875"
"565.8","1.70386266094421","-2.19098712446352","-0.141273247496425","0.958869814020029","-1.98640915593705","0","358.875"
"568.93333","1.70386266094421","-0.190987124463519","-2.14127324749643","0.958869814020029","-1.98640915593705","0","358.875"
"572.06667","1.70386266094421","-0.190987124463519","-2.14127324749643","0.958869814020029","0.0135908440629471","0","358.875"
"575.2","-0.296137339055794","1.80901287553648","-2.14127324749643","0.958869814020029","0.0135908440629471","0","358.875"
"578.33333","-0.296137339055794","1.80901287553648","-2.14127324749643","4.95886981402003","1.01359084406295","0","358.875"
"581.46667","1.70386266094421","0.809012875536481","-0.141273247496425","4.95886981402003","1.01359084406295","0","358.875"
"584.6","1.70386266094421","0.809012875536481","-0.141273247496425","2.95886981402003","5.01359084406295","0","358.875"
"587.73333","0.703862660944206","-2.19098712446352","-1.14127324749643","2.95886981402003","5.01359084406295","0","358.875"
"590.86667","0.703862660944206","-2.19098712446352","-1.14127324749643","3.95886981402003","1.01359084406295","0","358.875"
"594","2.70386266094421","-2.19098712446352","-3.14127324749643","3.95886981402003","1.01359084406295","0","358.875"
"600","2.70386266094421","-2.19098712446352","-3.14127324749643","0.958869814020029","0.0135908440629471","0","358.875"
"600","2.70386266094421","-0.190987124463519","-1.14127324749643","0.958869814020029","0.0135908440629471","0","358.875"
"603.3","2.70386266094421","-0.190987124463519","-1.14127324749643","1.95886981402003","-1.98640915593705","0","358.875"
"606.6","0.703862660944206","0.809012875536481","-2.14127324749643","1.95886981402003","-1.98640915593705","0","358.875"
"609.9","0.703862660944206","0.809012875536481","-2.14127324749643","1.95886981402003","1.01359084406295","0","358.875"
"613.2","3.70386266094421","-1.19098712446352","2.85872675250357","1.95886981402003","1.01359084406295","0","358.875"
"616.5","3.70386266094421","-1.19098712446352","2.85872675250357","-1.04113018597997","3.01359084406295","0","358.875"
"619.8","0.703862660944206","-0.190987124463519","3.85872675250357","-1.04113018597997","3.01359084406295","0","358.875"
"623.1","0.703862660944206","-0.190987124463519","3.85872675250357","-0.0411301859799714","1.01359084406295","0","358.875"
"626.4","2.70386266094421","-0.190987124463519","-2.14127324749643","-0.0411301859799714","1.01359084406295","0","358.875"
"629.7","2.70386266094421","-0.190987124463519","-2.14127324749643","-0.0411301859799714","-0.986409155937053","0","358.875"
"633","2.70386266094421","-1.19098712446352","-1.14127324749643","-0.0411301859799714","-0.986409155937053","0","358.875"
"636.3","2.70386266094421","-1.19098712446352","-1.14127324749643","0.958869814020029","0.0135908440629471","0","358.875"
"639.6","2.70386266094421","1.80901287553648","-0.141273247496425","0.958869814020029","0.0135908440629471","0","358.875"
"642.9","2.70386266094421","1.80901287553648","-0.141273247496425","2.95886981402003","0.0135908440629471","0","358.875"
"646.2","3.70386266094421","-0.190987124463519","-0.141273247496425","2.95886981402003","0.0135908440629471","0","358.875"
"649.5","3.70386266094421","-0.190987124463519","-0.141273247496425","1.95886981402003","0.0135908440629471","0","358.875"
"652.8","3.70386266094421","-0.190987124463519","0.858726752503575","1.95886981402003","0.0135908440629471","0","358.875"
"656.1","3.70386266094421","-0.190987124463519","0.858726752503575","-1.04113018597997","-0.986409155937053","0","358.875"
"659.4","1.70386266094421","0.809012875536481","-0.141273247496425","-1.04113018597997","-0.986409155937053","0","358.875"
"662.7","1.70386266094421","0.809012875536481","-0.141273247496425","0.958869814020029","0.0135908440629471","0","358.875"
"666","2.70386266094421","-0.190987124463519","1.85872675250357","0.958869814020029","0.0135908440629471","0","358.875"
"669.3","2.70386266094421","-0.190987124463519","1.85872675250357","2.95886981402003","0.0135908440629471","0","358.875"
"672.6","1.70386266094421","-1.19098712446352","-1.14127324749643","2.95886981402003","0.0135908440629471","0","358.875"
"675.9","1.70386266094421","-1.19098712446352","-1.14127324749643","-1.04113018597997","2.01359084406295","0","358.875"
"679.2","1.70386266094421","-0.190987124463519","1.85872675250357","-1.04113018597997","2.01359084406295","0","358.875"
"682.5","1.70386266094421","-0.190987124463519","1.85872675250357","1.95886981402003","-0.986409155937053","0","358.875"
"685.8","2.70386266094421","0.809012875536481","0.858726752503575","1.95886981402003","-0.986409155937053","0","358.875"
"689.1","2.70386266094421","0.809012875536481","0.858726752503575","-0.0411301859799714","1.01359084406295","0","358.875"
"692.4","3.70386266094421","0.809012875536481","-1.14127324749643","-0.0411301859799714","1.01359084406295","0","358.875"
"695.7","3.70386266094421","0.809012875536481","-1.14127324749643","0.958869814020029","1.01359084406295","0","358.875"
"699","2.70386266094421","-2.19098712446352","1.85872675250357","0.958869814020029","1.01359084406295","0","358.875"
"703.32143","2.70386266094421","-2.19098712446352","1.85872675250357","-0.0411301859799714","3.01359084406295","0","358.875"
"706.64286","3.70386266094421","-1.19098712446352","0.858726752503575","-0.0411301859799714","3.01359084406295","0","358.875"
"709.96429","3.70386266094421","-1.19098712446352","0.858726752503575","-0.0411301859799714","2.01359084406295","0","358.875"
"713.28571","3.70386266094421","1.80901287553648","-1.14127324749643","-0.0411301859799714","2.01359084406295","0","358.875"
"716.60714","3.70386266094421","1.80901287553648","-1.14127324749643","-0.0411301859799714","1.01359084406295","0","358.875"
"719.92857","3.70386266094421","-0.190987124463519","0.858726752503575","-0.0411301859799714","1.01359084406295","0","358.875"
"723.25","3.70386266094421","-0.190987124463519","0.858726752503575","1.95886981402003","-1.98640915593705","0","358.875"
"726.57143","4.70386266094421","-1.19098712446352","-1.14127324749643","1.95886981402003","-1.98640915593705","0","358.875"
"729.89286","4.70386266094421","-1.19098712446352","-1.14127324749643","2.95886981402003","2.01359084406295","0","358.875"
"733.21429","2.70386266094421","-0.190987124463519","-1.14127324749643","2.95886981402003","2.01359084406295","0","358.875"
"736.53571","2.70386266094421","-0.190987124463519","-1.14127324749643","-2.04113018597997","4.01359084406295","0","358.875"
"739.85714","2.70386266094421","-1.19098712446352","3.85872675250357","-2.04113018597997","4.01359084406295","0","358.875"
"743.17857","2.70386266094421","-1.19098712446352","3.85872675250357","1.95886981402003","2.01359084406295","0","358.875"
"746.5","1.70386266094421","-0.190987124463519","-0.141273247496425","1.95886981402003","2.01359084406295","0","358.875"
"749.82143","1.70386266094421","-0.190987124463519","-0.141273247496425","-0.0411301859799714","-0.986409155937053","0","358.875"
"753.14286","1.70386266094421","-1.19098712446352","0.858726752503575","-0.0411301859799714","-0.986409155937053","0","358.875"
"756.46429","1.70386266094421","-1.19098712446352","0.858726752503575","-0.0411301859799714","1.01359084406295","0","358.875"
"759.78571","1.70386266094421","0.809012875536481","-3.14127324749643","-0.0411301859799714","1.01359084406295","0","358.875"
"763.10714","1.70386266094421","0.809012875536481","-3.14127324749643","1.95886981402003","0.0135908440629471","0","358.875"
"766.42857","3.70386266094421","-1.19098712446352","-0.141273247496425","1.95886981402003","0.0135908440629471","0","358.875"
"769.75","3.70386266094421","-1.19098712446352","-0.141273247496425","4.95886981402003","0.0135908440629471","0","358.875"
"773.07143","4.70386266094421","-1.19098712446352","-0.141273247496425","4.95886981402003","0.0135908440629471","0","358.875"
"776.39286","4.70386266094421","-1.19098712446352","-0.141273247496425","-1.04113018597997","2.01359084406295","0","358.875"
"779.71429","3.70386266094421","-0.190987124463519","-1.14127324749643","-1.04113018597997","2.01359084406295","0","358.875"
"783.03571","3.70386266094421","-0.190987124463519","-1.14127324749643","0.958869814020029","2.01359084406295","0","358.875"
"786.35714","2.70386266094421","0.809012875536481","-0.141273247496425","0.958869814020029","2.01359084406295","0","358.875"
"789.67857","2.70386266094421","0.809012875536481","-0.141273247496425","0.958869814020029","-2.98640915593705","0","358.875"
"793","2.70386266094421","0.809012875536481","-0.141273247496425","0.958869814020029","-2.98640915593705","0","358.875"
"800","2.70386266094421","0.809012875536481","-0.141273247496425","-2.04113018597997","2.01359084406295","0","358.875"
"800","3.70386266094421","-1.19098712446352","-1.14127324749643","-2.04113018597997","2.01359084406295","0","358.875"
"803.69231","3.70386266094421","-1.19098712446352","-1.14127324749643","-3.04113018597997","1.01359084406295","0","358.875"
"807.38462","0.703862660944206","0.809012875536481","0.858726752503575","-3.04113018597997","1.01359084406295","0","358.875"
"811.07692","0.703862660944206","0.809012875536481","0.858726752503575","-2.04113018597997","-0.986409155937053","0","358.875"
"814.76923","3.70386266094421","1.80901287553648","0.858726752503575","-2.04113018597997","-0.986409155937053","0","358.875"
"818.46154","3.70386266094421","1.80901287553648","0.858726752503575","-1.04113018597997","2.01359084406295","0","358.875"
"822.15385","0.703862660944206","1.80901287553648","0.858726752503575","-1.04113018597997","2.01359084406295","0","358.875"
"825.84615","0.703862660944206","1.80901287553648","0.858726752503575","-1.04113018597997","5.01359084406295","0","358.875"
"829.53846","2.70386266094421","-0.190987124463519","-2.14127324749643","-1.04113018597997","5.01359084406295","0","358.875"
"833.23077","2.70386266094421","-0.190987124463519","-2.14127324749643","1.95886981402003","1.01359084406295","0","358.875"
"836.92308","1.70386266094421","-0.190987124463519","0.858726752503575","1.95886981402003","1.01359084406295","0","358.875"
"840.61538","1.70386266094421","-0.190987124463519","0.858726752503575","0.958869814020029","2.01359084406295","0","358.875"
"844.30769","2.70386266094421","1.80901287553648","1.85872675250357","0.958869814020029","2.01359084406295","0","358.875"
"848","2.70386266094421","1.80901287553648","1.85872675250357","0.958869814020029","-1.98640915593705","0","358.875"
"851.69231","1.70386266094421","0.809012875536481","0.858726752503575","0.958869814020029","-1.98640915593705","0","358.875"
"855.38462","1.70386266094421","0.809012875536481","0.858726752503575","-2.04113018597997","0.0135908440629471","0","358.875"
"859.07692","3.70386266094421","-2.19098712446352","-0.141273247496425","-2.04113018597997","0.0135908440629471","0","358.875"
"862.76923","3.70386266094421","-2.19098712446352","-0.141273247496425","-4.04113018597997","2.01359084406295","0","358.875"
"866.46154","1.70386266094421","-0.190987124463519","-2.14127324749643","-4.04113018597997","2.01359084406295","0","358.875"
"870.15385","1.70386266094421","-0.190987124463519","-2.14127324749643","-4.04113018597997","0.0135908440629471","0","358.875"
"873.84615","-0.296137339055794","-0.190987124463519","-2.14127324749643","-4.04113018597997","0.0135908440629471","0","358.875"
"877.53846","-0.296137339055794","-0.190987124463519","-2.14127324749643","-2.04113018597997","2.01359084406295","0","358.875"
"881.23077","3.70386266094421","-1.19098712446352","-0.141273247496425","-2.04113018597997","2.01359084406295","0","358.875"
"884.92308","3.70386266094421","-1.19098712446352","-0.141273247496425","-2.04113018597997","1.01359084406295","0","358.875"
"888.61538","2.70386266094421","-0.190987124463519","0.858726752503575","-2.04113018597997","1.01359084406295","0","358.875"
"892.30769","2.70386266094421","-0.190987124463519","0.858726752503575","-1.04113018597997","-0.986409155937053","0","358.875"
"896","2.70386266094421","-0.190987124463519","0.858726752503575","-1.04113018597997","-0.986409155937053","0","358.875"
"902.85294","2.70386266094421","-0.190987124463519","0.858726752503575","-1.04113018597997","3.01359084406295","0","358.875"
"905.70588","2.70386266094421","-0.190987124463519","-0.141273247496425","-1.04113018597997","3.01359084406295","0","358.875"
"908.55882","2.70386266094421","-0.190987124463519","-0.141273247496425","1.95886981402003","2.01359084406295","0","358.875"
"911.41176","1.70386266094421","-0.190987124463519","1.85872675250357","1.95886981402003","2.01359084406295","0","358.875"
"914.26471","1.70386266094421","-0.190987124463519","1.85872675250357","-0.0411301859799714","-1.98640915593705","0","358.875"
"917.11765","2.70386266094421","1.80901287553648","1.85872675250357","-0.0411301859799714","-1.98640915593705","0","358.875"
"919.97059","2.70386266094421","1.80901287553648","1.85872675250357","-0.0411301859799714","-0.986409155937053","0","358.875"
"922.82353","0.703862660944206","0.809012875536481","-0.141273247496425","-0.0411301859799714","-0.986409155937053","0","358.875"
"925.67647","0.703862660944206","0.809012875536481","-0.141273247496425","1.95886981402003","1.01359084406295","0","358.875"
"928.52941","0.703862660944206","0.809012875536481","-1.14127324749643","1.95886981402003","1.01359084406295","0","358.875"
"931.38235","0.703862660944206","0.809012875536481","-1.14127324749643","1.95886981402003","3.01359084406295","0","358.875"
"934.23529","2.70386266094421","0.809012875536481","-3.14127324749643","1.95886981402003","3.01359084406295","0","358.875"
"937.08824","2.70386266094421","0.809012875536481","-3.14127324749643","-0.0411301859799714","0.0135908440629471","0","358.875"
"939.94118","0.703862660944206","-1.19098712446352","-0.141273247496425","-0.0411301859799714","0.0135908440629471","0","358.875"
"942.79412","0.703862660944206","-1.19098712446352","-0.141273247496425","1.95886981402003","-2.98640915593705","0","358.875"
"945.64706","2.70386266094421","-1.19098712446352","1.85872675250357","1.95886981402003","-2.98640915593705","0","358.875"
"948.5","2.70386266094421","-1.19098712446352","1.85872675250357","-2.04113018597997","1.01359084406295","0","358.875"
"951.35294","1.70386266094421","0.809012875536481","-0.141273247496425","-2.04113018597997","1.01359084406295","0","358.875"
"954.20588","1.70386266094421","0.809012875536481","-0.141273247496425","-1.04113018597997","0.0135908440629471","0","358.875"
"957.05882","0.703862660944206","0.809012875536481","0.858726752503575","-1.04113018597997","0.0135908440629471","0","358.875"
"959.91176","0.703862660944206","0.809012875536481","0.858726752503575","-0.0411301859799714","0.0135908440629471","0","358.875"
"962.76471","1.70386266094421","-0.190987124463519","0.858726752503575","-0.0411301859799714","0.0135908440629471","0","358.875"
"965.61765","1.70386266094421","-0.190987124463519","0.858726752503575","1.95886981402003","-0.986409155937053","0","358.875"
"968.47059","0.703862660944206","-1.19098712446352","-3.14127324749643","1.95886981402003","-0.986409155937053","0","358.875"
"971.32353","0.703862660944206","-1.19098712446352","-3.14127324749643","-0.0411301859799714","0.0135908440629471","0","358.875"
"974.17647","1.70386266094421","-1.19098712446352","-1.14127324749643","-0.0411301859799714","0.0135908440629471","0","358.875"
"977.02941","1.70386266094421","-1.19098712446352","-1.14127324749643","-0.0411301859799714","1.01359084406295","0","358.875"
"979.88235","2.70386266094421","-0.190987124463519","3.85872675250357","-0.0411301859799714","1.01359084406295","0","358.875"
"982.73529","2.70386266094421","-0.190987124463519","3.85872675250357","-4.04113018597997","3.01359084406295","0","358.875"
"985.58824","2.70386266094421","-2.19098712446352","0.858726752503575","-4.04113018597997","3.01359084406295","0","358.875"
"988.44118","2.70386266094421","-2.19098712446352","0.858726752503575","1.95886981402003","2.01359084406295","0","358.875"
"991.29412","4.70386266094421","-1.19098712446352","-2.14127324749643","1.95886981402003","2.01359084406295","0","358.875"
"994.14706","4.70386266094421","-1.19098712446352","-2.14127324749643","2.95886981402003","-0.986409155937053","0","358.875"
"997","1.70386266094421","-0.190987124463519","-0.141273247496425","2.95886981402003","-0.986409155937053","0","358.875"
"1003.42857","1.70386266094421","-0.190987124463519","-0.141273247496425","0.958869814020029","1.01359084406295","0","358.875"
"1006.85714","0.703862660944206","0.809012875536481","0.858726752503575","0.958869814020029","1.01359084406295","0","358.875"
"1010.28571","0.703862660944206","0.809012875536481","0.858726752503575","0.958869814020029","1.01359084406295","0","358.875"
"1013.71429","0.703862660944206","-0.190987124463519","-2.14127324749643","0.958869814020029","1.01359084406295","0","358.875"
"1017.14286","0.703862660944206","-0.190987124463519","-2.14127324749643","-1.04113018597997","1.01359084406295","0","358.875"
"1020.57143","3.70386266094421","0.809012875536481","1.85872675250357","-1.04113018597997","1.01359084406295","0","358.875"
"1024","3.70386266094421","0.809012875536481","1.85872675250357","-1.04113018597997","1.01359084406295","0","358.875"
"1027.42857","1.70386266094421","-0.190987124463519","-0.141273247496425","-1.04113018597997","1.01359084406295","0","358.875"
"1030.85714","1.70386266094421","-0.190987124463519","-0.141273247496425","0.958869814020029","1.01359084406295","0","358.875"
"1034.28571","1.70386266094421","-0.190987124463519","-4.14127324749643","0.958869814020029","1.01359084406295","0","358.875"
"1037.71429","1.70386266094421","-0.190987124463519","-4.14127324749643","0.958869814020029","-0.986409155937053","0","358.875"
"1041.14286","3.70386266094421","-1.19098712446352","-2.14127324749643","0.958869814020029","-0.986409155937053","0","358.875"
"1044.57143","3.70386266094421","-1.19098712446352","-2.14127324749643","5.95886981402003","-0.986409155937053","0","358.875"
"1048","1.70386266094421","-2.19098712446352","-0.141273247496425","5.95886981402003","-0.986409155937053","0","358.875"
"1051.42857","1.70386266094421","-2.19098712446352","-0.141273247496425","1.95886981402003","0.0135908440629471","0","358.875"
"1054.85714","1.70386266094421","2.80901287553648","-2.14127324749643","1.95886981402003","0.0135908440629471","0","358.875"
"1058.28571","1.70386266094421","2.80901287553648","-2.14127324749643","-1.04113018597997","3.01359084406295","0","358.875"
"1061.71429","2.70386266094421","-1.19098712446352","-4.14127324749643","-1.04113018597997","3.01359084406295","0","358.875"
"1065.14286","2.70386266094421","-1.19098712446352","-4.14127324749643","-0.0411301859799714","1.01359084406295","0","358.875"
"1068.57143","3.70386266094421","-3.19098712446352","0.858726752503575","-0.0411301859799714","1.01359084406295","0","358.875"
"1072","3.70386266094421","-3.19098712446352","0.858726752503575","-4.04113018597997","2.01359084406295","0","358.875"
"1075.42857","2.70386266094421","-0.190987124463519","0.858726752503575","-4.04113018597997","2.01359084406295","0","358.875"
"1078.85714","2.70386266094421","-0.190987124463519","0.858726752503575","-0.0411301859799714","-0.986409155937053","0","358.875"
"1082.28571","2.70386266094421","-1.19098712446352","4.85872675250357","-0.0411301859799714","-0.986409155937053","0","358.875"
"1085.71429","2.70386266094421","-1.19098712446352","4.85872675250357","1.95886981402003","0.0135908440629471","0","358.875"
"1089.14286","1.70386266094421","-0.190987124463519","1.85872675250357","1.95886981402003","0.0135908440629471","0","358.875"
"1092.57143","1.70386266094421","-0.190987124463519","1.85872675250357","-0.0411301859799714","-0.986409155937053","0","358.875"
"1096","5.70386266094421","2.80901287553648","-1.14127324749643","-0.0411301859799714","-0.986409155937053","0","358.875"
"1102.88235","5.70386266094421","2.80901287553648","-1.14127324749643","2.95886981402003","-2.98640915593705","0","358.875"
"1105.76471","2.70386266094421","-1.19098712446352","-1.14127324749643","2.95886981402003","-2.98640915593705","0","358.875"
"1108.64706","2.70386266094421","-1.19098712446352","-1.14127324749643","0.958869814020029","0.0135908440629471","0","358.875"
"1111.52941","4.70386266094421","3.80901287553648","0.858726752503575","0.958869814020029","0.0135908440629471","0","358.875"
"1114.41176","4.70386266094421","3.80901287553648","0.858726752503575","-2.04113018597997","4.01359084406295","0","358.875"
"1117.29412","2.70386266094421","3.80901287553648","0.858726752503575","-2.04113018597997","4.01359084406295","0","358.875"
"1120.17647","2.70386266094421","3.80901287553648","0.858726752503575","-2.04113018597997","1.01359084406295","0","358.875"
"1123.05882","1.70386266094421","-3.19098712446352","1.85872675250357","-2.04113018597997","1.01359084406295","0","358.875"
"1125.94118","1.70386266094421","-3.19098712446352","1.85872675250357","0.958869814020029","1.01359084406295","0","358.875"
"1128.82353","4.70386266094421","2.80901287553648","-2.14127324749643","0.958869814020029","1.01359084406295","0","358.875"
"1131.70588","4.70386266094421","2.80901287553648","-2.14127324749643","0.958869814020029","-0.986409155937053","0","358.875"
"1134.58824","2.70386266094421","-2.19098712446352","0.858726752503575","0.958869814020029","-0.986409155937053","0","358.875"
"1137.47059","2.70386266094421","-2.19098712446352","0.858726752503575","0.958869814020029","0.0135908440629471","0","358.875"
"1140.35294","1.70386266094421","-2.19098712446352","-0.141273247496425","0.958869814020029","0.0135908440629471","0","358.875"
"1143.23529","1.70386266094421","-2.19098712446352","-0.141273247496425","3.95886981402003","-1.98640915593705","0","358.875"
"1146.11765","0.703862660944206","2.80901287553648","-1.14127324749643","3.95886981402003","-1.98640915593705","0","358.875"
"1149","0.703862660944206","2.80901287553648","-1.14127324749643","0.958869814020029","-1.98640915593705","0","358.875"
"1151.88235","3.70386266094421","-1.19098712446352","0.858726752503575","0.958869814020029","-1.98640915593705","0","358.875"
"1154.76471","3.70386266094421","-1.19098712446352","0.858726752503575","1.95886981402003","-0.986409155937053","0","358.875"
"1157.64706","1.70386266094421","-1.19098712446352","1.85872675250357","1.95886981402003","-0.986409155937053","0","358.875"
"1160.52941","1.70386266094421","-1.19098712446352","1.85872675250357","0.958869814020029","-0.986409155937053","0","358.875"
"1163.41176","0.703862660944206","-0.190987124463519","-0.141273247496425","0.958869814020029","-0.986409155937053","0","358.875"
"1166.29412","0.703862660944206","-0.190987124463519","-0.141273247496425","-0.0411301859799714","1.01359084406295","0","358.875"
"1169.17647","0.703862660944206","-0.190987124463519","2.85872675250357","-0.0411301859799714","1.01359084406295","0","358.875"
"1172.05882","0.703862660944206","-0.190987124463519","2.85872675250357","2.95886981402003","-1.98640915593705","0","358.875"
"1174.94118","1.70386266094421","-0.190987124463519","-2.14127324749643","2.95886981402003","-1.98640915593705","0","358.875"
"1177.82353","1.70386266094421","-0.190987124463519","-2.14127324749643","0.958869814020029","-1.98640915593705","0","358.875"
"1180.70588","-0.296137339055794","-1.19098712446352","-0.141273247496425","0.958869814020029","-1.98640915593705","0","358.875"
"1183.58824","-0.296137339055794","-1.19098712446352","-0.141273247496425","0.958869814020029","0.0135908440629471","0","358.875"
"1186.47059","2.70386266094421","-1.19098712446352","-1.14127324749643","0.958869814020029","0.0135908440629471","0","358.875"
"1189.35294","2.70386266094421","-1.19098712446352","-1.14127324749643","3.95886981402003","-1.98640915593705","0","358.875"
"1192.23529","1.70386266094421","0.809012875536481","-1.14127324749643","3.95886981402003","-1.98640915593705","0","358.875"
"1195.11765","1.70386266094421","0.809012875536481","-1.14127324749643","0.958869814020029","0.0135908440629471","0","358.875"
"1198","-0.296137339055794","1.80901287553648","-1.14127324749643","0.958869814020029","0.0135908440629471","0","358.875"
"1203.26667","-0.296137339055794","1.80901287553648","-1.14127324749643","-1.04113018597997","0.0135908440629471","0","358.875"
"1206.53333","3.70386266094421","-1.19098712446352","2.85872675250357","-1.04113018597997","0.0135908440629471","0","358.875"
"1209.8","3.70386266094421","-1.19098712446352","2.85872675250357","-3.04113018597997","-0.986409155937053","0","358.875"
"1213.06667","0.703862660944206","-1.19098712446352","1.85872675250357","-3.04113018597997","-0.986409155937053","0","358.875"
"1216.33333","0.703862660944206","-1.19098712446352","1.85872675250357","-2.04113018597997","-0.986409155937053","0","358.875"
"1219.6","1.70386266094421","1.80901287553648","-2.14127324749643","-2.04113018597997","-0.986409155937053","0","358.875"
"1222.86667","1.70386266094421","1.80901287553648","-2.14127324749643","-1.04113018597997","-2.98640915593705","0","358.875"
"1226.13333","0.703862660944206","0.809012875536481","-2.14127324749643","-1.04113018597997","-2.98640915593705","0","358.875"
"1229.4","0.703862660944206","0.809012875536481","-2.14127324749643","-0.0411301859799714","-0.986409155937053","0","358.875"
"1232.66667","2.70386266094421","-1.19098712446352","0.858726752503575","-0.0411301859799714","-0.986409155937053","0","358.875"
"1235.93333","2.70386266094421","-1.19098712446352","0.858726752503575","-2.04113018597997","-0.986409155937053","0","358.875"
"1239.2","1.70386266094421","-1.19098712446352","-0.141273247496425","-2.04113018597997","-0.986409155937053","0","358.875"
"1242.46667","1.70386266094421","-1.19098712446352","-0.141273247496425","-2.04113018597997","-0.986409155937053","0","358.875"
"1245.73333","2.70386266094421","0.809012875536481","0.858726752503575","-2.04113018597997","-0.986409155937053","0","358.875"
"1249","2.70386266094421","0.809012875536481","0.858726752503575","0.958869814020029","-1.98640915593705","0","358.875"
"1252.26667","1.70386266094421","-0.190987124463519","-0.141273247496425","0.958869814020029","-1.98640915593705","0","358.875"
"1255.53333","1.70386266094421","-0.190987124463519","-0.141273247496425","0.958869814020029","-1.98640915593705","0","358.875"
"1258.8","1.70386266094421","-1.19098712446352","-0.141273247496425","0.958869814020029","-1.98640915593705","0","358.875"
"1262.06667","1.70386266094421","-1.19098712446352","-0.141273247496425","-4.04113018597997","2.01359084406295","0","358.875"
"1265.33333","1.70386266094421","1.80901287553648","-0.141273247496425","-4.04113018597997","2.01359084406295","0","358.875"
"1268.6","1.70386266094421","1.80901287553648","-0.141273247496425","-4.04113018597997","-1.98640915593705","0","358.875"
"1271.86667","0.703862660944206","-0.190987124463519","0.858726752503575","-4.04113018597997","-1.98640915593705","0","358.875"
"1275.13333","0.703862660944206","-0.190987124463519","0.858726752503575","-2.04113018597997","0.0135908440629471","0","358.875"
"1278.4","3.70386266094421","0.809012875536481","0.858726752503575","-2.04113018597997","0.0135908440629471","0","358.875"
"1281.66667","3.70386266094421","0.809012875536481","0.858726752503575","-0.0411301859799714","-1.98640915593705","0","358.875"
"1284.93333","1.70386266094421","-1.19098712446352","-1.14127324749643","-0.0411301859799714","-1.98640915593705","0","358.875"
"1288.2","1.70386266094421","-1.19098712446352","-1.14127324749643","1.95886981402003","0.0135908440629471","0","358.875"
"1291.46667","1.70386266094421","1.80901287553648","-0.141273247496425","1.95886981402003","0.0135908440629471","0","358.875"
"1294.73333","1.70386266094421","1.80901287553648","-0.141273247496425","-1.04113018597997","-1.98640915593705","0","358.875"
"1298","1.70386266094421","0.809012875536481","1.85872675250357","-1.04113018597997","-1.98640915593705","0","358.875"
"1303.13333","1.70386266094421","0.809012875536481","1.85872675250357","-1.04113018597997","0.0135908440629471","0","358.875"
"1306.26667","0.703862660944206","-1.19098712446352","2.85872675250357","-1.04113018597997","0.0135908440629471","0","358.875"
"1309.4","0.703862660944206","-1.19098712446352","2.85872675250357","-1.04113018597997","0.0135908440629471","0","358.875"
"1312.53333","-0.296137339055794","-1.19098712446352","0.858726752503575","-1.04113018597997","0.0135908440629471","0","358.875"
"1315.66667","-0.296137339055794","-1.19098712446352","0.858726752503575","0.958869814020029","2.01359084406295","0","358.875"
"1318.8","4.70386266094421","-2.19098712446352","1.85872675250357","0.958869814020029","2.01359084406295","0","358.875"
"1321.93333","4.70386266094421","-2.19098712446352","1.85872675250357","-0.0411301859799714","0.0135908440629471","0","358.875"
"1325.06667","1.70386266094421","0.809012875536481","0.858726752503575","-0.0411301859799714","0.0135908440629471","0","358.875"
"1328.2","1.70386266094421","0.809012875536481","0.858726752503575","-1.04113018597997","0.0135908440629471","0","358.875"
"1331.33333","1.70386266094421","1.80901287553648","-1.14127324749643","-1.04113018597997","0.0135908440629471","0","358.875"
"1334.46667","1.70386266094421","1.80901287553648","-1.14127324749643","-3.04113018597997","-1.98640915593705","0","358.875"
"1337.6","2.70386266094421","-1.19098712446352","-0.141273247496425","-3.04113018597997","-1.98640915593705","0","358.875"
"1340.73333","2.70386266094421","-1.19098712446352","-0.141273247496425","0.958869814020029","0.0135908440629471","0","358.875"
"1343.86667","1.70386266094421","-1.19098712446352","-1.14127324749643","0.958869814020029","0.0135908440629471","0","358.875"
"1347","1.70386266094421","-1.19098712446352","-1.14127324749643","0.958869814020029","1.01359084406295","0","358.875"
"1350.13333","1.70386266094421","1.80901287553648","-3.14127324749643","0.958869814020029","1.01359084406295","0","358.875"
"1353.26667","1.70386266094421","1.80901287553648","-3.14127324749643","-2.04113018597997","-2.98640915593705","0","358.875"
"1356.4","1.70386266094421","2.80901287553648","-3.14127324749643","-2.04113018597997","-2.98640915593705","0","358.875"
"1359.53333","1.70386266094421","2.80901287553648","-3.14127324749643","-1.04113018597997","-1.98640915593705","0","358.875"
"1362.66667","4.70386266094421","-1.19098712446352","2.85872675250357","-1.04113018597997","-1.98640915593705","0","358.875"
"1365.8","4.70386266094421","-1.19098712446352","2.85872675250357","-4.04113018597997","-0.986409155937053","0","358.875"
"1368.93333","4.70386266094421","-1.19098712446352","2.85872675250357","-4.04113018597997","-0.986409155937053","0","358.875"
"1372.06667","4.70386266094421","-1.19098712446352","2.85872675250357","-4.04113018597997","-0.986409155937053","0","358.875"
"1375.2","3.70386266094421","-1.19098712446352","0.858726752503575","-4.04113018597997","-0.986409155937053","0","358.875"
"1378.33333","3.70386266094421","-1.19098712446352","0.858726752503575","0.958869814020029","-0.986409155937053","0","358.875"
"1381.46667","3.70386266094421","-0.190987124463519","0.858726752503575","0.958869814020029","-0.986409155937053","0","358.875"
"1384.6","3.70386266094421","-0.190987124463519","0.858726752503575","0.958869814020029","-1.98640915593705","0","358.875"
"1387.73333","1.70386266094421","-2.19098712446352","0.858726752503575","0.958869814020029","-1.98640915593705","0","358.875"
"1390.86667","1.70386266094421","-2.19098712446352","0.858726752503575","-0.0411301859799714","0.0135908440629471","0","358.875"
"1394","1.70386266094421","1.80901287553648","1.85872675250357","-0.0411301859799714","0.0135908440629471","0","358.875"
"1403.13333","1.70386266094421","1.80901287553648","1.85872675250357","-0.0411301859799714","0.0135908440629471","0","358.875"
"1406.26667","0.703862660944206","1.80901287553648","-0.141273247496425","-0.0411301859799714","0.0135908440629471","0","358.875"
"1409.4","0.703862660944206","1.80901287553648","-0.141273247496425","0.958869814020029","-2.98640915593705","0","358.875"
"1412.53333","0.703862660944206","-1.19098712446352","2.85872675250357","0.958869814020029","-2.98640915593705","0","358.875"
"1415.66667","0.703862660944206","-1.19098712446352","2.85872675250357","1.95886981402003","-1.98640915593705","0","358.875"
"1418.8","1.70386266094421","2.80901287553648","-3.14127324749643","1.95886981402003","-1.98640915593705","0","358.875"
"1421.93333","1.70386266094421","2.80901287553648","-3.14127324749643","-0.0411301859799714","-0.986409155937053","0","358.875"
"1425.06667","-0.296137339055794","-0.190987124463519","-0.141273247496425","-0.0411301859799714","-0.986409155937053","0","358.875"
"1428.2","-0.296137339055794","-0.190987124463519","-0.141273247496425","-0.0411301859799714","1.01359084406295","0","358.875"
"1431.33333","1.70386266094421","-0.190987124463519","4.85872675250357","-0.0411301859799714","1.01359084406295","0","358.875"
"1434.46667","1.70386266094421","-0.190987124463519","4.85872675250357","-3.04113018597997","-3.98640915593705","0","358.875"
"1437.6","1.70386266094421","-0.190987124463519","4.85872675250357","-3.04113018597997","-3.98640915593705","0","358.875"
"1440.73333","1.70386266094421","-0.190987124463519","4.85872675250357","-3.04113018597997","-3.98640915593705","0","358.875"
"1443.86667","1.70386266094421","-0.190987124463519","2.85872675250357","-3.04113018597997","-3.98640915593705","0","358.875"
"1447","1.70386266094421","-0.190987124463519","2.85872675250357","1.95886981402003","-0.986409155937053","0","358.875"
"1450.13333","3.70386266094421","-1.19098712446352","-1.14127324749643","1.95886981402003","-0.986409155937053","0","358.875"
"1453.26667","3.70386266094421","-1.19098712446352","-1.14127324749643","3.95886981402003","1.01359084406295","0","358.875"
"1456.4","2.70386266094421","-0.190987124463519","0.858726752503575","3.95886981402003","1.01359084406295","0","358.875"
"1459.53333","2.70386266094421","-0.190987124463519","0.858726752503575","-0.0411301859799714","0.0135908440629471","0","358.875"
"1462.66667","4.70386266094421","-3.19098712446352","0.858726752503575","-0.0411301859799714","0.0135908440629471","0","358.875"
"1465.8","4.70386266094421","-3.19098712446352","0.858726752503575","-0.0411301859799714","0.0135908440629471","0","358.875"
"1468.93333","1.70386266094421","-1.19098712446352","-0.141273247496425","-0.0411301859799714","0.0135908440629471","0","358.875"
"1472.06667","1.70386266094421","-1.19098712446352","-0.141273247496425","-1.04113018597997","-0.986409155937053","0","358.875"
"1475.2","3.70386266094421","-0.190987124463519","2.85872675250357","-1.04113018597997","-0.986409155937053","0","358.875"
"1478.33333","3.70386266094421","-0.190987124463519","2.85872675250357","1.95886981402003","-2.98640915593705","0","358.875"
"1481.46667","2.70386266094421","-1.19098712446352","-1.14127324749643","1.95886981402003","-2.98640915593705","0","358.875"
"1484.6","2.70386266094421","-1.19098712446352","-1.14127324749643","-0.0411301859799714","-1.98640915593705","0","358.875"
"1487.73333","2.70386266094421","-0.190987124463519","-2.14127324749643","-0.0411301859799714","-1.98640915593705","0","358.875"
"1490.86667","2.70386266094421","-0.190987124463519","-2.14127324749643","-0.0411301859799714","-1.98640915593705","0","358.875"
"1494","2.70386266094421","1.80901287553648","3.85872675250357","-0.0411301859799714","-1.98640915593705","0","358.875"
"1500","2.70386266094421","1.80901287553648","3.85872675250357","0.958869814020029","2.01359084406295","0","358.875"
"1500","2.70386266094421","1.80901287553648","0.858726752503575","0.958869814020029","2.01359084406295","0","358.875"
"1503.26667","2.70386266094421","1.80901287553648","0.858726752503575","0.958869814020029","2.01359084406295","0","358.875"
"1506.53333","1.70386266094421","-0.190987124463519","2.85872675250357","0.958869814020029","2.01359084406295","0","358.875"
"1509.8","1.70386266094421","-0.190987124463519","2.85872675250357","-1.04113018597997","0.0135908440629471","0","358.875"
"1513.06667","3.70386266094421","1.80901287553648","-0.141273247496425","-1.04113018597997","0.0135908440629471","0","358.875"
"1516.33333","3.70386266094421","1.80901287553648","-0.141273247496425","-1.04113018597997","0.0135908440629471","0","358.875"
"1519.6","1.70386266094421","0.809012875536481","-0.141273247496425","-1.04113018597997","0.0135908440629471","0","358.875"
"1522.86667","1.70386266094421","0.809012875536481","-0.141273247496425","-3.04113018597997","-0.986409155937053","0","358.875"
"1526.13333","2.70386266094421","1.80901287553648","-0.141273247496425","-3.04113018597997","-0.986409155937053","0","358.875"
"1529.4","2.70386266094421","1.80901287553648","-0.141273247496425","-0.0411301859799714","-0.986409155937053","0","358.875"
"1532.66667","2.70386266094421","1.80901287553648","-0.141273247496425","-0.0411301859799714","-0.986409155937053","0","358.875"
"1535.93333","2.70386266094421","1.80901287553648","-0.141273247496425","0.958869814020029","1.01359084406295","0","358.875"
"1539.2","2.70386266094421","-0.190987124463519","-2.14127324749643","0.958869814020029","1.01359084406295","0","358.875"
"1542.46667","2.70386266094421","-0.190987124463519","-2.14127324749643","-2.04113018597997","2.01359084406295","0","358.875"
"1545.73333","1.70386266094421","-1.19098712446352","-0.141273247496425","-2.04113018597997","2.01359084406295","0","358.875"
"1549","1.70386266094421","-1.19098712446352","-0.141273247496425","1.95886981402003","3.01359084406295","0","358.875"
"1552.26667","0.703862660944206","2.80901287553648","-0.141273247496425","1.95886981402003","3.01359084406295","0","358.875"
"1555.53333","0.703862660944206","2.80901287553648","-0.141273247496425","-0.0411301859799714","1.01359084406295","0","358.875"
"1558.8","3.70386266094421","0.809012875536481","1.85872675250357","-0.0411301859799714","1.01359084406295","0","358.875"
"1562.06667","3.70386266094421","0.809012875536481","1.85872675250357","-1.04113018597997","3.01359084406295","0","358.875"
"1565.33333","3.70386266094421","0.809012875536481","1.85872675250357","-1.04113018597997","3.01359084406295","0","358.875"
"1568.6","3.70386266094421","0.809012875536481","1.85872675250357","3.95886981402003","-2.98640915593705","0","358.875"
"1571.86667","-0.296137339055794","1.80901287553648","-0.141273247496425","3.95886981402003","-2.98640915593705","0","358.875"
"1575.13333","-0.296137339055794","1.80901287553648","-0.141273247496425","-1.04113018597997","1.01359084406295","0","358.875"
"1578.4","0.703862660944206","0.809012875536481","0.858726752503575","-1.04113018597997","1.01359084406295","0","358.875"
"1581.66667","0.703862660944206","0.809012875536481","0.858726752503575","2.95886981402003","-2.98640915593705","0","358.875"
"1584.93333","1.70386266094421","1.80901287553648","0.858726752503575","2.95886981402003","-2.98640915593705","0","358.875"
"1588.2","1.70386266094421","1.80901287553648","0.858726752503575","0.958869814020029","0.0135908440629471","0","358.875"
"1591.46667","2.70386266094421","0.809012875536481","-1.14127324749643","0.958869814020029","0.0135908440629471","0","358.875"
"1594.73333","2.70386266094421","0.809012875536481","-1.14127324749643","-1.04113018597997","-1.98640915593705","0","358.875"
"1598","2.70386266094421","0.809012875536481","-1.14127324749643","-1.04113018597997","-1.98640915593705","0","358.875"
"1603.32143","2.70386266094421","0.809012875536481","-1.14127324749643","-0.0411301859799714","0.0135908440629471","0","358.875"
"1606.64286","0.703862660944206","-1.19098712446352","-2.14127324749643","-0.0411301859799714","0.0135908440629471","0","358.875"
"1609.96429","0.703862660944206","-1.19098712446352","-2.14127324749643","-3.04113018597997","2.01359084406295","0","358.875"
"1613.28571","3.70386266094421","1.80901287553648","-1.14127324749643","-3.04113018597997","2.01359084406295","0","358.875"
"1616.60714","3.70386266094421","1.80901287553648","-1.14127324749643","-2.04113018597997","3.01359084406295","0","358.875"
"1619.92857","1.70386266094421","-1.19098712446352","-2.14127324749643","-2.04113018597997","3.01359084406295","0","358.875"
"1623.25","1.70386266094421","-1.19098712446352","-2.14127324749643","0.958869814020029","-0.986409155937053","0","358.875"
"1626.57143","0.703862660944206","2.80901287553648","-0.141273247496425","0.958869814020029","-0.986409155937053","0","358.875"
"1629.89286","0.703862660944206","2.80901287553648","-0.141273247496425","-1.04113018597997","-0.986409155937053","0","358.875"
"1633.21429","0.703862660944206","2.80901287553648","-0.141273247496425","-1.04113018597997","-0.986409155937053","0","358.875"
"1636.53571","0.703862660944206","2.80901287553648","-0.141273247496425","-3.04113018597997","-1.98640915593705","0","358.875"
"1639.85714","2.70386266094421","-0.190987124463519","-0.141273247496425","-3.04113018597997","-1.98640915593705","0","358.875"
"1643.17857","2.70386266094421","-0.190987124463519","-0.141273247496425","-0.0411301859799714","-2.98640915593705","0","358.875"
"1646.5","1.70386266094421","0.809012875536481","-1.14127324749643","-0.0411301859799714","-2.98640915593705","0","358.875"
"1649.82143","1.70386266094421","0.809012875536481","-1.14127324749643","-0.0411301859799714","0.0135908440629471","0","358.875"
"1653.14286","0.703862660944206","0.809012875536481","-0.141273247496425","-0.0411301859799714","0.0135908440629471","0","358.875"
"1656.46429","0.703862660944206","0.809012875536481","-0.141273247496425","0.958869814020029","-0.986409155937053","0","358.875"
"1659.78571","0.703862660944206","-0.190987124463519","-0.141273247496425","0.958869814020029","-0.986409155937053","0","358.875"
"1663.10714","0.703862660944206","-0.190987124463519","-0.141273247496425","4.95886981402003","1.01359084406295","0","358.875"
"1666.42857","0.703862660944206","-0.190987124463519","-0.141273247496425","4.95886981402003","1.01359084406295","0","358.875"
"1669.75","0.703862660944206","-0.190987124463519","-0.141273247496425","0.958869814020029","-0.986409155937053","0","358.875"
"1673.07143","2.70386266094421","-0.190987124463519","-2.14127324749643","0.958869814020029","-0.986409155937053","0","358.875"
"1676.39286","2.70386266094421","-0.190987124463519","-2.14127324749643","-2.04113018597997","1.01359084406295","0","358.875"
"1679.71429","1.70386266094421","2.80901287553648","-1.14127324749643","-2.04113018597997","1.01359084406295","0","358.875"
"1683.03571","1.70386266094421","2.80901287553648","-1.14127324749643","-0.0411301859799714","-0.986409155937053","0","358.875"
"1686.35714","2.70386266094421","0.809012875536481","-0.141273247496425","-0.0411301859799714","-0.986409155937053","0","358.875"
"1689.67857","2.70386266094421","0.809012875536481","-0.141273247496425","1.95886981402003","0.0135908440629471","0","358.875"
"1693","1.70386266094421","0.809012875536481","-1.14127324749643","1.95886981402003","0.0135908440629471","0","358.875"
"1700","1.70386266094421","0.809012875536481","-1.14127324749643","-0.0411301859799714","1.01359084406295","0","358.875"
"1700","1.70386266094421","0.809012875536481","-1.14127324749643","-0.0411301859799714","1.01359084406295","0","358.875"
"1703.09677","1.70386266094421","0.809012875536481","-1.14127324749643","-1.04113018597997","-1.98640915593705","0","358.875"
"1706.19355","0.703862660944206","-1.19098712446352","-1.14127324749643","-1.04113018597997","-1.98640915593705","0","358.875"
"1709.29032","0.703862660944206","-1.19098712446352","-1.14127324749643","-2.04113018597997","-0.986409155937053","0","358.875"
"1712.3871","1.70386266094421","-0.190987124463519","-1.14127324749643","-2.04113018597997","-0.986409155937053","0","358.875"
"1715.48387","1.70386266094421","-0.190987124463519","-1.14127324749643","-1.04113018597997","1.01359084406295","0","358.875"
"1718.58065","1.70386266094421","-0.190987124463519","-2.14127324749643","-1.04113018597997","1.01359084406295","0","358.875"
"1721.67742","1.70386266094421","-0.190987124463519","-2.14127324749643","-0.0411301859799714","-1.98640915593705","0","358.875"
"1724.77419","2.70386266094421","-0.190987124463519","0.858726752503575","-0.0411301859799714","-1.98640915593705","0","358.875"
"1727.87097","2.70386266094421","-0.190987124463519","0.858726752503575","-0.0411301859799714","0.0135908440629471","0","358.875"
"1730.96774","2.70386266094421","-0.190987124463519","0.858726752503575","-0.0411301859799714","0.0135908440629471","0","358.875"
"1734.06452","2.70386266094421","-0.190987124463519","0.858726752503575","1.95886981402003","-0.986409155937053","0","358.875"
"1737.16129","3.70386266094421","-0.190987124463519","0.858726752503575","1.95886981402003","-0.986409155937053","0","358.875"
"1740.25806","3.70386266094421","-0.190987124463519","0.858726752503575","0.958869814020029","0.0135908440629471","0","358.875"
"1743.35484","3.70386266094421","-0.190987124463519","0.858726752503575","0.958869814020029","0.0135908440629471","0","358.875"
"1746.45161","3.70386266094421","-0.190987124463519","0.858726752503575","-3.04113018597997","0.0135908440629471","0","358.875"
"1749.54839","3.70386266094421","-0.190987124463519","0.858726752503575","-3.04113018597997","0.0135908440629471","0","358.875"
"1752.64516","0.703862660944206","1.80901287553648","0.858726752503575","-3.04113018597997","0.0135908440629471","0","358.875"
"1755.74194","0.703862660944206","1.80901287553648","0.858726752503575","-2.04113018597997","0.0135908440629471","0","358.875"
"1758.83871","3.70386266094421","-0.190987124463519","2.85872675250357","-2.04113018597997","0.0135908440629471","0","358.875"
"1761.93548","3.70386266094421","-0.190987124463519","2.85872675250357","0.958869814020029","4.01359084406295","0","358.875"
"1765.03226","4.70386266094421","-0.190987124463519","-3.14127324749643","0.958869814020029","4.01359084406295","0","358.875"
"1768.12903","4.70386266094421","-0.190987124463519","-3.14127324749643","-1.04113018597997","1.01359084406295","0","358.875"
"1771.22581","1.70386266094421","-0.190987124463519","2.85872675250357","-1.04113018597997","1.01359084406295","0","358.875"
"1774.32258","1.70386266094421","-0.190987124463519","2.85872675250357","-3.04113018597997","0.0135908440629471","0","358.875"
"1777.41935","1.70386266094421","1.80901287553648","-0.141273247496425","-3.04113018597997","0.0135908440629471","0","358.875"
"1780.51613","1.70386266094421","1.80901287553648","-0.141273247496425","-0.0411301859799714","0.0135908440629471","0","358.875"
"1783.6129","2.70386266094421","-1.19098712446352","-1.14127324749643","-0.0411301859799714","0.0135908440629471","0","358.875"
"1786.70968","2.70386266094421","-1.19098712446352","-1.14127324749643","3.95886981402003","2.01359084406295","0","358.875"
"1789.80645","2.70386266094421","-0.190987124463519","-2.14127324749643","3.95886981402003","2.01359084406295","0","358.875"
"1792.90323","2.70386266094421","-0.190987124463519","-2.14127324749643","-1.04113018597997","2.01359084406295","0","358.875"
"1796","2.70386266094421","-0.190987124463519","0.858726752503575","-1.04113018597997","2.01359084406295","0","358.875"
"1803.23333","2.70386266094421","-0.190987124463519","0.858726752503575","-0.0411301859799714","2.01359084406295","0","358.875"
"1806.46667","2.70386266094421","2.80901287553648","-2.14127324749643","-0.0411301859799714","2.01359084406295","0","358.875"
"1809.7","2.70386266094421","2.80901287553648","-2.14127324749643","-0.0411301859799714","4.01359084406295","0","358.875"
"1812.93333","0.703862660944206","-0.190987124463519","-2.14127324749643","-0.0411301859799714","4.01359084406295","0","358.875"
"1816.16667","0.703862660944206","-0.190987124463519","-2.14127324749643","-0.0411301859799714","2.01359084406295","0","358.875"
"1819.4","1.70386266094421","-3.19098712446352","1.85872675250357","-0.0411301859799714","2.01359084406295","0","358.875"
"1822.63333","1.70386266094421","-3.19098712446352","1.85872675250357","-3.04113018597997","0.0135908440629471","0","358.875"
"1825.86667","2.70386266094421","1.80901287553648","-0.141273247496425","-3.04113018597997","0.0135908440629471","0","358.875"
"1829.1","2.70386266094421","1.80901287553648","-0.141273247496425","0.958869814020029","-1.98640915593705","0","358.875"
"1832.33333","2.70386266094421","-2.19098712446352","-0.141273247496425","0.958869814020029","-1.98640915593705","0","358.875"
"1835.56667","2.70386266094421","-2.19098712446352","-0.141273247496425","-1.04113018597997","1.01359084406295","0","358.875"
"1838.8","4.70386266094421","-1.19098712446352","2.85872675250357","-1.04113018597997","1.01359084406295","0","358.875"
"1842.03333","4.70386266094421","-1.19098712446352","2.85872675250357","-0.0411301859799714","-0.986409155937053","0","358.875"
"1845.26667","3.70386266094421","-0.190987124463519","-2.14127324749643","-0.0411301859799714","-0.986409155937053","0","358.875"
"1848.5","3.70386266094421","-0.190987124463519","-2.14127324749643","-0.0411301859799714","-0.986409155937053","0","358.875"
"1851.73333","0.703862660944206","-3.19098712446352","-4.14127324749643","-0.0411301859799714","-0.986409155937053","0","358.875"
"1854.96667","0.703862660944206","-3.19098712446352","-4.14127324749643","-0.0411301859799714","-1.98640915593705","0","358.875"
"1858.2","1.70386266094421","1.80901287553648","0.858726752503575","-0.0411301859799714","-1.98640915593705","0","358.875"
"1861.43333","1.70386266094421","1.80901287553648","0.858726752503575","0.958869814020029","1.01359084406295","0","358.875"
"1864.66667","3.70386266094421","0.809012875536481","1.85872675250357","0.958869814020029","1.01359084406295","0","358.875"
"1867.9","3.70386266094421","0.809012875536481","1.85872675250357","-1.04113018597997","2.01359084406295","0","358.875"
"1871.13333","4.70386266094421","-0.190987124463519","2.85872675250357","-1.04113018597997","2.01359084406295","0","358.875"
"1874.36667","4.70386266094421","-0.190987124463519","2.85872675250357","-1.04113018597997","0.0135908440629471","0","358.875"
"1877.6","3.70386266094421","1.80901287553648","-1.14127324749643","-1.04113018597997","0.0135908440629471","0","358.875"
"1880.83333","3.70386266094421","1.80901287553648","-1.14127324749643","-1.04113018597997","0.0135908440629471","0","358.875"
"1884.06667","3.70386266094421","-0.190987124463519","-1.14127324749643","-1.04113018597997","0.0135908440629471","0","358.875"
"1887.3","3.70386266094421","-0.190987124463519","-1.14127324749643","-2.04113018597997","0.0135908440629471","0","358.875"
"1890.53333","4.70386266094421","2.80901287553648","-1.14127324749643","-2.04113018597997","0.0135908440629471","0","358.875"
"1893.76667","4.70386266094421","2.80901287553648","-1.14127324749643","-0.0411301859799714","-2.98640915593705","0","358.875"
"1897","4.70386266094421","0.809012875536481","0.858726752503575","-0.0411301859799714","-2.98640915593705","0","358.875"
"1902.96875","4.70386266094421","0.809012875536481","0.858726752503575","0.958869814020029","-1.98640915593705","0","358.875"
"1905.9375","2.70386266094421","-1.19098712446352","0.858726752503575","0.958869814020029","-1.98640915593705","0","358.875"
"1908.90625","2.70386266094421","-1.19098712446352","0.858726752503575","-5.04113018597997","0.0135908440629471","0","358.875"
"1911.875","1.70386266094421","1.80901287553648","-2.14127324749643","-5.04113018597997","0.0135908440629471","0","358.875"
"1914.84375","1.70386266094421","1.80901287553648","-2.14127324749643","-5.04113018597997","0.0135908440629471","0","358.875"
"1917.8125","1.70386266094421","0.809012875536481","-3.14127324749643","-5.04113018597997","0.0135908440629471","0","358.875"
"1920.78125","1.70386266094421","0.809012875536481","-3.14127324749643","-2.04113018597997","2.01359084406295","0","358.875"
"1923.75","3.70386266094421","0.809012875536481","-2.14127324749643","-2.04113018597997","2.01359084406295","0","358.875"
"1926.71875","3.70386266094421","0.809012875536481","-2.14127324749643","-0.0411301859799714","2.01359084406295","0","358.875"
"1929.6875","2.70386266094421","-0.190987124463519","0.858726752503575","-0.0411301859799714","2.01359084406295","0","358.875"
"1932.65625","2.70386266094421","-0.190987124463519","0.858726752503575","-0.0411301859799714","-0.986409155937053","0","358.875"
"1935.625","-0.296137339055794","3.80901287553648","-0.141273247496425","-0.0411301859799714","-0.986409155937053","0","358.875"
"1938.59375","-0.296137339055794","3.80901287553648","-0.141273247496425","2.95886981402003","0.0135908440629471","0","358.875"
"1941.5625","0.703862660944206","-2.19098712446352","-2.14127324749643","2.95886981402003","0.0135908440629471","0","358.875"
"1944.53125","0.703862660944206","-2.19098712446352","-2.14127324749643","2.95886981402003","0.0135908440629471","0","358.875"
"1947.5","3.70386266094421","-0.190987124463519","-1.14127324749643","2.95886981402003","0.0135908440629471","0","358.875"
"1950.46875","3.70386266094421","-0.190987124463519","-1.14127324749643","3.95886981402003","0.0135908440629471","0","358.875"
"1953.4375","4.70386266094421","0.809012875536481","-0.141273247496425","3.95886981402003","0.0135908440629471","0","358.875"
"1956.40625","4.70386266094421","0.809012875536481","-0.141273247496425","1.95886981402003","1.01359084406295","0","358.875"
"1959.375","2.70386266094421","-2.19098712446352","-1.14127324749643","1.95886981402003","1.01359084406295","0","358.875"
"1962.34375","2.70386266094421","-2.19098712446352","-1.14127324749643","0.958869814020029","3.01359084406295","0","358.875"
"1965.3125","1.70386266094421","-0.190987124463519","0.858726752503575","0.958869814020029","3.01359084406295","0","358.875"
"1968.28125","1.70386266094421","-0.190987124463519","0.858726752503575","0.958869814020029","-1.98640915593705","0","358.875"
"1971.25","2.70386266094421","0.809012875536481","0.858726752503575","0.958869814020029","-1.98640915593705","0","358.875"
"1974.21875","2.70386266094421","0.809012875536481","0.858726752503575","0.958869814020029","-1.98640915593705","0","358.875"
"1977.1875","1.70386266094421","-1.19098712446352","-3.14127324749643","0.958869814020029","-1.98640915593705","0","358.875"
"1980.15625","1.70386266094421","-1.19098712446352","-3.14127324749643","0.958869814020029","-0.986409155937053","0","358.875"
"1983.125","0.703862660944206","1.80901287553648","-0.141273247496425","0.958869814020029","-0.986409155937053","0","358.875"
"1986.09375","0.703862660944206","1.80901287553648","-0.141273247496425","-1.04113018597997","-0.986409155937053","0","358.875"
"1989.0625","0.703862660944206","0.809012875536481","-0.141273247496425","-1.04113018597997","-0.986409155937053","0","358.875"
"1992.03125","0.703862660944206","0.809012875536481","-0.141273247496425","-2.04113018597997","-3.98640915593705","0","358.875"
"1995","2.70386266094421","-1.19098712446352","0.858726752503575","-2.04113018597997","-3.98640915593705","0","358.875"
"2003","2.70386266094421","-1.19098712446352","0.858726752503575","1.95886981402003","-0.986409155937053","0","358.875"
"2006","1.70386266094421","-0.190987124463519","0.858726752503575","1.95886981402003","-0.986409155937053","0","358.875"
"2009","1.70386266094421","-0.190987124463519","0.858726752503575","-2.04113018597997","-0.986409155937053","0","358.875"
"2012","2.70386266094421","0.809012875536481","-1.14127324749643","-2.04113018597997","-0.986409155937053","0","358.875"
"2015","2.70386266094421","0.809012875536481","-1.14127324749643","-2.04113018597997","-0.986409155937053","0","358.875"
"2018","1.70386266094421","-0.190987124463519","1.85872675250357","-2.04113018597997","-0.986409155937053","0","358.875"
"2021","1.70386266094421","-0.190987124463519","1.85872675250357","-3.04113018597997","1.01359084406295","0","358.875"
"2024","1.70386266094421","2.80901287553648","0.858726752503575","-3.04113018597997","1.01359084406295","0","358.875"
"2027","1.70386266094421","2.80901287553648","0.858726752503575","-0.0411301859799714","-1.98640915593705","0","358.875"
"2030","-0.296137339055794","0.809012875536481","-0.141273247496425","-0.0411301859799714","-1.98640915593705","0","358.875"
"2033","-0.296137339055794","0.809012875536481","-0.141273247496425","-2.04113018597997","-1.98640915593705","0","358.875"
"2036","3.70386266094421","-2.19098712446352","-1.14127324749643","-2.04113018597997","-1.98640915593705","0","358.875"
"2039","3.70386266094421","-2.19098712446352","-1.14127324749643","-2.04113018597997","-1.98640915593705","0","358.875"
"2042","1.70386266094421","-0.190987124463519","-1.14127324749643","-2.04113018597997","-1.98640915593705","0","358.875"
"2045","1.70386266094421","-0.190987124463519","-1.14127324749643","-0.0411301859799714","-0.986409155937053","0","358.875"
"2048","1.70386266094421","0.809012875536481","-1.14127324749643","-0.0411301859799714","-0.986409155937053","0","358.875"
"2051","1.70386266094421","0.809012875536481","-1.14127324749643","1.95886981402003","1.01359084406295","0","358.875"
"2054","2.70386266094421","-0.190987124463519","-1.14127324749643","1.95886981402003","1.01359084406295","0","358.875"
"2057","2.70386266094421","-0.190987124463519","-1.14127324749643","0.958869814020029","-0.986409155937053","0","358.875"
"2060","1.70386266094421","-0.190987124463519","0.858726752503575","0.958869814020029","-0.986409155937053","0","358.875"
"2063","1.70386266094421","-0.190987124463519","0.858726752503575","-0.0411301859799714","0.0135908440629471","0","358.875"
"2066","2.70386266094421","0.809012875536481","0.858726752503575","-0.0411301859799714","0.0135908440629471","0","358.875"
"2069","2.70386266094421","0.809012875536481","0.858726752503575","0.958869814020029","-1.98640915593705","0","358.875"
"2072","1.70386266094421","-0.190987124463519","-0.141273247496425","0.958869814020029","-1.98640915593705","0","358.875"
"2075","1.70386266094421","-0.190987124463519","-0.141273247496425","0.958869814020029","-1.98640915593705","0","358.875"
"2078","1.70386266094421","0.809012875536481","-0.141273247496425","0.958869814020029","-1.98640915593705","0","358.875"
"2081","1.70386266094421","0.809012875536481","-0.141273247496425","-0.0411301859799714","-1.98640915593705","0","358.875"
"2084","2.70386266094421","0.809012875536481","-1.14127324749643","-0.0411301859799714","-1.98640915593705","0","358.875"
"2087","2.70386266094421","0.809012875536481","-1.14127324749643","-0.0411301859799714","0.0135908440629471","0","358.875"
"2090","2.70386266094421","0.809012875536481","-1.14127324749643","-0.0411301859799714","0.0135908440629471","0","358.875"
"2093","2.70386266094421","0.809012875536481","-1.14127324749643","2.95886981402003","0.0135908440629471","0","358.875"
"2096","1.70386266094421","0.809012875536481","0.858726752503575","2.95886981402003","0.0135908440629471","0","358.875"
"2103.16667","1.70386266094421","0.809012875536481","0.858726752503575","-1.04113018597997","0.0135908440629471","0","358.875"
"2106.33333","2.70386266094421","-0.190987124463519","-2.14127324749643","-1.04113018597997","0.0135908440629471","0","358.875"
"2109.5","2.70386266094421","-0.190987124463519","-2.14127324749643","-0.0411301859799714","-3.98640915593705","0","358.875"
"2112.66667","0.703862660944206","0.809012875536481","-1.14127324749643","-0.0411301859799714","-3.98640915593705","0","358.875"
"2115.83333","0.703862660944206","0.809012875536481","-1.14127324749643","-1.04113018597997","-1.98640915593705","0","358.875"
"2119","2.70386266094421","-1.19098712446352","0.858726752503575","-1.04113018597997","-1.98640915593705","0","358.875"
"2122.16667","2.70386266094421","-1.19098712446352","0.858726752503575","3.95886981402003","-1.98640915593705","0","358.875"
"2125.33333","3.70386266094421","2.80901287553648","0.858726752503575","3.95886981402003","-1.98640915593705","0","358.875"
"2128.5","3.70386266094421","2.80901287553648","0.858726752503575","1.95886981402003","-1.98640915593705","0","358.875"
"2131.66667","1.70386266094421","-0.190987124463519","-0.141273247496425","1.95886981402003","-1.98640915593705","0","358.875"
"2134.83333","1.70386266094421","-0.190987124463519","-0.141273247496425","0.958869814020029","0.0135908440629471","0","358.875"
"2138","1.70386266094421","-2.19098712446352","-0.141273247496425","0.958869814020029","0.0135908440629471","0","358.875"
"2141.16667","1.70386266094421","-2.19098712446352","-0.141273247496425","-3.04113018597997","1.01359084406295","0","358.875"
"2144.33333","2.70386266094421","-1.19098712446352","0.858726752503575","-3.04113018597997","1.01359084406295","0","358.875"
"2147.5","2.70386266094421","-1.19098712446352","0.858726752503575","-3.04113018597997","1.01359084406295","0","358.875"
"2150.66667","0.703862660944206","0.809012875536481","-2.14127324749643","-3.04113018597997","1.01359084406295","0","358.875"
"2153.83333","0.703862660944206","0.809012875536481","-2.14127324749643","1.95886981402003","0.0135908440629471","0","358.875"
"2157","0.703862660944206","-0.190987124463519","-0.141273247496425","1.95886981402003","0.0135908440629471","0","358.875"
"2160.16667","0.703862660944206","-0.190987124463519","-0.141273247496425","-2.04113018597997","-0.986409155937053","0","358.875"
"2163.33333","3.70386266094421","-0.190987124463519","0.858726752503575","-2.04113018597997","-0.986409155937053","0","358.875"
"2166.5","3.70386266094421","-0.190987124463519","0.858726752503575","-1.04113018597997","0.0135908440629471","0","358.875"
"2169.66667","1.70386266094421","-1.19098712446352","-2.14127324749643","-1.04113018597997","0.0135908440629471","0","358.875"
"2172.83333","1.70386266094421","-1.19098712446352","-2.14127324749643","-1.04113018597997","1.01359084406295","0","358.875"
"2176","2.70386266094421","1.80901287553648","1.85872675250357","-1.04113018597997","1.01359084406295","0","358.875"
"2179.16667","2.70386266094421","1.80901287553648","1.85872675250357","0.958869814020029","0.0135908440629471","0","358.875"
"2182.33333","3.70386266094421","0.809012875536481","-2.14127324749643","0.958869814020029","0.0135908440629471","0","358.875"
"2185.5","3.70386266094421","0.809012875536481","-2.14127324749643","-1.04113018597997","2.01359084406295","0","358.875"
"2188.66667","2.70386266094421","-1.19098712446352","0.858726752503575","-1.04113018597997","2.01359084406295","0","358.875"
"2191.83333","2.70386266094421","-1.19098712446352","0.858726752503575","0.958869814020029","0.0135908440629471","0","358.875"
"2195","4.70386266094421","2.80901287553648","1.85872675250357","0.958869814020029","0.0135908440629471","0","358.875"
"2202.91176","4.70386266094421","2.80901287553648","1.85872675250357","-0.0411301859799714","0.0135908440629471","0","358.875"
"2205.82353","0.703862660944206","0.809012875536481","-3.14127324749643","-0.0411301859799714","0.0135908440629471","0","358.875"
"2208.73529","0.703862660944206","0.809012875536481","-3.14127324749643","-3.04113018597997","1.01359084406295","0","358.875"
"2211.64706","4.70386266094421","-0.190987124463519","0.858726752503575","-3.04113018597997","1.01359084406295","0","358.875"
"2214.55882","4.70386266094421","-0.190987124463519","0.858726752503575","-1.04113018597997","-0.986409155937053","0","358.875"
"2217.47059","1.70386266094421","0.809012875536481","-0.141273247496425","-1.04113018597997","-0.986409155937053","0","358.875"
"2220.38235","1.70386266094421","0.809012875536481","-0.141273247496425","-2.04113018597997","-0.986409155937053","0","358.875"
"2223.29412","2.70386266094421","-0.190987124463519","0.858726752503575","-2.04113018597997","-0.986409155937053","0","358.875"
"2226.20588","2.70386266094421","-0.190987124463519","0.858726752503575","-0.0411301859799714","1.01359084406295","0","358.875"
"2229.11765","3.70386266094421","-1.19098712446352","2.85872675250357","-0.0411301859799714","1.01359084406295","0","358.875"
"2232.02941","3.70386266094421","-1.19098712446352","2.85872675250357","-3.04113018597997","0.0135908440629471","0","358.875"
"2234.94118","2.70386266094421","-0.190987124463519","-1.14127324749643","-3.04113018597997","0.0135908440629471","0","358.875"
"2237.85294","2.70386266094421","-0.190987124463519","-1.14127324749643","-2.04113018597997","0.0135908440629471","0","358.875"
"2240.76471","2.70386266094421","-2.19098712446352","-2.14127324749643","-2.04113018597997","0.0135908440629471","0","358.875"
"2243.67647","2.70386266094421","-2.19098712446352","-2.14127324749643","1.95886981402003","1.01359084406295","0","358.875"
"2246.58824","1.70386266094421","-1.19098712446352","-0.141273247496425","1.95886981402003","1.01359084406295","0","358.875"
"2249.5","1.70386266094421","-1.19098712446352","-0.141273247496425","-0.0411301859799714","0.0135908440629471","0","358.875"
"2252.41176","3.70386266094421","0.809012875536481","-1.14127324749643","-0.0411301859799714","0.0135908440629471","0","358.875"
"2255.32353","3.70386266094421","0.809012875536481","-1.14127324749643","1.95886981402003","0.0135908440629471","0","358.875"
"2258.23529","4.70386266094421","1.80901287553648","1.85872675250357","1.95886981402003","0.0135908440629471","0","358.875"
"2261.14706","4.70386266094421","1.80901287553648","1.85872675250357","-1.04113018597997","-0.986409155937053","0","358.875"
"2264.05882","2.70386266094421","0.809012875536481","-2.14127324749643","-1.04113018597997","-0.986409155937053","0","358.875"
"2266.97059","2.70386266094421","0.809012875536481","-2.14127324749643","2.95886981402003","2.01359084406295","0","358.875"
"2269.88235","0.703862660944206","-0.190987124463519","-1.14127324749643","2.95886981402003","2.01359084406295","0","358.875"
"2272.79412","0.703862660944206","-0.190987124463519","-1.14127324749643","1.95886981402003","2.01359084406295","0","358.875"
"2275.70588","-0.296137339055794","-0.190987124463519","0.858726752503575","1.95886981402003","2.01359084406295","0","358.875"
"2278.61765","-0.296137339055794","-0.190987124463519","0.858726752503575","1.95886981402003","0.0135908440629471","0","358.875"
"2281.52941","2.70386266094421","0.809012875536481","0.858726752503575","1.95886981402003","0.0135908440629471","0","358.875"
"2284.44118","2.70386266094421","0.809012875536481","0.858726752503575","-0.0411301859799714","-1.98640915593705","0","358.875"
"2287.35294","1.70386266094421","0.809012875536481","-2.14127324749643","-0.0411301859799714","-1.98640915593705","0","358.875"
"2290.26471","1.70386266094421","0.809012875536481","-2.14127324749643","0.958869814020029","-1.98640915593705","0","358.875"
"2293.17647","0.703862660944206","0.809012875536481","-2.14127324749643","0.958869814020029","-1.98640915593705","0","358.875"
"2296.08824","0.703862660944206","0.809012875536481","-2.14127324749643","0.958869814020029","-1.98640915593705","0","358.875"
"2299","1.70386266094421","1.80901287553648","-1.14127324749643","0.958869814020029","-1.98640915593705","0","358.875"
"2303.5","1.70386266094421","1.80901287553648","-1.14127324749643","1.95886981402003","-1.98640915593705","0","358.875"
"2307","2.70386266094421","-0.190987124463519","1.85872675250357","1.95886981402003","-1.98640915593705","0","358.875"
"2310.5","2.70386266094421","-0.190987124463519","1.85872675250357","-0.0411301859799714","1.01359084406295","0","358.875"
"2314","2.70386266094421","0.809012875536481","1.85872675250357","-0.0411301859799714","1.01359084406295","0","358.875"
"2317.5","2.70386266094421","0.809012875536481","1.85872675250357","-3.04113018597997","0.0135908440629471","0","358.875"
"2321","1.70386266094421","0.809012875536481","0.858726752503575","-3.04113018597997","0.0135908440629471","0","358.875"
"2324.5","1.70386266094421","0.809012875536481","0.858726752503575","-1.04113018597997","-1.98640915593705","0","358.875"
"2328","1.70386266094421","-1.19098712446352","-1.14127324749643","-1.04113018597997","-1.98640915593705","0","358.875"
"2331.5","1.70386266094421","-1.19098712446352","-1.14127324749643","-1.04113018597997","3.01359084406295","0","358.875"
"2335","4.70386266094421","-1.19098712446352","-1.14127324749643","-1.04113018597997","3.01359084406295","0","358.875"
"2338.5","4.70386266094421","-1.19098712446352","-1.14127324749643","-0.0411301859799714","-3.98640915593705","0","358.875"
"2342","1.70386266094421","1.80901287553648","-0.141273247496425","-0.0411301859799714","-3.98640915593705","0","358.875"
"2345.5","1.70386266094421","1.80901287553648","-0.141273247496425","-0.0411301859799714","-0.986409155937053","0","358.875"
"2349","0.703862660944206","2.80901287553648","-1.14127324749643","-0.0411301859799714","-0.986409155937053","0","358.875"
"2352.5","0.703862660944206","2.80901287553648","-1.14127324749643","-0.0411301859799714","-0.986409155937053","0","358.875"
"2356","1.70386266094421","1.80901287553648","0.858726752503575","-0.0411301859799714","-0.986409155937053","0","358.875"
"2359.5","1.70386266094421","1.80901287553648","0.858726752503575","-0.0411301859799714","-1.98640915593705","0","358.875"
"2363","1.70386266094421","-1.19098712446352","-2.14127324749643","-0.0411301859799714","-1.98640915593705","0","358.875"
"2366.5","1.70386266094421","-1.19098712446352","-2.14127324749643","-3.04113018597997","1.01359084406295","0","358.875"
"2370","2.70386266094421","-1.19098712446352","1.85872675250357","-3.04113018597997","1.01359084406295","0","358.875"
"2373.5","2.70386266094421","-1.19098712446352","1.85872675250357","0.958869814020029","1.01359084406295","0","358.875"
"2377","1.70386266094421","1.80901287553648","-1.14127324749643","0.958869814020029","1.01359084406295","0","358.875"
"2380.5","1.70386266094421","1.80901287553648","-1.14127324749643","-1.04113018597997","-0.986409155937053","0","358.875"
"2384","2.70386266094421","0.809012875536481","0.858726752503575","-1.04113018597997","-0.986409155937053","0","358.875"
"2387.5","2.70386266094421","0.809012875536481","0.858726752503575","0.958869814020029","-0.986409155937053","0","358.875"
"2391","3.70386266094421","-0.190987124463519","-0.141273247496425","0.958869814020029","-0.986409155937053","0","358.875"
"2394.5","3.70386266094421","-0.190987124463519","-0.141273247496425","0.958869814020029","-0.986409155937053","0","358.875"
"2398","-0.296137339055794","-0.190987124463519","-2.14127324749643","0.958869814020029","-0.986409155937053","0","358.875"
"2402.90625","-0.296137339055794","-0.190987124463519","-2.14127324749643","-2.04113018597997","-0.986409155937053","0","358.875"
"2405.8125","1.70386266094421","-0.190987124463519","1.85872675250357","-2.04113018597997","-0.986409155937053","0","358.875"
"2408.71875","1.70386266094421","-0.190987124463519","1.85872675250357","-0.0411301859799714","0.0135908440629471","0","358.875"
"2411.625","0.703862660944206","-0.190987124463519","-1.14127324749643","-0.0411301859799714","0.0135908440629471","0","358.875"
"2414.53125","0.703862660944206","-0.190987124463519","-1.14127324749643","0.958869814020029","1.01359084406295","0","358.875"
"2417.4375","3.70386266094421","-1.19098712446352","-0.141273247496425","0.958869814020029","1.01359084406295","0","358.875"
"2420.34375","3.70386266094421","-1.19098712446352","-0.141273247496425","2.95886981402003","-1.98640915593705","0","358.875"
"2423.25","2.70386266094421","0.809012875536481","2.85872675250357","2.95886981402003","-1.98640915593705","0","358.875"
"2426.15625","2.70386266094421","0.809012875536481","2.85872675250357","1.95886981402003","-0.986409155937053","0","358.875"
"2429.0625","2.70386266094421","-1.19098712446352","0.858726752503575","1.95886981402003","-0.986409155937053","0","358.875"
"2431.96875","2.70386266094421","-1.19098712446352","0.858726752503575","-0.0411301859799714","0.0135908440629471","0","358.875"
"2434.875","1.70386266094421","-1.19098712446352","2.85872675250357","-0.0411301859799714","0.0135908440629471","0","358.875"
"2437.78125","1.70386266094421","-1.19098712446352","2.85872675250357","0.958869814020029","-0.986409155937053","0","358.875"
"2440.6875","1.70386266094421","-1.19098712446352","0.858726752503575","0.958869814020029","-0.986409155937053","0","358.875"
"2443.59375","1.70386266094421","-1.19098712446352","0.858726752503575","0.958869814020029","-0.986409155937053","0","358.875"
"2446.5","1.70386266094421","2.80901287553648","-0.141273247496425","0.958869814020029","-0.986409155937053","0","358.875"
"2449.40625","1.70386266094421","2.80901287553648","-0.141273247496425","0.958869814020029","-0.986409155937053","0","358.875"
"2452.3125","-0.296137339055794","-1.19098712446352","-1.14127324749643","0.958869814020029","-0.986409155937053","0","358.875"
"2455.21875","-0.296137339055794","-1.19098712446352","-1.14127324749643","-2.04113018597997","0.0135908440629471","0","358.875"
"2458.125","1.70386266094421","-0.190987124463519","-1.14127324749643","-2.04113018597997","0.0135908440629471","0","358.875"
"2461.03125","1.70386266094421","-0.190987124463519","-1.14127324749643","0.958869814020029","1.01359084406295","0","358.875"
"2463.9375","1.70386266094421","-0.190987124463519","-4.14127324749643","0.958869814020029","1.01359084406295","0","358.875"
"2466.84375","1.70386266094421","-0.190987124463519","-4.14127324749643","0.958869814020029","-0.986409155937053","0","358.875"
"2469.75","-0.296137339055794","2.80901287553648","-0.141273247496425","0.958869814020029","-0.986409155937053","0","358.875"
"2472.65625","-0.296137339055794","2.80901287553648","-0.141273247496425","0.958869814020029","-0.986409155937053","0","358.875"
"2475.5625","0.703862660944206","-1.19098712446352","0.858726752503575","0.958869814020029","-0.986409155937053","0","358.875"
"2478.46875","0.703862660944206","-1.19098712446352","0.858726752503575","0.958869814020029","0.0135908440629471","0","358.875"
"2481.375","-1.29613733905579","2.80901287553648","0.858726752503575","0.958869814020029","0.0135908440629471","0","358.875"
"2484.28125","-1.29613733905579","2.80901287553648","0.858726752503575","-0.0411301859799714","-3.98640915593705","0","358.875"
"2487.1875","-1.29613733905579","9.80901287553648","-4.14127324749643","-0.0411301859799714","-3.98640915593705","0","358.875"
"2490.09375","-1.29613733905579","9.80901287553648","-4.14127324749643","0.958869814020029","-0.986409155937053","0","358.875"
"2493","8.70386266094421","-5.19098712446352","6.85872675250357","0.958869814020029","-0.986409155937053","0","358.875"
"2500","8.70386266094421","-5.19098712446352","6.85872675250357","-2.04113018597997","-1.98640915593705","0","358.875"
"2500","-2.29613733905579","6.80901287553648","-7.14127324749643","-2.04113018597997","-1.98640915593705","0","358.875"
"2503.35714","-2.29613733905579","6.80901287553648","-7.14127324749643","1.95886981402003","2.01359084406295","0","358.875"
"2506.71429","1.70386266094421","11.8090128755365","-3.14127324749643","1.95886981402003","2.01359084406295","0","358.875"
"2510.07143","1.70386266094421","11.8090128755365","-3.14127324749643","1.95886981402003","2.01359084406295","0","358.875"
"2513.42857","-0.296137339055794","-14.1909871244635","1.85872675250357","1.95886981402003","2.01359084406295","0","358.875"
"2516.78571","-0.296137339055794","-14.1909871244635","1.85872675250357","-6.04113018597997","1.01359084406295","0","358.875"
"2520.14286","-4.29613733905579","-2.19098712446352","-7.14127324749643","-6.04113018597997","1.01359084406295","0","358.875"
"2523.5","-4.29613733905579","-2.19098712446352","-7.14127324749643","-1.04113018597997","1.01359084406295","0","358.875"
"2526.85714","9.70386266094421","6.80901287553648","3.85872675250357","-1.04113018597997","1.01359084406295","0","358.875"
"2530.21429","9.70386266094421","6.80901287553648","3.85872675250357","-0.0411301859799714","-1.98640915593705","0","358.875"
"2533.57143","-3.29613733905579","-3.19098712446352","-5.14127324749643","-0.0411301859799714","-1.98640915593705","0","358.875"
"2536.92857","-3.29613733905579","-3.19098712446352","-5.14127324749643","-0.0411301859799714","-0.986409155937053","0","358.875"
"2540.28571","3.70386266094421","-0.190987124463519","-2.14127324749643","-0.0411301859799714","-0.986409155937053","0","358.875"
"2543.64286","3.70386266094421","-0.190987124463519","-2.14127324749643","-0.0411301859799714","-1.98640915593705","0","358.875"
"2547","6.70386266094421","-0.190987124463519","2.85872675250357","-0.0411301859799714","-1.98640915593705","0","358.875"
"2550.35714","6.70386266094421","-0.190987124463519","2.85872675250357","2.95886981402003","-3.98640915593705","0","358.875"
"2553.71429","-0.296137339055794","3.80901287553648","-1.14127324749643","2.95886981402003","-3.98640915593705","0","358.875"
"2557.07143","-0.296137339055794","3.80901287553648","-1.14127324749643","-0.0411301859799714","-1.98640915593705","0","358.875"
"2560.42857","3.70386266094421","-2.19098712446352","-1.14127324749643","-0.0411301859799714","-1.98640915593705","0","358.875"
"2563.78571","3.70386266094421","-2.19098712446352","-1.14127324749643","-1.04113018597997","-1.98640915593705","0","358.875"
"2567.14286","3.70386266094421","-1.19098712446352","1.85872675250357","-1.04113018597997","-1.98640915593705","0","358.875"
"2570.5","3.70386266094421","-1.19098712446352","1.85872675250357","0.958869814020029","1.01359084406295","0","358.875"
"2573.85714","3.70386266094421","-1.19098712446352","1.85872675250357","0.958869814020029","1.01359084406295","0","358.875"
"2577.21429","3.70386266094421","-1.19098712446352","1.85872675250357","0.958869814020029","1.01359084406295","0","358.875"
"2580.57143","4.70386266094421","-3.19098712446352","1.85872675250357","0.958869814020029","1.01359084406295","0","358.875"
"2583.92857","4.70386266094421","-3.19098712446352","1.85872675250357","-3.04113018597997","1.01359084406295","0","358.875"
"2587.28571","1.70386266094421","-1.19098712446352","-1.14127324749643","-3.04113018597997","1.01359084406295","0","358.875"
"2590.64286","1.70386266094421","-1.19098712446352","-1.14127324749643","-0.0411301859799714","2.01359084406295","0","358.875"
"2594","4.70386266094421","2.80901287553648","0.858726752503575","-0.0411301859799714","2.01359084406295","0","358.875"
"2600","4.70386266094421","2.80901287553648","0.858726752503575","1.95886981402003","2.01359084406295","0","358.875"
"2600","1.70386266094421","-0.190987124463519","-2.14127324749643","1.95886981402003","2.01359084406295","0","358.875"
"2602.91176","1.70386266094421","-0.190987124463519","-2.14127324749643","-0.0411301859799714","1.01359084406295","0","358.875"
"2605.82353","2.70386266094421","1.80901287553648","-0.141273247496425","-0.0411301859799714","1.01359084406295","0","358.875"
"2608.73529","2.70386266094421","1.80901287553648","-0.141273247496425","1.95886981402003","0.0135908440629471","0","358.875"
"2611.64706","4.70386266094421","-3.19098712446352","-2.14127324749643","1.95886981402003","0.0135908440629471","0","358.875"
"2614.55882","4.70386266094421","-3.19098712446352","-2.14127324749643","-2.04113018597997","-1.98640915593705","0","358.875"
"2617.47059","3.70386266094421","-3.19098712446352","0.858726752503575","-2.04113018597997","-1.98640915593705","0","358.875"
"2620.38235","3.70386266094421","-3.19098712446352","0.858726752503575","-0.0411301859799714","1.01359084406295","0","358.875"
"2623.29412","3.70386266094421","0.809012875536481","1.85872675250357","-0.0411301859799714","1.01359084406295","0","358.875"
"2626.20588","3.70386266094421","0.809012875536481","1.85872675250357","0.958869814020029","0.0135908440629471","0","358.875"
"2629.11765","1.70386266094421","-5.19098712446352","1.85872675250357","0.958869814020029","0.0135908440629471","0","358.875"
"2632.02941","1.70386266094421","-5.19098712446352","1.85872675250357","-1.04113018597997","1.01359084406295","0","358.875"
"2634.94118","1.70386266094421","-5.19098712446352","1.85872675250357","-1.04113018597997","1.01359084406295","0","358.875"
"2637.85294","1.70386266094421","-5.19098712446352","1.85872675250357","-1.04113018597997","1.01359084406295","0","358.875"
"2640.76471","4.70386266094421","0.809012875536481","-1.14127324749643","-1.04113018597997","1.01359084406295","0","358.875"
"2643.67647","4.70386266094421","0.809012875536481","-1.14127324749643","-1.04113018597997","1.01359084406295","0","358.875"
"2646.58824","1.70386266094421","-2.19098712446352","1.85872675250357","-1.04113018597997","1.01359084406295","0","358.875"
"2649.5","1.70386266094421","-2.19098712446352","1.85872675250357","-4.04113018597997","2.01359084406295","0","358.875"
"2652.41176","1.70386266094421","1.80901287553648","1.85872675250357","-4.04113018597997","2.01359084406295","0","358.875"
"2655.32353","1.70386266094421","1.80901287553648","1.85872675250357","2.95886981402003","1.01359084406295","0","358.875"
"2658.23529","1.70386266094421","4.80901287553648","-2.14127324749643","2.95886981402003","1.01359084406295","0","358.875"
"2661.14706","1.70386266094421","4.80901287553648","-2.14127324749643","0.958869814020029","0.0135908440629471","0","358.875"
"2664.05882","2.70386266094421","-8.19098712446352","1.85872675250357","0.958869814020029","0.0135908440629471","0","358.875"
"2666.97059","2.70386266094421","-8.19098712446352","1.85872675250357","0.958869814020029","0.0135908440629471","0","358.875"
"2669.88235","-0.296137339055794","0.809012875536481","0.858726752503575","0.958869814020029","0.0135908440629471","0","358.875"
"2672.79412","-0.296137339055794","0.809012875536481","0.858726752503575","-0.0411301859799714","1.01359084406295","0","358.875"
"2675.70588","2.70386266094421","7.80901287553648","-7.14127324749643","-0.0411301859799714","1.01359084406295","0","358.875"
"2678.61765","2.70386266094421","7.80901287553648","-7.14127324749643","0.958869814020029","0.0135908440629471","0","358.875"
"2681.52941","-0.296137339055794","-7.19098712446352","-1.14127324749643","0.958869814020029","0.0135908440629471","0","358.875"
"2684.44118","-0.296137339055794","-7.19098712446352","-1.14127324749643","0.958869814020029","0.0135908440629471","0","358.875"
"2687.35294","1.70386266094421","-1.19098712446352","-2.14127324749643","0.958869814020029","0.0135908440629471","0","358.875"
"2690.26471","1.70386266094421","-1.19098712446352","-2.14127324749643","-1.04113018597997","0.0135908440629471","0","358.875"
"2693.17647","1.70386266094421","-1.19098712446352","-2.14127324749643","-1.04113018597997","0.0135908440629471","0","358.875"
"2696.08824","1.70386266094421","-1.19098712446352","-2.14127324749643","-1.04113018597997","0.0135908440629471","0","358.875"
"2699","1.70386266094421","-1.19098712446352","-1.14127324749643","-1.04113018597997","0.0135908440629471","0","358.875"
"2703.2","1.70386266094421","-1.19098712446352","-1.14127324749643","0.958869814020029","2.01359084406295","0","358.875"
"2706.4","1.70386266094421","-1.19098712446352","-0.141273247496425","0.958869814020029","2.01359084406295","0","358.875"
"2709.6","1.70386266094421","-1.19098712446352","-0.141273247496425","-2.04113018597997","-1.98640915593705","0","358.875"
"2712.8","4.70386266094421","-0.190987124463519","-1.14127324749643","-2.04113018597997","-1.98640915593705","0","358.875"
"2716","4.70386266094421","-0.190987124463519","-1.14127324749643","2.95886981402003","0.0135908440629471","0","358.875"
"2719.2","1.70386266094421","-0.190987124463519","0.858726752503575","2.95886981402003","0.0135908440629471","0","358.875"
"2722.4","1.70386266094421","-0.190987124463519","0.858726752503575","2.95886981402003","0.0135908440629471","0","358.875"
"2725.6","1.70386266094421","-0.190987124463519","0.858726752503575","2.95886981402003","0.0135908440629471","0","358.875"
"2728.8","1.70386266094421","-0.190987124463519","0.858726752503575","0.958869814020029","-0.986409155937053","0","358.875"
"2732","0.703862660944206","-0.190987124463519","1.85872675250357","0.958869814020029","-0.986409155937053","0","358.875"
"2735.2","0.703862660944206","-0.190987124463519","1.85872675250357","0.958869814020029","-0.986409155937053","0","358.875"
"2738.4","4.70386266094421","1.80901287553648","-1.14127324749643","0.958869814020029","-0.986409155937053","0","358.875"
"2741.6","4.70386266094421","1.80901287553648","-1.14127324749643","-1.04113018597997","3.01359084406295","0","358.875"
"2744.8","2.70386266094421","3.80901287553648","0.858726752503575","-1.04113018597997","3.01359084406295","0","358.875"
"2748","2.70386266094421","3.80901287553648","0.858726752503575","-0.0411301859799714","2.01359084406295","0","358.875"
"2751.2","2.70386266094421","0.809012875536481","0.858726752503575","-0.0411301859799714","2.01359084406295","0","358.875"
"2754.4","2.70386266094421","0.809012875536481","0.858726752503575","-1.04113018597997","0.0135908440629471","0","358.875"
"2757.6","2.70386266094421","0.809012875536481","0.858726752503575","-1.04113018597997","0.0135908440629471","0","358.875"
"2760.8","2.70386266094421","0.809012875536481","0.858726752503575","-2.04113018597997","-0.986409155937053","0","358.875"
"2764","4.70386266094421","-1.19098712446352","-0.141273247496425","-2.04113018597997","-0.986409155937053","0","358.875"
"2767.2","4.70386266094421","-1.19098712446352","-0.141273247496425","-2.04113018597997","1.01359084406295","0","358.875"
"2770.4","4.70386266094421","3.80901287553648","-1.14127324749643","-2.04113018597997","1.01359084406295","0","358.875"
"2773.6","4.70386266094421","3.80901287553648","-1.14127324749643","-0.0411301859799714","1.01359084406295","0","358.875"
"2776.8","2.70386266094421","0.809012875536481","-0.141273247496425","-0.0411301859799714","1.01359084406295","0","358.875"
"2780","2.70386266094421","0.809012875536481","-0.141273247496425","1.95886981402003","0.0135908440629471","0","358.875"
"2783.2","0.703862660944206","-1.19098712446352","-1.14127324749643","1.95886981402003","0.0135908440629471","0","358.875"
"2786.4","0.703862660944206","-1.19098712446352","-1.14127324749643","-0.0411301859799714","2.01359084406295","0","358.875"
"2789.6","0.703862660944206","-1.19098712446352","-1.14127324749643","-0.0411301859799714","2.01359084406295","0","358.875"
"2792.8","0.703862660944206","-1.19098712446352","-1.14127324749643","-1.04113018597997","2.01359084406295","0","358.875"
"2796","2.70386266094421","-3.19098712446352","0.858726752503575","-1.04113018597997","2.01359084406295","0","358.875"
"2802.88235","2.70386266094421","-3.19098712446352","0.858726752503575","-1.04113018597997","-0.986409155937053","0","358.875"
"2805.76471","3.70386266094421","-1.19098712446352","0.858726752503575","-1.04113018597997","-0.986409155937053","0","358.875"
"2808.64706","3.70386266094421","-1.19098712446352","0.858726752503575","-1.04113018597997","1.01359084406295","0","358.875"
"2811.52941","3.70386266094421","-1.19098712446352","0.858726752503575","-1.04113018597997","1.01359084406295","0","358.875"
"2814.41176","3.70386266094421","-1.19098712446352","0.858726752503575","0.958869814020029","0.0135908440629471","0","358.875"
"2817.29412","0.703862660944206","-3.19098712446352","0.858726752503575","0.958869814020029","0.0135908440629471","0","358.875"
"2820.17647","0.703862660944206","-3.19098712446352","0.858726752503575","-1.04113018597997","0.0135908440629471","0","358.875"
"2823.05882","0.703862660944206","-3.19098712446352","0.858726752503575","-1.04113018597997","0.0135908440629471","0","358.875"
"2825.94118","0.703862660944206","-3.19098712446352","0.858726752503575","-2.04113018597997","1.01359084406295","0","358.875"
"2828.82353","1.70386266094421","1.80901287553648","-0.141273247496425","-2.04113018597997","1.01359084406295","0","358.875"
"2831.70588","1.70386266094421","1.80901287553648","-0.141273247496425","-0.0411301859799714","1.01359084406295","0","358.875"
"2834.58824","3.70386266094421","-4.19098712446352","-0.141273247496425","-0.0411301859799714","1.01359084406295","0","358.875"
"2837.47059","3.70386266094421","-4.19098712446352","-0.141273247496425","1.95886981402003","-2.98640915593705","0","358.875"
"2840.35294","2.70386266094421","-1.19098712446352","-1.14127324749643","1.95886981402003","-2.98640915593705","0","358.875"
"2843.23529","2.70386266094421","-1.19098712446352","-1.14127324749643","0.958869814020029","0.0135908440629471","0","358.875"
"2846.11765","3.70386266094421","0.809012875536481","-1.14127324749643","0.958869814020029","0.0135908440629471","0","358.875"
"2849","3.70386266094421","0.809012875536481","-1.14127324749643","0.958869814020029","1.01359084406295","0","358.875"
"2851.88235","3.70386266094421","0.809012875536481","-1.14127324749643","0.958869814020029","1.01359084406295","0","358.875"
"2854.76471","3.70386266094421","0.809012875536481","-1.14127324749643","-3.04113018597997","0.0135908440629471","0","358.875"
"2857.64706","2.70386266094421","-1.19098712446352","-2.14127324749643","-3.04113018597997","0.0135908440629471","0","358.875"
"2860.52941","2.70386266094421","-1.19098712446352","-2.14127324749643","0.958869814020029","0.0135908440629471","0","358.875"
"2863.41176","3.70386266094421","-0.190987124463519","-0.141273247496425","0.958869814020029","0.0135908440629471","0","358.875"
"2866.29412","3.70386266094421","-0.190987124463519","-0.141273247496425","1.95886981402003","2.01359084406295","0","358.875"
"2869.17647","3.70386266094421","0.809012875536481","0.858726752503575","1.95886981402003","2.01359084406295","0","358.875"
"2872.05882","3.70386266094421","0.809012875536481","0.858726752503575","0.958869814020029","1.01359084406295","0","358.875"
"2874.94118","4.70386266094421","-0.190987124463519","-0.141273247496425","0.958869814020029","1.01359084406295","0","358.875"
"2877.82353","4.70386266094421","-0.190987124463519","-0.141273247496425","-0.0411301859799714","0.0135908440629471","0","358.875"
"2880.70588","4.70386266094421","-0.190987124463519","-0.141273247496425","-0.0411301859799714","0.0135908440629471","0","358.875"
"2883.58824","4.70386266094421","-0.190987124463519","-0.141273247496425","-3.04113018597997","1.01359084406295","0","358.875"
"2886.47059","4.70386266094421","1.80901287553648","0.858726752503575","-3.04113018597997","1.01359084406295","0","358.875"
"2889.35294","4.70386266094421","1.80901287553648","0.858726752503575","-2.04113018597997","0.0135908440629471","0","358.875"
"2892.23529","1.70386266094421","-1.19098712446352","-1.14127324749643","-2.04113018597997","0.0135908440629471","0","358.875"
"2895.11765","1.70386266094421","-1.19098712446352","-1.14127324749643","-1.04113018597997","-1.98640915593705","0","358.875"
"2898","4.70386266094421","-1.19098712446352","-1.14127324749643","-1.04113018597997","-1.98640915593705","0","358.875"
"2903.39286","4.70386266094421","-1.19098712446352","-1.14127324749643","0.958869814020029","0.0135908440629471","0","358.875"
"2906.78571","3.70386266094421","-1.19098712446352","-1.14127324749643","0.958869814020029","0.0135908440629471","0","358.875"
"2910.17857","3.70386266094421","-1.19098712446352","-1.14127324749643","-0.0411301859799714","1.01359084406295","0","358.875"
"2913.57143","3.70386266094421","-1.19098712446352","-1.14127324749643","-0.0411301859799714","1.01359084406295","0","358.875"
"2916.96429","3.70386266094421","-1.19098712446352","-1.14127324749643","0.958869814020029","1.01359084406295","0","358.875"
"2920.35714","0.703862660944206","-1.19098712446352","-2.14127324749643","0.958869814020029","1.01359084406295","0","358.875"
"2923.75","0.703862660944206","-1.19098712446352","-2.14127324749643","0.958869814020029","2.01359084406295","0","358.875"
"2927.14286","2.70386266094421","-1.19098712446352","-1.14127324749643","0.958869814020029","2.01359084406295","0","358.875"
"2930.53571","2.70386266094421","-1.19098712446352","-1.14127324749643","-0.0411301859799714","1.01359084406295","0","358.875"
"2933.92857","1.70386266094421","0.809012875536481","1.85872675250357","-0.0411301859799714","1.01359084406295","0","358.875"
"2937.32143","1.70386266094421","0.809012875536481","1.85872675250357","-1.04113018597997","1.01359084406295","0","358.875"
"2940.71429","2.70386266094421","-0.190987124463519","-2.14127324749643","-1.04113018597997","1.01359084406295","0","358.875"
"2944.10714","2.70386266094421","-0.190987124463519","-2.14127324749643","-0.0411301859799714","2.01359084406295","0","358.875"
"2947.5","2.70386266094421","-0.190987124463519","-2.14127324749643","-0.0411301859799714","2.01359084406295","0","358.875"
"2950.89286","2.70386266094421","-0.190987124463519","-2.14127324749643","0.958869814020029","3.01359084406295","0","358.875"
"2954.28571","-0.296137339055794","0.809012875536481","-0.141273247496425","0.958869814020029","3.01359084406295","0","358.875"
"2957.67857","-0.296137339055794","0.809012875536481","-0.141273247496425","0.958869814020029","2.01359084406295","0","358.875"
"2961.07143","1.70386266094421","0.809012875536481","-2.14127324749643","0.958869814020029","2.01359084406295","0","358.875"
"2964.46429","1.70386266094421","0.809012875536481","-2.14127324749643","1.95886981402003","1.01359084406295","0","358.875"
"2967.85714","0.703862660944206","-1.19098712446352","-0.141273247496425","1.95886981402003","1.01359084406295","0","358.875"
"2971.25","0.703862660944206","-1.19098712446352","-0.141273247496425","-0.0411301859799714","2.01359084406295","0","358.875"
"2974.64286","2.70386266094421","0.809012875536481","3.85872675250357","-0.0411301859799714","2.01359084406295","0","358.875"
"2978.03571","2.70386266094421","0.809012875536481","3.85872675250357","-1.04113018597997","0.0135908440629471","0","358.875"
"2981.42857","2.70386266094421","0.809012875536481","3.85872675250357","-1.04113018597997","0.0135908440629471","0","358.875"
"2984.82143","2.70386266094421","0.809012875536481","3.85872675250357","1.95886981402003","3.01359084406295","0","358.875"
"2988.21429","4.70386266094421","0.809012875536481","2.85872675250357","1.95886981402003","3.01359084406295","0","358.875"
"2991.60714","4.70386266094421","0.809012875536481","2.85872675250357","-0.0411301859799714","1.01359084406295","0","358.875"
"2995","2.70386266094421","-1.19098712446352","0.858726752503575","-0.0411301859799714","1.01359084406295","0","358.875"
"3002.82353","2.70386266094421","-1.19098712446352","0.858726752503575","0.958869814020029","1.01359084406295","0","358.875"
"3005.64706","3.70386266094421","-1.19098712446352","-0.141273247496425","0.958869814020029","1.01359084406295","0","358.875"
"3008.47059","3.70386266094421","-1.19098712446352","-0.141273247496425","-0.0411301859799714","0.0135908440629471","0","358.875"
"3011.29412","3.70386266094421","0.809012875536481","-1.14127324749643","-0.0411301859799714","0.0135908440629471","0","358.875"
"3014.11765","3.70386266094421","0.809012875536481","-1.14127324749643","2.95886981402003","1.01359084406295","0","358.875"
"3016.94118","3.70386266094421","0.809012875536481","-1.14127324749643","2.95886981402003","1.01359084406295","0","358.875"
"3019.76471","3.70386266094421","0.809012875536481","-1.14127324749643","2.95886981402003","2.01359084406295","0","358.875"
"3022.58824","1.70386266094421","-0.190987124463519","3.85872675250357","2.95886981402003","2.01359084406295","0","358.875"
"3025.41176","1.70386266094421","-0.190987124463519","3.85872675250357","-0.0411301859799714","2.01359084406295","0","358.875"
"3028.23529","1.70386266094421","-1.19098712446352","-1.14127324749643","-0.0411301859799714","2.01359084406295","0","358.875"
"3031.05882","1.70386266094421","-1.19098712446352","-1.14127324749643","-4.04113018597997","0.0135908440629471","0","358.875"
"3033.88235","2.70386266094421","0.809012875536481","-2.14127324749643","-4.04113018597997","0.0135908440629471","0","358.875"
"3036.70588","2.70386266094421","0.809012875536481","-2.14127324749643","-2.04113018597997","-0.986409155937053","0","358.875"
"3039.52941","3.70386266094421","0.809012875536481","-1.14127324749643","-2.04113018597997","-0.986409155937053","0","358.875"
"3042.35294","3.70386266094421","0.809012875536481","-1.14127324749643","-1.04113018597997","0.0135908440629471","0","358.875"
"3045.17647","3.70386266094421","0.809012875536481","-1.14127324749643","-1.04113018597997","0.0135908440629471","0","358.875"
"3048","3.70386266094421","0.809012875536481","-1.14127324749643","-0.0411301859799714","0.0135908440629471","0","358.875"
"3050.82353","2.70386266094421","-0.190987124463519","-1.14127324749643","-0.0411301859799714","0.0135908440629471","0","358.875"
"3053.64706","2.70386266094421","-0.190987124463519","-1.14127324749643","0.958869814020029","2.01359084406295","0","358.875"
"3056.47059","5.70386266094421","1.80901287553648","-0.141273247496425","0.958869814020029","2.01359084406295","0","358.875"
"3059.29412","5.70386266094421","1.80901287553648","-0.141273247496425","0.958869814020029","3.01359084406295","0","358.875"
"3062.11765","4.70386266094421","1.80901287553648","0.858726752503575","0.958869814020029","3.01359084406295","0","358.875"
"3064.94118","4.70386266094421","1.80901287553648","0.858726752503575","-0.0411301859799714","-0.986409155937053","0","358.875"
"3067.76471","2.70386266094421","-0.190987124463519","0.858726752503575","-0.0411301859799714","-0.986409155937053","0","358.875"
"3070.58824","2.70386266094421","-0.190987124463519","0.858726752503575","1.95886981402003","0.0135908440629471","0","358.875"
"3073.41176","2.70386266094421","-0.190987124463519","0.858726752503575","1.95886981402003","0.0135908440629471","0","358.875"
"3076.23529","2.70386266094421","-0.190987124463519","0.858726752503575","-1.04113018597997","3.01359084406295","0","358.875"
"3079.05882","-0.296137339055794","-1.19098712446352","0.858726752503575","-1.04113018597997","3.01359084406295","0","358.875"
"3081.88235","-0.296137339055794","-1.19098712446352","0.858726752503575","-2.04113018597997","3.01359084406295","0","358.875"
"3084.70588","2.70386266094421","-1.19098712446352","-2.14127324749643","-2.04113018597997","3.01359084406295","0","358.875"
"3087.52941","2.70386266094421","-1.19098712446352","-2.14127324749643","0.958869814020029","-0.986409155937053","0","358.875"
"3090.35294","3.70386266094421","-0.190987124463519","-0.141273247496425","0.958869814020029","-0.986409155937053","0","358.875"
