Timer,AX,AY,AZ,GX,GY,GZ,A
"8","-0.829977628635347","2.46457867263236","-0.581655480984342","-0.939597315436242","0.980611483967189","0","0.0625"
"3.80769","1.17002237136465","2.46457867263236","1.41834451901566","-0.939597315436242","0.980611483967189","0","0.0625"
"7.61538","1.17002237136465","2.46457867263236","1.41834451901566","-2.93959731543624","-0.0193885160328113","0","0.0625"
"11.42308","-0.829977628635347","2.46457867263236","-1.58165548098434","-2.93959731543624","-0.0193885160328113","0","0.0625"
"15.23077","-0.829977628635347","2.46457867263236","-1.58165548098434","1.06040268456376","1.98061148396719","0","0.0625"
"19.03846","1.17002237136465","0.464578672632364","0.418344519015658","1.06040268456376","1.98061148396719","0","0.0625"
"22.84615","1.17002237136465","0.464578672632364","0.418344519015658","0.0604026845637584","-0.0193885160328113","0","0.0625"
"26.65385","2.17002237136465","0.464578672632364","-2.58165548098434","0.0604026845637584","-0.0193885160328113","0","0.0625"
"30.46154","2.17002237136465","0.464578672632364","-2.58165548098434","-0.939597315436242","0.980611483967189","0","0.0625"
"34.26923","0.170022371364653","2.46457867263236","-1.58165548098434","-0.939597315436242","0.980611483967189","0","0.0625"
"38.07692","0.170022371364653","2.46457867263236","-1.58165548098434","-0.939597315436242","0.980611483967189","0","0.0625"
"41.88462","2.17002237136465","-0.535421327367636","-0.581655480984342","-0.939597315436242","0.980611483967189","0","0.0625"
"45.69231","2.17002237136465","-0.535421327367636","-0.581655480984342","0.0604026845637584","-1.01938851603281","0","0.0625"
"49.5","1.17002237136465","2.46457867263236","1.41834451901566","0.0604026845637584","-1.01938851603281","0","0.0625"
"53.30769","1.17002237136465","2.46457867263236","1.41834451901566","-1.93959731543624","2.98061148396719","0","0.0625"
"57.11538","2.17002237136465","1.46457867263236","-0.581655480984342","-1.93959731543624","2.98061148396719","0","0.0625"
"60.92308","2.17002237136465","1.46457867263236","-0.581655480984342","1.06040268456376","1.98061148396719","0","0.0625"
"64.73077","3.17002237136465","1.46457867263236","-2.58165548098434","1.06040268456376","1.98061148396719","0","0.0625"
"68.53846","3.17002237136465","1.46457867263236","-2.58165548098434","1.06040268456376","2.98061148396719","0","0.0625"
"72.34615","2.17002237136465","-0.535421327367636","-0.581655480984342","1.06040268456376","2.98061148396719","0","0.0625"
"76.15385","2.17002237136465","-0.535421327367636","-0.581655480984342","-3.93959731543624","2.98061148396719","0","0.0625"
"79.96154","2.17002237136465","0.464578672632364","-1.58165548098434","-3.93959731543624","2.98061148396719","0","0.0625"
"83.76923","2.17002237136465","0.464578672632364","-1.58165548098434","-2.93959731543624","2.98061148396719","0","0.0625"
"87.57692","1.17002237136465","0.464578672632364","1.41834451901566","-2.93959731543624","2.98061148396719","0","0.0625"
"91.38462","1.17002237136465","0.464578672632364","1.41834451901566","1.06040268456376","1.98061148396719","0","0.0625"
"95.19231","0.170022371364653","2.46457867263236","1.41834451901566","1.06040268456376","1.98061148396719","0","0.0625"
"99","0.170022371364653","2.46457867263236","1.41834451901566","-3.93959731543624","3.98061148396719","0","0.0625"
"100","1.17002237136465","1.46457867263236","-1.58165548098434","-3.93959731543624","3.98061148396719","0","0.0625"
"103.09375","1.17002237136465","1.46457867263236","-1.58165548098434","-1.93959731543624","0.980611483967189","0","0.0625"
"106.1875","1.17002237136465","2.46457867263236","1.41834451901566","-1.93959731543624","0.980611483967189","0","0.0625"
"109.28125","1.17002237136465","2.46457867263236","1.41834451901566","-2.93959731543624","-2.01938851603281","0","0.0625"
"112.375","-0.829977628635347","1.46457867263236","-0.581655480984342","-2.93959731543624","-2.01938851603281","0","0.0625"
"115.46875","-0.829977628635347","1.46457867263236","-0.581655480984342","-1.93959731543624","1.98061148396719","0","0.0625"
"118.5625","1.17002237136465","2.46457867263236","1.41834451901566","-1.93959731543624","1.98061148396719","0","0.0625"
"121.65625","1.17002237136465","2.46457867263236","1.41834451901566","-0.939597315436242","0.980611483967189","0","0.0625"
"124.75","-1.82997762863535","-0.535421327367636","-0.581655480984342","-0.939597315436242","0.980611483967189","0","0.0625"
"127.84375","-1.82997762863535","-0.535421327367636","-0.581655480984342","1.06040268456376","-1.01938851603281","0","0.0625"
"130.9375","0.170022371364653","-0.535421327367636","-3.58165548098434","1.06040268456376","-1.01938851603281","0","0.0625"
"134.03125","0.170022371364653","-0.535421327367636","-3.58165548098434","1.06040268456376","-1.01938851603281","0","0.0625"
"137.125","0.170022371364653","0.464578672632364","2.41834451901566","1.06040268456376","-1.01938851603281","0","0.0625"
"140.21875","0.170022371364653","0.464578672632364","2.41834451901566","2.06040268456376","-1.01938851603281","0","0.0625"
"143.3125","-0.829977628635347","1.46457867263236","1.41834451901566","2.06040268456376","-1.01938851603281","0","0.0625"
"146.40625","-0.829977628635347","1.46457867263236","1.41834451901566","0.0604026845637584","0.980611483967189","0","0.0625"
"149.5","-0.829977628635347","2.46457867263236","1.41834451901566","0.0604026845637584","0.980611483967189","0","0.0625"
"152.59375","-0.829977628635347","2.46457867263236","1.41834451901566","6.06040268456376","0.980611483967189","0","0.0625"
"155.6875","-2.82997762863535","1.46457867263236","-0.581655480984342","6.06040268456376","0.980611483967189","0","0.0625"
"158.78125","-2.82997762863535","1.46457867263236","-0.581655480984342","3.06040268456376","1.98061148396719","0","0.0625"
"161.875","0.170022371364653","-0.535421327367636","-1.58165548098434","3.06040268456376","1.98061148396719","0","0.0625"
"164.96875","0.170022371364653","-0.535421327367636","-1.58165548098434","-0.939597315436242","-3.01938851603281","0","0.0625"
"168.0625","-0.829977628635347","0.464578672632364","0.418344519015658","-0.939597315436242","-3.01938851603281","0","0.0625"
"171.15625","-0.829977628635347","0.464578672632364","0.418344519015658","-0.939597315436242","-2.01938851603281","0","0.0625"
"174.25","1.17002237136465","2.46457867263236","1.41834451901566","-0.939597315436242","-2.01938851603281","0","0.0625"
"177.34375","1.17002237136465","2.46457867263236","1.41834451901566","2.06040268456376","-0.0193885160328113","0","0.0625"
"180.4375","-0.829977628635347","-0.535421327367636","1.41834451901566","2.06040268456376","-0.0193885160328113","0","0.0625"
"183.53125","-0.829977628635347","-0.535421327367636","1.41834451901566","2.06040268456376","-0.0193885160328113","0","0.0625"
"186.625","1.17002237136465","0.464578672632364","-0.581655480984342","2.06040268456376","-0.0193885160328113","0","0.0625"
"189.71875","1.17002237136465","0.464578672632364","-0.581655480984342","0.0604026845637584","-1.01938851603281","0","0.0625"
"192.8125","1.17002237136465","0.464578672632364","1.41834451901566","0.0604026845637584","-1.01938851603281","0","0.0625"
"195.90625","1.17002237136465","0.464578672632364","1.41834451901566","-1.93959731543624","-0.0193885160328113","0","0.0625"
"199","0.170022371364653","2.46457867263236","1.41834451901566","-1.93959731543624","-0.0193885160328113","0","0.0625"
"203.39286","0.170022371364653","2.46457867263236","1.41834451901566","-2.93959731543624","0.980611483967189","0","0.0625"
"206.78571","1.17002237136465","0.464578672632364","-0.581655480984342","-2.93959731543624","0.980611483967189","0","0.0625"
"210.17857","1.17002237136465","0.464578672632364","-0.581655480984342","1.06040268456376","-0.0193885160328113","0","0.0625"
"213.57143","-1.82997762863535","1.46457867263236","-0.581655480984342","1.06040268456376","-0.0193885160328113","0","0.0625"
"216.96429","-1.82997762863535","1.46457867263236","-0.581655480984342","-0.939597315436242","-0.0193885160328113","0","0.0625"
"220.35714","-1.82997762863535","0.464578672632364","-1.58165548098434","-0.939597315436242","-0.0193885160328113","0","0.0625"
"223.75","-1.82997762863535","0.464578672632364","-1.58165548098434","1.06040268456376","-0.0193885160328113","0","0.0625"
"227.14286","-0.829977628635347","2.46457867263236","-0.581655480984342","1.06040268456376","-0.0193885160328113","0","0.0625"
"230.53571","-0.829977628635347","2.46457867263236","-0.581655480984342","1.06040268456376","-0.0193885160328113","0","0.0625"
"233.92857","0.170022371364653","-0.535421327367636","0.418344519015658","1.06040268456376","-0.0193885160328113","0","0.0625"
"237.32143","0.170022371364653","-0.535421327367636","0.418344519015658","1.06040268456376","0.980611483967189","0","0.0625"
"240.71429","0.170022371364653","0.464578672632364","0.418344519015658","1.06040268456376","0.980611483967189","0","0.0625"
"244.10714","0.170022371364653","0.464578672632364","0.418344519015658","4.06040268456376","-2.01938851603281","0","0.0625"
"247.5","1.17002237136465","1.46457867263236","0.418344519015658","4.06040268456376","-2.01938851603281","0","0.0625"
"250.89286","1.17002237136465","1.46457867263236","0.418344519015658","2.06040268456376","-1.01938851603281","0","0.0625"
"254.28571","0.170022371364653","2.46457867263236","-2.58165548098434","2.06040268456376","-1.01938851603281","0","0.0625"
"257.67857","0.170022371364653","2.46457867263236","-2.58165548098434","-0.939597315436242","-0.0193885160328113","0","0.0625"
"261.07143","0.170022371364653","1.46457867263236","-2.58165548098434","-0.939597315436242","-0.0193885160328113","0","0.0625"
"264.46429","0.170022371364653","1.46457867263236","-2.58165548098434","1.06040268456376","1.98061148396719","0","0.0625"
"267.85714","0.170022371364653","-0.535421327367636","-1.58165548098434","1.06040268456376","1.98061148396719","0","0.0625"
"271.25","0.170022371364653","-0.535421327367636","-1.58165548098434","-2.93959731543624","-2.01938851603281","0","0.0625"
"274.64286","0.170022371364653","0.464578672632364","-0.581655480984342","-2.93959731543624","-2.01938851603281","0","0.0625"
"278.03571","0.170022371364653","0.464578672632364","-0.581655480984342","2.06040268456376","-0.0193885160328113","0","0.0625"
"281.42857","2.17002237136465","3.46457867263236","-1.58165548098434","2.06040268456376","-0.0193885160328113","0","0.0625"
"284.82143","2.17002237136465","3.46457867263236","-1.58165548098434","2.06040268456376","0.980611483967189","0","0.0625"
"288.21429","0.170022371364653","2.46457867263236","0.418344519015658","2.06040268456376","0.980611483967189","0","0.0625"
"291.60714","0.170022371364653","2.46457867263236","0.418344519015658","2.06040268456376","0.980611483967189","0","0.0625"
"295","-1.82997762863535","-1.53542132736764","-0.581655480984342","2.06040268456376","0.980611483967189","0","0.0625"
"302.82353","-1.82997762863535","-1.53542132736764","-0.581655480984342","0.0604026845637584","-0.0193885160328113","0","0.0625"
"305.64706","-0.829977628635347","2.46457867263236","1.41834451901566","0.0604026845637584","-0.0193885160328113","0","0.0625"
"308.47059","-0.829977628635347","2.46457867263236","1.41834451901566","-0.939597315436242","-0.0193885160328113","0","0.0625"
"311.29412","0.170022371364653","2.46457867263236","1.41834451901566","-0.939597315436242","-0.0193885160328113","0","0.0625"
"314.11765","0.170022371364653","2.46457867263236","1.41834451901566","0.0604026845637584","-2.01938851603281","0","0.0625"
"316.94118","0.170022371364653","0.464578672632364","0.418344519015658","0.0604026845637584","-2.01938851603281","0","0.0625"
"319.76471","0.170022371364653","0.464578672632364","0.418344519015658","3.06040268456376","0.980611483967189","0","0.0625"
"322.58824","-0.829977628635347","0.464578672632364","-0.581655480984342","3.06040268456376","0.980611483967189","0","0.0625"
"325.41176","-0.829977628635347","0.464578672632364","-0.581655480984342","2.06040268456376","0.980611483967189","0","0.0625"
"328.23529","0.170022371364653","2.46457867263236","0.418344519015658","2.06040268456376","0.980611483967189","0","0.0625"
"331.05882","0.170022371364653","2.46457867263236","0.418344519015658","3.06040268456376","0.980611483967189","0","0.0625"
"333.88235","0.170022371364653","2.46457867263236","0.418344519015658","3.06040268456376","0.980611483967189","0","0.0625"
"336.70588","0.170022371364653","2.46457867263236","0.418344519015658","2.06040268456376","0.980611483967189","0","0.0625"
"339.52941","1.17002237136465","0.464578672632364","1.41834451901566","2.06040268456376","0.980611483967189","0","0.0625"
"342.35294","1.17002237136465","0.464578672632364","1.41834451901566","2.06040268456376","-1.01938851603281","0","0.0625"
"345.17647","0.170022371364653","0.464578672632364","-0.581655480984342","2.06040268456376","-1.01938851603281","0","0.0625"
"348","0.170022371364653","0.464578672632364","-0.581655480984342","5.06040268456376","-2.01938851603281","0","0.0625"
"350.82353","1.17002237136465","2.46457867263236","0.418344519015658","5.06040268456376","-2.01938851603281","0","0.0625"
"353.64706","1.17002237136465","2.46457867263236","0.418344519015658","0.0604026845637584","-1.01938851603281","0","0.0625"
"356.47059","-0.829977628635347","0.464578672632364","-0.581655480984342","0.0604026845637584","-1.01938851603281","0","0.0625"
"359.29412","-0.829977628635347","0.464578672632364","-0.581655480984342","2.06040268456376","-3.01938851603281","0","0.0625"
"362.11765","-2.82997762863535","4.46457867263236","-2.58165548098434","2.06040268456376","-3.01938851603281","0","0.0625"
"364.94118","-2.82997762863535","4.46457867263236","-2.58165548098434","0.0604026845637584","-2.01938851603281","0","0.0625"
"367.76471","-0.829977628635347","0.464578672632364","-1.58165548098434","0.0604026845637584","-2.01938851603281","0","0.0625"
"370.58824","-0.829977628635347","0.464578672632364","-1.58165548098434","0.0604026845637584","-1.01938851603281","0","0.0625"
"373.41176","1.17002237136465","0.464578672632364","2.41834451901566","0.0604026845637584","-1.01938851603281","0","0.0625"
"376.23529","1.17002237136465","0.464578672632364","2.41834451901566","1.06040268456376","-0.0193885160328113","0","0.0625"
"379.05882","0.170022371364653","1.46457867263236","0.418344519015658","1.06040268456376","-0.0193885160328113","0","0.0625"
"381.88235","0.170022371364653","1.46457867263236","0.418344519015658","1.06040268456376","-1.01938851603281","0","0.0625"
"384.70588","0.170022371364653","-0.535421327367636","-0.581655480984342","1.06040268456376","-1.01938851603281","0","0.0625"
"387.52941","0.170022371364653","-0.535421327367636","-0.581655480984342","2.06040268456376","-2.01938851603281","0","0.0625"
"390.35294","0.170022371364653","2.46457867263236","1.41834451901566","2.06040268456376","-2.01938851603281","0","0.0625"
"393.17647","0.170022371364653","2.46457867263236","1.41834451901566","0.0604026845637584","-0.0193885160328113","0","0.0625"
"396","-0.829977628635347","3.46457867263236","1.41834451901566","0.0604026845637584","-0.0193885160328113","0","0.0625"
"403.2","-0.829977628635347","3.46457867263236","1.41834451901566","1.06040268456376","2.98061148396719","0","0.0625"
"406.4","1.17002237136465","-0.535421327367636","1.41834451901566","1.06040268456376","2.98061148396719","0","0.0625"
"409.6","1.17002237136465","-0.535421327367636","1.41834451901566","-3.93959731543624","1.98061148396719","0","0.0625"
"412.8","0.170022371364653","0.464578672632364","2.41834451901566","-3.93959731543624","1.98061148396719","0","0.0625"
"416","0.170022371364653","0.464578672632364","2.41834451901566","-1.93959731543624","1.98061148396719","0","0.0625"
"419.2","0.170022371364653","3.46457867263236","-0.581655480984342","-1.93959731543624","1.98061148396719","0","0.0625"
"422.4","0.170022371364653","3.46457867263236","-0.581655480984342","-0.939597315436242","1.98061148396719","0","0.0625"
"425.6","-1.82997762863535","0.464578672632364","1.41834451901566","-0.939597315436242","1.98061148396719","0","0.0625"
"428.8","-1.82997762863535","0.464578672632364","1.41834451901566","0.0604026845637584","1.98061148396719","0","0.0625"
"432","-0.829977628635347","0.464578672632364","0.418344519015658","0.0604026845637584","1.98061148396719","0","0.0625"
"435.2","-0.829977628635347","0.464578672632364","0.418344519015658","0.0604026845637584","3.98061148396719","0","0.0625"
"438.4","0.170022371364653","1.46457867263236","1.41834451901566","0.0604026845637584","3.98061148396719","0","0.0625"
"441.6","0.170022371364653","1.46457867263236","1.41834451901566","1.06040268456376","2.98061148396719","0","0.0625"
"444.8","-0.829977628635347","3.46457867263236","0.418344519015658","1.06040268456376","2.98061148396719","0","0.0625"
"448","-0.829977628635347","3.46457867263236","0.418344519015658","1.06040268456376","-0.0193885160328113","0","0.0625"
"451.2","1.17002237136465","2.46457867263236","-0.581655480984342","1.06040268456376","-0.0193885160328113","0","0.0625"
"454.4","1.17002237136465","2.46457867263236","-0.581655480984342","-0.939597315436242","-0.0193885160328113","0","0.0625"
"457.6","1.17002237136465","-0.535421327367636","1.41834451901566","-0.939597315436242","-0.0193885160328113","0","0.0625"
"460.8","1.17002237136465","-0.535421327367636","1.41834451901566","-0.939597315436242","-1.01938851603281","0","0.0625"
"464","-1.82997762863535","-0.535421327367636","1.41834451901566","-0.939597315436242","-1.01938851603281","0","0.0625"
"467.2","-1.82997762863535","-0.535421327367636","1.41834451901566","-2.93959731543624","-1.01938851603281","0","0.0625"
"470.4","-0.829977628635347","1.46457867263236","-0.581655480984342","-2.93959731543624","-1.01938851603281","0","0.0625"
"473.6","-0.829977628635347","1.46457867263236","-0.581655480984342","-1.93959731543624","-1.01938851603281","0","0.0625"
"476.8","-0.829977628635347","0.464578672632364","-0.581655480984342","-1.93959731543624","-1.01938851603281","0","0.0625"
"480","-0.829977628635347","0.464578672632364","-0.581655480984342","-0.939597315436242","1.98061148396719","0","0.0625"
"483.2","0.170022371364653","-1.53542132736764","-1.58165548098434","-0.939597315436242","1.98061148396719","0","0.0625"
"486.4","0.170022371364653","-1.53542132736764","-1.58165548098434","0.0604026845637584","0.980611483967189","0","0.0625"
"489.6","-1.82997762863535","1.46457867263236","-0.581655480984342","0.0604026845637584","0.980611483967189","0","0.0625"
"492.8","-1.82997762863535","1.46457867263236","-0.581655480984342","-2.93959731543624","-0.0193885160328113","0","0.0625"
"496","0.170022371364653","1.46457867263236","-0.581655480984342","-2.93959731543624","-0.0193885160328113","0","0.0625"
"502.96875","0.170022371364653","1.46457867263236","-0.581655480984342","-1.93959731543624","-0.0193885160328113","0","0.0625"
"505.9375","1.17002237136465","2.46457867263236","2.41834451901566","-1.93959731543624","-0.0193885160328113","0","0.0625"
"508.90625","1.17002237136465","2.46457867263236","2.41834451901566","-0.939597315436242","-1.01938851603281","0","0.0625"
"511.875","-1.82997762863535","1.46457867263236","0.418344519015658","-0.939597315436242","-1.01938851603281","0","0.0625"
"514.84375","-1.82997762863535","1.46457867263236","0.418344519015658","-1.93959731543624","0.980611483967189","0","0.0625"
"517.8125","1.17002237136465","2.46457867263236","-1.58165548098434","-1.93959731543624","0.980611483967189","0","0.0625"
"520.78125","1.17002237136465","2.46457867263236","-1.58165548098434","0.0604026845637584","-0.0193885160328113","0","0.0625"
"523.75","-1.82997762863535","-0.535421327367636","1.41834451901566","0.0604026845637584","-0.0193885160328113","0","0.0625"
"526.71875","-1.82997762863535","-0.535421327367636","1.41834451901566","0.0604026845637584","-0.0193885160328113","0","0.0625"
"529.6875","-4.82997762863535","2.46457867263236","0.418344519015658","0.0604026845637584","-0.0193885160328113","0","0.0625"
"532.65625","-4.82997762863535","2.46457867263236","0.418344519015658","-1.93959731543624","1.98061148396719","0","0.0625"
"535.625","0.170022371364653","2.46457867263236","-0.581655480984342","-1.93959731543624","1.98061148396719","0","0.0625"
"538.59375","0.170022371364653","2.46457867263236","-0.581655480984342","2.06040268456376","2.98061148396719","0","0.0625"
"541.5625","-3.82997762863535","3.46457867263236","0.418344519015658","2.06040268456376","2.98061148396719","0","0.0625"
"544.53125","-3.82997762863535","3.46457867263236","0.418344519015658","0.0604026845637584","-1.01938851603281","0","0.0625"
"547.5","0.170022371364653","0.464578672632364","-1.58165548098434","0.0604026845637584","-1.01938851603281","0","0.0625"
"550.46875","0.170022371364653","0.464578672632364","-1.58165548098434","-0.939597315436242","0.980611483967189","0","0.0625"
"553.4375","-1.82997762863535","4.46457867263236","1.41834451901566","-0.939597315436242","0.980611483967189","0","0.0625"
"556.40625","-1.82997762863535","4.46457867263236","1.41834451901566","1.06040268456376","-0.0193885160328113","0","0.0625"
"559.375","-2.82997762863535","2.46457867263236","1.41834451901566","1.06040268456376","-0.0193885160328113","0","0.0625"
"562.34375","-2.82997762863535","2.46457867263236","1.41834451901566","2.06040268456376","0.980611483967189","0","0.0625"
"565.3125","-0.829977628635347","1.46457867263236","1.41834451901566","2.06040268456376","0.980611483967189","0","0.0625"
"568.28125","-0.829977628635347","1.46457867263236","1.41834451901566","0.0604026845637584","-3.01938851603281","0","0.0625"
"571.25","1.17002237136465","2.46457867263236","0.418344519015658","0.0604026845637584","-3.01938851603281","0","0.0625"
"574.21875","1.17002237136465","2.46457867263236","0.418344519015658","1.06040268456376","-3.01938851603281","0","0.0625"
"577.1875","7.17002237136465","0.464578672632364","2.41834451901566","1.06040268456376","-3.01938851603281","0","0.0625"
"580.15625","7.17002237136465","0.464578672632364","2.41834451901566","-0.939597315436242","-3.01938851603281","0","0.0625"
"583.125","-0.829977628635347","-3.53542132736764","0.418344519015658","-0.939597315436242","-3.01938851603281","0","0.0625"
"586.09375","-0.829977628635347","-3.53542132736764","0.418344519015658","-3.93959731543624","-0.0193885160328113","0","0.0625"
"589.0625","-4.82997762863535","-0.535421327367636","-3.58165548098434","-3.93959731543624","-0.0193885160328113","0","0.0625"
"592.03125","-4.82997762863535","-0.535421327367636","-3.58165548098434","-3.93959731543624","0.980611483967189","0","0.0625"
"595","0.170022371364653","6.46457867263236","0.418344519015658","-3.93959731543624","0.980611483967189","0","0.0625"
"600","0.170022371364653","6.46457867263236","0.418344519015658","1.06040268456376","-1.01938851603281","0","0.0625"
"603.19355","1.17002237136465","1.46457867263236","2.41834451901566","1.06040268456376","-1.01938851603281","0","0.0625"
"606.3871","1.17002237136465","1.46457867263236","2.41834451901566","3.06040268456376","-0.0193885160328113","0","0.0625"
"609.58065","-1.82997762863535","-9.53542132736764","2.41834451901566","3.06040268456376","-0.0193885160328113","0","0.0625"
"612.77419","-1.82997762863535","-9.53542132736764","2.41834451901566","-3.93959731543624","-0.0193885160328113","0","0.0625"
"615.96774","-7.82997762863535","7.46457867263236","-5.58165548098434","-3.93959731543624","-0.0193885160328113","0","0.0625"
"619.16129","-7.82997762863535","7.46457867263236","-5.58165548098434","-3.93959731543624","1.98061148396719","0","0.0625"
"622.35484","0.170022371364653","4.46457867263236","-0.581655480984342","-3.93959731543624","1.98061148396719","0","0.0625"
"625.54839","0.170022371364653","4.46457867263236","-0.581655480984342","5.06040268456376","-2.01938851603281","0","0.0625"
"628.74194","3.17002237136465","-5.53542132736764","3.41834451901566","5.06040268456376","-2.01938851603281","0","0.0625"
"631.93548","3.17002237136465","-5.53542132736764","3.41834451901566","-3.93959731543624","-2.01938851603281","0","0.0625"
"635.12903","-0.829977628635347","-2.53542132736764","0.418344519015658","-3.93959731543624","-2.01938851603281","0","0.0625"
"638.32258","-0.829977628635347","-2.53542132736764","0.418344519015658","-5.93959731543624","-2.01938851603281","0","0.0625"
"641.51613","-1.82997762863535","8.46457867263236","-4.58165548098434","-5.93959731543624","-2.01938851603281","0","0.0625"
"644.70968","-1.82997762863535","8.46457867263236","-4.58165548098434","4.06040268456376","-2.01938851603281","0","0.0625"
"647.90323","1.17002237136465","-6.53542132736764","-0.581655480984342","4.06040268456376","-2.01938851603281","0","0.0625"
"651.09677","1.17002237136465","-6.53542132736764","-0.581655480984342","0.0604026845637584","-1.01938851603281","0","0.0625"
"654.29032","4.17002237136465","-9.53542132736764","4.41834451901566","0.0604026845637584","-1.01938851603281","0","0.0625"
"657.48387","4.17002237136465","-9.53542132736764","4.41834451901566","-4.93959731543624","-2.01938851603281","0","0.0625"
"660.67742","0.170022371364653","7.46457867263236","1.41834451901566","-4.93959731543624","-2.01938851603281","0","0.0625"
"663.87097","0.170022371364653","7.46457867263236","1.41834451901566","1.06040268456376","-1.01938851603281","0","0.0625"
"667.06452","-3.82997762863535","3.46457867263236","-0.581655480984342","1.06040268456376","-1.01938851603281","0","0.0625"
"670.25806","-3.82997762863535","3.46457867263236","-0.581655480984342","0.0604026845637584","0.980611483967189","0","0.0625"
"673.45161","-1.82997762863535","-3.53542132736764","-2.58165548098434","0.0604026845637584","0.980611483967189","0","0.0625"
"676.64516","-1.82997762863535","-3.53542132736764","-2.58165548098434","-2.93959731543624","-1.01938851603281","0","0.0625"
"679.83871","-2.82997762863535","-5.53542132736764","0.418344519015658","-2.93959731543624","-1.01938851603281","0","0.0625"
"683.03226","-2.82997762863535","-5.53542132736764","0.418344519015658","-6.93959731543624","-0.0193885160328113","0","0.0625"
"686.22581","-7.82997762863535","-0.535421327367636","-0.581655480984342","-6.93959731543624","-0.0193885160328113","0","0.0625"
"689.41935","-7.82997762863535","-0.535421327367636","-0.581655480984342","-2.93959731543624","-0.0193885160328113","0","0.0625"
"692.6129","-14.8299776286353","-6.53542132736764","-4.58165548098434","-2.93959731543624","-0.0193885160328113","0","0.0625"
"695.80645","-14.8299776286353","-6.53542132736764","-4.58165548098434","-0.939597315436242","-2.01938851603281","0","0.0625"
"699","-5.82997762863535","-8.53542132736764","0.418344519015658","-0.939597315436242","-2.01938851603281","0","0.0625"
"703.23333","-5.82997762863535","-8.53542132736764","0.418344519015658","-3.93959731543624","-1.01938851603281","0","0.0625"
"706.46667","7.17002237136465","24.4645786726324","-10.5816554809843","-3.93959731543624","-1.01938851603281","0","0.0625"
"709.7","7.17002237136465","24.4645786726324","-10.5816554809843","7.06040268456376","-3.01938851603281","0","0.0625"
"712.93333","8.17002237136465","-2.53542132736764","6.41834451901566","7.06040268456376","-3.01938851603281","0","0.0625"
"716.16667","8.17002237136465","-2.53542132736764","6.41834451901566","3.06040268456376","-3.01938851603281","0","0.0625"
"719.4","7.17002237136465","-30.5354213273676","12.4183445190157","3.06040268456376","-3.01938851603281","0","0.0625"
"722.63333","7.17002237136465","-30.5354213273676","12.4183445190157","-7.93959731543624","-1.01938851603281","0","0.0625"
"725.86667","-5.82997762863535","39.4645786726324","-15.5816554809843","-7.93959731543624","-1.01938851603281","0","0.0625"
"729.1","-5.82997762863535","39.4645786726324","-15.5816554809843","-3.93959731543624","0.980611483967189","0","0.0625"
"732.33333","21.1700223713647","26.4645786726324","3.41834451901566","-3.93959731543624","0.980611483967189","0","0.0625"
"735.56667","21.1700223713647","26.4645786726324","3.41834451901566","16.0604026845638","-2.01938851603281","0","0.0625"
"738.8","17.1700223713647","-7.53542132736764","11.4183445190157","16.0604026845638","-2.01938851603281","0","0.0625"
"742.03333","17.1700223713647","-7.53542132736764","11.4183445190157","-1.93959731543624","-5.01938851603281","0","0.0625"
"745.26667","-4.82997762863535","-9.53542132736764","-0.581655480984342","-1.93959731543624","-5.01938851603281","0","0.0625"
"748.5","-4.82997762863535","-9.53542132736764","-0.581655480984342","-12.9395973154362","1.98061148396719","0","0.0625"
"751.73333","-1.82997762863535","10.4645786726324","-3.58165548098434","-12.9395973154362","1.98061148396719","0","0.0625"
"754.96667","-1.82997762863535","10.4645786726324","-3.58165548098434","2.06040268456376","-1.01938851603281","0","0.0625"
"758.2","0.170022371364653","-7.53542132736764","-0.581655480984342","2.06040268456376","-1.01938851603281","0","0.0625"
"761.43333","0.170022371364653","-7.53542132736764","-0.581655480984342","4.06040268456376","-0.0193885160328113","0","0.0625"
"764.66667","1.17002237136465","-13.5354213273676","0.418344519015658","4.06040268456376","-0.0193885160328113","0","0.0625"
"767.9","1.17002237136465","-13.5354213273676","0.418344519015658","-6.93959731543624","0.980611483967189","0","0.0625"
"771.13333","1.17002237136465","8.46457867263236","3.41834451901566","-6.93959731543624","0.980611483967189","0","0.0625"
"774.36667","1.17002237136465","8.46457867263236","3.41834451901566","1.06040268456376","0.980611483967189","0","0.0625"
"777.6","-2.82997762863535","2.46457867263236","-2.58165548098434","1.06040268456376","0.980611483967189","0","0.0625"
"780.83333","-2.82997762863535","2.46457867263236","-2.58165548098434","5.06040268456376","-5.01938851603281","0","0.0625"
"784.06667","1.17002237136465","-15.5354213273676","-1.58165548098434","5.06040268456376","-5.01938851603281","0","0.0625"
"787.3","1.17002237136465","-15.5354213273676","-1.58165548098434","-1.93959731543624","-0.0193885160328113","0","0.0625"
"790.53333","3.17002237136465","-20.5354213273676","3.41834451901566","-1.93959731543624","-0.0193885160328113","0","0.0625"
"793.76667","3.17002237136465","-20.5354213273676","3.41834451901566","3.06040268456376","-1.01938851603281","0","0.0625"
"797","-2.82997762863535","7.46457867263236","-3.58165548098434","3.06040268456376","-1.01938851603281","0","0.0625"
"803","-2.82997762863535","7.46457867263236","-3.58165548098434","3.06040268456376","-1.01938851603281","0","0.0625"
"806","-8.82997762863535","2.46457867263236","-7.58165548098434","3.06040268456376","-1.01938851603281","0","0.0625"
"809","-8.82997762863535","2.46457867263236","-7.58165548098434","3.06040268456376","0.980611483967189","0","0.0625"
"812","-8.82997762863535","-7.53542132736764","0.418344519015658","3.06040268456376","0.980611483967189","0","0.0625"
"815","-8.82997762863535","-7.53542132736764","0.418344519015658","-2.93959731543624","1.98061148396719","0","0.0625"
"818","0.170022371364653","2.46457867263236","1.41834451901566","-2.93959731543624","1.98061148396719","0","0.0625"
"821","0.170022371364653","2.46457867263236","1.41834451901566","1.06040268456376","1.98061148396719","0","0.0625"
"824","-2.82997762863535","5.46457867263236","0.418344519015658","1.06040268456376","1.98061148396719","0","0.0625"
"827","-2.82997762863535","5.46457867263236","0.418344519015658","-0.939597315436242","-0.0193885160328113","0","0.0625"
"830","-1.82997762863535","6.46457867263236","2.41834451901566","-0.939597315436242","-0.0193885160328113","0","0.0625"
"833","-1.82997762863535","6.46457867263236","2.41834451901566","-0.939597315436242","-0.0193885160328113","0","0.0625"
"836","-0.829977628635347","2.46457867263236","-2.58165548098434","-0.939597315436242","-0.0193885160328113","0","0.0625"
"839","-0.829977628635347","2.46457867263236","-2.58165548098434","-0.939597315436242","-3.01938851603281","0","0.0625"
"842","4.17002237136465","1.46457867263236","1.41834451901566","-0.939597315436242","-3.01938851603281","0","0.0625"
"845","4.17002237136465","1.46457867263236","1.41834451901566","-2.93959731543624","-1.01938851603281","0","0.0625"
"848","0.170022371364653","6.46457867263236","-3.58165548098434","-2.93959731543624","-1.01938851603281","0","0.0625"
"851","0.170022371364653","6.46457867263236","-3.58165548098434","0.0604026845637584","0.980611483967189","0","0.0625"
"854","0.170022371364653","5.46457867263236","1.41834451901566","0.0604026845637584","0.980611483967189","0","0.0625"
"857","0.170022371364653","5.46457867263236","1.41834451901566","-2.93959731543624","-2.01938851603281","0","0.0625"
"860","2.17002237136465","0.464578672632364","-0.581655480984342","-2.93959731543624","-2.01938851603281","0","0.0625"
"863","2.17002237136465","0.464578672632364","-0.581655480984342","-2.93959731543624","-2.01938851603281","0","0.0625"
"866","6.17002237136465","3.46457867263236","1.41834451901566","-2.93959731543624","-2.01938851603281","0","0.0625"
"869","6.17002237136465","3.46457867263236","1.41834451901566","-0.939597315436242","-3.01938851603281","0","0.0625"
"872","4.17002237136465","2.46457867263236","-1.58165548098434","-0.939597315436242","-3.01938851603281","0","0.0625"
"875","4.17002237136465","2.46457867263236","-1.58165548098434","-0.939597315436242","-1.01938851603281","0","0.0625"
"878","1.17002237136465","1.46457867263236","0.418344519015658","-0.939597315436242","-1.01938851603281","0","0.0625"
"881","1.17002237136465","1.46457867263236","0.418344519015658","1.06040268456376","1.98061148396719","0","0.0625"
"884","-1.82997762863535","2.46457867263236","-0.581655480984342","1.06040268456376","1.98061148396719","0","0.0625"
"887","-1.82997762863535","2.46457867263236","-0.581655480984342","-0.939597315436242","-0.0193885160328113","0","0.0625"
"890","5.17002237136465","-0.535421327367636","1.41834451901566","-0.939597315436242","-0.0193885160328113","0","0.0625"
"893","5.17002237136465","-0.535421327367636","1.41834451901566","-0.939597315436242","1.98061148396719","0","0.0625"
"896","4.17002237136465","2.46457867263236","-0.581655480984342","-0.939597315436242","1.98061148396719","0","0.0625"
"903.13333","4.17002237136465","2.46457867263236","-0.581655480984342","-0.939597315436242","-0.0193885160328113","0","0.0625"
"906.26667","2.17002237136465","3.46457867263236","-0.581655480984342","-0.939597315436242","-0.0193885160328113","0","0.0625"
"909.4","2.17002237136465","3.46457867263236","-0.581655480984342","1.06040268456376","-0.0193885160328113","0","0.0625"
"912.53333","2.17002237136465","1.46457867263236","2.41834451901566","1.06040268456376","-0.0193885160328113","0","0.0625"
"915.66667","2.17002237136465","1.46457867263236","2.41834451901566","-1.93959731543624","1.98061148396719","0","0.0625"
"918.8","1.17002237136465","-7.53542132736764","4.41834451901566","-1.93959731543624","1.98061148396719","0","0.0625"
"921.93333","1.17002237136465","-7.53542132736764","4.41834451901566","-1.93959731543624","0.980611483967189","0","0.0625"
"925.06667","-0.829977628635347","4.46457867263236","-2.58165548098434","-1.93959731543624","0.980611483967189","0","0.0625"
"928.2","-0.829977628635347","4.46457867263236","-2.58165548098434","-1.93959731543624","0.980611483967189","0","0.0625"
"931.33333","-1.82997762863535","-0.535421327367636","1.41834451901566","-1.93959731543624","0.980611483967189","0","0.0625"
"934.46667","-1.82997762863535","-0.535421327367636","1.41834451901566","5.06040268456376","-3.01938851603281","0","0.0625"
"937.6","-9.82997762863535","-1.53542132736764","-2.58165548098434","5.06040268456376","-3.01938851603281","0","0.0625"
"940.73333","-9.82997762863535","-1.53542132736764","-2.58165548098434","-1.93959731543624","0.980611483967189","0","0.0625"
"943.86667","0.170022371364653","2.46457867263236","1.41834451901566","-1.93959731543624","0.980611483967189","0","0.0625"
"947","0.170022371364653","2.46457867263236","1.41834451901566","-1.93959731543624","0.980611483967189","0","0.0625"
"950.13333","-1.82997762863535","-7.53542132736764","0.418344519015658","-1.93959731543624","0.980611483967189","0","0.0625"
"953.26667","-1.82997762863535","-7.53542132736764","0.418344519015658","-6.93959731543624","-0.0193885160328113","0","0.0625"
"956.4","0.170022371364653","-9.53542132736764","3.41834451901566","-6.93959731543624","-0.0193885160328113","0","0.0625"
"959.53333","0.170022371364653","-9.53542132736764","3.41834451901566","-6.93959731543624","-0.0193885160328113","0","0.0625"
"962.66667","-1.82997762863535","2.46457867263236","-0.581655480984342","-6.93959731543624","-0.0193885160328113","0","0.0625"
"965.8","-1.82997762863535","2.46457867263236","-0.581655480984342","2.06040268456376","-0.0193885160328113","0","0.0625"
"968.93333","-2.82997762863535","2.46457867263236","-3.58165548098434","2.06040268456376","-0.0193885160328113","0","0.0625"
"972.06667","-2.82997762863535","2.46457867263236","-3.58165548098434","4.06040268456376","-1.01938851603281","0","0.0625"
"975.2","4.17002237136465","-5.53542132736764","3.41834451901566","4.06040268456376","-1.01938851603281","0","0.0625"
"978.33333","4.17002237136465","-5.53542132736764","3.41834451901566","-0.939597315436242","-0.0193885160328113","0","0.0625"
"981.46667","0.170022371364653","2.46457867263236","-1.58165548098434","-0.939597315436242","-0.0193885160328113","0","0.0625"
"984.6","0.170022371364653","2.46457867263236","-1.58165548098434","1.06040268456376","-0.0193885160328113","0","0.0625"
"987.73333","3.17002237136465","0.464578672632364","1.41834451901566","1.06040268456376","-0.0193885160328113","0","0.0625"
"990.86667","3.17002237136465","0.464578672632364","1.41834451901566","1.06040268456376","-0.0193885160328113","0","0.0625"
"994","-1.82997762863535","2.46457867263236","-2.58165548098434","1.06040268456376","-0.0193885160328113","0","0.0625"
"1002.85294","-1.82997762863535","2.46457867263236","-2.58165548098434","1.06040268456376","-0.0193885160328113","0","0.0625"
"1005.70588","8.17002237136465","2.46457867263236","1.41834451901566","1.06040268456376","-0.0193885160328113","0","0.0625"
"1008.55882","8.17002237136465","2.46457867263236","1.41834451901566","-1.93959731543624","-1.01938851603281","0","0.0625"
"1011.41176","2.17002237136465","4.46457867263236","-1.58165548098434","-1.93959731543624","-1.01938851603281","0","0.0625"
"1014.26471","2.17002237136465","4.46457867263236","-1.58165548098434","-2.93959731543624","-3.01938851603281","0","0.0625"
"1017.11765","3.17002237136465","2.46457867263236","-0.581655480984342","-2.93959731543624","-3.01938851603281","0","0.0625"
"1019.97059","3.17002237136465","2.46457867263236","-0.581655480984342","0.0604026845637584","0.980611483967189","0","0.0625"
"1022.82353","2.17002237136465","1.46457867263236","1.41834451901566","0.0604026845637584","0.980611483967189","0","0.0625"
"1025.67647","2.17002237136465","1.46457867263236","1.41834451901566","0.0604026845637584","0.980611483967189","0","0.0625"
"1028.52941","8.17002237136465","-2.53542132736764","2.41834451901566","0.0604026845637584","0.980611483967189","0","0.0625"
"1031.38235","8.17002237136465","-2.53542132736764","2.41834451901566","-1.93959731543624","-3.01938851603281","0","0.0625"
"1034.23529","8.17002237136465","-0.535421327367636","0.418344519015658","-1.93959731543624","-3.01938851603281","0","0.0625"
"1037.08824","8.17002237136465","-0.535421327367636","0.418344519015658","1.06040268456376","-1.01938851603281","0","0.0625"
"1039.94118","3.17002237136465","0.464578672632364","3.41834451901566","1.06040268456376","-1.01938851603281","0","0.0625"
"1042.79412","3.17002237136465","0.464578672632364","3.41834451901566","0.0604026845637584","-1.01938851603281","0","0.0625"
"1045.64706","1.17002237136465","0.464578672632364","1.41834451901566","0.0604026845637584","-1.01938851603281","0","0.0625"
"1048.5","1.17002237136465","0.464578672632364","1.41834451901566","-0.939597315436242","-0.0193885160328113","0","0.0625"
"1051.35294","1.17002237136465","-9.53542132736764","1.41834451901566","-0.939597315436242","-0.0193885160328113","0","0.0625"
"1054.20588","1.17002237136465","-9.53542132736764","1.41834451901566","1.06040268456376","-1.01938851603281","0","0.0625"
"1057.05882","1.17002237136465","-4.53542132736764","-2.58165548098434","1.06040268456376","-1.01938851603281","0","0.0625"
"1059.91176","1.17002237136465","-4.53542132736764","-2.58165548098434","3.06040268456376","0.980611483967189","0","0.0625"
"1062.76471","0.170022371364653","0.464578672632364","-0.581655480984342","3.06040268456376","0.980611483967189","0","0.0625"
"1065.61765","0.170022371364653","0.464578672632364","-0.581655480984342","-0.939597315436242","0.980611483967189","0","0.0625"
"1068.47059","1.17002237136465","2.46457867263236","2.41834451901566","-0.939597315436242","0.980611483967189","0","0.0625"
"1071.32353","1.17002237136465","2.46457867263236","2.41834451901566","1.06040268456376","-0.0193885160328113","0","0.0625"
"1074.17647","-2.82997762863535","1.46457867263236","-1.58165548098434","1.06040268456376","-0.0193885160328113","0","0.0625"
"1077.02941","-2.82997762863535","1.46457867263236","-1.58165548098434","-1.93959731543624","-2.01938851603281","0","0.0625"
"1079.88235","0.170022371364653","0.464578672632364","2.41834451901566","-1.93959731543624","-2.01938851603281","0","0.0625"
"1082.73529","0.170022371364653","0.464578672632364","2.41834451901566","-1.93959731543624","-2.01938851603281","0","0.0625"
"1085.58824","-4.82997762863535","5.46457867263236","-1.58165548098434","-1.93959731543624","-2.01938851603281","0","0.0625"
"1088.44118","-4.82997762863535","5.46457867263236","-1.58165548098434","-2.93959731543624","1.98061148396719","0","0.0625"
"1091.29412","-4.82997762863535","5.46457867263236","-0.581655480984342","-2.93959731543624","1.98061148396719","0","0.0625"
"1094.14706","-4.82997762863535","5.46457867263236","-0.581655480984342","-1.93959731543624","-0.0193885160328113","0","0.0625"
"1097","-1.82997762863535","4.46457867263236","-1.58165548098434","-1.93959731543624","-0.0193885160328113","0","0.0625"
"1103.875","-1.82997762863535","4.46457867263236","-1.58165548098434","-1.93959731543624","-1.01938851603281","0","0.0625"
"1107.75","3.17002237136465","0.464578672632364","7.41834451901566","-1.93959731543624","-1.01938851603281","0","0.0625"
"1111.625","3.17002237136465","0.464578672632364","7.41834451901566","-2.93959731543624","-0.0193885160328113","0","0.0625"
"1115.5","-0.829977628635347","7.46457867263236","-2.58165548098434","-2.93959731543624","-0.0193885160328113","0","0.0625"
"1119.375","-0.829977628635347","7.46457867263236","-2.58165548098434","-1.93959731543624","0.980611483967189","0","0.0625"
"1123.25","-1.82997762863535","2.46457867263236","-3.58165548098434","-1.93959731543624","0.980611483967189","0","0.0625"
"1127.125","-1.82997762863535","2.46457867263236","-3.58165548098434","-4.93959731543624","0.980611483967189","0","0.0625"
"1131","-0.829977628635347","-3.53542132736764","0.418344519015658","-4.93959731543624","0.980611483967189","0","0.0625"
"1134.875","-0.829977628635347","-3.53542132736764","0.418344519015658","-1.93959731543624","0.980611483967189","0","0.0625"
"1138.75","1.17002237136465","-5.53542132736764","-1.58165548098434","-1.93959731543624","0.980611483967189","0","0.0625"
"1142.625","1.17002237136465","-5.53542132736764","-1.58165548098434","-1.93959731543624","0.980611483967189","0","0.0625"
"1146.5","2.17002237136465","3.46457867263236","-1.58165548098434","-1.93959731543624","0.980611483967189","0","0.0625"
"1150.375","2.17002237136465","3.46457867263236","-1.58165548098434","1.06040268456376","-1.01938851603281","0","0.0625"
"1154.25","1.17002237136465","-0.535421327367636","0.418344519015658","1.06040268456376","-1.01938851603281","0","0.0625"
"1158.125","1.17002237136465","-0.535421327367636","0.418344519015658","1.06040268456376","-1.01938851603281","0","0.0625"
"1162","3.17002237136465","-3.53542132736764","0.418344519015658","1.06040268456376","-1.01938851603281","0","0.0625"
"1165.875","3.17002237136465","-3.53542132736764","0.418344519015658","-0.939597315436242","-0.0193885160328113","0","0.0625"
"1169.75","-6.82997762863535","1.46457867263236","-4.58165548098434","-0.939597315436242","-0.0193885160328113","0","0.0625"
"1173.625","-6.82997762863535","1.46457867263236","-4.58165548098434","4.06040268456376","2.98061148396719","0","0.0625"
"1177.5","8.17002237136465","3.46457867263236","4.41834451901566","4.06040268456376","2.98061148396719","0","0.0625"
"1181.375","8.17002237136465","3.46457867263236","4.41834451901566","1.06040268456376","-3.01938851603281","0","0.0625"
"1185.25","14.1700223713647","5.46457867263236","5.41834451901566","1.06040268456376","-3.01938851603281","0","0.0625"
"1189.125","14.1700223713647","5.46457867263236","5.41834451901566","-0.939597315436242","-1.01938851603281","0","0.0625"
"1193","-12.8299776286353","-7.53542132736764","-5.58165548098434","-0.939597315436242","-1.01938851603281","0","0.0625"
"1200","-12.8299776286353","-7.53542132736764","-5.58165548098434","-5.93959731543624","5.98061148396719","0","0.0625"
"1202.93939","-4.82997762863535","2.46457867263236","-6.58165548098434","-5.93959731543624","5.98061148396719","0","0.0625"
"1205.87879","-4.82997762863535","2.46457867263236","-6.58165548098434","4.06040268456376","-2.01938851603281","0","0.0625"
"1208.81818","9.17002237136465","13.4645786726324","1.41834451901566","4.06040268456376","-2.01938851603281","0","0.0625"
"1211.75758","9.17002237136465","13.4645786726324","1.41834451901566","1.06040268456376","-4.01938851603281","0","0.0625"
"1214.69697","7.17002237136465","10.4645786726324","4.41834451901566","1.06040268456376","-4.01938851603281","0","0.0625"
"1217.63636","7.17002237136465","10.4645786726324","4.41834451901566","-9.93959731543624","0.980611483967189","0","0.0625"
"1220.57576","-8.82997762863535","-13.5354213273676","-3.58165548098434","-9.93959731543624","0.980611483967189","0","0.0625"
"1223.51515","-8.82997762863535","-13.5354213273676","-3.58165548098434","-5.93959731543624","2.98061148396719","0","0.0625"
"1226.45455","-12.8299776286353","-0.535421327367636","-6.58165548098434","-5.93959731543624","2.98061148396719","0","0.0625"
"1229.39394","-12.8299776286353","-0.535421327367636","-6.58165548098434","4.06040268456376","-2.01938851603281","0","0.0625"
"1232.33333","7.17002237136465","5.46457867263236","0.418344519015658","4.06040268456376","-2.01938851603281","0","0.0625"
"1235.27273","7.17002237136465","5.46457867263236","0.418344519015658","5.06040268456376","-3.01938851603281","0","0.0625"
"1238.21212","5.17002237136465","-4.53542132736764","4.41834451901566","5.06040268456376","-3.01938851603281","0","0.0625"
"1241.15152","5.17002237136465","-4.53542132736764","4.41834451901566","-0.939597315436242","-1.01938851603281","0","0.0625"
"1244.09091","-4.82997762863535","-5.53542132736764","1.41834451901566","-0.939597315436242","-1.01938851603281","0","0.0625"
"1247.0303","-4.82997762863535","-5.53542132736764","1.41834451901566","-0.939597315436242","3.98061148396719","0","0.0625"
"1249.9697","0.170022371364653","0.464578672632364","-2.58165548098434","-0.939597315436242","3.98061148396719","0","0.0625"
"1252.90909","0.170022371364653","0.464578672632364","-2.58165548098434","-0.939597315436242","-0.0193885160328113","0","0.0625"
"1255.84848","6.17002237136465","1.46457867263236","0.418344519015658","-0.939597315436242","-0.0193885160328113","0","0.0625"
"1258.78788","6.17002237136465","1.46457867263236","0.418344519015658","-2.93959731543624","-1.01938851603281","0","0.0625"
"1261.72727","-0.829977628635347","-6.53542132736764","-1.58165548098434","-2.93959731543624","-1.01938851603281","0","0.0625"
"1264.66667","-0.829977628635347","-6.53542132736764","-1.58165548098434","-0.939597315436242","-0.0193885160328113","0","0.0625"
"1267.60606","-3.82997762863535","2.46457867263236","-5.58165548098434","-0.939597315436242","-0.0193885160328113","0","0.0625"
"1270.54545","-3.82997762863535","2.46457867263236","-5.58165548098434","5.06040268456376","1.98061148396719","0","0.0625"
"1273.48485","-2.82997762863535","8.46457867263236","-1.58165548098434","5.06040268456376","1.98061148396719","0","0.0625"
"1276.42424","-2.82997762863535","8.46457867263236","-1.58165548098434","2.06040268456376","0.980611483967189","0","0.0625"
"1279.36364","0.170022371364653","2.46457867263236","-0.581655480984342","2.06040268456376","0.980611483967189","0","0.0625"
"1282.30303","0.170022371364653","2.46457867263236","-0.581655480984342","-3.93959731543624","1.98061148396719","0","0.0625"
"1285.24242","0.170022371364653","-2.53542132736764","-0.581655480984342","-3.93959731543624","1.98061148396719","0","0.0625"
"1288.18182","0.170022371364653","-2.53542132736764","-0.581655480984342","-0.939597315436242","-2.01938851603281","0","0.0625"
"1291.12121","2.17002237136465","-0.535421327367636","1.41834451901566","-0.939597315436242","-2.01938851603281","0","0.0625"
"1294.06061","2.17002237136465","-0.535421327367636","1.41834451901566","1.06040268456376","-1.01938851603281","0","0.0625"
"1297","-0.829977628635347","2.46457867263236","-5.58165548098434","1.06040268456376","-1.01938851603281","0","0.0625"
"1303.3","-0.829977628635347","2.46457867263236","-5.58165548098434","-0.939597315436242","1.98061148396719","0","0.0625"
"1306.6","3.17002237136465","-0.535421327367636","-0.581655480984342","-0.939597315436242","1.98061148396719","0","0.0625"
"1309.9","3.17002237136465","-0.535421327367636","-0.581655480984342","2.06040268456376","-0.0193885160328113","0","0.0625"
"1313.2","3.17002237136465","-3.53542132736764","1.41834451901566","2.06040268456376","-0.0193885160328113","0","0.0625"
"1316.5","3.17002237136465","-3.53542132736764","1.41834451901566","1.06040268456376","0.980611483967189","0","0.0625"
"1319.8","-2.82997762863535","1.46457867263236","-2.58165548098434","1.06040268456376","0.980611483967189","0","0.0625"
"1323.1","-2.82997762863535","1.46457867263236","-2.58165548098434","3.06040268456376","1.98061148396719","0","0.0625"
"1326.4","4.17002237136465","-0.535421327367636","-0.581655480984342","3.06040268456376","1.98061148396719","0","0.0625"
"1329.7","4.17002237136465","-0.535421327367636","-0.581655480984342","1.06040268456376","-1.01938851603281","0","0.0625"
"1333","2.17002237136465","-6.53542132736764","-0.581655480984342","1.06040268456376","-1.01938851603281","0","0.0625"
"1336.3","2.17002237136465","-6.53542132736764","-0.581655480984342","-2.93959731543624","0.980611483967189","0","0.0625"
"1339.6","-2.82997762863535","-2.53542132736764","-2.58165548098434","-2.93959731543624","0.980611483967189","0","0.0625"
"1342.9","-2.82997762863535","-2.53542132736764","-2.58165548098434","3.06040268456376","1.98061148396719","0","0.0625"
"1346.2","3.17002237136465","3.46457867263236","1.41834451901566","3.06040268456376","1.98061148396719","0","0.0625"
"1349.5","3.17002237136465","3.46457867263236","1.41834451901566","2.06040268456376","-1.01938851603281","0","0.0625"
"1352.8","-0.829977628635347","2.46457867263236","0.418344519015658","2.06040268456376","-1.01938851603281","0","0.0625"
"1356.1","-0.829977628635347","2.46457867263236","0.418344519015658","-0.939597315436242","2.98061148396719","0","0.0625"
"1359.4","2.17002237136465","-0.535421327367636","-2.58165548098434","-0.939597315436242","2.98061148396719","0","0.0625"
"1362.7","2.17002237136465","-0.535421327367636","-2.58165548098434","1.06040268456376","-0.0193885160328113","0","0.0625"
"1366","0.170022371364653","2.46457867263236","1.41834451901566","1.06040268456376","-0.0193885160328113","0","0.0625"
"1369.3","0.170022371364653","2.46457867263236","1.41834451901566","2.06040268456376","1.98061148396719","0","0.0625"
"1372.6","-0.829977628635347","2.46457867263236","-0.581655480984342","2.06040268456376","1.98061148396719","0","0.0625"
"1375.9","-0.829977628635347","2.46457867263236","-0.581655480984342","1.06040268456376","0.980611483967189","0","0.0625"
"1379.2","3.17002237136465","3.46457867263236","2.41834451901566","1.06040268456376","0.980611483967189","0","0.0625"
"1382.5","3.17002237136465","3.46457867263236","2.41834451901566","1.06040268456376","0.980611483967189","0","0.0625"
"1385.8","3.17002237136465","0.464578672632364","3.41834451901566","1.06040268456376","0.980611483967189","0","0.0625"
"1389.1","3.17002237136465","0.464578672632364","3.41834451901566","2.06040268456376","1.98061148396719","0","0.0625"
"1392.4","-3.82997762863535","1.46457867263236","-2.58165548098434","2.06040268456376","1.98061148396719","0","0.0625"
"1395.7","-3.82997762863535","1.46457867263236","-2.58165548098434","1.06040268456376","1.98061148396719","0","0.0625"
"1399","-1.82997762863535","2.46457867263236","-1.58165548098434","1.06040268456376","1.98061148396719","0","0.0625"
"1403","-1.82997762863535","2.46457867263236","-1.58165548098434","1.06040268456376","-1.01938851603281","0","0.0625"
"1406","-0.829977628635347","2.46457867263236","-0.581655480984342","1.06040268456376","-1.01938851603281","0","0.0625"
"1409","-0.829977628635347","2.46457867263236","-0.581655480984342","-1.93959731543624","0.980611483967189","0","0.0625"
"1412","2.17002237136465","-1.53542132736764","1.41834451901566","-1.93959731543624","0.980611483967189","0","0.0625"
"1415","2.17002237136465","-1.53542132736764","1.41834451901566","-2.93959731543624","-0.0193885160328113","0","0.0625"
"1418","1.17002237136465","-0.535421327367636","0.418344519015658","-2.93959731543624","-0.0193885160328113","0","0.0625"
"1421","1.17002237136465","-0.535421327367636","0.418344519015658","1.06040268456376","0.980611483967189","0","0.0625"
"1424","-0.829977628635347","1.46457867263236","-1.58165548098434","1.06040268456376","0.980611483967189","0","0.0625"
"1427","-0.829977628635347","1.46457867263236","-1.58165548098434","4.06040268456376","-1.01938851603281","0","0.0625"
"1430","0.170022371364653","6.46457867263236","-2.58165548098434","4.06040268456376","-1.01938851603281","0","0.0625"
"1433","0.170022371364653","6.46457867263236","-2.58165548098434","0.0604026845637584","-2.01938851603281","0","0.0625"
"1436","4.17002237136465","0.464578672632364","3.41834451901566","0.0604026845637584","-2.01938851603281","0","0.0625"
"1439","4.17002237136465","0.464578672632364","3.41834451901566","-0.939597315436242","-1.01938851603281","0","0.0625"
"1442","0.170022371364653","-1.53542132736764","0.418344519015658","-0.939597315436242","-1.01938851603281","0","0.0625"
"1445","0.170022371364653","-1.53542132736764","0.418344519015658","-0.939597315436242","-1.01938851603281","0","0.0625"
"1448","-0.829977628635347","3.46457867263236","-0.581655480984342","-0.939597315436242","-1.01938851603281","0","0.0625"
"1451","-0.829977628635347","3.46457867263236","-0.581655480984342","1.06040268456376","0.980611483967189","0","0.0625"
"1454","0.170022371364653","2.46457867263236","-0.581655480984342","1.06040268456376","0.980611483967189","0","0.0625"
"1457","0.170022371364653","2.46457867263236","-0.581655480984342","1.06040268456376","-0.0193885160328113","0","0.0625"
"1460","1.17002237136465","-7.53542132736764","0.418344519015658","1.06040268456376","-0.0193885160328113","0","0.0625"
"1463","1.17002237136465","-7.53542132736764","0.418344519015658","-4.93959731543624","3.98061148396719","0","0.0625"
"1466","-3.82997762863535","-2.53542132736764","-1.58165548098434","-4.93959731543624","3.98061148396719","0","0.0625"
"1469","-3.82997762863535","-2.53542132736764","-1.58165548098434","2.06040268456376","1.98061148396719","0","0.0625"
"1472","-2.82997762863535","5.46457867263236","-1.58165548098434","2.06040268456376","1.98061148396719","0","0.0625"
"1475","-2.82997762863535","5.46457867263236","-1.58165548098434","1.06040268456376","-1.01938851603281","0","0.0625"
"1478","-0.829977628635347","0.464578672632364","-1.58165548098434","1.06040268456376","-1.01938851603281","0","0.0625"
"1481","-0.829977628635347","0.464578672632364","-1.58165548098434","-3.93959731543624","-0.0193885160328113","0","0.0625"
"1484","1.17002237136465","-4.53542132736764","-1.58165548098434","-3.93959731543624","-0.0193885160328113","0","0.0625"
"1487","1.17002237136465","-4.53542132736764","-1.58165548098434","-5.93959731543624","0.980611483967189","0","0.0625"
"1490","-5.82997762863535","3.46457867263236","-0.581655480984342","-5.93959731543624","0.980611483967189","0","0.0625"
"1493","-5.82997762863535","3.46457867263236","-0.581655480984342","-1.93959731543624","0.980611483967189","0","0.0625"
"1496","14.1700223713647","-7.53542132736764","11.4183445190157","-1.93959731543624","0.980611483967189","0","0.0625"
"1503.39286","14.1700223713647","-7.53542132736764","11.4183445190157","-3.93959731543624","-4.01938851603281","0","0.0625"
"1506.78571","14.1700223713647","-7.53542132736764","11.4183445190157","-3.93959731543624","-4.01938851603281","0","0.0625"
"1510.17857","14.1700223713647","-7.53542132736764","11.4183445190157","-3.93959731543624","-4.01938851603281","0","0.0625"
"1513.57143","-6.82997762863535","3.46457867263236","-6.58165548098434","-3.93959731543624","-4.01938851603281","0","0.0625"
"1516.96429","-6.82997762863535","3.46457867263236","-6.58165548098434","9.06040268456376","3.98061148396719","0","0.0625"
"1520.35714","6.17002237136465","3.46457867263236","2.41834451901566","9.06040268456376","3.98061148396719","0","0.0625"
"1523.75","6.17002237136465","3.46457867263236","2.41834451901566","-3.93959731543624","-1.01938851603281","0","0.0625"
"1527.14286","4.17002237136465","-22.5354213273676","9.41834451901566","-3.93959731543624","-1.01938851603281","0","0.0625"
"1530.53571","4.17002237136465","-22.5354213273676","9.41834451901566","-8.93959731543624","-1.01938851603281","0","0.0625"
"1533.92857","1.17002237136465","-7.53542132736764","0.418344519015658","-8.93959731543624","-1.01938851603281","0","0.0625"
"1537.32143","1.17002237136465","-7.53542132736764","0.418344519015658","7.06040268456376","-1.01938851603281","0","0.0625"
"1540.71429","1.17002237136465","-7.53542132736764","0.418344519015658","7.06040268456376","-1.01938851603281","0","0.0625"
"1544.10714","1.17002237136465","-7.53542132736764","0.418344519015658","7.06040268456376","-1.01938851603281","0","0.0625"
"1547.5","3.17002237136465","-9.53542132736764","5.41834451901566","7.06040268456376","-1.01938851603281","0","0.0625"
"1550.89286","3.17002237136465","-9.53542132736764","5.41834451901566","-2.93959731543624","-2.01938851603281","0","0.0625"
"1554.28571","3.17002237136465","-0.535421327367636","-1.58165548098434","-2.93959731543624","-2.01938851603281","0","0.0625"
"1557.67857","3.17002237136465","-0.535421327367636","-1.58165548098434","5.06040268456376","-3.01938851603281","0","0.0625"
"1561.07143","9.17002237136465","10.4645786726324","1.41834451901566","5.06040268456376","-3.01938851603281","0","0.0625"
"1564.46429","9.17002237136465","10.4645786726324","1.41834451901566","5.06040268456376","0.980611483967189","0","0.0625"
"1567.85714","-6.82997762863535","-0.535421327367636","-3.58165548098434","5.06040268456376","0.980611483967189","0","0.0625"
"1571.25","-6.82997762863535","-0.535421327367636","-3.58165548098434","-6.93959731543624","2.98061148396719","0","0.0625"
"1574.64286","-6.82997762863535","-0.535421327367636","-3.58165548098434","-6.93959731543624","2.98061148396719","0","0.0625"
"1578.03571","-6.82997762863535","-0.535421327367636","-3.58165548098434","-6.93959731543624","2.98061148396719","0","0.0625"
"1581.42857","5.17002237136465","-1.53542132736764","2.41834451901566","-6.93959731543624","2.98061148396719","0","0.0625"
"1584.82143","5.17002237136465","-1.53542132736764","2.41834451901566","3.06040268456376","2.98061148396719","0","0.0625"
"1588.21429","0.170022371364653","8.46457867263236","-3.58165548098434","3.06040268456376","2.98061148396719","0","0.0625"
"1591.60714","0.170022371364653","8.46457867263236","-3.58165548098434","2.06040268456376","-0.0193885160328113","0","0.0625"
"1595","-6.82997762863535","1.46457867263236","-1.58165548098434","2.06040268456376","-0.0193885160328113","0","0.0625"
"1600","-6.82997762863535","1.46457867263236","-1.58165548098434","-3.93959731543624","2.98061148396719","0","0.0625"
"1600","-1.82997762863535","-6.53542132736764","-1.58165548098434","-3.93959731543624","2.98061148396719","0","0.0625"
"1602.96875","-1.82997762863535","-6.53542132736764","-1.58165548098434","-3.93959731543624","2.98061148396719","0","0.0625"
"1605.9375","-1.82997762863535","-3.53542132736764","1.41834451901566","-3.93959731543624","2.98061148396719","0","0.0625"
"1608.90625","-1.82997762863535","-3.53542132736764","1.41834451901566","-2.93959731543624","0.980611483967189","0","0.0625"
"1611.875","-10.8299776286353","2.46457867263236","-4.58165548098434","-2.93959731543624","0.980611483967189","0","0.0625"
"1614.84375","-10.8299776286353","2.46457867263236","-4.58165548098434","1.06040268456376","4.98061148396719","0","0.0625"
"1617.8125","-0.829977628635347","-0.535421327367636","1.41834451901566","1.06040268456376","4.98061148396719","0","0.0625"
"1620.78125","-0.829977628635347","-0.535421327367636","1.41834451901566","1.06040268456376","-0.0193885160328113","0","0.0625"
"1623.75","4.17002237136465","2.46457867263236","-1.58165548098434","1.06040268456376","-0.0193885160328113","0","0.0625"
"1626.71875","4.17002237136465","2.46457867263236","-1.58165548098434","1.06040268456376","-0.0193885160328113","0","0.0625"
"1629.6875","0.170022371364653","-1.53542132736764","1.41834451901566","1.06040268456376","-0.0193885160328113","0","0.0625"
"1632.65625","0.170022371364653","-1.53542132736764","1.41834451901566","-0.939597315436242","-2.01938851603281","0","0.0625"
"1635.625","0.170022371364653","-1.53542132736764","1.41834451901566","-0.939597315436242","-2.01938851603281","0","0.0625"
"1638.59375","0.170022371364653","-1.53542132736764","1.41834451901566","-1.93959731543624","-0.0193885160328113","0","0.0625"
"1641.5625","0.170022371364653","5.46457867263236","-1.58165548098434","-1.93959731543624","-0.0193885160328113","0","0.0625"
"1644.53125","0.170022371364653","5.46457867263236","-1.58165548098434","1.06040268456376","-0.0193885160328113","0","0.0625"
"1647.5","6.17002237136465","-11.5354213273676","8.41834451901566","1.06040268456376","-0.0193885160328113","0","0.0625"
"1650.46875","6.17002237136465","-11.5354213273676","8.41834451901566","2.06040268456376","-1.01938851603281","0","0.0625"
"1653.4375","-3.82997762863535","-3.53542132736764","-2.58165548098434","2.06040268456376","-1.01938851603281","0","0.0625"
"1656.40625","-3.82997762863535","-3.53542132736764","-2.58165548098434","-5.93959731543624","-0.0193885160328113","0","0.0625"
"1659.375","-3.82997762863535","11.4645786726324","-5.58165548098434","-5.93959731543624","-0.0193885160328113","0","0.0625"
"1662.34375","-3.82997762863535","11.4645786726324","-5.58165548098434","3.06040268456376","0.980611483967189","0","0.0625"
"1665.3125","-3.82997762863535","11.4645786726324","-5.58165548098434","3.06040268456376","0.980611483967189","0","0.0625"
"1668.28125","-3.82997762863535","11.4645786726324","-5.58165548098434","7.06040268456376","-2.01938851603281","0","0.0625"
"1671.25","-1.82997762863535","-7.53542132736764","0.418344519015658","7.06040268456376","-2.01938851603281","0","0.0625"
"1674.21875","-1.82997762863535","-7.53542132736764","0.418344519015658","-3.93959731543624","-1.01938851603281","0","0.0625"
"1677.1875","-2.82997762863535","7.46457867263236","-3.58165548098434","-3.93959731543624","-1.01938851603281","0","0.0625"
"1680.15625","-2.82997762863535","7.46457867263236","-3.58165548098434","-0.939597315436242","0.980611483967189","0","0.0625"
"1683.125","0.170022371364653","9.46457867263236","-4.58165548098434","-0.939597315436242","0.980611483967189","0","0.0625"
"1686.09375","0.170022371364653","9.46457867263236","-4.58165548098434","7.06040268456376","-3.01938851603281","0","0.0625"
"1689.0625","3.17002237136465","-4.53542132736764","3.41834451901566","7.06040268456376","-3.01938851603281","0","0.0625"
"1692.03125","3.17002237136465","-4.53542132736764","3.41834451901566","-0.939597315436242","-3.01938851603281","0","0.0625"
"1695","3.17002237136465","-4.53542132736764","3.41834451901566","-0.939597315436242","-3.01938851603281","0","0.0625"
"1703.23333","3.17002237136465","-4.53542132736764","3.41834451901566","-3.93959731543624","-3.01938851603281","0","0.0625"
"1706.46667","3.17002237136465","10.4645786726324","0.418344519015658","-3.93959731543624","-3.01938851603281","0","0.0625"
"1709.7","3.17002237136465","10.4645786726324","0.418344519015658","3.06040268456376","-0.0193885160328113","0","0.0625"
"1712.93333","3.17002237136465","0.464578672632364","-3.58165548098434","3.06040268456376","-0.0193885160328113","0","0.0625"
"1716.16667","3.17002237136465","0.464578672632364","-3.58165548098434","0.0604026845637584","0.980611483967189","0","0.0625"
"1719.4","3.17002237136465","-1.53542132736764","1.41834451901566","0.0604026845637584","0.980611483967189","0","0.0625"
"1722.63333","3.17002237136465","-1.53542132736764","1.41834451901566","-3.93959731543624","1.98061148396719","0","0.0625"
"1725.86667","1.17002237136465","8.46457867263236","0.418344519015658","-3.93959731543624","1.98061148396719","0","0.0625"
"1729.1","1.17002237136465","8.46457867263236","0.418344519015658","2.06040268456376","1.98061148396719","0","0.0625"
"1732.33333","1.17002237136465","8.46457867263236","0.418344519015658","2.06040268456376","1.98061148396719","0","0.0625"
"1735.56667","1.17002237136465","8.46457867263236","0.418344519015658","2.06040268456376","2.98061148396719","0","0.0625"
"1738.8","-3.82997762863535","-4.53542132736764","0.418344519015658","2.06040268456376","2.98061148396719","0","0.0625"
"1742.03333","-3.82997762863535","-4.53542132736764","0.418344519015658","-1.93959731543624","-2.01938851603281","0","0.0625"
"1745.26667","4.17002237136465","-1.53542132736764","3.41834451901566","-1.93959731543624","-2.01938851603281","0","0.0625"
"1748.5","4.17002237136465","-1.53542132736764","3.41834451901566","-3.93959731543624","-1.01938851603281","0","0.0625"
"1751.73333","2.17002237136465","2.46457867263236","0.418344519015658","-3.93959731543624","-1.01938851603281","0","0.0625"
"1754.96667","2.17002237136465","2.46457867263236","0.418344519015658","0.0604026845637584","-2.01938851603281","0","0.0625"
"1758.2","1.17002237136465","0.464578672632364","0.418344519015658","0.0604026845637584","-2.01938851603281","0","0.0625"
"1761.43333","1.17002237136465","0.464578672632364","0.418344519015658","4.06040268456376","-1.01938851603281","0","0.0625"
"1764.66667","1.17002237136465","0.464578672632364","0.418344519015658","4.06040268456376","-1.01938851603281","0","0.0625"
"1767.9","1.17002237136465","0.464578672632364","0.418344519015658","1.06040268456376","0.980611483967189","0","0.0625"
"1771.13333","-0.829977628635347","0.464578672632364","-1.58165548098434","1.06040268456376","0.980611483967189","0","0.0625"
"1774.36667","-0.829977628635347","0.464578672632364","-1.58165548098434","-0.939597315436242","-0.0193885160328113","0","0.0625"
"1777.6","-0.829977628635347","2.46457867263236","-3.58165548098434","-0.939597315436242","-0.0193885160328113","0","0.0625"
"1780.83333","-0.829977628635347","2.46457867263236","-3.58165548098434","1.06040268456376","-1.01938851603281","0","0.0625"
"1784.06667","-9.82997762863535","0.464578672632364","-4.58165548098434","1.06040268456376","-1.01938851603281","0","0.0625"
"1787.3","-9.82997762863535","0.464578672632364","-4.58165548098434","2.06040268456376","-0.0193885160328113","0","0.0625"
"1790.53333","-0.829977628635347","2.46457867263236","4.41834451901566","2.06040268456376","-0.0193885160328113","0","0.0625"
"1793.76667","-0.829977628635347","2.46457867263236","4.41834451901566","-0.939597315436242","-3.01938851603281","0","0.0625"
"1797","-0.829977628635347","2.46457867263236","4.41834451901566","-0.939597315436242","-3.01938851603281","0","0.0625"
"1802.88235","-0.829977628635347","2.46457867263236","4.41834451901566","1.06040268456376","-4.01938851603281","0","0.0625"
"1805.76471","-14.8299776286353","-8.53542132736764","-5.58165548098434","1.06040268456376","-4.01938851603281","0","0.0625"
"1808.64706","-14.8299776286353","-8.53542132736764","-5.58165548098434","2.06040268456376","-0.0193885160328113","0","0.0625"
"1811.52941","-3.82997762863535","-4.53542132736764","-3.58165548098434","2.06040268456376","-0.0193885160328113","0","0.0625"
"1814.41176","-3.82997762863535","-4.53542132736764","-3.58165548098434","-3.93959731543624","2.98061148396719","0","0.0625"
"1817.29412","4.17002237136465","9.46457867263236","-0.581655480984342","-3.93959731543624","2.98061148396719","0","0.0625"
"1820.17647","4.17002237136465","9.46457867263236","-0.581655480984342","0.0604026845637584","-0.0193885160328113","0","0.0625"
"1823.05882","2.17002237136465","10.4645786726324","-0.581655480984342","0.0604026845637584","-0.0193885160328113","0","0.0625"
"1825.94118","2.17002237136465","10.4645786726324","-0.581655480984342","4.06040268456376","-0.0193885160328113","0","0.0625"
"1828.82353","2.17002237136465","10.4645786726324","-0.581655480984342","4.06040268456376","-0.0193885160328113","0","0.0625"
"1831.70588","2.17002237136465","10.4645786726324","-0.581655480984342","-9.93959731543624","0.980611483967189","0","0.0625"
"1834.58824","-4.82997762863535","7.46457867263236","-3.58165548098434","-9.93959731543624","0.980611483967189","0","0.0625"
"1837.47059","-4.82997762863535","7.46457867263236","-3.58165548098434","-3.93959731543624","3.98061148396719","0","0.0625"
"1840.35294","5.17002237136465","9.46457867263236","3.41834451901566","-3.93959731543624","3.98061148396719","0","0.0625"
"1843.23529","5.17002237136465","9.46457867263236","3.41834451901566","8.06040268456376","-2.01938851603281","0","0.0625"
"1846.11765","5.17002237136465","-6.53542132736764","4.41834451901566","8.06040268456376","-2.01938851603281","0","0.0625"
"1849","5.17002237136465","-6.53542132736764","4.41834451901566","-2.93959731543624","-2.01938851603281","0","0.0625"
"1851.88235","-0.829977628635347","6.46457867263236","-1.58165548098434","-2.93959731543624","-2.01938851603281","0","0.0625"
"1854.76471","-0.829977628635347","6.46457867263236","-1.58165548098434","-2.93959731543624","-2.01938851603281","0","0.0625"
"1857.64706","-0.829977628635347","6.46457867263236","-1.58165548098434","-2.93959731543624","-2.01938851603281","0","0.0625"
"1860.52941","-0.829977628635347","6.46457867263236","-1.58165548098434","4.06040268456376","-1.01938851603281","0","0.0625"
"1863.41176","22.1700223713647","-10.5354213273676","8.41834451901566","4.06040268456376","-1.01938851603281","0","0.0625"
"1866.29412","22.1700223713647","-10.5354213273676","8.41834451901566","-0.939597315436242","0.980611483967189","0","0.0625"
"1869.17647","15.1700223713647","-7.53542132736764","12.4183445190157","-0.939597315436242","0.980611483967189","0","0.0625"
"1872.05882","15.1700223713647","-7.53542132736764","12.4183445190157","-3.93959731543624","-2.01938851603281","0","0.0625"
"1874.94118","-8.82997762863535","13.4645786726324","-9.58165548098434","-3.93959731543624","-2.01938851603281","0","0.0625"
"1877.82353","-8.82997762863535","13.4645786726324","-9.58165548098434","0.0604026845637584","1.98061148396719","0","0.0625"
"1880.70588","-10.8299776286353","16.4645786726324","-12.5816554809843","0.0604026845637584","1.98061148396719","0","0.0625"
"1883.58824","-10.8299776286353","16.4645786726324","-12.5816554809843","4.06040268456376","4.98061148396719","0","0.0625"
"1886.47059","-10.8299776286353","16.4645786726324","-12.5816554809843","4.06040268456376","4.98061148396719","0","0.0625"
"1889.35294","-10.8299776286353","16.4645786726324","-12.5816554809843","-4.93959731543624","1.98061148396719","0","0.0625"
"1892.23529","0.170022371364653","15.4645786726324","-4.58165548098434","-4.93959731543624","1.98061148396719","0","0.0625"
"1895.11765","0.170022371364653","15.4645786726324","-4.58165548098434","-7.93959731543624","-0.0193885160328113","0","0.0625"
"1898","2.17002237136465","33.4645786726324","-4.58165548098434","-7.93959731543624","-0.0193885160328113","0","0.0625"
"1903.16667","2.17002237136465","33.4645786726324","-4.58165548098434","12.0604026845638","-0.0193885160328113","0","0.0625"
"1906.33333","-7.82997762863535","-34.5354213273676","5.41834451901566","12.0604026845638","-0.0193885160328113","0","0.0625"
"1909.5","-7.82997762863535","-34.5354213273676","5.41834451901566","-1.93959731543624","2.98061148396719","0","0.0625"
"1912.66667","2.17002237136465","-10.5354213273676","-0.581655480984342","-1.93959731543624","2.98061148396719","0","0.0625"
"1915.83333","2.17002237136465","-10.5354213273676","-0.581655480984342","-13.9395973154362","0.980611483967189","0","0.0625"
"1919","2.17002237136465","-10.5354213273676","-0.581655480984342","-13.9395973154362","0.980611483967189","0","0.0625"
"1922.16667","2.17002237136465","-10.5354213273676","-0.581655480984342","7.06040268456376","-4.01938851603281","0","0.0625"
"1925.33333","-7.82997762863535","-4.53542132736764","1.41834451901566","7.06040268456376","-4.01938851603281","0","0.0625"
"1928.5","-7.82997762863535","-4.53542132736764","1.41834451901566","10.0604026845638","-2.01938851603281","0","0.0625"
"1931.66667","-12.8299776286353","-19.5354213273676","-9.58165548098434","10.0604026845638","-2.01938851603281","0","0.0625"
"1934.83333","-12.8299776286353","-19.5354213273676","-9.58165548098434","-7.93959731543624","3.98061148396719","0","0.0625"
"1938","4.17002237136465","-1.53542132736764","1.41834451901566","-7.93959731543624","3.98061148396719","0","0.0625"
"1941.16667","4.17002237136465","-1.53542132736764","1.41834451901566","-6.93959731543624","2.98061148396719","0","0.0625"
"1944.33333","-0.829977628635347","17.4645786726324","1.41834451901566","-6.93959731543624","2.98061148396719","0","0.0625"
"1947.5","-0.829977628635347","17.4645786726324","1.41834451901566","8.06040268456376","-1.01938851603281","0","0.0625"
"1950.66667","-0.829977628635347","17.4645786726324","1.41834451901566","8.06040268456376","-1.01938851603281","0","0.0625"
"1953.83333","-0.829977628635347","17.4645786726324","1.41834451901566","1.06040268456376","-0.0193885160328113","0","0.0625"
"1957","-13.8299776286353","-7.53542132736764","-1.58165548098434","1.06040268456376","-0.0193885160328113","0","0.0625"
"1960.16667","-13.8299776286353","-7.53542132736764","-1.58165548098434","-6.93959731543624","0.980611483967189","0","0.0625"
"1963.33333","4.17002237136465","8.46457867263236","-1.58165548098434","-6.93959731543624","0.980611483967189","0","0.0625"
"1966.5","4.17002237136465","8.46457867263236","-1.58165548098434","0.0604026845637584","-2.01938851603281","0","0.0625"
"1969.66667","2.17002237136465","-4.53542132736764","2.41834451901566","0.0604026845637584","-2.01938851603281","0","0.0625"
"1972.83333","2.17002237136465","-4.53542132736764","2.41834451901566","8.06040268456376","-5.01938851603281","0","0.0625"
"1976","0.170022371364653","-8.53542132736764","4.41834451901566","8.06040268456376","-5.01938851603281","0","0.0625"
"1979.16667","0.170022371364653","-8.53542132736764","4.41834451901566","-1.93959731543624","-2.01938851603281","0","0.0625"
"1982.33333","0.170022371364653","-8.53542132736764","4.41834451901566","-1.93959731543624","-2.01938851603281","0","0.0625"
"1985.5","0.170022371364653","-8.53542132736764","4.41834451901566","-1.93959731543624","-3.01938851603281","0","0.0625"
"1988.66667","8.17002237136465","8.46457867263236","3.41834451901566","-1.93959731543624","-3.01938851603281","0","0.0625"
"1991.83333","8.17002237136465","8.46457867263236","3.41834451901566","5.06040268456376","0.980611483967189","0","0.0625"
"1995","2.17002237136465","-0.535421327367636","0.418344519015658","5.06040268456376","0.980611483967189","0","0.0625"
"2000","2.17002237136465","-0.535421327367636","0.418344519015658","1.06040268456376","0.980611483967189","0","0.0625"
"2000","-3.82997762863535","-1.53542132736764","-4.58165548098434","1.06040268456376","0.980611483967189","0","0.0625"
"2003.03125","-3.82997762863535","-1.53542132736764","-4.58165548098434","-1.93959731543624","0.980611483967189","0","0.0625"
"2006.0625","-0.829977628635347","1.46457867263236","0.418344519015658","-1.93959731543624","0.980611483967189","0","0.0625"
"2009.09375","-0.829977628635347","1.46457867263236","0.418344519015658","-0.939597315436242","-1.01938851603281","0","0.0625"
"2012.125","-0.829977628635347","1.46457867263236","0.418344519015658","-0.939597315436242","-1.01938851603281","0","0.0625"
"2015.15625","-0.829977628635347","1.46457867263236","0.418344519015658","2.06040268456376","-1.01938851603281","0","0.0625"
"2018.1875","4.17002237136465","1.46457867263236","3.41834451901566","2.06040268456376","-1.01938851603281","0","0.0625"
"2021.21875","4.17002237136465","1.46457867263236","3.41834451901566","3.06040268456376","1.98061148396719","0","0.0625"
"2024.25","-6.82997762863535","1.46457867263236","-2.58165548098434","3.06040268456376","1.98061148396719","0","0.0625"
"2027.28125","-6.82997762863535","1.46457867263236","-2.58165548098434","-1.93959731543624","0.980611483967189","0","0.0625"
"2030.3125","-10.8299776286353","-4.53542132736764","-8.58165548098434","-1.93959731543624","0.980611483967189","0","0.0625"
"2033.34375","-10.8299776286353","-4.53542132736764","-8.58165548098434","-0.939597315436242","2.98061148396719","0","0.0625"
"2036.375","2.17002237136465","2.46457867263236","0.418344519015658","-0.939597315436242","2.98061148396719","0","0.0625"
"2039.40625","2.17002237136465","2.46457867263236","0.418344519015658","-2.93959731543624","1.98061148396719","0","0.0625"
"2042.4375","2.17002237136465","2.46457867263236","0.418344519015658","-2.93959731543624","1.98061148396719","0","0.0625"
"2045.46875","2.17002237136465","2.46457867263236","0.418344519015658","3.06040268456376","-6.01938851603281","0","0.0625"
"2048.5","9.17002237136465","-1.53542132736764","8.41834451901566","3.06040268456376","-6.01938851603281","0","0.0625"
"2051.53125","9.17002237136465","-1.53542132736764","8.41834451901566","1.06040268456376","-4.01938851603281","0","0.0625"
"2054.5625","1.17002237136465","-3.53542132736764","-5.58165548098434","1.06040268456376","-4.01938851603281","0","0.0625"
"2057.59375","1.17002237136465","-3.53542132736764","-5.58165548098434","-5.93959731543624","3.98061148396719","0","0.0625"
"2060.625","5.17002237136465","12.4645786726324","-0.581655480984342","-5.93959731543624","3.98061148396719","0","0.0625"
"2063.65625","5.17002237136465","12.4645786726324","-0.581655480984342","0.0604026845637584","0.980611483967189","0","0.0625"
"2066.6875","1.17002237136465","8.46457867263236","-0.581655480984342","0.0604026845637584","0.980611483967189","0","0.0625"
"2069.71875","1.17002237136465","8.46457867263236","-0.581655480984342","4.06040268456376","-1.01938851603281","0","0.0625"
"2072.75","1.17002237136465","8.46457867263236","-0.581655480984342","4.06040268456376","-1.01938851603281","0","0.0625"
"2075.78125","1.17002237136465","8.46457867263236","-0.581655480984342","-3.93959731543624","1.98061148396719","0","0.0625"
"2078.8125","-5.82997762863535","13.4645786726324","-5.58165548098434","-3.93959731543624","1.98061148396719","0","0.0625"
"2081.84375","-5.82997762863535","13.4645786726324","-5.58165548098434","-1.93959731543624","-0.0193885160328113","0","0.0625"
"2084.875","3.17002237136465","18.4645786726324","-1.58165548098434","-1.93959731543624","-0.0193885160328113","0","0.0625"
"2087.90625","3.17002237136465","18.4645786726324","-1.58165548098434","11.0604026845638","-0.0193885160328113","0","0.0625"
"2090.9375","4.17002237136465","-21.5354213273676","4.41834451901566","11.0604026845638","-0.0193885160328113","0","0.0625"
"2093.96875","4.17002237136465","-21.5354213273676","4.41834451901566","3.06040268456376","-1.01938851603281","0","0.0625"
"2097","-5.82997762863535","-1.53542132736764","-0.581655480984342","3.06040268456376","-1.01938851603281","0","0.0625"
"2103.13333","-5.82997762863535","-1.53542132736764","-0.581655480984342","-9.93959731543624","-1.01938851603281","0","0.0625"
"2106.26667","-5.82997762863535","-1.53542132736764","-0.581655480984342","-9.93959731543624","-1.01938851603281","0","0.0625"
"2109.4","-5.82997762863535","-1.53542132736764","-0.581655480984342","2.06040268456376","-2.01938851603281","0","0.0625"
"2112.53333","4.17002237136465","9.46457867263236","1.41834451901566","2.06040268456376","-2.01938851603281","0","0.0625"
"2115.66667","4.17002237136465","9.46457867263236","1.41834451901566","6.06040268456376","0.980611483967189","0","0.0625"
"2118.8","11.1700223713647","-7.53542132736764","3.41834451901566","6.06040268456376","0.980611483967189","0","0.0625"
"2121.93333","11.1700223713647","-7.53542132736764","3.41834451901566","-2.93959731543624","0.980611483967189","0","0.0625"
"2125.06667","10.1700223713647","-2.53542132736764","13.4183445190157","-2.93959731543624","0.980611483967189","0","0.0625"
"2128.2","10.1700223713647","-2.53542132736764","13.4183445190157","-1.93959731543624","-3.01938851603281","0","0.0625"
"2131.33333","-9.82997762863535","13.4645786726324","-8.58165548098434","-1.93959731543624","-3.01938851603281","0","0.0625"
"2134.46667","-9.82997762863535","13.4645786726324","-8.58165548098434","0.0604026845637584","1.98061148396719","0","0.0625"
"2137.6","-9.82997762863535","13.4645786726324","-8.58165548098434","0.0604026845637584","1.98061148396719","0","0.0625"
"2140.73333","-9.82997762863535","13.4645786726324","-8.58165548098434","4.06040268456376","5.98061148396719","0","0.0625"
"2143.86667","4.17002237136465","-22.5354213273676","8.41834451901566","4.06040268456376","5.98061148396719","0","0.0625"
"2147","4.17002237136465","-22.5354213273676","8.41834451901566","-1.93959731543624","-4.01938851603281","0","0.0625"
"2150.13333","-5.82997762863535","9.46457867263236","-3.58165548098434","-1.93959731543624","-4.01938851603281","0","0.0625"
"2153.26667","-5.82997762863535","9.46457867263236","-3.58165548098434","-2.93959731543624","-3.01938851603281","0","0.0625"
"2156.4","-3.82997762863535","21.4645786726324","-3.58165548098434","-2.93959731543624","-3.01938851603281","0","0.0625"
"2159.53333","-3.82997762863535","21.4645786726324","-3.58165548098434","8.06040268456376","-0.0193885160328113","0","0.0625"
"2162.66667","13.1700223713647","-15.5354213273676","6.41834451901566","8.06040268456376","-0.0193885160328113","0","0.0625"
"2165.8","13.1700223713647","-15.5354213273676","6.41834451901566","-0.939597315436242","-2.01938851603281","0","0.0625"
"2168.93333","13.1700223713647","-15.5354213273676","6.41834451901566","-0.939597315436242","-2.01938851603281","0","0.0625"
"2172.06667","13.1700223713647","-15.5354213273676","6.41834451901566","-8.93959731543624","-4.01938851603281","0","0.0625"
"2175.2","0.170022371364653","4.46457867263236","-0.581655480984342","-8.93959731543624","-4.01938851603281","0","0.0625"
"2178.33333","0.170022371364653","4.46457867263236","-0.581655480984342","2.06040268456376","-1.01938851603281","0","0.0625"
"2181.46667","-8.82997762863535","9.46457867263236","-6.58165548098434","2.06040268456376","-1.01938851603281","0","0.0625"
"2184.6","-8.82997762863535","9.46457867263236","-6.58165548098434","1.06040268456376","3.98061148396719","0","0.0625"
"2187.73333","-8.82997762863535","9.46457867263236","-6.58165548098434","1.06040268456376","3.98061148396719","0","0.0625"
"2190.86667","-8.82997762863535","9.46457867263236","-6.58165548098434","3.06040268456376","1.98061148396719","0","0.0625"
"2194","9.17002237136465","-8.53542132736764","6.41834451901566","3.06040268456376","1.98061148396719","0","0.0625"
"2200","9.17002237136465","-8.53542132736764","6.41834451901566","-0.939597315436242","-3.01938851603281","0","0.0625"
"2200","9.17002237136465","-8.53542132736764","6.41834451901566","-0.939597315436242","-3.01938851603281","0","0.0625"
"2203.2","9.17002237136465","-8.53542132736764","6.41834451901566","-4.93959731543624","-0.0193885160328113","0","0.0625"
"2206.4","-4.82997762863535","10.4645786726324","-3.58165548098434","-4.93959731543624","-0.0193885160328113","0","0.0625"
"2209.6","-4.82997762863535","10.4645786726324","-3.58165548098434","3.06040268456376","0.980611483967189","0","0.0625"
"2212.8","-4.82997762863535","10.4645786726324","-3.58165548098434","3.06040268456376","0.980611483967189","0","0.0625"
"2216","-4.82997762863535","10.4645786726324","-3.58165548098434","2.06040268456376","-0.0193885160328113","0","0.0625"
"2219.2","4.17002237136465","-13.5354213273676","0.418344519015658","2.06040268456376","-0.0193885160328113","0","0.0625"
"2222.4","4.17002237136465","-13.5354213273676","0.418344519015658","-7.93959731543624","-2.01938851603281","0","0.0625"
"2225.6","-1.82997762863535","11.4645786726324","-1.58165548098434","-7.93959731543624","-2.01938851603281","0","0.0625"
"2228.8","-1.82997762863535","11.4645786726324","-1.58165548098434","1.06040268456376","-3.01938851603281","0","0.0625"
"2232","-1.82997762863535","11.4645786726324","-1.58165548098434","1.06040268456376","-3.01938851603281","0","0.0625"
"2235.2","-1.82997762863535","11.4645786726324","-1.58165548098434","5.06040268456376","-2.01938851603281","0","0.0625"
"2238.4","1.17002237136465","2.46457867263236","2.41834451901566","5.06040268456376","-2.01938851603281","0","0.0625"
"2241.6","1.17002237136465","2.46457867263236","2.41834451901566","-3.93959731543624","0.980611483967189","0","0.0625"
"2244.8","6.17002237136465","-8.53542132736764","3.41834451901566","-3.93959731543624","0.980611483967189","0","0.0625"
"2248","6.17002237136465","-8.53542132736764","3.41834451901566","-2.93959731543624","-1.01938851603281","0","0.0625"
"2251.2","3.17002237136465","6.46457867263236","0.418344519015658","-2.93959731543624","-1.01938851603281","0","0.0625"
"2254.4","3.17002237136465","6.46457867263236","0.418344519015658","4.06040268456376","-0.0193885160328113","0","0.0625"
"2257.6","-9.82997762863535","0.464578672632364","-4.58165548098434","4.06040268456376","-0.0193885160328113","0","0.0625"
"2260.8","-9.82997762863535","0.464578672632364","-4.58165548098434","1.06040268456376","1.98061148396719","0","0.0625"
"2264","-9.82997762863535","0.464578672632364","-4.58165548098434","1.06040268456376","1.98061148396719","0","0.0625"
"2267.2","-9.82997762863535","0.464578672632364","-4.58165548098434","-2.93959731543624","-0.0193885160328113","0","0.0625"
"2270.4","-1.82997762863535","0.464578672632364","-2.58165548098434","-2.93959731543624","-0.0193885160328113","0","0.0625"
"2273.6","-1.82997762863535","0.464578672632364","-2.58165548098434","0.0604026845637584","-0.0193885160328113","0","0.0625"
"2276.8","0.170022371364653","3.46457867263236","0.418344519015658","0.0604026845637584","-0.0193885160328113","0","0.0625"
"2280","0.170022371364653","3.46457867263236","0.418344519015658","-1.93959731543624","-2.01938851603281","0","0.0625"
"2283.2","2.17002237136465","1.46457867263236","-1.58165548098434","-1.93959731543624","-2.01938851603281","0","0.0625"
"2286.4","2.17002237136465","1.46457867263236","-1.58165548098434","1.06040268456376","0.980611483967189","0","0.0625"
"2289.6","6.17002237136465","0.464578672632364","2.41834451901566","1.06040268456376","0.980611483967189","0","0.0625"
"2292.8","6.17002237136465","0.464578672632364","2.41834451901566","0.0604026845637584","-0.0193885160328113","0","0.0625"
"2296","6.17002237136465","0.464578672632364","2.41834451901566","0.0604026845637584","-0.0193885160328113","0","0.0625"
"2303.16667","6.17002237136465","0.464578672632364","2.41834451901566","3.06040268456376","-1.01938851603281","0","0.0625"
"2306.33333","1.17002237136465","1.46457867263236","1.41834451901566","3.06040268456376","-1.01938851603281","0","0.0625"
"2309.5","1.17002237136465","1.46457867263236","1.41834451901566","-1.93959731543624","1.98061148396719","0","0.0625"
"2312.66667","1.17002237136465","1.46457867263236","1.41834451901566","-1.93959731543624","1.98061148396719","0","0.0625"
"2315.83333","1.17002237136465","1.46457867263236","1.41834451901566","-1.93959731543624","-0.0193885160328113","0","0.0625"
"2319","1.17002237136465","0.464578672632364","-1.58165548098434","-1.93959731543624","-0.0193885160328113","0","0.0625"
"2322.16667","1.17002237136465","0.464578672632364","-1.58165548098434","4.06040268456376","-0.0193885160328113","0","0.0625"
"2325.33333","1.17002237136465","0.464578672632364","-0.581655480984342","4.06040268456376","-0.0193885160328113","0","0.0625"
"2328.5","1.17002237136465","0.464578672632364","-0.581655480984342","2.06040268456376","-1.01938851603281","0","0.0625"
"2331.66667","0.170022371364653","1.46457867263236","-0.581655480984342","2.06040268456376","-1.01938851603281","0","0.0625"
"2334.83333","0.170022371364653","1.46457867263236","-0.581655480984342","-0.939597315436242","0.980611483967189","0","0.0625"
"2338","-0.829977628635347","0.464578672632364","0.418344519015658","-0.939597315436242","0.980611483967189","0","0.0625"
"2341.16667","-0.829977628635347","0.464578672632364","0.418344519015658","-2.93959731543624","2.98061148396719","0","0.0625"
"2344.33333","-0.829977628635347","1.46457867263236","-4.58165548098434","-2.93959731543624","2.98061148396719","0","0.0625"
"2347.5","-0.829977628635347","1.46457867263236","-4.58165548098434","2.06040268456376","0.980611483967189","0","0.0625"
"2350.66667","0.170022371364653","2.46457867263236","-3.58165548098434","2.06040268456376","0.980611483967189","0","0.0625"
"2353.83333","0.170022371364653","2.46457867263236","-3.58165548098434","1.06040268456376","-1.01938851603281","0","0.0625"
"2357","-2.82997762863535","2.46457867263236","-2.58165548098434","1.06040268456376","-1.01938851603281","0","0.0625"
"2360.16667","-2.82997762863535","2.46457867263236","-2.58165548098434","1.06040268456376","1.98061148396719","0","0.0625"
"2363.33333","4.17002237136465","1.46457867263236","3.41834451901566","1.06040268456376","1.98061148396719","0","0.0625"
"2366.5","4.17002237136465","1.46457867263236","3.41834451901566","0.0604026845637584","-0.0193885160328113","0","0.0625"
"2369.66667","4.17002237136465","2.46457867263236","2.41834451901566","0.0604026845637584","-0.0193885160328113","0","0.0625"
"2372.83333","4.17002237136465","2.46457867263236","2.41834451901566","1.06040268456376","-0.0193885160328113","0","0.0625"
"2376","4.17002237136465","1.46457867263236","4.41834451901566","1.06040268456376","-0.0193885160328113","0","0.0625"
"2379.16667","4.17002237136465","1.46457867263236","4.41834451901566","-0.939597315436242","1.98061148396719","0","0.0625"
"2382.33333","1.17002237136465","1.46457867263236","0.418344519015658","-0.939597315436242","1.98061148396719","0","0.0625"
"2385.5","1.17002237136465","1.46457867263236","0.418344519015658","1.06040268456376","-0.0193885160328113","0","0.0625"
"2388.66667","-3.82997762863535","1.46457867263236","-1.58165548098434","1.06040268456376","-0.0193885160328113","0","0.0625"
"2391.83333","-3.82997762863535","1.46457867263236","-1.58165548098434","1.06040268456376","-0.0193885160328113","0","0.0625"
"2395","-1.82997762863535","2.46457867263236","0.418344519015658","1.06040268456376","-0.0193885160328113","0","0.0625"
"2402.91176","-1.82997762863535","2.46457867263236","0.418344519015658","4.06040268456376","-0.0193885160328113","0","0.0625"
"2405.82353","0.170022371364653","3.46457867263236","0.418344519015658","4.06040268456376","-0.0193885160328113","0","0.0625"
"2408.73529","0.170022371364653","3.46457867263236","0.418344519015658","-1.93959731543624","0.980611483967189","0","0.0625"
"2411.64706","1.17002237136465","-4.53542132736764","1.41834451901566","-1.93959731543624","0.980611483967189","0","0.0625"
"2414.55882","1.17002237136465","-4.53542132736764","1.41834451901566","-0.939597315436242","0.980611483967189","0","0.0625"
"2417.47059","0.170022371364653","1.46457867263236","1.41834451901566","-0.939597315436242","0.980611483967189","0","0.0625"
"2420.38235","0.170022371364653","1.46457867263236","1.41834451901566","2.06040268456376","-1.01938851603281","0","0.0625"
"2423.29412","2.17002237136465","5.46457867263236","-1.58165548098434","2.06040268456376","-1.01938851603281","0","0.0625"
"2426.20588","2.17002237136465","5.46457867263236","-1.58165548098434","1.06040268456376","-2.01938851603281","0","0.0625"
"2429.11765","1.17002237136465","-2.53542132736764","0.418344519015658","1.06040268456376","-2.01938851603281","0","0.0625"
"2432.02941","1.17002237136465","-2.53542132736764","0.418344519015658","-3.93959731543624","0.980611483967189","0","0.0625"
"2434.94118","-1.82997762863535","1.46457867263236","1.41834451901566","-3.93959731543624","0.980611483967189","0","0.0625"
"2437.85294","-1.82997762863535","1.46457867263236","1.41834451901566","-0.939597315436242","1.98061148396719","0","0.0625"
"2440.76471","0.170022371364653","2.46457867263236","3.41834451901566","-0.939597315436242","1.98061148396719","0","0.0625"
"2443.67647","0.170022371364653","2.46457867263236","3.41834451901566","4.06040268456376","-0.0193885160328113","0","0.0625"
"2446.58824","1.17002237136465","4.46457867263236","-0.581655480984342","4.06040268456376","-0.0193885160328113","0","0.0625"
"2449.5","1.17002237136465","4.46457867263236","-0.581655480984342","1.06040268456376","1.98061148396719","0","0.0625"
"2452.41176","3.17002237136465","0.464578672632364","1.41834451901566","1.06040268456376","1.98061148396719","0","0.0625"
"2455.32353","3.17002237136465","0.464578672632364","1.41834451901566","-0.939597315436242","1.98061148396719","0","0.0625"
"2458.23529","0.170022371364653","-0.535421327367636","-0.581655480984342","-0.939597315436242","1.98061148396719","0","0.0625"
"2461.14706","0.170022371364653","-0.535421327367636","-0.581655480984342","1.06040268456376","0.980611483967189","0","0.0625"
"2464.05882","-0.829977628635347","1.46457867263236","-2.58165548098434","1.06040268456376","0.980611483967189","0","0.0625"
"2466.97059","-0.829977628635347","1.46457867263236","-2.58165548098434","2.06040268456376","-0.0193885160328113","0","0.0625"
"2469.88235","-0.829977628635347","1.46457867263236","-1.58165548098434","2.06040268456376","-0.0193885160328113","0","0.0625"
"2472.79412","-0.829977628635347","1.46457867263236","-1.58165548098434","1.06040268456376","-0.0193885160328113","0","0.0625"
"2475.70588","-0.829977628635347","-1.53542132736764","-1.58165548098434","1.06040268456376","-0.0193885160328113","0","0.0625"
"2478.61765","-0.829977628635347","-1.53542132736764","-1.58165548098434","-1.93959731543624","-2.01938851603281","0","0.0625"
"2481.52941","1.17002237136465","-2.53542132736764","0.418344519015658","-1.93959731543624","-2.01938851603281","0","0.0625"
"2484.44118","1.17002237136465","-2.53542132736764","0.418344519015658","0.0604026845637584","1.98061148396719","0","0.0625"
"2487.35294","2.17002237136465","2.46457867263236","0.418344519015658","0.0604026845637584","1.98061148396719","0","0.0625"
"2490.26471","2.17002237136465","2.46457867263236","0.418344519015658","2.06040268456376","-1.01938851603281","0","0.0625"
"2493.17647","1.17002237136465","2.46457867263236","3.41834451901566","2.06040268456376","-1.01938851603281","0","0.0625"
"2496.08824","1.17002237136465","2.46457867263236","3.41834451901566","4.06040268456376","-0.0193885160328113","0","0.0625"
"2499","1.17002237136465","1.46457867263236","3.41834451901566","4.06040268456376","-0.0193885160328113","0","0.0625"
"2503.3","1.17002237136465","1.46457867263236","3.41834451901566","1.06040268456376","3.98061148396719","0","0.0625"
"2506.6","0.170022371364653","-0.535421327367636","-4.58165548098434","1.06040268456376","3.98061148396719","0","0.0625"
"2509.9","0.170022371364653","-0.535421327367636","-4.58165548098434","1.06040268456376","0.980611483967189","0","0.0625"
"2513.2","-0.829977628635347","2.46457867263236","1.41834451901566","1.06040268456376","0.980611483967189","0","0.0625"
"2516.5","-0.829977628635347","2.46457867263236","1.41834451901566","0.0604026845637584","-0.0193885160328113","0","0.0625"
"2519.8","1.17002237136465","3.46457867263236","-0.581655480984342","0.0604026845637584","-0.0193885160328113","0","0.0625"
"2523.1","1.17002237136465","3.46457867263236","-0.581655480984342","1.06040268456376","-0.0193885160328113","0","0.0625"
"2526.4","1.17002237136465","2.46457867263236","1.41834451901566","1.06040268456376","-0.0193885160328113","0","0.0625"
"2529.7","1.17002237136465","2.46457867263236","1.41834451901566","-1.93959731543624","0.980611483967189","0","0.0625"
"2533","-1.82997762863535","-0.535421327367636","-1.58165548098434","-1.93959731543624","0.980611483967189","0","0.0625"
"2536.3","-1.82997762863535","-0.535421327367636","-1.58165548098434","1.06040268456376","-1.01938851603281","0","0.0625"
"2539.6","0.170022371364653","2.46457867263236","-0.581655480984342","1.06040268456376","-1.01938851603281","0","0.0625"
"2542.9","0.170022371364653","2.46457867263236","-0.581655480984342","4.06040268456376","-2.01938851603281","0","0.0625"
"2546.2","2.17002237136465","2.46457867263236","-0.581655480984342","4.06040268456376","-2.01938851603281","0","0.0625"
"2549.5","2.17002237136465","2.46457867263236","-0.581655480984342","0.0604026845637584","-0.0193885160328113","0","0.0625"
"2552.8","1.17002237136465","2.46457867263236","0.418344519015658","0.0604026845637584","-0.0193885160328113","0","0.0625"
"2556.1","1.17002237136465","2.46457867263236","0.418344519015658","0.0604026845637584","-1.01938851603281","0","0.0625"
"2559.4","-0.829977628635347","-1.53542132736764","-0.581655480984342","0.0604026845637584","-1.01938851603281","0","0.0625"
"2562.7","-0.829977628635347","-1.53542132736764","-0.581655480984342","-1.93959731543624","-0.0193885160328113","0","0.0625"
"2566","1.17002237136465","-0.535421327367636","2.41834451901566","-1.93959731543624","-0.0193885160328113","0","0.0625"
"2569.3","1.17002237136465","-0.535421327367636","2.41834451901566","-2.93959731543624","-1.01938851603281","0","0.0625"
"2572.6","3.17002237136465","0.464578672632364","-1.58165548098434","-2.93959731543624","-1.01938851603281","0","0.0625"
"2575.9","3.17002237136465","0.464578672632364","-1.58165548098434","-0.939597315436242","-0.0193885160328113","0","0.0625"
"2579.2","-0.829977628635347","1.46457867263236","1.41834451901566","-0.939597315436242","-0.0193885160328113","0","0.0625"
"2582.5","-0.829977628635347","1.46457867263236","1.41834451901566","-1.93959731543624","-0.0193885160328113","0","0.0625"
"2585.8","-0.829977628635347","-2.53542132736764","-0.581655480984342","-1.93959731543624","-0.0193885160328113","0","0.0625"
"2589.1","-0.829977628635347","-2.53542132736764","-0.581655480984342","-2.93959731543624","0.980611483967189","0","0.0625"
"2592.4","0.170022371364653","-0.535421327367636","0.418344519015658","-2.93959731543624","0.980611483967189","0","0.0625"
"2595.7","0.170022371364653","-0.535421327367636","0.418344519015658","-0.939597315436242","-1.01938851603281","0","0.0625"
"2599","-0.829977628635347","2.46457867263236","-1.58165548098434","-0.939597315436242","-1.01938851603281","0","0.0625"
"2603.3","-0.829977628635347","2.46457867263236","-1.58165548098434","1.06040268456376","0.980611483967189","0","0.0625"
"2606.6","1.17002237136465","1.46457867263236","-3.58165548098434","1.06040268456376","0.980611483967189","0","0.0625"
"2609.9","1.17002237136465","1.46457867263236","-3.58165548098434","0.0604026845637584","-1.01938851603281","0","0.0625"
"2613.2","1.17002237136465","0.464578672632364","-0.581655480984342","0.0604026845637584","-1.01938851603281","0","0.0625"
"2616.5","1.17002237136465","0.464578672632364","-0.581655480984342","-2.93959731543624","-0.0193885160328113","0","0.0625"
"2619.8","-0.829977628635347","1.46457867263236","-0.581655480984342","-2.93959731543624","-0.0193885160328113","0","0.0625"
"2623.1","-0.829977628635347","1.46457867263236","-0.581655480984342","-2.93959731543624","0.980611483967189","0","0.0625"
"2626.4","1.17002237136465","2.46457867263236","0.418344519015658","-2.93959731543624","0.980611483967189","0","0.0625"
"2629.7","1.17002237136465","2.46457867263236","0.418344519015658","-2.93959731543624","-1.01938851603281","0","0.0625"
"2633","1.17002237136465","1.46457867263236","0.418344519015658","-2.93959731543624","-1.01938851603281","0","0.0625"
"2636.3","1.17002237136465","1.46457867263236","0.418344519015658","-0.939597315436242","-2.01938851603281","0","0.0625"
"2639.6","-0.829977628635347","2.46457867263236","-2.58165548098434","-0.939597315436242","-2.01938851603281","0","0.0625"
"2642.9","-0.829977628635347","2.46457867263236","-2.58165548098434","-4.93959731543624","-2.01938851603281","0","0.0625"
"2646.2","-1.82997762863535","1.46457867263236","0.418344519015658","-4.93959731543624","-2.01938851603281","0","0.0625"
"2649.5","-1.82997762863535","1.46457867263236","0.418344519015658","1.06040268456376","-0.0193885160328113","0","0.0625"
"2652.8","-0.829977628635347","0.464578672632364","0.418344519015658","1.06040268456376","-0.0193885160328113","0","0.0625"
"2656.1","-0.829977628635347","0.464578672632364","0.418344519015658","-0.939597315436242","-2.01938851603281","0","0.0625"
"2659.4","0.170022371364653","-0.535421327367636","2.41834451901566","-0.939597315436242","-2.01938851603281","0","0.0625"
"2662.7","0.170022371364653","-0.535421327367636","2.41834451901566","2.06040268456376","0.980611483967189","0","0.0625"
"2666","1.17002237136465","1.46457867263236","1.41834451901566","2.06040268456376","0.980611483967189","0","0.0625"
"2669.3","1.17002237136465","1.46457867263236","1.41834451901566","0.0604026845637584","-1.01938851603281","0","0.0625"
"2672.6","0.170022371364653","1.46457867263236","-0.581655480984342","0.0604026845637584","-1.01938851603281","0","0.0625"
"2675.9","0.170022371364653","1.46457867263236","-0.581655480984342","0.0604026845637584","0.980611483967189","0","0.0625"
"2679.2","1.17002237136465","1.46457867263236","-2.58165548098434","0.0604026845637584","0.980611483967189","0","0.0625"
"2682.5","1.17002237136465","1.46457867263236","-2.58165548098434","0.0604026845637584","-0.0193885160328113","0","0.0625"
"2685.8","1.17002237136465","0.464578672632364","-1.58165548098434","0.0604026845637584","-0.0193885160328113","0","0.0625"
"2689.1","1.17002237136465","0.464578672632364","-1.58165548098434","0.0604026845637584","-1.01938851603281","0","0.0625"
"2692.4","0.170022371364653","0.464578672632364","0.418344519015658","0.0604026845637584","-1.01938851603281","0","0.0625"
"2695.7","0.170022371364653","0.464578672632364","0.418344519015658","-0.939597315436242","-2.01938851603281","0","0.0625"
"2699","0.170022371364653","1.46457867263236","1.41834451901566","-0.939597315436242","-2.01938851603281","0","0.0625"
"2703.70833","0.170022371364653","1.46457867263236","1.41834451901566","1.06040268456376","-0.0193885160328113","0","0.0625"
"2707.41667","-0.829977628635347","1.46457867263236","-1.58165548098434","1.06040268456376","-0.0193885160328113","0","0.0625"
"2711.125","-0.829977628635347","1.46457867263236","-1.58165548098434","1.06040268456376","-1.01938851603281","0","0.0625"
"2714.83333","2.17002237136465","2.46457867263236","0.418344519015658","1.06040268456376","-1.01938851603281","0","0.0625"
"2718.54167","2.17002237136465","2.46457867263236","0.418344519015658","0.0604026845637584","0.980611483967189","0","0.0625"
"2722.25","0.170022371364653","1.46457867263236","-2.58165548098434","0.0604026845637584","0.980611483967189","0","0.0625"
"2725.95833","0.170022371364653","1.46457867263236","-2.58165548098434","-2.93959731543624","-0.0193885160328113","0","0.0625"
"2729.66667","0.170022371364653","1.46457867263236","0.418344519015658","-2.93959731543624","-0.0193885160328113","0","0.0625"
"2733.375","0.170022371364653","1.46457867263236","0.418344519015658","-1.93959731543624","2.98061148396719","0","0.0625"
"2737.08333","-0.829977628635347","0.464578672632364","1.41834451901566","-1.93959731543624","2.98061148396719","0","0.0625"
"2740.79167","-0.829977628635347","0.464578672632364","1.41834451901566","0.0604026845637584","-3.01938851603281","0","0.0625"
"2744.5","0.170022371364653","1.46457867263236","-3.58165548098434","0.0604026845637584","-3.01938851603281","0","0.0625"
"2748.20833","0.170022371364653","1.46457867263236","-3.58165548098434","1.06040268456376","-1.01938851603281","0","0.0625"
"2751.91667","0.170022371364653","-0.535421327367636","1.41834451901566","1.06040268456376","-1.01938851603281","0","0.0625"
"2755.625","0.170022371364653","-0.535421327367636","1.41834451901566","-1.93959731543624","-1.01938851603281","0","0.0625"
"2759.33333","0.170022371364653","0.464578672632364","0.418344519015658","-1.93959731543624","-1.01938851603281","0","0.0625"
"2763.04167","0.170022371364653","0.464578672632364","0.418344519015658","-0.939597315436242","1.98061148396719","0","0.0625"
"2766.75","0.170022371364653","1.46457867263236","3.41834451901566","-0.939597315436242","1.98061148396719","0","0.0625"
"2770.45833","0.170022371364653","1.46457867263236","3.41834451901566","1.06040268456376","0.980611483967189","0","0.0625"
"2774.16667","-0.829977628635347","-0.535421327367636","-1.58165548098434","1.06040268456376","0.980611483967189","0","0.0625"
"2777.875","-0.829977628635347","-0.535421327367636","-1.58165548098434","0.0604026845637584","0.980611483967189","0","0.0625"
"2781.58333","0.170022371364653","1.46457867263236","1.41834451901566","0.0604026845637584","0.980611483967189","0","0.0625"
"2785.29167","0.170022371364653","1.46457867263236","1.41834451901566","0.0604026845637584","0.980611483967189","0","0.0625"
"2789","-0.829977628635347","1.46457867263236","-0.581655480984342","0.0604026845637584","0.980611483967189","0","0.0625"
"2803.53571","-0.829977628635347","1.46457867263236","-0.581655480984342","1.06040268456376","0.980611483967189","0","0.0625"
"2807.07143","0.170022371364653","-0.535421327367636","1.41834451901566","1.06040268456376","0.980611483967189","0","0.0625"
"2810.60714","0.170022371364653","-0.535421327367636","1.41834451901566","-2.93959731543624","3.98061148396719","0","0.0625"
"2814.14286","1.17002237136465","1.46457867263236","1.41834451901566","-2.93959731543624","3.98061148396719","0","0.0625"
"2817.67857","1.17002237136465","1.46457867263236","1.41834451901566","-0.939597315436242","-0.0193885160328113","0","0.0625"
"2821.21429","0.170022371364653","2.46457867263236","1.41834451901566","-0.939597315436242","-0.0193885160328113","0","0.0625"
"2824.75","0.170022371364653","2.46457867263236","1.41834451901566","-0.939597315436242","2.98061148396719","0","0.0625"
"2828.28571","-0.829977628635347","1.46457867263236","-3.58165548098434","-0.939597315436242","2.98061148396719","0","0.0625"
"2831.82143","-0.829977628635347","1.46457867263236","-3.58165548098434","0.0604026845637584","1.98061148396719","0","0.0625"
"2835.35714","0.170022371364653","2.46457867263236","-1.58165548098434","0.0604026845637584","1.98061148396719","0","0.0625"
"2838.89286","0.170022371364653","2.46457867263236","-1.58165548098434","-1.93959731543624","-1.01938851603281","0","0.0625"
"2842.42857","1.17002237136465","1.46457867263236","0.418344519015658","-1.93959731543624","-1.01938851603281","0","0.0625"
"2845.96429","1.17002237136465","1.46457867263236","0.418344519015658","-1.93959731543624","-3.01938851603281","0","0.0625"
"2849.5","1.17002237136465","2.46457867263236","-1.58165548098434","-1.93959731543624","-3.01938851603281","0","0.0625"
"2853.03571","1.17002237136465","2.46457867263236","-1.58165548098434","1.06040268456376","-3.01938851603281","0","0.0625"
"2856.57143","0.170022371364653","-2.53542132736764","0.418344519015658","1.06040268456376","-3.01938851603281","0","0.0625"
"2860.10714","0.170022371364653","-2.53542132736764","0.418344519015658","-2.93959731543624","-0.0193885160328113","0","0.0625"
"2863.64286","-2.82997762863535","-0.535421327367636","0.418344519015658","-2.93959731543624","-0.0193885160328113","0","0.0625"
"2867.17857","-2.82997762863535","-0.535421327367636","0.418344519015658","-1.93959731543624","1.98061148396719","0","0.0625"
"2870.71429","-3.82997762863535","1.46457867263236","-2.58165548098434","-1.93959731543624","1.98061148396719","0","0.0625"
"2874.25","-3.82997762863535","1.46457867263236","-2.58165548098434","0.0604026845637584","-0.0193885160328113","0","0.0625"
"2877.78571","-8.82997762863535","1.46457867263236","-3.58165548098434","0.0604026845637584","-0.0193885160328113","0","0.0625"
"2881.32143","-8.82997762863535","1.46457867263236","-3.58165548098434","0.0604026845637584","-3.01938851603281","0","0.0625"
"2884.85714","-7.82997762863535","-4.53542132736764","0.418344519015658","0.0604026845637584","-3.01938851603281","0","0.0625"
"2888.39286","-7.82997762863535","-4.53542132736764","0.418344519015658","-0.939597315436242","-4.01938851603281","0","0.0625"
"2891.92857","-6.82997762863535","-1.53542132736764","1.41834451901566","-0.939597315436242","-4.01938851603281","0","0.0625"
"2895.46429","-6.82997762863535","-1.53542132736764","1.41834451901566","3.06040268456376","-2.01938851603281","0","0.0625"
"2899","-5.82997762863535","6.46457867263236","-2.58165548098434","3.06040268456376","-2.01938851603281","0","0.0625"
"2903.53571","-5.82997762863535","6.46457867263236","-2.58165548098434","5.06040268456376","-5.01938851603281","0","0.0625"
"2907.07143","-12.8299776286353","-6.53542132736764","2.41834451901566","5.06040268456376","-5.01938851603281","0","0.0625"
"2910.60714","-12.8299776286353","-6.53542132736764","2.41834451901566","-0.939597315436242","-2.01938851603281","0","0.0625"
"2914.14286","-13.8299776286353","1.46457867263236","-8.58165548098434","-0.939597315436242","-2.01938851603281","0","0.0625"
"2917.67857","-13.8299776286353","1.46457867263236","-8.58165548098434","2.06040268456376","-2.01938851603281","0","0.0625"
"2921.21429","15.1700223713647","14.4645786726324","11.4183445190157","2.06040268456376","-2.01938851603281","0","0.0625"
"2924.75","15.1700223713647","14.4645786726324","11.4183445190157","4.06040268456376","-8.01938851603281","0","0.0625"
"2928.28571","7.17002237136465","-15.5354213273676","12.4183445190157","4.06040268456376","-8.01938851603281","0","0.0625"
"2931.82143","7.17002237136465","-15.5354213273676","12.4183445190157","-10.9395973154362","-1.01938851603281","0","0.0625"
"2935.35714","-21.8299776286353","-7.53542132736764","-6.58165548098434","-10.9395973154362","-1.01938851603281","0","0.0625"
"2938.89286","-21.8299776286353","-7.53542132736764","-6.58165548098434","2.06040268456376","4.98061148396719","0","0.0625"
"2942.42857","-17.8299776286353","22.4645786726324","-22.5816554809843","2.06040268456376","4.98061148396719","0","0.0625"
"2945.96429","-17.8299776286353","22.4645786726324","-22.5816554809843","3.06040268456376","-4.01938851603281","0","0.0625"
"2949.5","4.17002237136465","-20.5354213273676","3.41834451901566","3.06040268456376","-4.01938851603281","0","0.0625"
"2953.03571","4.17002237136465","-20.5354213273676","3.41834451901566","-10.9395973154362","-5.01938851603281","0","0.0625"
"2956.57143","23.1700223713647","-13.5354213273676","19.4183445190157","-10.9395973154362","-5.01938851603281","0","0.0625"
"2960.10714","23.1700223713647","-13.5354213273676","19.4183445190157","1.06040268456376","-7.01938851603281","0","0.0625"
"2963.64286","-2.82997762863535","27.4645786726324","-4.58165548098434","1.06040268456376","-7.01938851603281","0","0.0625"
"2967.17857","-2.82997762863535","27.4645786726324","-4.58165548098434","9.06040268456376","0.980611483967189","0","0.0625"
"2970.71429","20.1700223713647","-35.5354213273676","0.418344519015658","9.06040268456376","0.980611483967189","0","0.0625"
"2974.25","20.1700223713647","-35.5354213273676","0.418344519015658","-13.9395973154362","-2.01938851603281","0","0.0625"
"2977.78571","46.1700223713647","-39.5354213273676","18.4183445190157","-13.9395973154362","-2.01938851603281","0","0.0625"
"2981.32143","46.1700223713647","-39.5354213273676","18.4183445190157","-5.93959731543624","-5.01938851603281","0","0.0625"
"2984.85714","36.1700223713647","12.4645786726324","9.41834451901566","-5.93959731543624","-5.01938851603281","0","0.0625"
"2988.39286","36.1700223713647","12.4645786726324","9.41834451901566","18.0604026845638","3.98061148396719","0","0.0625"
"2991.92857","34.1700223713647","4.46457867263236","11.4183445190157","18.0604026845638","3.98061148396719","0","0.0625"
"2995.46429","34.1700223713647","4.46457867263236","11.4183445190157","1.06040268456376","6.98061148396719","0","0.0625"
"2999","9.17002237136465","-36.5354213273676","0.418344519015658","1.06040268456376","6.98061148396719","0","0.0625"
"3003.69231","9.17002237136465","-36.5354213273676","0.418344519015658","-19.9395973154362","14.9806114839672","0","0.0625"
"3007.38462","4.17002237136465","-29.5354213273676","-11.5816554809843","-19.9395973154362","14.9806114839672","0","0.0625"
"3011.07692","4.17002237136465","-29.5354213273676","-11.5816554809843","1.06040268456376","8.98061148396719","0","0.0625"
"3014.76923","43.1700223713647","-0.535421327367636","11.4183445190157","1.06040268456376","8.98061148396719","0","0.0625"
"3018.46154","43.1700223713647","-0.535421327367636","11.4183445190157","12.0604026845638","5.98061148396719","0","0.0625"
"3022.15385","-17.8299776286353","23.4645786726324","-26.5816554809843","12.0604026845638","5.98061148396719","0","0.0625"
"3025.84615","-17.8299776286353","23.4645786726324","-26.5816554809843","4.06040268456376","16.9806114839672","0","0.0625"
"3029.53846","18.1700223713647","-12.5354213273676","2.41834451901566","4.06040268456376","16.9806114839672","0","0.0625"
"3033.23077","18.1700223713647","-12.5354213273676","2.41834451901566","-13.9395973154362","4.98061148396719","0","0.0625"
"3036.92308","54.1700223713647","-41.5354213273676","37.4183445190157","-13.9395973154362","4.98061148396719","0","0.0625"
"3040.61538","54.1700223713647","-41.5354213273676","37.4183445190157","-0.939597315436242","9.98061148396719","0","0.0625"
"3044.30769","-49.8299776286353","51.4645786726324","-44.5816554809843","-0.939597315436242","9.98061148396719","0","0.0625"
"3048","-49.8299776286353","51.4645786726324","-44.5816554809843","16.0604026845638","20.9806114839672","0","0.0625"
"3051.69231","-3.82997762863535","40.4645786726324","-5.58165548098434","16.0604026845638","20.9806114839672","0","0.0625"
"3055.38462","-3.82997762863535","40.4645786726324","-5.58165548098434","5.06040268456376","0.980611483967189","0","0.0625"
"3059.07692","-5.82997762863535","-29.5354213273676","11.4183445190157","5.06040268456376","0.980611483967189","0","0.0625"
"3062.76923","-5.82997762863535","-29.5354213273676","11.4183445190157","-24.9395973154362","4.98061148396719","0","0.0625"
"3066.46154","-21.8299776286353","-37.5354213273676","13.4183445190157","-24.9395973154362","4.98061148396719","0","0.0625"
"3070.15385","-21.8299776286353","-37.5354213273676","13.4183445190157","9.06040268456376","1.98061148396719","0","0.0625"
"3073.84615","-6.82997762863535","42.4645786726324","4.41834451901566","9.06040268456376","1.98061148396719","0","0.0625"
"3077.53846","-6.82997762863535","42.4645786726324","4.41834451901566","15.0604026845638","-7.01938851603281","0","0.0625"
"3081.23077","-38.8299776286353","19.4645786726324","-13.5816554809843","15.0604026845638","-7.01938851603281","0","0.0625"
"3084.92308","-38.8299776286353","19.4645786726324","-13.5816554809843","-9.93959731543624","0.980611483967189","0","0.0625"
"3088.61538","23.1700223713647","-16.5354213273676","12.4183445190157","-9.93959731543624","0.980611483967189","0","0.0625"
"3092.30769","23.1700223713647","-16.5354213273676","12.4183445190157","-12.9395973154362","-7.01938851603281","0","0.0625"
"3096","-49.8299776286353","7.46457867263236","-27.5816554809843","-12.9395973154362","-7.01938851603281","0","0.0625"
"3101.35616","-49.8299776286353","7.46457867263236","-27.5816554809843","1.06040268456376","9.98061148396719","0","0.0625"
"3102.71233","5.17002237136465","9.46457867263236","-8.58165548098434","1.06040268456376","9.98061148396719","0","0.0625"
"3104.06849","5.17002237136465","9.46457867263236","-8.58165548098434","-1.93959731543624","-11.0193885160328","0","0.0625"
"3105.42466","53.1700223713647","-15.5354213273676","40.4183445190157","-1.93959731543624","-11.0193885160328","0","0.0625"
"3106.78082","53.1700223713647","-15.5354213273676","40.4183445190157","-4.93959731543624","-3.01938851603281","0","0.0625"
"3108.13699","-57.8299776286353","18.4645786726324","-38.5816554809843","-4.93959731543624","-3.01938851603281","0","0.0625"
"3109.49315","-57.8299776286353","18.4645786726324","-38.5816554809843","1.06040268456376","14.9806114839672","0","0.0625"
"3110.84932","27.1700223713647","-15.5354213273676","25.4183445190157","1.06040268456376","14.9806114839672","0","0.0625"
"3112.20548","27.1700223713647","-15.5354213273676","25.4183445190157","2.06040268456376","-5.01938851603281","0","0.0625"
"3113.56164","-35.8299776286353","2.46457867263236","-21.5816554809843","2.06040268456376","-5.01938851603281","0","0.0625"
"3114.91781","-35.8299776286353","2.46457867263236","-21.5816554809843","5.06040268456376","9.98061148396719","0","0.0625"
"3116.27397","-33.8299776286353","13.4645786726324","-24.5816554809843","5.06040268456376","9.98061148396719","0","0.0625"
"3117.63014","-33.8299776286353","13.4645786726324","-24.5816554809843","4.06040268456376","-18.0193885160328","0","0.0625"
"3118.9863","-73.8299776286353","25.4645786726324","-57.5816554809843","4.06040268456376","-18.0193885160328","0","0.0625"
"3120.34247","-73.8299776286353","25.4645786726324","-57.5816554809843","1.06040268456376","-2.01938851603281","0","0.0625"
"3121.69863","46.1700223713647","29.4645786726324","-2.58165548098434","1.06040268456376","-2.01938851603281","0","0.0625"
"3123.05479","46.1700223713647","29.4645786726324","-2.58165548098434","11.0604026845638","-33.0193885160328","0","0.0625"
"3124.41096","128.170022371365","24.4645786726324","60.4183445190157","11.0604026845638","-33.0193885160328","0","0.0625"
"3125.76712","128.170022371365","24.4645786726324","60.4183445190157","1.06040268456376","-15.0193885160328","0","0.0625"
"3127.12329","41.1700223713647","-16.5354213273676","-0.581655480984342","1.06040268456376","-15.0193885160328","0","0.0625"
"3128.47945","41.1700223713647","-16.5354213273676","-0.581655480984342","-18.9395973154362","-2.01938851603281","0","0.0625"
"3129.83562","89.1700223713647","-23.5354213273676","28.4183445190157","-18.9395973154362","-2.01938851603281","0","0.0625"
"3131.19178","89.1700223713647","-23.5354213273676","28.4183445190157","-10.9395973154362","-21.0193885160328","0","0.0625"
"3132.54795","65.1700223713647","10.4645786726324","0.418344519015658","-10.9395973154362","-21.0193885160328","0","0.0625"
"3133.90411","65.1700223713647","10.4645786726324","0.418344519015658","7.06040268456376","-3.01938851603281","0","0.0625"
"3135.26027","78.1700223713647","16.4645786726324","13.4183445190157","7.06040268456376","-3.01938851603281","0","0.0625"
"3136.61644","78.1700223713647","16.4645786726324","13.4183445190157","-7.93959731543624","0.980611483967189","0","0.0625"
"3137.9726","51.1700223713647","-51.5354213273676","30.4183445190157","-7.93959731543624","0.980611483967189","0","0.0625"
"3139.32877","51.1700223713647","-51.5354213273676","30.4183445190157","-17.9395973154362","13.9806114839672","0","0.0625"
"3140.68493","-13.8299776286353","-48.5354213273676","-5.58165548098434","-17.9395973154362","13.9806114839672","0","0.0625"
"3142.0411","-13.8299776286353","-48.5354213273676","-5.58165548098434","-6.93959731543624","24.9806114839672","0","0.0625"
"3143.39726","-0.829977628635347","-33.5354213273676","-9.58165548098434","-6.93959731543624","24.9806114839672","0","0.0625"
