Timer,AX,AY,AZ,GX,GY,GZ,A
"21","0.541923774954628","-0.370235934664247","-3.44682395644283","-0.082032667876588","0.0511796733212341","0","358.0625"
"3.62963","-1.45807622504537","0.629764065335753","-0.446823956442831","-0.082032667876588","0.0511796733212341","0","358.0625"
"7.25926","-1.45807622504537","0.629764065335753","-0.446823956442831","-1.08203266787659","-0.948820326678766","0","358.0625"
"10.88889","1.54192377495463","1.62976406533575","-1.44682395644283","-1.08203266787659","-0.948820326678766","0","358.0625"
"14.51852","1.54192377495463","1.62976406533575","-1.44682395644283","0.917967332123412","-0.948820326678766","0","358.0625"
"18.14815","0.541923774954628","1.62976406533575","-0.446823956442831","0.917967332123412","-0.948820326678766","0","358.0625"
"21.77778","0.541923774954628","1.62976406533575","-0.446823956442831","-3.08203266787659","-1.94882032667877","0","358.0625"
"25.40741","0.541923774954628","1.62976406533575","-0.446823956442831","-3.08203266787659","-1.94882032667877","0","358.0625"
"29.03704","0.541923774954628","1.62976406533575","-0.446823956442831","-3.08203266787659","-0.948820326678766","0","358.0625"
"32.66667","0.541923774954628","0.629764065335753","1.55317604355717","-3.08203266787659","-0.948820326678766","0","358.0625"
"36.2963","0.541923774954628","0.629764065335753","1.55317604355717","-1.08203266787659","-0.948820326678766","0","358.0625"
"39.92593","1.54192377495463","1.62976406533575","0.553176043557169","-1.08203266787659","-0.948820326678766","0","358.0625"
"43.55556","1.54192377495463","1.62976406533575","0.553176043557169","-2.08203266787659","0.0511796733212341","0","358.0625"
"47.18519","2.54192377495463","0.629764065335753","-1.44682395644283","-2.08203266787659","0.0511796733212341","0","358.0625"
"50.81481","2.54192377495463","0.629764065335753","-1.44682395644283","-3.08203266787659","1.05117967332123","0","358.0625"
"54.44444","2.54192377495463","0.629764065335753","-1.44682395644283","-3.08203266787659","1.05117967332123","0","358.0625"
"58.07407","2.54192377495463","0.629764065335753","-1.44682395644283","-3.08203266787659","1.05117967332123","0","358.0625"
"61.7037","2.54192377495463","0.629764065335753","-0.446823956442831","-3.08203266787659","1.05117967332123","0","358.0625"
"65.33333","2.54192377495463","0.629764065335753","-0.446823956442831","-1.08203266787659","-0.948820326678766","0","358.0625"
"68.96296","0.541923774954628","1.62976406533575","-0.446823956442831","-1.08203266787659","-0.948820326678766","0","358.0625"
"72.59259","0.541923774954628","1.62976406533575","-0.446823956442831","-3.08203266787659","1.05117967332123","0","358.0625"
"76.22222","-0.458076225045372","0.629764065335753","-1.44682395644283","-3.08203266787659","1.05117967332123","0","358.0625"
"79.85185","-0.458076225045372","0.629764065335753","-1.44682395644283","-2.08203266787659","0.0511796733212341","0","358.0625"
"83.48148","-0.458076225045372","-0.370235934664247","-0.446823956442831","-2.08203266787659","0.0511796733212341","0","358.0625"
"87.11111","-0.458076225045372","-0.370235934664247","-0.446823956442831","-2.08203266787659","0.0511796733212341","0","358.0625"
"90.74074","2.54192377495463","0.629764065335753","0.553176043557169","-2.08203266787659","0.0511796733212341","0","358.0625"
"94.37037","2.54192377495463","0.629764065335753","0.553176043557169","-4.08203266787659","0.0511796733212341","0","358.0625"
"98","0.541923774954628","1.62976406533575","0.553176043557169","-4.08203266787659","0.0511796733212341","0","358.0625"
"103.16667","0.541923774954628","1.62976406533575","0.553176043557169","-2.08203266787659","-0.948820326678766","0","358.0625"
"106.33333","1.54192377495463","1.62976406533575","-0.446823956442831","-2.08203266787659","-0.948820326678766","0","358.0625"
"109.5","1.54192377495463","1.62976406533575","-0.446823956442831","-3.08203266787659","-2.94882032667877","0","358.0625"
"112.66667","1.54192377495463","-0.370235934664247","-1.44682395644283","-3.08203266787659","-2.94882032667877","0","358.0625"
"115.83333","1.54192377495463","-0.370235934664247","-1.44682395644283","-2.08203266787659","-0.948820326678766","0","358.0625"
"119","-0.458076225045372","1.62976406533575","1.55317604355717","-2.08203266787659","-0.948820326678766","0","358.0625"
"122.16667","-0.458076225045372","1.62976406533575","1.55317604355717","-1.08203266787659","-1.94882032667877","0","358.0625"
"125.33333","-0.458076225045372","0.629764065335753","0.553176043557169","-1.08203266787659","-1.94882032667877","0","358.0625"
"128.5","-0.458076225045372","0.629764065335753","0.553176043557169","-0.082032667876588","1.05117967332123","0","358.0625"
"131.66667","0.541923774954628","0.629764065335753","-0.446823956442831","-0.082032667876588","1.05117967332123","0","358.0625"
"134.83333","0.541923774954628","0.629764065335753","-0.446823956442831","-1.08203266787659","2.05117967332123","0","358.0625"
"138","2.54192377495463","-2.37023593466425","-0.446823956442831","-1.08203266787659","2.05117967332123","0","358.0625"
"141.16667","2.54192377495463","-2.37023593466425","-0.446823956442831","-2.08203266787659","-0.948820326678766","0","358.0625"
"144.33333","-0.458076225045372","3.62976406533575","-0.446823956442831","-2.08203266787659","-0.948820326678766","0","358.0625"
"147.5","-0.458076225045372","3.62976406533575","-0.446823956442831","-0.082032667876588","0.0511796733212341","0","358.0625"
"150.66667","1.54192377495463","2.62976406533575","0.553176043557169","-0.082032667876588","0.0511796733212341","0","358.0625"
"153.83333","1.54192377495463","2.62976406533575","0.553176043557169","3.91796733212341","0.0511796733212341","0","358.0625"
"157","2.54192377495463","-0.370235934664247","1.55317604355717","3.91796733212341","0.0511796733212341","0","358.0625"
"160.16667","2.54192377495463","-0.370235934664247","1.55317604355717","3.91796733212341","0.0511796733212341","0","358.0625"
"163.33333","0.541923774954628","-0.370235934664247","-0.446823956442831","3.91796733212341","0.0511796733212341","0","358.0625"
"166.5","0.541923774954628","-0.370235934664247","-0.446823956442831","-5.08203266787659","1.05117967332123","0","358.0625"
"169.66667","-0.458076225045372","1.62976406533575","0.553176043557169","-5.08203266787659","1.05117967332123","0","358.0625"
"172.83333","-0.458076225045372","1.62976406533575","0.553176043557169","-2.08203266787659","0.0511796733212341","0","358.0625"
"176","-1.45807622504537","1.62976406533575","-0.446823956442831","-2.08203266787659","0.0511796733212341","0","358.0625"
"179.16667","-1.45807622504537","1.62976406533575","-0.446823956442831","-4.08203266787659","0.0511796733212341","0","358.0625"
"182.33333","0.541923774954628","1.62976406533575","1.55317604355717","-4.08203266787659","0.0511796733212341","0","358.0625"
"185.5","0.541923774954628","1.62976406533575","1.55317604355717","-4.08203266787659","0.0511796733212341","0","358.0625"
"188.66667","0.541923774954628","1.62976406533575","1.55317604355717","-4.08203266787659","0.0511796733212341","0","358.0625"
"191.83333","0.541923774954628","1.62976406533575","1.55317604355717","-2.08203266787659","-0.948820326678766","0","358.0625"
"195","1.54192377495463","-0.370235934664247","0.553176043557169","-2.08203266787659","-0.948820326678766","0","358.0625"
"202.96875","1.54192377495463","-0.370235934664247","0.553176043557169","-0.082032667876588","-2.94882032667877","0","358.0625"
"205.9375","1.54192377495463","1.62976406533575","-1.44682395644283","-0.082032667876588","-2.94882032667877","0","358.0625"
"208.90625","1.54192377495463","1.62976406533575","-1.44682395644283","-0.082032667876588","1.05117967332123","0","358.0625"
"211.875","-1.45807622504537","0.629764065335753","-0.446823956442831","-0.082032667876588","1.05117967332123","0","358.0625"
"214.84375","-1.45807622504537","0.629764065335753","-0.446823956442831","0.917967332123412","-1.94882032667877","0","358.0625"
"217.8125","0.541923774954628","-1.37023593466425","-1.44682395644283","0.917967332123412","-1.94882032667877","0","358.0625"
"220.78125","0.541923774954628","-1.37023593466425","-1.44682395644283","0.917967332123412","-1.94882032667877","0","358.0625"
"223.75","0.541923774954628","-1.37023593466425","-1.44682395644283","0.917967332123412","-1.94882032667877","0","358.0625"
"226.71875","0.541923774954628","-1.37023593466425","-1.44682395644283","-0.082032667876588","2.05117967332123","0","358.0625"
"229.6875","-1.45807622504537","2.62976406533575","-0.446823956442831","-0.082032667876588","2.05117967332123","0","358.0625"
"232.65625","-1.45807622504537","2.62976406533575","-0.446823956442831","2.91796733212341","3.05117967332123","0","358.0625"
"235.625","0.541923774954628","1.62976406533575","0.553176043557169","2.91796733212341","3.05117967332123","0","358.0625"
"238.59375","0.541923774954628","1.62976406533575","0.553176043557169","0.917967332123412","0.0511796733212341","0","358.0625"
"241.5625","1.54192377495463","0.629764065335753","0.553176043557169","0.917967332123412","0.0511796733212341","0","358.0625"
"244.53125","1.54192377495463","0.629764065335753","0.553176043557169","0.917967332123412","0.0511796733212341","0","358.0625"
"247.5","1.54192377495463","1.62976406533575","2.55317604355717","0.917967332123412","0.0511796733212341","0","358.0625"
"250.46875","1.54192377495463","1.62976406533575","2.55317604355717","0.917967332123412","-1.94882032667877","0","358.0625"
"253.4375","1.54192377495463","1.62976406533575","2.55317604355717","0.917967332123412","-1.94882032667877","0","358.0625"
"256.40625","1.54192377495463","1.62976406533575","2.55317604355717","-0.082032667876588","0.0511796733212341","0","358.0625"
"259.375","-1.45807622504537","0.629764065335753","-0.446823956442831","-0.082032667876588","0.0511796733212341","0","358.0625"
"262.34375","-1.45807622504537","0.629764065335753","-0.446823956442831","-1.08203266787659","1.05117967332123","0","358.0625"
"265.3125","0.541923774954628","2.62976406533575","1.55317604355717","-1.08203266787659","1.05117967332123","0","358.0625"
"268.28125","0.541923774954628","2.62976406533575","1.55317604355717","-0.082032667876588","1.05117967332123","0","358.0625"
"271.25","0.541923774954628","-0.370235934664247","-0.446823956442831","-0.082032667876588","1.05117967332123","0","358.0625"
"274.21875","0.541923774954628","-0.370235934664247","-0.446823956442831","3.91796733212341","2.05117967332123","0","358.0625"
"277.1875","-0.458076225045372","0.629764065335753","0.553176043557169","3.91796733212341","2.05117967332123","0","358.0625"
"280.15625","-0.458076225045372","0.629764065335753","0.553176043557169","-0.082032667876588","3.05117967332123","0","358.0625"
"283.125","-0.458076225045372","0.629764065335753","0.553176043557169","-0.082032667876588","3.05117967332123","0","358.0625"
"286.09375","-0.458076225045372","0.629764065335753","0.553176043557169","1.91796733212341","1.05117967332123","0","358.0625"
"289.0625","1.54192377495463","1.62976406533575","-0.446823956442831","1.91796733212341","1.05117967332123","0","358.0625"
"292.03125","1.54192377495463","1.62976406533575","-0.446823956442831","-1.08203266787659","2.05117967332123","0","358.0625"
"295","0.541923774954628","0.629764065335753","-0.446823956442831","-1.08203266787659","2.05117967332123","0","358.0625"
"300","0.541923774954628","0.629764065335753","-0.446823956442831","1.91796733212341","1.05117967332123","0","358.0625"
"300","2.54192377495463","0.629764065335753","-3.44682395644283","1.91796733212341","1.05117967332123","0","358.0625"
"303.2","2.54192377495463","0.629764065335753","-3.44682395644283","2.91796733212341","0.0511796733212341","0","358.0625"
"306.4","1.54192377495463","0.629764065335753","-0.446823956442831","2.91796733212341","0.0511796733212341","0","358.0625"
"309.6","1.54192377495463","0.629764065335753","-0.446823956442831","2.91796733212341","-1.94882032667877","0","358.0625"
"312.8","1.54192377495463","0.629764065335753","-0.446823956442831","2.91796733212341","-1.94882032667877","0","358.0625"
"316","1.54192377495463","0.629764065335753","-0.446823956442831","-0.082032667876588","-1.94882032667877","0","358.0625"
"319.2","1.54192377495463","0.629764065335753","-1.44682395644283","-0.082032667876588","-1.94882032667877","0","358.0625"
"322.4","1.54192377495463","0.629764065335753","-1.44682395644283","0.917967332123412","-1.94882032667877","0","358.0625"
"325.6","-0.458076225045372","1.62976406533575","-1.44682395644283","0.917967332123412","-1.94882032667877","0","358.0625"
"328.8","-0.458076225045372","1.62976406533575","-1.44682395644283","2.91796733212341","-0.948820326678766","0","358.0625"
"332","1.54192377495463","0.629764065335753","0.553176043557169","2.91796733212341","-0.948820326678766","0","358.0625"
"335.2","1.54192377495463","0.629764065335753","0.553176043557169","1.91796733212341","0.0511796733212341","0","358.0625"
"338.4","0.541923774954628","1.62976406533575","-0.446823956442831","1.91796733212341","0.0511796733212341","0","358.0625"
"341.6","0.541923774954628","1.62976406533575","-0.446823956442831","1.91796733212341","-0.948820326678766","0","358.0625"
"344.8","0.541923774954628","1.62976406533575","-0.446823956442831","1.91796733212341","-0.948820326678766","0","358.0625"
"348","0.541923774954628","1.62976406533575","-0.446823956442831","0.917967332123412","-1.94882032667877","0","358.0625"
"351.2","1.54192377495463","1.62976406533575","-1.44682395644283","0.917967332123412","-1.94882032667877","0","358.0625"
"354.4","1.54192377495463","1.62976406533575","-1.44682395644283","2.91796733212341","2.05117967332123","0","358.0625"
"357.6","1.54192377495463","1.62976406533575","-1.44682395644283","2.91796733212341","2.05117967332123","0","358.0625"
"360.8","1.54192377495463","1.62976406533575","-1.44682395644283","-0.082032667876588","1.05117967332123","0","358.0625"
"364","-1.45807622504537","1.62976406533575","-0.446823956442831","-0.082032667876588","1.05117967332123","0","358.0625"
"367.2","-1.45807622504537","1.62976406533575","-0.446823956442831","0.917967332123412","0.0511796733212341","0","358.0625"
"370.4","0.541923774954628","1.62976406533575","-0.446823956442831","0.917967332123412","0.0511796733212341","0","358.0625"
"373.6","0.541923774954628","1.62976406533575","-0.446823956442831","2.91796733212341","-0.948820326678766","0","358.0625"
"376.8","0.541923774954628","1.62976406533575","-0.446823956442831","2.91796733212341","-0.948820326678766","0","358.0625"
"380","0.541923774954628","1.62976406533575","-0.446823956442831","-3.08203266787659","-0.948820326678766","0","358.0625"
"383.2","-1.45807622504537","1.62976406533575","-2.44682395644283","-3.08203266787659","-0.948820326678766","0","358.0625"
"386.4","-1.45807622504537","1.62976406533575","-2.44682395644283","-0.082032667876588","-0.948820326678766","0","358.0625"
"389.6","1.54192377495463","1.62976406533575","-1.44682395644283","-0.082032667876588","-0.948820326678766","0","358.0625"
"392.8","1.54192377495463","1.62976406533575","-1.44682395644283","0.917967332123412","0.0511796733212341","0","358.0625"
"396","0.541923774954628","1.62976406533575","1.55317604355717","0.917967332123412","0.0511796733212341","0","358.0625"
"402.90625","0.541923774954628","1.62976406533575","1.55317604355717","3.91796733212341","0.0511796733212341","0","358.0625"
"405.8125","1.54192377495463","1.62976406533575","0.553176043557169","3.91796733212341","0.0511796733212341","0","358.0625"
"408.71875","1.54192377495463","1.62976406533575","0.553176043557169","-1.08203266787659","-1.94882032667877","0","358.0625"
"411.625","1.54192377495463","1.62976406533575","0.553176043557169","-1.08203266787659","-1.94882032667877","0","358.0625"
"414.53125","1.54192377495463","1.62976406533575","0.553176043557169","-1.08203266787659","-0.948820326678766","0","358.0625"
"417.4375","0.541923774954628","0.629764065335753","1.55317604355717","-1.08203266787659","-0.948820326678766","0","358.0625"
"420.34375","0.541923774954628","0.629764065335753","1.55317604355717","-0.082032667876588","2.05117967332123","0","358.0625"
"423.25","0.541923774954628","1.62976406533575","-0.446823956442831","-0.082032667876588","2.05117967332123","0","358.0625"
"426.15625","0.541923774954628","1.62976406533575","-0.446823956442831","1.91796733212341","-0.948820326678766","0","358.0625"
"429.0625","1.54192377495463","0.629764065335753","0.553176043557169","1.91796733212341","-0.948820326678766","0","358.0625"
"431.96875","1.54192377495463","0.629764065335753","0.553176043557169","2.91796733212341","1.05117967332123","0","358.0625"
"434.875","0.541923774954628","0.629764065335753","-0.446823956442831","2.91796733212341","1.05117967332123","0","358.0625"
"437.78125","0.541923774954628","0.629764065335753","-0.446823956442831","-1.08203266787659","1.05117967332123","0","358.0625"
"440.6875","0.541923774954628","0.629764065335753","-0.446823956442831","-1.08203266787659","1.05117967332123","0","358.0625"
"443.59375","0.541923774954628","0.629764065335753","-0.446823956442831","1.91796733212341","0.0511796733212341","0","358.0625"
"446.5","-0.458076225045372","-0.370235934664247","3.55317604355717","1.91796733212341","0.0511796733212341","0","358.0625"
"449.40625","-0.458076225045372","-0.370235934664247","3.55317604355717","-0.082032667876588","-0.948820326678766","0","358.0625"
"452.3125","1.54192377495463","1.62976406533575","-2.44682395644283","-0.082032667876588","-0.948820326678766","0","358.0625"
"455.21875","1.54192377495463","1.62976406533575","-2.44682395644283","0.917967332123412","-0.948820326678766","0","358.0625"
"458.125","0.541923774954628","1.62976406533575","-1.44682395644283","0.917967332123412","-0.948820326678766","0","358.0625"
"461.03125","0.541923774954628","1.62976406533575","-1.44682395644283","2.91796733212341","1.05117967332123","0","358.0625"
"463.9375","-0.458076225045372","0.629764065335753","-0.446823956442831","2.91796733212341","1.05117967332123","0","358.0625"
"466.84375","-0.458076225045372","0.629764065335753","-0.446823956442831","-1.08203266787659","3.05117967332123","0","358.0625"
"469.75","-0.458076225045372","0.629764065335753","-0.446823956442831","-1.08203266787659","3.05117967332123","0","358.0625"
"472.65625","-0.458076225045372","0.629764065335753","-0.446823956442831","-2.08203266787659","1.05117967332123","0","358.0625"
"475.5625","-1.45807622504537","0.629764065335753","0.553176043557169","-2.08203266787659","1.05117967332123","0","358.0625"
"478.46875","-1.45807622504537","0.629764065335753","0.553176043557169","2.91796733212341","-0.948820326678766","0","358.0625"
"481.375","0.541923774954628","0.629764065335753","-1.44682395644283","2.91796733212341","-0.948820326678766","0","358.0625"
"484.28125","0.541923774954628","0.629764065335753","-1.44682395644283","-0.082032667876588","1.05117967332123","0","358.0625"
"487.1875","0.541923774954628","1.62976406533575","0.553176043557169","-0.082032667876588","1.05117967332123","0","358.0625"
"490.09375","0.541923774954628","1.62976406533575","0.553176043557169","-1.08203266787659","0.0511796733212341","0","358.0625"
"493","-1.45807622504537","0.629764065335753","0.553176043557169","-1.08203266787659","0.0511796733212341","0","358.0625"
"500","-1.45807622504537","0.629764065335753","0.553176043557169","0.917967332123412","1.05117967332123","0","358.0625"
"500","-1.45807622504537","0.629764065335753","0.553176043557169","0.917967332123412","1.05117967332123","0","358.0625"
"503.1","-1.45807622504537","0.629764065335753","0.553176043557169","1.91796733212341","-1.94882032667877","0","358.0625"
"506.2","2.54192377495463","-0.370235934664247","0.553176043557169","1.91796733212341","-1.94882032667877","0","358.0625"
"509.3","2.54192377495463","-0.370235934664247","0.553176043557169","-2.08203266787659","0.0511796733212341","0","358.0625"
"512.4","1.54192377495463","0.629764065335753","-1.44682395644283","-2.08203266787659","0.0511796733212341","0","358.0625"
"515.5","1.54192377495463","0.629764065335753","-1.44682395644283","-1.08203266787659","0.0511796733212341","0","358.0625"
"518.6","-0.458076225045372","1.62976406533575","-1.44682395644283","-1.08203266787659","0.0511796733212341","0","358.0625"
"521.7","-0.458076225045372","1.62976406533575","-1.44682395644283","1.91796733212341","0.0511796733212341","0","358.0625"
"524.8","-0.458076225045372","-0.370235934664247","0.553176043557169","1.91796733212341","0.0511796733212341","0","358.0625"
"527.9","-0.458076225045372","-0.370235934664247","0.553176043557169","2.91796733212341","1.05117967332123","0","358.0625"
"531","-0.458076225045372","-0.370235934664247","0.553176043557169","2.91796733212341","1.05117967332123","0","358.0625"
"534.1","-0.458076225045372","-0.370235934664247","0.553176043557169","-0.082032667876588","-0.948820326678766","0","358.0625"
"537.2","0.541923774954628","1.62976406533575","0.553176043557169","-0.082032667876588","-0.948820326678766","0","358.0625"
"540.3","0.541923774954628","1.62976406533575","0.553176043557169","-1.08203266787659","-0.948820326678766","0","358.0625"
"543.4","0.541923774954628","0.629764065335753","-2.44682395644283","-1.08203266787659","-0.948820326678766","0","358.0625"
"546.5","0.541923774954628","0.629764065335753","-2.44682395644283","-2.08203266787659","2.05117967332123","0","358.0625"
"549.6","1.54192377495463","0.629764065335753","2.55317604355717","-2.08203266787659","2.05117967332123","0","358.0625"
"552.7","1.54192377495463","0.629764065335753","2.55317604355717","3.91796733212341","-0.948820326678766","0","358.0625"
"555.8","1.54192377495463","1.62976406533575","-1.44682395644283","3.91796733212341","-0.948820326678766","0","358.0625"
"558.9","1.54192377495463","1.62976406533575","-1.44682395644283","-1.08203266787659","0.0511796733212341","0","358.0625"
"562","1.54192377495463","1.62976406533575","-1.44682395644283","-1.08203266787659","0.0511796733212341","0","358.0625"
"565.1","1.54192377495463","1.62976406533575","-1.44682395644283","-0.082032667876588","1.05117967332123","0","358.0625"
"568.2","0.541923774954628","1.62976406533575","0.553176043557169","-0.082032667876588","1.05117967332123","0","358.0625"
"571.3","0.541923774954628","1.62976406533575","0.553176043557169","2.91796733212341","1.05117967332123","0","358.0625"
"574.4","2.54192377495463","1.62976406533575","-0.446823956442831","2.91796733212341","1.05117967332123","0","358.0625"
"577.5","2.54192377495463","1.62976406533575","-0.446823956442831","-0.082032667876588","1.05117967332123","0","358.0625"
"580.6","1.54192377495463","-1.37023593466425","-1.44682395644283","-0.082032667876588","1.05117967332123","0","358.0625"
"583.7","1.54192377495463","-1.37023593466425","-1.44682395644283","-0.082032667876588","0.0511796733212341","0","358.0625"
"586.8","3.54192377495463","2.62976406533575","0.553176043557169","-0.082032667876588","0.0511796733212341","0","358.0625"
"589.9","3.54192377495463","2.62976406533575","0.553176043557169","-0.082032667876588","1.05117967332123","0","358.0625"
"593","3.54192377495463","2.62976406533575","0.553176043557169","-0.082032667876588","1.05117967332123","0","358.0625"
"603","3.54192377495463","2.62976406533575","0.553176043557169","-2.08203266787659","-0.948820326678766","0","358.0625"
"606","0.541923774954628","0.629764065335753","-0.446823956442831","-2.08203266787659","-0.948820326678766","0","358.0625"
"609","0.541923774954628","0.629764065335753","-0.446823956442831","-1.08203266787659","-0.948820326678766","0","358.0625"
"612","1.54192377495463","1.62976406533575","-1.44682395644283","-1.08203266787659","-0.948820326678766","0","358.0625"
"615","1.54192377495463","1.62976406533575","-1.44682395644283","-2.08203266787659","0.0511796733212341","0","358.0625"
"618","2.54192377495463","1.62976406533575","-0.446823956442831","-2.08203266787659","0.0511796733212341","0","358.0625"
"621","2.54192377495463","1.62976406533575","-0.446823956442831","1.91796733212341","-1.94882032667877","0","358.0625"
"624","0.541923774954628","0.629764065335753","0.553176043557169","1.91796733212341","-1.94882032667877","0","358.0625"
"627","0.541923774954628","0.629764065335753","0.553176043557169","0.917967332123412","-2.94882032667877","0","358.0625"
"630","0.541923774954628","0.629764065335753","0.553176043557169","0.917967332123412","-2.94882032667877","0","358.0625"
"633","0.541923774954628","0.629764065335753","0.553176043557169","-0.082032667876588","-0.948820326678766","0","358.0625"
"636","0.541923774954628","0.629764065335753","0.553176043557169","-0.082032667876588","-0.948820326678766","0","358.0625"
"639","0.541923774954628","0.629764065335753","0.553176043557169","-1.08203266787659","-1.94882032667877","0","358.0625"
"642","-0.458076225045372","1.62976406533575","-1.44682395644283","-1.08203266787659","-1.94882032667877","0","358.0625"
"645","-0.458076225045372","1.62976406533575","-1.44682395644283","-2.08203266787659","1.05117967332123","0","358.0625"
"648","1.54192377495463","1.62976406533575","-3.44682395644283","-2.08203266787659","1.05117967332123","0","358.0625"
"651","1.54192377495463","1.62976406533575","-3.44682395644283","-0.082032667876588","-1.94882032667877","0","358.0625"
"654","1.54192377495463","1.62976406533575","1.55317604355717","-0.082032667876588","-1.94882032667877","0","358.0625"
"657","1.54192377495463","1.62976406533575","1.55317604355717","1.91796733212341","-1.94882032667877","0","358.0625"
"660","1.54192377495463","1.62976406533575","1.55317604355717","1.91796733212341","-1.94882032667877","0","358.0625"
"663","1.54192377495463","1.62976406533575","1.55317604355717","-1.08203266787659","-0.948820326678766","0","358.0625"
"666","-1.45807622504537","1.62976406533575","-0.446823956442831","-1.08203266787659","-0.948820326678766","0","358.0625"
"669","-1.45807622504537","1.62976406533575","-0.446823956442831","-0.082032667876588","0.0511796733212341","0","358.0625"
"672","2.54192377495463","1.62976406533575","-0.446823956442831","-0.082032667876588","0.0511796733212341","0","358.0625"
"675","2.54192377495463","1.62976406533575","-0.446823956442831","0.917967332123412","1.05117967332123","0","358.0625"
"678","0.541923774954628","1.62976406533575","1.55317604355717","0.917967332123412","1.05117967332123","0","358.0625"
"681","0.541923774954628","1.62976406533575","1.55317604355717","0.917967332123412","2.05117967332123","0","358.0625"
"684","-0.458076225045372","1.62976406533575","-0.446823956442831","0.917967332123412","2.05117967332123","0","358.0625"
"687","-0.458076225045372","1.62976406533575","-0.446823956442831","2.91796733212341","1.05117967332123","0","358.0625"
"690","-0.458076225045372","1.62976406533575","-0.446823956442831","2.91796733212341","1.05117967332123","0","358.0625"
"693","-0.458076225045372","1.62976406533575","-0.446823956442831","2.91796733212341","1.05117967332123","0","358.0625"
"696","1.54192377495463","1.62976406533575","-0.446823956442831","2.91796733212341","1.05117967332123","0","358.0625"
"703","1.54192377495463","1.62976406533575","-0.446823956442831","-1.08203266787659","0.0511796733212341","0","358.0625"
"706","1.54192377495463","0.629764065335753","-1.44682395644283","-1.08203266787659","0.0511796733212341","0","358.0625"
"709","1.54192377495463","0.629764065335753","-1.44682395644283","-0.082032667876588","-1.94882032667877","0","358.0625"
"712","1.54192377495463","1.62976406533575","1.55317604355717","-0.082032667876588","-1.94882032667877","0","358.0625"
"715","1.54192377495463","1.62976406533575","1.55317604355717","-2.08203266787659","0.0511796733212341","0","358.0625"
"718","1.54192377495463","1.62976406533575","-1.44682395644283","-2.08203266787659","0.0511796733212341","0","358.0625"
"721","1.54192377495463","1.62976406533575","-1.44682395644283","0.917967332123412","-1.94882032667877","0","358.0625"
"724","1.54192377495463","1.62976406533575","-1.44682395644283","0.917967332123412","-1.94882032667877","0","358.0625"
"727","1.54192377495463","1.62976406533575","-1.44682395644283","1.91796733212341","-0.948820326678766","0","358.0625"
"730","0.541923774954628","0.629764065335753","0.553176043557169","1.91796733212341","-0.948820326678766","0","358.0625"
"733","0.541923774954628","0.629764065335753","0.553176043557169","-2.08203266787659","0.0511796733212341","0","358.0625"
"736","-0.458076225045372","-1.37023593466425","-1.44682395644283","-2.08203266787659","0.0511796733212341","0","358.0625"
"739","-0.458076225045372","-1.37023593466425","-1.44682395644283","-0.082032667876588","0.0511796733212341","0","358.0625"
"742","-1.45807622504537","0.629764065335753","1.55317604355717","-0.082032667876588","0.0511796733212341","0","358.0625"
"745","-1.45807622504537","0.629764065335753","1.55317604355717","1.91796733212341","-0.948820326678766","0","358.0625"
"748","2.54192377495463","0.629764065335753","-0.446823956442831","1.91796733212341","-0.948820326678766","0","358.0625"
"751","2.54192377495463","0.629764065335753","-0.446823956442831","3.91796733212341","0.0511796733212341","0","358.0625"
"754","2.54192377495463","0.629764065335753","-0.446823956442831","3.91796733212341","0.0511796733212341","0","358.0625"
"757","2.54192377495463","0.629764065335753","-0.446823956442831","-1.08203266787659","0.0511796733212341","0","358.0625"
"760","2.54192377495463","1.62976406533575","1.55317604355717","-1.08203266787659","0.0511796733212341","0","358.0625"
"763","2.54192377495463","1.62976406533575","1.55317604355717","0.917967332123412","1.05117967332123","0","358.0625"
"766","2.54192377495463","0.629764065335753","-2.44682395644283","0.917967332123412","1.05117967332123","0","358.0625"
"769","2.54192377495463","0.629764065335753","-2.44682395644283","2.91796733212341","1.05117967332123","0","358.0625"
"772","0.541923774954628","-0.370235934664247","-0.446823956442831","2.91796733212341","1.05117967332123","0","358.0625"
"775","0.541923774954628","-0.370235934664247","-0.446823956442831","-2.08203266787659","1.05117967332123","0","358.0625"
"778","1.54192377495463","1.62976406533575","1.55317604355717","-2.08203266787659","1.05117967332123","0","358.0625"
"781","1.54192377495463","1.62976406533575","1.55317604355717","-2.08203266787659","0.0511796733212341","0","358.0625"
"784","1.54192377495463","1.62976406533575","1.55317604355717","-2.08203266787659","0.0511796733212341","0","358.0625"
"787","1.54192377495463","1.62976406533575","1.55317604355717","-4.08203266787659","0.0511796733212341","0","358.0625"
"790","1.54192377495463","2.62976406533575","-0.446823956442831","-4.08203266787659","0.0511796733212341","0","358.0625"
"793","1.54192377495463","2.62976406533575","-0.446823956442831","-1.08203266787659","1.05117967332123","0","358.0625"
"796","0.541923774954628","1.62976406533575","0.553176043557169","-1.08203266787659","1.05117967332123","0","358.0625"
"802.88235","0.541923774954628","1.62976406533575","0.553176043557169","-0.082032667876588","3.05117967332123","0","358.0625"
"805.76471","0.541923774954628","0.629764065335753","-1.44682395644283","-0.082032667876588","3.05117967332123","0","358.0625"
"808.64706","0.541923774954628","0.629764065335753","-1.44682395644283","0.917967332123412","1.05117967332123","0","358.0625"
"811.52941","0.541923774954628","-0.370235934664247","1.55317604355717","0.917967332123412","1.05117967332123","0","358.0625"
"814.41176","0.541923774954628","-0.370235934664247","1.55317604355717","-2.08203266787659","0.0511796733212341","0","358.0625"
"817.29412","1.54192377495463","0.629764065335753","1.55317604355717","-2.08203266787659","0.0511796733212341","0","358.0625"
"820.17647","1.54192377495463","0.629764065335753","1.55317604355717","-1.08203266787659","1.05117967332123","0","358.0625"
"823.05882","0.541923774954628","1.62976406533575","1.55317604355717","-1.08203266787659","1.05117967332123","0","358.0625"
"825.94118","0.541923774954628","1.62976406533575","1.55317604355717","1.91796733212341","1.05117967332123","0","358.0625"
"828.82353","-1.45807622504537","1.62976406533575","-0.446823956442831","1.91796733212341","1.05117967332123","0","358.0625"
"831.70588","-1.45807622504537","1.62976406533575","-0.446823956442831","-0.082032667876588","0.0511796733212341","0","358.0625"
"834.58824","-0.458076225045372","0.629764065335753","-0.446823956442831","-0.082032667876588","0.0511796733212341","0","358.0625"
"837.47059","-0.458076225045372","0.629764065335753","-0.446823956442831","-1.08203266787659","-1.94882032667877","0","358.0625"
"840.35294","2.54192377495463","0.629764065335753","0.553176043557169","-1.08203266787659","-1.94882032667877","0","358.0625"
"843.23529","2.54192377495463","0.629764065335753","0.553176043557169","0.917967332123412","-0.948820326678766","0","358.0625"
"846.11765","2.54192377495463","0.629764065335753","0.553176043557169","0.917967332123412","-0.948820326678766","0","358.0625"
"849","2.54192377495463","0.629764065335753","0.553176043557169","-3.08203266787659","0.0511796733212341","0","358.0625"
"851.88235","2.54192377495463","1.62976406533575","1.55317604355717","-3.08203266787659","0.0511796733212341","0","358.0625"
"854.76471","2.54192377495463","1.62976406533575","1.55317604355717","0.917967332123412","0.0511796733212341","0","358.0625"
"857.64706","2.54192377495463","1.62976406533575","3.55317604355717","0.917967332123412","0.0511796733212341","0","358.0625"
"860.52941","2.54192377495463","1.62976406533575","3.55317604355717","-0.082032667876588","0.0511796733212341","0","358.0625"
"863.41176","-0.458076225045372","1.62976406533575","-0.446823956442831","-0.082032667876588","0.0511796733212341","0","358.0625"
"866.29412","-0.458076225045372","1.62976406533575","-0.446823956442831","-2.08203266787659","2.05117967332123","0","358.0625"
"869.17647","1.54192377495463","-1.37023593466425","-0.446823956442831","-2.08203266787659","2.05117967332123","0","358.0625"
"872.05882","1.54192377495463","-1.37023593466425","-0.446823956442831","-0.082032667876588","-1.94882032667877","0","358.0625"
"874.94118","1.54192377495463","-0.370235934664247","-0.446823956442831","-0.082032667876588","-1.94882032667877","0","358.0625"
"877.82353","1.54192377495463","-0.370235934664247","-0.446823956442831","0.917967332123412","0.0511796733212341","0","358.0625"
"880.70588","-0.458076225045372","2.62976406533575","1.55317604355717","0.917967332123412","0.0511796733212341","0","358.0625"
"883.58824","-0.458076225045372","2.62976406533575","1.55317604355717","2.91796733212341","1.05117967332123","0","358.0625"
"886.47059","2.54192377495463","-0.370235934664247","-0.446823956442831","2.91796733212341","1.05117967332123","0","358.0625"
"889.35294","2.54192377495463","-0.370235934664247","-0.446823956442831","-0.082032667876588","1.05117967332123","0","358.0625"
"892.23529","0.541923774954628","1.62976406533575","-0.446823956442831","-0.082032667876588","1.05117967332123","0","358.0625"
"895.11765","0.541923774954628","1.62976406533575","-0.446823956442831","0.917967332123412","0.0511796733212341","0","358.0625"
"898","-0.458076225045372","1.62976406533575","-0.446823956442831","0.917967332123412","0.0511796733212341","0","358.0625"
"902.90625","-0.458076225045372","1.62976406533575","-0.446823956442831","0.917967332123412","1.05117967332123","0","358.0625"
"905.8125","1.54192377495463","0.629764065335753","-0.446823956442831","0.917967332123412","1.05117967332123","0","358.0625"
"908.71875","1.54192377495463","0.629764065335753","-0.446823956442831","0.917967332123412","0.0511796733212341","0","358.0625"
"911.625","-0.458076225045372","1.62976406533575","-0.446823956442831","0.917967332123412","0.0511796733212341","0","358.0625"
"914.53125","-0.458076225045372","1.62976406533575","-0.446823956442831","-2.08203266787659","0.0511796733212341","0","358.0625"
"917.4375","0.541923774954628","0.629764065335753","0.553176043557169","-2.08203266787659","0.0511796733212341","0","358.0625"
"920.34375","0.541923774954628","0.629764065335753","0.553176043557169","1.91796733212341","-0.948820326678766","0","358.0625"
"923.25","2.54192377495463","2.62976406533575","0.553176043557169","1.91796733212341","-0.948820326678766","0","358.0625"
"926.15625","2.54192377495463","2.62976406533575","0.553176043557169","2.91796733212341","-0.948820326678766","0","358.0625"
"929.0625","0.541923774954628","1.62976406533575","0.553176043557169","2.91796733212341","-0.948820326678766","0","358.0625"
"931.96875","0.541923774954628","1.62976406533575","0.553176043557169","-1.08203266787659","1.05117967332123","0","358.0625"
"934.875","0.541923774954628","-0.370235934664247","0.553176043557169","-1.08203266787659","1.05117967332123","0","358.0625"
"937.78125","0.541923774954628","-0.370235934664247","0.553176043557169","0.917967332123412","-0.948820326678766","0","358.0625"
"940.6875","1.54192377495463","-0.370235934664247","0.553176043557169","0.917967332123412","-0.948820326678766","0","358.0625"
"943.59375","1.54192377495463","-0.370235934664247","0.553176043557169","-0.082032667876588","0.0511796733212341","0","358.0625"
"946.5","1.54192377495463","1.62976406533575","-1.44682395644283","-0.082032667876588","0.0511796733212341","0","358.0625"
"949.40625","1.54192377495463","1.62976406533575","-1.44682395644283","-2.08203266787659","-0.948820326678766","0","358.0625"
"952.3125","1.54192377495463","-0.370235934664247","-1.44682395644283","-2.08203266787659","-0.948820326678766","0","358.0625"
"955.21875","1.54192377495463","-0.370235934664247","-1.44682395644283","0.917967332123412","-0.948820326678766","0","358.0625"
"958.125","0.541923774954628","0.629764065335753","-1.44682395644283","0.917967332123412","-0.948820326678766","0","358.0625"
"961.03125","0.541923774954628","0.629764065335753","-1.44682395644283","1.91796733212341","-1.94882032667877","0","358.0625"
"963.9375","-0.458076225045372","1.62976406533575","0.553176043557169","1.91796733212341","-1.94882032667877","0","358.0625"
"966.84375","-0.458076225045372","1.62976406533575","0.553176043557169","-0.082032667876588","-1.94882032667877","0","358.0625"
"969.75","3.54192377495463","1.62976406533575","-0.446823956442831","-0.082032667876588","-1.94882032667877","0","358.0625"
"972.65625","3.54192377495463","1.62976406533575","-0.446823956442831","1.91796733212341","0.0511796733212341","0","358.0625"
"975.5625","-1.45807622504537","1.62976406533575","-2.44682395644283","1.91796733212341","0.0511796733212341","0","358.0625"
"978.46875","-1.45807622504537","1.62976406533575","-2.44682395644283","0.917967332123412","1.05117967332123","0","358.0625"
"981.375","0.541923774954628","0.629764065335753","-0.446823956442831","0.917967332123412","1.05117967332123","0","358.0625"
"984.28125","0.541923774954628","0.629764065335753","-0.446823956442831","-0.082032667876588","3.05117967332123","0","358.0625"
"987.1875","-0.458076225045372","0.629764065335753","-0.446823956442831","-0.082032667876588","3.05117967332123","0","358.0625"
"990.09375","-0.458076225045372","0.629764065335753","-0.446823956442831","-0.082032667876588","1.05117967332123","0","358.0625"
"993","0.541923774954628","1.62976406533575","1.55317604355717","-0.082032667876588","1.05117967332123","0","358.0625"
"1003.03125","0.541923774954628","1.62976406533575","1.55317604355717","2.91796733212341","-2.94882032667877","0","358.0625"
"1006.0625","0.541923774954628","-1.37023593466425","1.55317604355717","2.91796733212341","-2.94882032667877","0","358.0625"
"1009.09375","0.541923774954628","-1.37023593466425","1.55317604355717","0.917967332123412","1.05117967332123","0","358.0625"
"1012.125","2.54192377495463","-1.37023593466425","3.55317604355717","0.917967332123412","1.05117967332123","0","358.0625"
"1015.15625","2.54192377495463","-1.37023593466425","3.55317604355717","-1.08203266787659","0.0511796733212341","0","358.0625"
"1018.1875","-0.458076225045372","1.62976406533575","-1.44682395644283","-1.08203266787659","0.0511796733212341","0","358.0625"
"1021.21875","-0.458076225045372","1.62976406533575","-1.44682395644283","-0.082032667876588","-1.94882032667877","0","358.0625"
"1024.25","2.54192377495463","-1.37023593466425","1.55317604355717","-0.082032667876588","-1.94882032667877","0","358.0625"
"1027.28125","2.54192377495463","-1.37023593466425","1.55317604355717","-2.08203266787659","-0.948820326678766","0","358.0625"
"1030.3125","1.54192377495463","-0.370235934664247","-1.44682395644283","-2.08203266787659","-0.948820326678766","0","358.0625"
"1033.34375","1.54192377495463","-0.370235934664247","-1.44682395644283","2.91796733212341","2.05117967332123","0","358.0625"
"1036.375","-1.45807622504537","0.629764065335753","0.553176043557169","2.91796733212341","2.05117967332123","0","358.0625"
"1039.40625","-1.45807622504537","0.629764065335753","0.553176043557169","2.91796733212341","-0.948820326678766","0","358.0625"
"1042.4375","-0.458076225045372","0.629764065335753","1.55317604355717","2.91796733212341","-0.948820326678766","0","358.0625"
"1045.46875","-0.458076225045372","0.629764065335753","1.55317604355717","2.91796733212341","1.05117967332123","0","358.0625"
"1048.5","1.54192377495463","4.62976406533575","-2.44682395644283","2.91796733212341","1.05117967332123","0","358.0625"
"1051.53125","1.54192377495463","4.62976406533575","-2.44682395644283","2.91796733212341","1.05117967332123","0","358.0625"
"1054.5625","1.54192377495463","0.629764065335753","1.55317604355717","2.91796733212341","1.05117967332123","0","358.0625"
"1057.59375","1.54192377495463","0.629764065335753","1.55317604355717","-0.082032667876588","-0.948820326678766","0","358.0625"
"1060.625","0.541923774954628","0.629764065335753","1.55317604355717","-0.082032667876588","-0.948820326678766","0","358.0625"
"1063.65625","0.541923774954628","0.629764065335753","1.55317604355717","-0.082032667876588","-0.948820326678766","0","358.0625"
"1066.6875","1.54192377495463","1.62976406533575","1.55317604355717","-0.082032667876588","-0.948820326678766","0","358.0625"
"1069.71875","1.54192377495463","1.62976406533575","1.55317604355717","-0.082032667876588","-0.948820326678766","0","358.0625"
"1072.75","-0.458076225045372","0.629764065335753","1.55317604355717","-0.082032667876588","-0.948820326678766","0","358.0625"
"1075.78125","-0.458076225045372","0.629764065335753","1.55317604355717","-1.08203266787659","0.0511796733212341","0","358.0625"
"1078.8125","0.541923774954628","1.62976406533575","-0.446823956442831","-1.08203266787659","0.0511796733212341","0","358.0625"
"1081.84375","0.541923774954628","1.62976406533575","-0.446823956442831","-0.082032667876588","0.0511796733212341","0","358.0625"
"1084.875","1.54192377495463","1.62976406533575","-0.446823956442831","-0.082032667876588","0.0511796733212341","0","358.0625"
"1087.90625","1.54192377495463","1.62976406533575","-0.446823956442831","0.917967332123412","-1.94882032667877","0","358.0625"
"1090.9375","1.54192377495463","1.62976406533575","2.55317604355717","0.917967332123412","-1.94882032667877","0","358.0625"
"1093.96875","1.54192377495463","1.62976406533575","2.55317604355717","-0.082032667876588","0.0511796733212341","0","358.0625"
"1097","-0.458076225045372","0.629764065335753","2.55317604355717","-0.082032667876588","0.0511796733212341","0","358.0625"
"1102.9375","-0.458076225045372","0.629764065335753","2.55317604355717","-0.082032667876588","1.05117967332123","0","358.0625"
"1105.875","3.54192377495463","1.62976406533575","1.55317604355717","-0.082032667876588","1.05117967332123","0","358.0625"
"1108.8125","3.54192377495463","1.62976406533575","1.55317604355717","-1.08203266787659","-4.94882032667877","0","358.0625"
"1111.75","-2.45807622504537","0.629764065335753","-3.44682395644283","-1.08203266787659","-4.94882032667877","0","358.0625"
"1114.6875","-2.45807622504537","0.629764065335753","-3.44682395644283","-0.082032667876588","1.05117967332123","0","358.0625"
"1117.625","1.54192377495463","-0.370235934664247","-0.446823956442831","-0.082032667876588","1.05117967332123","0","358.0625"
"1120.5625","1.54192377495463","-0.370235934664247","-0.446823956442831","-2.08203266787659","-0.948820326678766","0","358.0625"
"1123.5","0.541923774954628","0.629764065335753","0.553176043557169","-2.08203266787659","-0.948820326678766","0","358.0625"
"1126.4375","0.541923774954628","0.629764065335753","0.553176043557169","-0.082032667876588","-0.948820326678766","0","358.0625"
"1129.375","2.54192377495463","1.62976406533575","0.553176043557169","-0.082032667876588","-0.948820326678766","0","358.0625"
"1132.3125","2.54192377495463","1.62976406533575","0.553176043557169","0.917967332123412","1.05117967332123","0","358.0625"
"1135.25","-0.458076225045372","-0.370235934664247","2.55317604355717","0.917967332123412","1.05117967332123","0","358.0625"
"1138.1875","-0.458076225045372","-0.370235934664247","2.55317604355717","-3.08203266787659","2.05117967332123","0","358.0625"
"1141.125","1.54192377495463","1.62976406533575","-1.44682395644283","-3.08203266787659","2.05117967332123","0","358.0625"
"1144.0625","1.54192377495463","1.62976406533575","-1.44682395644283","-0.082032667876588","1.05117967332123","0","358.0625"
"1147","0.541923774954628","0.629764065335753","-2.44682395644283","-0.082032667876588","1.05117967332123","0","358.0625"
"1149.9375","0.541923774954628","0.629764065335753","-2.44682395644283","-3.08203266787659","-0.948820326678766","0","358.0625"
"1152.875","0.541923774954628","-0.370235934664247","-1.44682395644283","-3.08203266787659","-0.948820326678766","0","358.0625"
"1155.8125","0.541923774954628","-0.370235934664247","-1.44682395644283","-1.08203266787659","0.0511796733212341","0","358.0625"
"1158.75","-0.458076225045372","3.62976406533575","0.553176043557169","-1.08203266787659","0.0511796733212341","0","358.0625"
"1161.6875","-0.458076225045372","3.62976406533575","0.553176043557169","1.91796733212341","1.05117967332123","0","358.0625"
"1164.625","2.54192377495463","-0.370235934664247","0.553176043557169","1.91796733212341","1.05117967332123","0","358.0625"
"1167.5625","2.54192377495463","-0.370235934664247","0.553176043557169","0.917967332123412","0.0511796733212341","0","358.0625"
"1170.5","0.541923774954628","-0.370235934664247","-3.44682395644283","0.917967332123412","0.0511796733212341","0","358.0625"
"1173.4375","0.541923774954628","-0.370235934664247","-3.44682395644283","-1.08203266787659","-0.948820326678766","0","358.0625"
"1176.375","-0.458076225045372","1.62976406533575","-1.44682395644283","-1.08203266787659","-0.948820326678766","0","358.0625"
"1179.3125","-0.458076225045372","1.62976406533575","-1.44682395644283","-0.082032667876588","1.05117967332123","0","358.0625"
"1182.25","-0.458076225045372","1.62976406533575","0.553176043557169","-0.082032667876588","1.05117967332123","0","358.0625"
"1185.1875","-0.458076225045372","1.62976406533575","0.553176043557169","-1.08203266787659","-0.948820326678766","0","358.0625"
"1188.125","3.54192377495463","1.62976406533575","0.553176043557169","-1.08203266787659","-0.948820326678766","0","358.0625"
"1191.0625","3.54192377495463","1.62976406533575","0.553176043557169","-0.082032667876588","1.05117967332123","0","358.0625"
"1194","1.54192377495463","0.629764065335753","1.55317604355717","-0.082032667876588","1.05117967332123","0","358.0625"
"1203.80769","1.54192377495463","0.629764065335753","1.55317604355717","-1.08203266787659","0.0511796733212341","0","358.0625"
"1207.61538","1.54192377495463","0.629764065335753","-1.44682395644283","-1.08203266787659","0.0511796733212341","0","358.0625"
"1211.42308","1.54192377495463","0.629764065335753","-1.44682395644283","1.91796733212341","-2.94882032667877","0","358.0625"
"1215.23077","2.54192377495463","1.62976406533575","1.55317604355717","1.91796733212341","-2.94882032667877","0","358.0625"
"1219.03846","2.54192377495463","1.62976406533575","1.55317604355717","0.917967332123412","1.05117967332123","0","358.0625"
"1222.84615","0.541923774954628","1.62976406533575","0.553176043557169","0.917967332123412","1.05117967332123","0","358.0625"
"1226.65385","0.541923774954628","1.62976406533575","0.553176043557169","1.91796733212341","1.05117967332123","0","358.0625"
"1230.46154","0.541923774954628","0.629764065335753","1.55317604355717","1.91796733212341","1.05117967332123","0","358.0625"
"1234.26923","0.541923774954628","0.629764065335753","1.55317604355717","-0.082032667876588","0.0511796733212341","0","358.0625"
"1238.07692","1.54192377495463","1.62976406533575","1.55317604355717","-0.082032667876588","0.0511796733212341","0","358.0625"
"1241.88462","1.54192377495463","1.62976406533575","1.55317604355717","-0.082032667876588","1.05117967332123","0","358.0625"
"1245.69231","0.541923774954628","0.629764065335753","-1.44682395644283","-0.082032667876588","1.05117967332123","0","358.0625"
"1249.5","0.541923774954628","0.629764065335753","-1.44682395644283","-1.08203266787659","0.0511796733212341","0","358.0625"
"1253.30769","-0.458076225045372","-1.37023593466425","0.553176043557169","-1.08203266787659","0.0511796733212341","0","358.0625"
"1257.11538","-0.458076225045372","-1.37023593466425","0.553176043557169","-0.082032667876588","0.0511796733212341","0","358.0625"
"1260.92308","1.54192377495463","1.62976406533575","0.553176043557169","-0.082032667876588","0.0511796733212341","0","358.0625"
"1264.73077","1.54192377495463","1.62976406533575","0.553176043557169","-0.082032667876588","2.05117967332123","0","358.0625"
"1268.53846","1.54192377495463","2.62976406533575","-0.446823956442831","-0.082032667876588","2.05117967332123","0","358.0625"
"1272.34615","1.54192377495463","2.62976406533575","-0.446823956442831","0.917967332123412","0.0511796733212341","0","358.0625"
"1276.15385","-0.458076225045372","-0.370235934664247","0.553176043557169","0.917967332123412","0.0511796733212341","0","358.0625"
"1279.96154","-0.458076225045372","-0.370235934664247","0.553176043557169","-2.08203266787659","1.05117967332123","0","358.0625"
"1283.76923","1.54192377495463","1.62976406533575","-1.44682395644283","-2.08203266787659","1.05117967332123","0","358.0625"
"1287.57692","1.54192377495463","1.62976406533575","-1.44682395644283","0.917967332123412","-1.94882032667877","0","358.0625"
"1291.38462","3.54192377495463","-0.370235934664247","-0.446823956442831","0.917967332123412","-1.94882032667877","0","358.0625"
"1295.19231","3.54192377495463","-0.370235934664247","-0.446823956442831","3.91796733212341","-1.94882032667877","0","358.0625"
"1299","0.541923774954628","-2.37023593466425","-1.44682395644283","3.91796733212341","-1.94882032667877","0","358.0625"
"1302.79412","0.541923774954628","-2.37023593466425","-1.44682395644283","0.917967332123412","2.05117967332123","0","358.0625"
"1305.58824","2.54192377495463","1.62976406533575","0.553176043557169","0.917967332123412","2.05117967332123","0","358.0625"
"1308.38235","2.54192377495463","1.62976406533575","0.553176043557169","1.91796733212341","2.05117967332123","0","358.0625"
"1311.17647","1.54192377495463","0.629764065335753","2.55317604355717","1.91796733212341","2.05117967332123","0","358.0625"
"1313.97059","1.54192377495463","0.629764065335753","2.55317604355717","2.91796733212341","1.05117967332123","0","358.0625"
"1316.76471","0.541923774954628","-0.370235934664247","-1.44682395644283","2.91796733212341","1.05117967332123","0","358.0625"
"1319.55882","0.541923774954628","-0.370235934664247","-1.44682395644283","3.91796733212341","-1.94882032667877","0","358.0625"
"1322.35294","2.54192377495463","1.62976406533575","-0.446823956442831","3.91796733212341","-1.94882032667877","0","358.0625"
"1325.14706","2.54192377495463","1.62976406533575","-0.446823956442831","-1.08203266787659","-0.948820326678766","0","358.0625"
"1327.94118","-1.45807622504537","0.629764065335753","-0.446823956442831","-1.08203266787659","-0.948820326678766","0","358.0625"
"1330.73529","-1.45807622504537","0.629764065335753","-0.446823956442831","-2.08203266787659","2.05117967332123","0","358.0625"
"1333.52941","0.541923774954628","1.62976406533575","0.553176043557169","-2.08203266787659","2.05117967332123","0","358.0625"
"1336.32353","0.541923774954628","1.62976406533575","0.553176043557169","0.917967332123412","-0.948820326678766","0","358.0625"
"1339.11765","1.54192377495463","1.62976406533575","1.55317604355717","0.917967332123412","-0.948820326678766","0","358.0625"
"1341.91176","1.54192377495463","1.62976406533575","1.55317604355717","-1.08203266787659","-0.948820326678766","0","358.0625"
"1344.70588","1.54192377495463","-1.37023593466425","-2.44682395644283","-1.08203266787659","-0.948820326678766","0","358.0625"
"1347.5","1.54192377495463","-1.37023593466425","-2.44682395644283","1.91796733212341","0.0511796733212341","0","358.0625"
"1350.29412","-0.458076225045372","2.62976406533575","-2.44682395644283","1.91796733212341","0.0511796733212341","0","358.0625"
"1353.08824","-0.458076225045372","2.62976406533575","-2.44682395644283","2.91796733212341","-0.948820326678766","0","358.0625"
"1355.88235","-0.458076225045372","2.62976406533575","-0.446823956442831","2.91796733212341","-0.948820326678766","0","358.0625"
"1358.67647","-0.458076225045372","2.62976406533575","-0.446823956442831","-0.082032667876588","-1.94882032667877","0","358.0625"
"1361.47059","-0.458076225045372","0.629764065335753","-0.446823956442831","-0.082032667876588","-1.94882032667877","0","358.0625"
"1364.26471","-0.458076225045372","0.629764065335753","-0.446823956442831","-1.08203266787659","-1.94882032667877","0","358.0625"
"1367.05882","0.541923774954628","1.62976406533575","1.55317604355717","-1.08203266787659","-1.94882032667877","0","358.0625"
"1369.85294","0.541923774954628","1.62976406533575","1.55317604355717","-0.082032667876588","-3.94882032667877","0","358.0625"
"1372.64706","3.54192377495463","-0.370235934664247","-1.44682395644283","-0.082032667876588","-3.94882032667877","0","358.0625"
"1375.44118","3.54192377495463","-0.370235934664247","-1.44682395644283","-0.082032667876588","-0.948820326678766","0","358.0625"
"1378.23529","3.54192377495463","0.629764065335753","-3.44682395644283","-0.082032667876588","-0.948820326678766","0","358.0625"
"1381.02941","3.54192377495463","0.629764065335753","-3.44682395644283","-3.08203266787659","-1.94882032667877","0","358.0625"
"1383.82353","-0.458076225045372","1.62976406533575","-1.44682395644283","-3.08203266787659","-1.94882032667877","0","358.0625"
"1386.61765","-0.458076225045372","1.62976406533575","-1.44682395644283","-1.08203266787659","-0.948820326678766","0","358.0625"
"1389.41176","0.541923774954628","0.629764065335753","1.55317604355717","-1.08203266787659","-0.948820326678766","0","358.0625"
"1392.20588","0.541923774954628","0.629764065335753","1.55317604355717","-2.08203266787659","1.05117967332123","0","358.0625"
"1395","0.541923774954628","1.62976406533575","1.55317604355717","-2.08203266787659","1.05117967332123","0","358.0625"
"1400","0.541923774954628","1.62976406533575","1.55317604355717","0.917967332123412","-1.94882032667877","0","358.0625"
"1400","-0.458076225045372","-1.37023593466425","-1.44682395644283","0.917967332123412","-1.94882032667877","0","358.0625"
"1403.5","-0.458076225045372","-1.37023593466425","-1.44682395644283","2.91796733212341","1.05117967332123","0","358.0625"
"1407","-0.458076225045372","2.62976406533575","0.553176043557169","2.91796733212341","1.05117967332123","0","358.0625"
"1410.5","-0.458076225045372","2.62976406533575","0.553176043557169","-2.08203266787659","1.05117967332123","0","358.0625"
"1414","0.541923774954628","1.62976406533575","1.55317604355717","-2.08203266787659","1.05117967332123","0","358.0625"
"1417.5","0.541923774954628","1.62976406533575","1.55317604355717","-1.08203266787659","1.05117967332123","0","358.0625"
"1421","2.54192377495463","1.62976406533575","-0.446823956442831","-1.08203266787659","1.05117967332123","0","358.0625"
"1424.5","2.54192377495463","1.62976406533575","-0.446823956442831","-0.082032667876588","0.0511796733212341","0","358.0625"
"1428","2.54192377495463","1.62976406533575","-0.446823956442831","-0.082032667876588","0.0511796733212341","0","358.0625"
"1431.5","2.54192377495463","1.62976406533575","-0.446823956442831","3.91796733212341","2.05117967332123","0","358.0625"
"1435","-0.458076225045372","1.62976406533575","-2.44682395644283","3.91796733212341","2.05117967332123","0","358.0625"
"1438.5","-0.458076225045372","1.62976406533575","-2.44682395644283","1.91796733212341","2.05117967332123","0","358.0625"
"1442","0.541923774954628","1.62976406533575","-0.446823956442831","1.91796733212341","2.05117967332123","0","358.0625"
"1445.5","0.541923774954628","1.62976406533575","-0.446823956442831","-0.082032667876588","1.05117967332123","0","358.0625"
"1449","1.54192377495463","1.62976406533575","1.55317604355717","-0.082032667876588","1.05117967332123","0","358.0625"
"1452.5","1.54192377495463","1.62976406533575","1.55317604355717","-0.082032667876588","1.05117967332123","0","358.0625"
"1456","1.54192377495463","-0.370235934664247","-1.44682395644283","-0.082032667876588","1.05117967332123","0","358.0625"
"1459.5","1.54192377495463","-0.370235934664247","-1.44682395644283","1.91796733212341","0.0511796733212341","0","358.0625"
"1463","-0.458076225045372","-0.370235934664247","1.55317604355717","1.91796733212341","0.0511796733212341","0","358.0625"
"1466.5","-0.458076225045372","-0.370235934664247","1.55317604355717","1.91796733212341","1.05117967332123","0","358.0625"
"1470","1.54192377495463","1.62976406533575","-3.44682395644283","1.91796733212341","1.05117967332123","0","358.0625"
"1473.5","1.54192377495463","1.62976406533575","-3.44682395644283","-1.08203266787659","0.0511796733212341","0","358.0625"
"1477","-2.45807622504537","1.62976406533575","-2.44682395644283","-1.08203266787659","0.0511796733212341","0","358.0625"
"1480.5","-2.45807622504537","1.62976406533575","-2.44682395644283","-4.08203266787659","1.05117967332123","0","358.0625"
"1484","-1.45807622504537","0.629764065335753","2.55317604355717","-4.08203266787659","1.05117967332123","0","358.0625"
"1487.5","-1.45807622504537","0.629764065335753","2.55317604355717","1.91796733212341","-0.948820326678766","0","358.0625"
"1491","0.541923774954628","1.62976406533575","-0.446823956442831","1.91796733212341","-0.948820326678766","0","358.0625"
"1494.5","0.541923774954628","1.62976406533575","-0.446823956442831","1.91796733212341","0.0511796733212341","0","358.0625"
"1498","-1.45807622504537","-1.37023593466425","-0.446823956442831","1.91796733212341","0.0511796733212341","0","358.0625"
"1502.74286","-1.45807622504537","-1.37023593466425","-0.446823956442831","1.91796733212341","2.05117967332123","0","358.0625"
"1505.48571","0.541923774954628","1.62976406533575","-0.446823956442831","1.91796733212341","2.05117967332123","0","358.0625"
"1508.22857","0.541923774954628","1.62976406533575","-0.446823956442831","0.917967332123412","-0.948820326678766","0","358.0625"
"1510.97143","1.54192377495463","1.62976406533575","-0.446823956442831","0.917967332123412","-0.948820326678766","0","358.0625"
"1513.71429","1.54192377495463","1.62976406533575","-0.446823956442831","-1.08203266787659","-1.94882032667877","0","358.0625"
"1516.45714","-1.45807622504537","-0.370235934664247","-1.44682395644283","-1.08203266787659","-1.94882032667877","0","358.0625"
"1519.2","-1.45807622504537","-0.370235934664247","-1.44682395644283","0.917967332123412","2.05117967332123","0","358.0625"
"1521.94286","1.54192377495463","0.629764065335753","-0.446823956442831","0.917967332123412","2.05117967332123","0","358.0625"
"1524.68571","1.54192377495463","0.629764065335753","-0.446823956442831","-0.082032667876588","-1.94882032667877","0","358.0625"
"1527.42857","-0.458076225045372","1.62976406533575","0.553176043557169","-0.082032667876588","-1.94882032667877","0","358.0625"
"1530.17143","-0.458076225045372","1.62976406533575","0.553176043557169","0.917967332123412","-0.948820326678766","0","358.0625"
"1532.91429","1.54192377495463","0.629764065335753","-0.446823956442831","0.917967332123412","-0.948820326678766","0","358.0625"
"1535.65714","1.54192377495463","0.629764065335753","-0.446823956442831","2.91796733212341","0.0511796733212341","0","358.0625"
"1538.4","0.541923774954628","1.62976406533575","1.55317604355717","2.91796733212341","0.0511796733212341","0","358.0625"
"1541.14286","0.541923774954628","1.62976406533575","1.55317604355717","-0.082032667876588","-0.948820326678766","0","358.0625"
"1543.88571","-0.458076225045372","0.629764065335753","2.55317604355717","-0.082032667876588","-0.948820326678766","0","358.0625"
"1546.62857","-0.458076225045372","0.629764065335753","2.55317604355717","1.91796733212341","-0.948820326678766","0","358.0625"
"1549.37143","0.541923774954628","1.62976406533575","0.553176043557169","1.91796733212341","-0.948820326678766","0","358.0625"
"1552.11429","0.541923774954628","1.62976406533575","0.553176043557169","0.917967332123412","0.0511796733212341","0","358.0625"
"1554.85714","-0.458076225045372","0.629764065335753","-2.44682395644283","0.917967332123412","0.0511796733212341","0","358.0625"
"1557.6","-0.458076225045372","0.629764065335753","-2.44682395644283","-1.08203266787659","-0.948820326678766","0","358.0625"
"1560.34286","0.541923774954628","0.629764065335753","-1.44682395644283","-1.08203266787659","-0.948820326678766","0","358.0625"
"1563.08571","0.541923774954628","0.629764065335753","-1.44682395644283","-1.08203266787659","-2.94882032667877","0","358.0625"
"1565.82857","-0.458076225045372","1.62976406533575","-0.446823956442831","-1.08203266787659","-2.94882032667877","0","358.0625"
"1568.57143","-0.458076225045372","1.62976406533575","-0.446823956442831","0.917967332123412","-0.948820326678766","0","358.0625"
"1571.31429","-0.458076225045372","1.62976406533575","-0.446823956442831","0.917967332123412","-0.948820326678766","0","358.0625"
"1574.05714","-0.458076225045372","1.62976406533575","-0.446823956442831","0.917967332123412","-1.94882032667877","0","358.0625"
"1576.8","-0.458076225045372","1.62976406533575","-0.446823956442831","0.917967332123412","-1.94882032667877","0","358.0625"
"1579.54286","-0.458076225045372","1.62976406533575","-0.446823956442831","0.917967332123412","-1.94882032667877","0","358.0625"
"1582.28571","-0.458076225045372","1.62976406533575","-0.446823956442831","-1.08203266787659","0.0511796733212341","0","358.0625"
"1585.02857","2.54192377495463","0.629764065335753","-1.44682395644283","-1.08203266787659","0.0511796733212341","0","358.0625"
"1587.77143","2.54192377495463","0.629764065335753","-1.44682395644283","-0.082032667876588","0.0511796733212341","0","358.0625"
"1590.51429","3.54192377495463","1.62976406533575","1.55317604355717","-0.082032667876588","0.0511796733212341","0","358.0625"
"1593.25714","3.54192377495463","1.62976406533575","1.55317604355717","0.917967332123412","-1.94882032667877","0","358.0625"
"1596","0.541923774954628","-1.37023593466425","-0.446823956442831","0.917967332123412","-1.94882032667877","0","358.0625"
"1603.16667","0.541923774954628","-1.37023593466425","-0.446823956442831","-1.08203266787659","0.0511796733212341","0","358.0625"
"1606.33333","-1.45807622504537","0.629764065335753","1.55317604355717","-1.08203266787659","0.0511796733212341","0","358.0625"
"1609.5","-1.45807622504537","0.629764065335753","1.55317604355717","2.91796733212341","1.05117967332123","0","358.0625"
"1612.66667","1.54192377495463","1.62976406533575","-1.44682395644283","2.91796733212341","1.05117967332123","0","358.0625"
"1615.83333","1.54192377495463","1.62976406533575","-1.44682395644283","-0.082032667876588","1.05117967332123","0","358.0625"
"1619","-0.458076225045372","-1.37023593466425","-1.44682395644283","-0.082032667876588","1.05117967332123","0","358.0625"
"1622.16667","-0.458076225045372","-1.37023593466425","-1.44682395644283","1.91796733212341","1.05117967332123","0","358.0625"
"1625.33333","1.54192377495463","0.629764065335753","1.55317604355717","1.91796733212341","1.05117967332123","0","358.0625"
"1628.5","1.54192377495463","0.629764065335753","1.55317604355717","-1.08203266787659","0.0511796733212341","0","358.0625"
"1631.66667","0.541923774954628","1.62976406533575","-1.44682395644283","-1.08203266787659","0.0511796733212341","0","358.0625"
"1634.83333","0.541923774954628","1.62976406533575","-1.44682395644283","-1.08203266787659","0.0511796733212341","0","358.0625"
"1638","0.541923774954628","-0.370235934664247","0.553176043557169","-1.08203266787659","0.0511796733212341","0","358.0625"
"1641.16667","0.541923774954628","-0.370235934664247","0.553176043557169","-0.082032667876588","0.0511796733212341","0","358.0625"
"1644.33333","1.54192377495463","3.62976406533575","-3.44682395644283","-0.082032667876588","0.0511796733212341","0","358.0625"
"1647.5","1.54192377495463","3.62976406533575","-3.44682395644283","-0.082032667876588","-0.948820326678766","0","358.0625"
"1650.66667","1.54192377495463","-3.37023593466425","-1.44682395644283","-0.082032667876588","-0.948820326678766","0","358.0625"
"1653.83333","1.54192377495463","-3.37023593466425","-1.44682395644283","-0.082032667876588","0.0511796733212341","0","358.0625"
"1657","1.54192377495463","-0.370235934664247","0.553176043557169","-0.082032667876588","0.0511796733212341","0","358.0625"
"1660.16667","1.54192377495463","-0.370235934664247","0.553176043557169","-1.08203266787659","-1.94882032667877","0","358.0625"
"1663.33333","0.541923774954628","0.629764065335753","2.55317604355717","-1.08203266787659","-1.94882032667877","0","358.0625"
"1666.5","0.541923774954628","0.629764065335753","2.55317604355717","-0.082032667876588","1.05117967332123","0","358.0625"
"1669.66667","-1.45807622504537","-0.370235934664247","-0.446823956442831","-0.082032667876588","1.05117967332123","0","358.0625"
"1672.83333","-1.45807622504537","-0.370235934664247","-0.446823956442831","1.91796733212341","-1.94882032667877","0","358.0625"
"1676","-0.458076225045372","0.629764065335753","-1.44682395644283","1.91796733212341","-1.94882032667877","0","358.0625"
"1679.16667","-0.458076225045372","0.629764065335753","-1.44682395644283","1.91796733212341","-0.948820326678766","0","358.0625"
"1682.33333","0.541923774954628","0.629764065335753","-1.44682395644283","1.91796733212341","-0.948820326678766","0","358.0625"
"1685.5","0.541923774954628","0.629764065335753","-1.44682395644283","-1.08203266787659","-0.948820326678766","0","358.0625"
"1688.66667","0.541923774954628","1.62976406533575","-0.446823956442831","-1.08203266787659","-0.948820326678766","0","358.0625"
"1691.83333","0.541923774954628","1.62976406533575","-0.446823956442831","-2.08203266787659","4.05117967332123","0","358.0625"
"1695","-0.458076225045372","0.629764065335753","1.55317604355717","-2.08203266787659","4.05117967332123","0","358.0625"
"1700","-0.458076225045372","0.629764065335753","1.55317604355717","0.917967332123412","2.05117967332123","0","358.0625"
"1702.82857","0.541923774954628","-1.37023593466425","0.553176043557169","0.917967332123412","2.05117967332123","0","358.0625"
"1705.65714","0.541923774954628","-1.37023593466425","0.553176043557169","-0.082032667876588","2.05117967332123","0","358.0625"
"1708.48571","-1.45807622504537","-1.37023593466425","-2.44682395644283","-0.082032667876588","2.05117967332123","0","358.0625"
"1711.31429","-1.45807622504537","-1.37023593466425","-2.44682395644283","-1.08203266787659","-2.94882032667877","0","358.0625"
"1714.14286","1.54192377495463","1.62976406533575","-1.44682395644283","-1.08203266787659","-2.94882032667877","0","358.0625"
"1716.97143","1.54192377495463","1.62976406533575","-1.44682395644283","-1.08203266787659","1.05117967332123","0","358.0625"
"1719.8","1.54192377495463","0.629764065335753","1.55317604355717","-1.08203266787659","1.05117967332123","0","358.0625"
"1722.62857","1.54192377495463","0.629764065335753","1.55317604355717","-0.082032667876588","0.0511796733212341","0","358.0625"
"1725.45714","0.541923774954628","-1.37023593466425","2.55317604355717","-0.082032667876588","0.0511796733212341","0","358.0625"
"1728.28571","0.541923774954628","-1.37023593466425","2.55317604355717","0.917967332123412","0.0511796733212341","0","358.0625"
"1731.11429","1.54192377495463","0.629764065335753","-0.446823956442831","0.917967332123412","0.0511796733212341","0","358.0625"
"1733.94286","1.54192377495463","0.629764065335753","-0.446823956442831","-1.08203266787659","1.05117967332123","0","358.0625"
"1736.77143","1.54192377495463","1.62976406533575","0.553176043557169","-1.08203266787659","1.05117967332123","0","358.0625"
"1739.6","1.54192377495463","1.62976406533575","0.553176043557169","-1.08203266787659","-0.948820326678766","0","358.0625"
"1742.42857","0.541923774954628","1.62976406533575","1.55317604355717","-1.08203266787659","-0.948820326678766","0","358.0625"
"1745.25714","0.541923774954628","1.62976406533575","1.55317604355717","0.917967332123412","-1.94882032667877","0","358.0625"
"1748.08571","-2.45807622504537","1.62976406533575","1.55317604355717","0.917967332123412","-1.94882032667877","0","358.0625"
"1750.91429","-2.45807622504537","1.62976406533575","1.55317604355717","-2.08203266787659","6.05117967332123","0","358.0625"
"1753.74286","1.54192377495463","-0.370235934664247","0.553176043557169","-2.08203266787659","6.05117967332123","0","358.0625"
"1756.57143","1.54192377495463","-0.370235934664247","0.553176043557169","0.917967332123412","3.05117967332123","0","358.0625"
"1759.4","2.54192377495463","1.62976406533575","-0.446823956442831","0.917967332123412","3.05117967332123","0","358.0625"
"1762.22857","2.54192377495463","1.62976406533575","-0.446823956442831","0.917967332123412","1.05117967332123","0","358.0625"
"1765.05714","-0.458076225045372","0.629764065335753","-2.44682395644283","0.917967332123412","1.05117967332123","0","358.0625"
"1767.88571","-0.458076225045372","0.629764065335753","-2.44682395644283","1.91796733212341","1.05117967332123","0","358.0625"
"1770.71429","1.54192377495463","-0.370235934664247","1.55317604355717","1.91796733212341","1.05117967332123","0","358.0625"
"1773.54286","1.54192377495463","-0.370235934664247","1.55317604355717","1.91796733212341","1.05117967332123","0","358.0625"
"1776.37143","0.541923774954628","-0.370235934664247","0.553176043557169","1.91796733212341","1.05117967332123","0","358.0625"
"1779.2","0.541923774954628","-0.370235934664247","0.553176043557169","1.91796733212341","2.05117967332123","0","358.0625"
"1782.02857","0.541923774954628","2.62976406533575","0.553176043557169","1.91796733212341","2.05117967332123","0","358.0625"
"1784.85714","0.541923774954628","2.62976406533575","0.553176043557169","2.91796733212341","0.0511796733212341","0","358.0625"
"1787.68571","-0.458076225045372","1.62976406533575","-0.446823956442831","2.91796733212341","0.0511796733212341","0","358.0625"
"1790.51429","-0.458076225045372","1.62976406533575","-0.446823956442831","0.917967332123412","2.05117967332123","0","358.0625"
"1793.34286","2.54192377495463","-1.37023593466425","-2.44682395644283","0.917967332123412","2.05117967332123","0","358.0625"
"1796.17143","2.54192377495463","-1.37023593466425","-2.44682395644283","-0.082032667876588","1.05117967332123","0","358.0625"
"1799","-0.458076225045372","1.62976406533575","0.553176043557169","-0.082032667876588","1.05117967332123","0","358.0625"
"1803.3","-0.458076225045372","1.62976406533575","0.553176043557169","0.917967332123412","1.05117967332123","0","358.0625"
"1806.6","0.541923774954628","1.62976406533575","0.553176043557169","0.917967332123412","1.05117967332123","0","358.0625"
"1809.9","0.541923774954628","1.62976406533575","0.553176043557169","-1.08203266787659","2.05117967332123","0","358.0625"
"1813.2","0.541923774954628","1.62976406533575","0.553176043557169","-1.08203266787659","2.05117967332123","0","358.0625"
"1816.5","0.541923774954628","1.62976406533575","0.553176043557169","-1.08203266787659","2.05117967332123","0","358.0625"
"1819.8","0.541923774954628","-1.37023593466425","0.553176043557169","-1.08203266787659","2.05117967332123","0","358.0625"
"1823.1","0.541923774954628","-1.37023593466425","0.553176043557169","-1.08203266787659","0.0511796733212341","0","358.0625"
"1826.4","0.541923774954628","-0.370235934664247","-0.446823956442831","-1.08203266787659","0.0511796733212341","0","358.0625"
"1829.7","0.541923774954628","-0.370235934664247","-0.446823956442831","-5.08203266787659","2.05117967332123","0","358.0625"
"1833","-0.458076225045372","0.629764065335753","1.55317604355717","-5.08203266787659","2.05117967332123","0","358.0625"
"1836.3","-0.458076225045372","0.629764065335753","1.55317604355717","-0.082032667876588","-0.948820326678766","0","358.0625"
"1839.6","-0.458076225045372","1.62976406533575","1.55317604355717","-0.082032667876588","-0.948820326678766","0","358.0625"
"1842.9","-0.458076225045372","1.62976406533575","1.55317604355717","-0.082032667876588","-0.948820326678766","0","358.0625"
"1846.2","1.54192377495463","-0.370235934664247","1.55317604355717","-0.082032667876588","-0.948820326678766","0","358.0625"
"1849.5","1.54192377495463","-0.370235934664247","1.55317604355717","-3.08203266787659","0.0511796733212341","0","358.0625"
"1852.8","-1.45807622504537","0.629764065335753","1.55317604355717","-3.08203266787659","0.0511796733212341","0","358.0625"
"1856.1","-1.45807622504537","0.629764065335753","1.55317604355717","-0.082032667876588","-2.94882032667877","0","358.0625"
"1859.4","0.541923774954628","1.62976406533575","-3.44682395644283","-0.082032667876588","-2.94882032667877","0","358.0625"
"1862.7","0.541923774954628","1.62976406533575","-3.44682395644283","-2.08203266787659","3.05117967332123","0","358.0625"
"1866","1.54192377495463","0.629764065335753","1.55317604355717","-2.08203266787659","3.05117967332123","0","358.0625"
"1869.3","1.54192377495463","0.629764065335753","1.55317604355717","1.91796733212341","1.05117967332123","0","358.0625"
"1872.6","-1.45807622504537","-0.370235934664247","-1.44682395644283","1.91796733212341","1.05117967332123","0","358.0625"
"1875.9","-1.45807622504537","-0.370235934664247","-1.44682395644283","0.917967332123412","0.0511796733212341","0","358.0625"
"1879.2","-1.45807622504537","-0.370235934664247","-1.44682395644283","0.917967332123412","0.0511796733212341","0","358.0625"
"1882.5","-1.45807622504537","-0.370235934664247","-1.44682395644283","0.917967332123412","0.0511796733212341","0","358.0625"
"1885.8","-0.458076225045372","0.629764065335753","1.55317604355717","0.917967332123412","0.0511796733212341","0","358.0625"
"1889.1","-0.458076225045372","0.629764065335753","1.55317604355717","1.91796733212341","-0.948820326678766","0","358.0625"
"1892.4","-0.458076225045372","0.629764065335753","-1.44682395644283","1.91796733212341","-0.948820326678766","0","358.0625"
"1895.7","-0.458076225045372","0.629764065335753","-1.44682395644283","1.91796733212341","0.0511796733212341","0","358.0625"
"1899","0.541923774954628","-0.370235934664247","-2.44682395644283","1.91796733212341","0.0511796733212341","0","358.0625"
"1903","0.541923774954628","-0.370235934664247","-2.44682395644283","-1.08203266787659","1.05117967332123","0","358.0625"
"1906","1.54192377495463","-1.37023593466425","-0.446823956442831","-1.08203266787659","1.05117967332123","0","358.0625"
"1909","1.54192377495463","-1.37023593466425","-0.446823956442831","-2.08203266787659","0.0511796733212341","0","358.0625"
"1912","1.54192377495463","1.62976406533575","0.553176043557169","-2.08203266787659","0.0511796733212341","0","358.0625"
"1915","1.54192377495463","1.62976406533575","0.553176043557169","-2.08203266787659","0.0511796733212341","0","358.0625"
"1918","1.54192377495463","-0.370235934664247","1.55317604355717","-2.08203266787659","0.0511796733212341","0","358.0625"
"1921","1.54192377495463","-0.370235934664247","1.55317604355717","0.917967332123412","-0.948820326678766","0","358.0625"
"1924","-1.45807622504537","-0.370235934664247","-0.446823956442831","0.917967332123412","-0.948820326678766","0","358.0625"
"1927","-1.45807622504537","-0.370235934664247","-0.446823956442831","0.917967332123412","-0.948820326678766","0","358.0625"
"1930","-1.45807622504537","-0.370235934664247","0.553176043557169","0.917967332123412","-0.948820326678766","0","358.0625"
"1933","-1.45807622504537","-0.370235934664247","0.553176043557169","1.91796733212341","-0.948820326678766","0","358.0625"
"1936","0.541923774954628","0.629764065335753","0.553176043557169","1.91796733212341","-0.948820326678766","0","358.0625"
"1939","0.541923774954628","0.629764065335753","0.553176043557169","-1.08203266787659","-0.948820326678766","0","358.0625"
"1942","0.541923774954628","0.629764065335753","0.553176043557169","-1.08203266787659","-0.948820326678766","0","358.0625"
"1945","0.541923774954628","0.629764065335753","0.553176043557169","-1.08203266787659","-0.948820326678766","0","358.0625"
"1948","-2.45807622504537","1.62976406533575","-0.446823956442831","-1.08203266787659","-0.948820326678766","0","358.0625"
"1951","-2.45807622504537","1.62976406533575","-0.446823956442831","-1.08203266787659","1.05117967332123","0","358.0625"
"1954","-0.458076225045372","1.62976406533575","-2.44682395644283","-1.08203266787659","1.05117967332123","0","358.0625"
"1957","-0.458076225045372","1.62976406533575","-2.44682395644283","1.91796733212341","1.05117967332123","0","358.0625"
"1960","-0.458076225045372","1.62976406533575","0.553176043557169","1.91796733212341","1.05117967332123","0","358.0625"
"1963","-0.458076225045372","1.62976406533575","0.553176043557169","1.91796733212341","1.05117967332123","0","358.0625"
"1966","-0.458076225045372","-0.370235934664247","-2.44682395644283","1.91796733212341","1.05117967332123","0","358.0625"
"1969","-0.458076225045372","-0.370235934664247","-2.44682395644283","1.91796733212341","-1.94882032667877","0","358.0625"
"1972","-0.458076225045372","-0.370235934664247","-2.44682395644283","1.91796733212341","-1.94882032667877","0","358.0625"
"1975","-0.458076225045372","-0.370235934664247","-2.44682395644283","-0.082032667876588","2.05117967332123","0","358.0625"
"1978","0.541923774954628","-0.370235934664247","-1.44682395644283","-0.082032667876588","2.05117967332123","0","358.0625"
"1981","0.541923774954628","-0.370235934664247","-1.44682395644283","-0.082032667876588","0.0511796733212341","0","358.0625"
"1984","0.541923774954628","-0.370235934664247","-0.446823956442831","-0.082032667876588","0.0511796733212341","0","358.0625"
"1987","0.541923774954628","-0.370235934664247","-0.446823956442831","-1.08203266787659","1.05117967332123","0","358.0625"
"1990","0.541923774954628","1.62976406533575","-1.44682395644283","-1.08203266787659","1.05117967332123","0","358.0625"
"1993","0.541923774954628","1.62976406533575","-1.44682395644283","-2.08203266787659","0.0511796733212341","0","358.0625"
"1996","0.541923774954628","-0.370235934664247","1.55317604355717","-2.08203266787659","0.0511796733212341","0","358.0625"
"2003.03125","0.541923774954628","-0.370235934664247","1.55317604355717","-1.08203266787659","0.0511796733212341","0","358.0625"
"2006.0625","0.541923774954628","-0.370235934664247","1.55317604355717","-1.08203266787659","0.0511796733212341","0","358.0625"
"2009.09375","0.541923774954628","-0.370235934664247","1.55317604355717","-2.08203266787659","0.0511796733212341","0","358.0625"
"2012.125","-0.458076225045372","2.62976406533575","0.553176043557169","-2.08203266787659","0.0511796733212341","0","358.0625"
"2015.15625","-0.458076225045372","2.62976406533575","0.553176043557169","1.91796733212341","1.05117967332123","0","358.0625"
"2018.1875","1.54192377495463","-2.37023593466425","1.55317604355717","1.91796733212341","1.05117967332123","0","358.0625"
"2021.21875","1.54192377495463","-2.37023593466425","1.55317604355717","1.91796733212341","1.05117967332123","0","358.0625"
"2024.25","-0.458076225045372","0.629764065335753","-0.446823956442831","1.91796733212341","1.05117967332123","0","358.0625"
"2027.28125","-0.458076225045372","0.629764065335753","-0.446823956442831","-2.08203266787659","0.0511796733212341","0","358.0625"
"2030.3125","0.541923774954628","1.62976406533575","0.553176043557169","-2.08203266787659","0.0511796733212341","0","358.0625"
"2033.34375","0.541923774954628","1.62976406533575","0.553176043557169","-2.08203266787659","-0.948820326678766","0","358.0625"
"2036.375","0.541923774954628","1.62976406533575","0.553176043557169","-2.08203266787659","-0.948820326678766","0","358.0625"
"2039.40625","0.541923774954628","1.62976406533575","0.553176043557169","0.917967332123412","-0.948820326678766","0","358.0625"
"2042.4375","-0.458076225045372","-0.370235934664247","-1.44682395644283","0.917967332123412","-0.948820326678766","0","358.0625"
"2045.46875","-0.458076225045372","-0.370235934664247","-1.44682395644283","0.917967332123412","-0.948820326678766","0","358.0625"
"2048.5","2.54192377495463","-0.370235934664247","-3.44682395644283","0.917967332123412","-0.948820326678766","0","358.0625"
"2051.53125","2.54192377495463","-0.370235934664247","-3.44682395644283","-1.08203266787659","-0.948820326678766","0","358.0625"
"2054.5625","-2.45807622504537","1.62976406533575","-1.44682395644283","-1.08203266787659","-0.948820326678766","0","358.0625"
"2057.59375","-2.45807622504537","1.62976406533575","-1.44682395644283","-1.08203266787659","0.0511796733212341","0","358.0625"
"2060.625","1.54192377495463","1.62976406533575","-1.44682395644283","-1.08203266787659","0.0511796733212341","0","358.0625"
"2063.65625","1.54192377495463","1.62976406533575","-1.44682395644283","-0.082032667876588","0.0511796733212341","0","358.0625"
"2066.6875","1.54192377495463","1.62976406533575","-1.44682395644283","-0.082032667876588","0.0511796733212341","0","358.0625"
"2069.71875","1.54192377495463","1.62976406533575","-1.44682395644283","1.91796733212341","-2.94882032667877","0","358.0625"
"2072.75","1.54192377495463","-1.37023593466425","0.553176043557169","1.91796733212341","-2.94882032667877","0","358.0625"
"2075.78125","1.54192377495463","-1.37023593466425","0.553176043557169","-0.082032667876588","-0.948820326678766","0","358.0625"
"2078.8125","0.541923774954628","0.629764065335753","-0.446823956442831","-0.082032667876588","-0.948820326678766","0","358.0625"
"2081.84375","0.541923774954628","0.629764065335753","-0.446823956442831","-1.08203266787659","1.05117967332123","0","358.0625"
"2084.875","0.541923774954628","-0.370235934664247","-1.44682395644283","-1.08203266787659","1.05117967332123","0","358.0625"
"2087.90625","0.541923774954628","-0.370235934664247","-1.44682395644283","-0.082032667876588","1.05117967332123","0","358.0625"
"2090.9375","2.54192377495463","-0.370235934664247","1.55317604355717","-0.082032667876588","1.05117967332123","0","358.0625"
"2093.96875","2.54192377495463","-0.370235934664247","1.55317604355717","-1.08203266787659","1.05117967332123","0","358.0625"
"2097","2.54192377495463","-0.370235934664247","1.55317604355717","-1.08203266787659","1.05117967332123","0","358.0625"
"2102.79412","2.54192377495463","-0.370235934664247","1.55317604355717","0.917967332123412","0.0511796733212341","0","358.0625"
"2105.58824","-2.45807622504537","1.62976406533575","1.55317604355717","0.917967332123412","0.0511796733212341","0","358.0625"
"2108.38235","-2.45807622504537","1.62976406533575","1.55317604355717","0.917967332123412","1.05117967332123","0","358.0625"
"2111.17647","0.541923774954628","-1.37023593466425","-1.44682395644283","0.917967332123412","1.05117967332123","0","358.0625"
"2113.97059","0.541923774954628","-1.37023593466425","-1.44682395644283","-0.082032667876588","-1.94882032667877","0","358.0625"
"2116.76471","1.54192377495463","0.629764065335753","-1.44682395644283","-0.082032667876588","-1.94882032667877","0","358.0625"
"2119.55882","1.54192377495463","0.629764065335753","-1.44682395644283","1.91796733212341","-1.94882032667877","0","358.0625"
"2122.35294","-0.458076225045372","-0.370235934664247","0.553176043557169","1.91796733212341","-1.94882032667877","0","358.0625"
"2125.14706","-0.458076225045372","-0.370235934664247","0.553176043557169","-2.08203266787659","2.05117967332123","0","358.0625"
"2127.94118","-0.458076225045372","-0.370235934664247","0.553176043557169","-2.08203266787659","2.05117967332123","0","358.0625"
"2130.73529","-0.458076225045372","-0.370235934664247","0.553176043557169","-1.08203266787659","2.05117967332123","0","358.0625"
"2133.52941","-1.45807622504537","0.629764065335753","0.553176043557169","-1.08203266787659","2.05117967332123","0","358.0625"
"2136.32353","-1.45807622504537","0.629764065335753","0.553176043557169","0.917967332123412","0.0511796733212341","0","358.0625"
"2139.11765","-1.45807622504537","1.62976406533575","-3.44682395644283","0.917967332123412","0.0511796733212341","0","358.0625"
"2141.91176","-1.45807622504537","1.62976406533575","-3.44682395644283","0.917967332123412","1.05117967332123","0","358.0625"
"2144.70588","1.54192377495463","1.62976406533575","1.55317604355717","0.917967332123412","1.05117967332123","0","358.0625"
"2147.5","1.54192377495463","1.62976406533575","1.55317604355717","-1.08203266787659","1.05117967332123","0","358.0625"
"2150.29412","0.541923774954628","1.62976406533575","-0.446823956442831","-1.08203266787659","1.05117967332123","0","358.0625"
"2153.08824","0.541923774954628","1.62976406533575","-0.446823956442831","-1.08203266787659","1.05117967332123","0","358.0625"
"2155.88235","0.541923774954628","1.62976406533575","-0.446823956442831","-1.08203266787659","1.05117967332123","0","358.0625"
"2158.67647","0.541923774954628","1.62976406533575","-0.446823956442831","-2.08203266787659","0.0511796733212341","0","358.0625"
"2161.47059","0.541923774954628","1.62976406533575","-0.446823956442831","-2.08203266787659","0.0511796733212341","0","358.0625"
"2164.26471","0.541923774954628","1.62976406533575","-0.446823956442831","0.917967332123412","2.05117967332123","0","358.0625"
"2167.05882","-2.45807622504537","-0.370235934664247","-0.446823956442831","0.917967332123412","2.05117967332123","0","358.0625"
"2169.85294","-2.45807622504537","-0.370235934664247","-0.446823956442831","-0.082032667876588","-1.94882032667877","0","358.0625"
"2172.64706","2.54192377495463","-0.370235934664247","0.553176043557169","-0.082032667876588","-1.94882032667877","0","358.0625"
"2175.44118","2.54192377495463","-0.370235934664247","0.553176043557169","1.91796733212341","1.05117967332123","0","358.0625"
"2178.23529","2.54192377495463","1.62976406533575","0.553176043557169","1.91796733212341","1.05117967332123","0","358.0625"
"2181.02941","2.54192377495463","1.62976406533575","0.553176043557169","-1.08203266787659","-2.94882032667877","0","358.0625"
"2183.82353","2.54192377495463","1.62976406533575","0.553176043557169","-1.08203266787659","-2.94882032667877","0","358.0625"
"2186.61765","2.54192377495463","1.62976406533575","0.553176043557169","-0.082032667876588","2.05117967332123","0","358.0625"
"2189.41176","-0.458076225045372","0.629764065335753","0.553176043557169","-0.082032667876588","2.05117967332123","0","358.0625"
"2192.20588","-0.458076225045372","0.629764065335753","0.553176043557169","2.91796733212341","1.05117967332123","0","358.0625"
"2195","-1.45807622504537","1.62976406533575","0.553176043557169","2.91796733212341","1.05117967332123","0","358.0625"
"2203.23333","-1.45807622504537","1.62976406533575","0.553176043557169","1.91796733212341","1.05117967332123","0","358.0625"
"2206.46667","0.541923774954628","-0.370235934664247","0.553176043557169","1.91796733212341","1.05117967332123","0","358.0625"
"2209.7","0.541923774954628","-0.370235934664247","0.553176043557169","0.917967332123412","-1.94882032667877","0","358.0625"
"2212.93333","-0.458076225045372","0.629764065335753","0.553176043557169","0.917967332123412","-1.94882032667877","0","358.0625"
"2216.16667","-0.458076225045372","0.629764065335753","0.553176043557169","1.91796733212341","-0.948820326678766","0","358.0625"
"2219.4","-0.458076225045372","0.629764065335753","0.553176043557169","1.91796733212341","-0.948820326678766","0","358.0625"
"2222.63333","-0.458076225045372","0.629764065335753","0.553176043557169","0.917967332123412","0.0511796733212341","0","358.0625"
"2225.86667","0.541923774954628","0.629764065335753","0.553176043557169","0.917967332123412","0.0511796733212341","0","358.0625"
"2229.1","0.541923774954628","0.629764065335753","0.553176043557169","-0.082032667876588","2.05117967332123","0","358.0625"
"2232.33333","0.541923774954628","1.62976406533575","0.553176043557169","-0.082032667876588","2.05117967332123","0","358.0625"
"2235.56667","0.541923774954628","1.62976406533575","0.553176043557169","-2.08203266787659","2.05117967332123","0","358.0625"
"2238.8","1.54192377495463","0.629764065335753","0.553176043557169","-2.08203266787659","2.05117967332123","0","358.0625"
"2242.03333","1.54192377495463","0.629764065335753","0.553176043557169","-3.08203266787659","2.05117967332123","0","358.0625"
"2245.26667","-1.45807622504537","-0.370235934664247","0.553176043557169","-3.08203266787659","2.05117967332123","0","358.0625"
"2248.5","-1.45807622504537","-0.370235934664247","0.553176043557169","0.917967332123412","1.05117967332123","0","358.0625"
"2251.73333","-1.45807622504537","-0.370235934664247","0.553176043557169","0.917967332123412","1.05117967332123","0","358.0625"
"2254.96667","-1.45807622504537","-0.370235934664247","0.553176043557169","-1.08203266787659","-2.94882032667877","0","358.0625"
"2258.2","0.541923774954628","1.62976406533575","1.55317604355717","-1.08203266787659","-2.94882032667877","0","358.0625"
"2261.43333","0.541923774954628","1.62976406533575","1.55317604355717","-2.08203266787659","-0.948820326678766","0","358.0625"
"2264.66667","0.541923774954628","0.629764065335753","-3.44682395644283","-2.08203266787659","-0.948820326678766","0","358.0625"
"2267.9","0.541923774954628","0.629764065335753","-3.44682395644283","1.91796733212341","-3.94882032667877","0","358.0625"
"2271.13333","0.541923774954628","0.629764065335753","1.55317604355717","1.91796733212341","-3.94882032667877","0","358.0625"
"2274.36667","0.541923774954628","0.629764065335753","1.55317604355717","-1.08203266787659","-0.948820326678766","0","358.0625"
"2277.6","-0.458076225045372","0.629764065335753","-0.446823956442831","-1.08203266787659","-0.948820326678766","0","358.0625"
"2280.83333","-0.458076225045372","0.629764065335753","-0.446823956442831","-0.082032667876588","3.05117967332123","0","358.0625"
"2284.06667","-0.458076225045372","0.629764065335753","-0.446823956442831","-0.082032667876588","3.05117967332123","0","358.0625"
"2287.3","-0.458076225045372","0.629764065335753","-0.446823956442831","-1.08203266787659","0.0511796733212341","0","358.0625"
"2290.53333","1.54192377495463","0.629764065335753","0.553176043557169","-1.08203266787659","0.0511796733212341","0","358.0625"
"2293.76667","1.54192377495463","0.629764065335753","0.553176043557169","0.917967332123412","2.05117967332123","0","358.0625"
"2297","-0.458076225045372","-0.370235934664247","-2.44682395644283","0.917967332123412","2.05117967332123","0","358.0625"
"2302.96875","-0.458076225045372","-0.370235934664247","-2.44682395644283","-1.08203266787659","1.05117967332123","0","358.0625"
"2305.9375","0.541923774954628","-0.370235934664247","0.553176043557169","-1.08203266787659","1.05117967332123","0","358.0625"
"2308.90625","0.541923774954628","-0.370235934664247","0.553176043557169","0.917967332123412","2.05117967332123","0","358.0625"
"2311.875","2.54192377495463","1.62976406533575","0.553176043557169","0.917967332123412","2.05117967332123","0","358.0625"
"2314.84375","2.54192377495463","1.62976406533575","0.553176043557169","3.91796733212341","0.0511796733212341","0","358.0625"
"2317.8125","2.54192377495463","1.62976406533575","0.553176043557169","3.91796733212341","0.0511796733212341","0","358.0625"
"2320.78125","2.54192377495463","1.62976406533575","0.553176043557169","0.917967332123412","0.0511796733212341","0","358.0625"
"2323.75","-1.45807622504537","-1.37023593466425","0.553176043557169","0.917967332123412","0.0511796733212341","0","358.0625"
"2326.71875","-1.45807622504537","-1.37023593466425","0.553176043557169","1.91796733212341","-1.94882032667877","0","358.0625"
"2329.6875","-0.458076225045372","-0.370235934664247","-1.44682395644283","1.91796733212341","-1.94882032667877","0","358.0625"
"2332.65625","-0.458076225045372","-0.370235934664247","-1.44682395644283","1.91796733212341","-0.948820326678766","0","358.0625"
"2335.625","1.54192377495463","0.629764065335753","0.553176043557169","1.91796733212341","-0.948820326678766","0","358.0625"
"2338.59375","1.54192377495463","0.629764065335753","0.553176043557169","0.917967332123412","0.0511796733212341","0","358.0625"
"2341.5625","2.54192377495463","1.62976406533575","0.553176043557169","0.917967332123412","0.0511796733212341","0","358.0625"
"2344.53125","2.54192377495463","1.62976406533575","0.553176043557169","2.91796733212341","1.05117967332123","0","358.0625"
"2347.5","2.54192377495463","1.62976406533575","0.553176043557169","2.91796733212341","1.05117967332123","0","358.0625"
"2350.46875","2.54192377495463","1.62976406533575","0.553176043557169","0.917967332123412","-1.94882032667877","0","358.0625"
"2353.4375","0.541923774954628","0.629764065335753","0.553176043557169","0.917967332123412","-1.94882032667877","0","358.0625"
"2356.40625","0.541923774954628","0.629764065335753","0.553176043557169","1.91796733212341","1.05117967332123","0","358.0625"
"2359.375","0.541923774954628","-1.37023593466425","-0.446823956442831","1.91796733212341","1.05117967332123","0","358.0625"
"2362.34375","0.541923774954628","-1.37023593466425","-0.446823956442831","1.91796733212341","-0.948820326678766","0","358.0625"
"2365.3125","0.541923774954628","1.62976406533575","1.55317604355717","1.91796733212341","-0.948820326678766","0","358.0625"
"2368.28125","0.541923774954628","1.62976406533575","1.55317604355717","1.91796733212341","-0.948820326678766","0","358.0625"
"2371.25","-0.458076225045372","-0.370235934664247","1.55317604355717","1.91796733212341","-0.948820326678766","0","358.0625"
"2374.21875","-0.458076225045372","-0.370235934664247","1.55317604355717","-0.082032667876588","1.05117967332123","0","358.0625"
"2377.1875","-0.458076225045372","-0.370235934664247","1.55317604355717","-0.082032667876588","1.05117967332123","0","358.0625"
"2380.15625","-0.458076225045372","-0.370235934664247","1.55317604355717","0.917967332123412","1.05117967332123","0","358.0625"
"2383.125","-1.45807622504537","-0.370235934664247","-0.446823956442831","0.917967332123412","1.05117967332123","0","358.0625"
"2386.09375","-1.45807622504537","-0.370235934664247","-0.446823956442831","2.91796733212341","1.05117967332123","0","358.0625"
"2389.0625","-1.45807622504537","1.62976406533575","0.553176043557169","2.91796733212341","1.05117967332123","0","358.0625"
"2392.03125","-1.45807622504537","1.62976406533575","0.553176043557169","2.91796733212341","1.05117967332123","0","358.0625"
"2395","1.54192377495463","1.62976406533575","-0.446823956442831","2.91796733212341","1.05117967332123","0","358.0625"
"2400","1.54192377495463","1.62976406533575","-0.446823956442831","1.91796733212341","0.0511796733212341","0","358.0625"
"2400","-1.45807622504537","1.62976406533575","-0.446823956442831","1.91796733212341","0.0511796733212341","0","358.0625"
"2403.39286","-1.45807622504537","1.62976406533575","-0.446823956442831","-2.08203266787659","0.0511796733212341","0","358.0625"
"2406.78571","-1.45807622504537","1.62976406533575","-0.446823956442831","-2.08203266787659","0.0511796733212341","0","358.0625"
"2410.17857","-1.45807622504537","1.62976406533575","-0.446823956442831","0.917967332123412","0.0511796733212341","0","358.0625"
"2413.57143","-0.458076225045372","-0.370235934664247","-0.446823956442831","0.917967332123412","0.0511796733212341","0","358.0625"
"2416.96429","-0.458076225045372","-0.370235934664247","-0.446823956442831","1.91796733212341","0.0511796733212341","0","358.0625"
"2420.35714","1.54192377495463","2.62976406533575","-1.44682395644283","1.91796733212341","0.0511796733212341","0","358.0625"
"2423.75","1.54192377495463","2.62976406533575","-1.44682395644283","1.91796733212341","0.0511796733212341","0","358.0625"
"2427.14286","0.541923774954628","1.62976406533575","1.55317604355717","1.91796733212341","0.0511796733212341","0","358.0625"
"2430.53571","0.541923774954628","1.62976406533575","1.55317604355717","-1.08203266787659","2.05117967332123","0","358.0625"
"2433.92857","2.54192377495463","-1.37023593466425","0.553176043557169","-1.08203266787659","2.05117967332123","0","358.0625"
"2437.32143","2.54192377495463","-1.37023593466425","0.553176043557169","-1.08203266787659","1.05117967332123","0","358.0625"
"2440.71429","2.54192377495463","-1.37023593466425","0.553176043557169","-1.08203266787659","1.05117967332123","0","358.0625"
"2444.10714","2.54192377495463","-1.37023593466425","0.553176043557169","-3.08203266787659","3.05117967332123","0","358.0625"
"2447.5","-1.45807622504537","1.62976406533575","-0.446823956442831","-3.08203266787659","3.05117967332123","0","358.0625"
"2450.89286","-1.45807622504537","1.62976406533575","-0.446823956442831","-0.082032667876588","-0.948820326678766","0","358.0625"
"2454.28571","1.54192377495463","1.62976406533575","-2.44682395644283","-0.082032667876588","-0.948820326678766","0","358.0625"
"2457.67857","1.54192377495463","1.62976406533575","-2.44682395644283","-0.082032667876588","-2.94882032667877","0","358.0625"
"2461.07143","1.54192377495463","-0.370235934664247","0.553176043557169","-0.082032667876588","-2.94882032667877","0","358.0625"
"2464.46429","1.54192377495463","-0.370235934664247","0.553176043557169","-2.08203266787659","-0.948820326678766","0","358.0625"
"2467.85714","1.54192377495463","1.62976406533575","1.55317604355717","-2.08203266787659","-0.948820326678766","0","358.0625"
"2471.25","1.54192377495463","1.62976406533575","1.55317604355717","-4.08203266787659","2.05117967332123","0","358.0625"
"2474.64286","1.54192377495463","1.62976406533575","1.55317604355717","-4.08203266787659","2.05117967332123","0","358.0625"
"2478.03571","1.54192377495463","1.62976406533575","1.55317604355717","-1.08203266787659","1.05117967332123","0","358.0625"
"2481.42857","1.54192377495463","0.629764065335753","-1.44682395644283","-1.08203266787659","1.05117967332123","0","358.0625"
"2484.82143","1.54192377495463","0.629764065335753","-1.44682395644283","3.91796733212341","3.05117967332123","0","358.0625"
"2488.21429","0.541923774954628","2.62976406533575","-1.44682395644283","3.91796733212341","3.05117967332123","0","358.0625"
"2491.60714","0.541923774954628","2.62976406533575","-1.44682395644283","-0.082032667876588","2.05117967332123","0","358.0625"
"2495","0.541923774954628","1.62976406533575","-1.44682395644283","-0.082032667876588","2.05117967332123","0","358.0625"
"2502.88235","0.541923774954628","1.62976406533575","-1.44682395644283","-4.08203266787659","-0.948820326678766","0","358.0625"
"2505.76471","0.541923774954628","0.629764065335753","-0.446823956442831","-4.08203266787659","-0.948820326678766","0","358.0625"
"2508.64706","0.541923774954628","0.629764065335753","-0.446823956442831","-1.08203266787659","0.0511796733212341","0","358.0625"
"2511.52941","0.541923774954628","0.629764065335753","-0.446823956442831","-1.08203266787659","0.0511796733212341","0","358.0625"
"2514.41176","0.541923774954628","0.629764065335753","-0.446823956442831","1.91796733212341","-0.948820326678766","0","358.0625"
"2517.29412","-0.458076225045372","-0.370235934664247","-0.446823956442831","1.91796733212341","-0.948820326678766","0","358.0625"
"2520.17647","-0.458076225045372","-0.370235934664247","-0.446823956442831","2.91796733212341","3.05117967332123","0","358.0625"
"2523.05882","-0.458076225045372","1.62976406533575","-0.446823956442831","2.91796733212341","3.05117967332123","0","358.0625"
"2525.94118","-0.458076225045372","1.62976406533575","-0.446823956442831","-0.082032667876588","-0.948820326678766","0","358.0625"
"2528.82353","0.541923774954628","-0.370235934664247","-0.446823956442831","-0.082032667876588","-0.948820326678766","0","358.0625"
"2531.70588","0.541923774954628","-0.370235934664247","-0.446823956442831","0.917967332123412","1.05117967332123","0","358.0625"
"2534.58824","0.541923774954628","1.62976406533575","-0.446823956442831","0.917967332123412","1.05117967332123","0","358.0625"
"2537.47059","0.541923774954628","1.62976406533575","-0.446823956442831","0.917967332123412","-1.94882032667877","0","358.0625"
"2540.35294","0.541923774954628","1.62976406533575","-0.446823956442831","0.917967332123412","-1.94882032667877","0","358.0625"
"2543.23529","0.541923774954628","1.62976406533575","-0.446823956442831","0.917967332123412","0.0511796733212341","0","358.0625"
"2546.11765","1.54192377495463","0.629764065335753","-0.446823956442831","0.917967332123412","0.0511796733212341","0","358.0625"
"2549","1.54192377495463","0.629764065335753","-0.446823956442831","2.91796733212341","1.05117967332123","0","358.0625"
"2551.88235","-1.45807622504537","1.62976406533575","0.553176043557169","2.91796733212341","1.05117967332123","0","358.0625"
"2554.76471","-1.45807622504537","1.62976406533575","0.553176043557169","0.917967332123412","0.0511796733212341","0","358.0625"
"2557.64706","-1.45807622504537","1.62976406533575","0.553176043557169","0.917967332123412","0.0511796733212341","0","358.0625"
"2560.52941","-1.45807622504537","1.62976406533575","0.553176043557169","-0.082032667876588","3.05117967332123","0","358.0625"
"2563.41176","-0.458076225045372","0.629764065335753","0.553176043557169","-0.082032667876588","3.05117967332123","0","358.0625"
"2566.29412","-0.458076225045372","0.629764065335753","0.553176043557169","-1.08203266787659","-0.948820326678766","0","358.0625"
"2569.17647","-0.458076225045372","0.629764065335753","0.553176043557169","-1.08203266787659","-0.948820326678766","0","358.0625"
"2572.05882","-0.458076225045372","0.629764065335753","0.553176043557169","0.917967332123412","-1.94882032667877","0","358.0625"
"2574.94118","1.54192377495463","-0.370235934664247","0.553176043557169","0.917967332123412","-1.94882032667877","0","358.0625"
"2577.82353","1.54192377495463","-0.370235934664247","0.553176043557169","2.91796733212341","0.0511796733212341","0","358.0625"
"2580.70588","1.54192377495463","-0.370235934664247","0.553176043557169","2.91796733212341","0.0511796733212341","0","358.0625"
"2583.58824","1.54192377495463","-0.370235934664247","0.553176043557169","-0.082032667876588","0.0511796733212341","0","358.0625"
"2586.47059","-0.458076225045372","-0.370235934664247","-2.44682395644283","-0.082032667876588","0.0511796733212341","0","358.0625"
"2589.35294","-0.458076225045372","-0.370235934664247","-2.44682395644283","2.91796733212341","1.05117967332123","0","358.0625"
"2592.23529","-0.458076225045372","0.629764065335753","-0.446823956442831","2.91796733212341","1.05117967332123","0","358.0625"
"2595.11765","-0.458076225045372","0.629764065335753","-0.446823956442831","0.917967332123412","-3.94882032667877","0","358.0625"
"2598","-0.458076225045372","0.629764065335753","-0.446823956442831","0.917967332123412","-3.94882032667877","0","358.0625"
"2603","-0.458076225045372","0.629764065335753","-0.446823956442831","1.91796733212341","-0.948820326678766","0","358.0625"
"2606","-1.45807622504537","1.62976406533575","0.553176043557169","1.91796733212341","-0.948820326678766","0","358.0625"
"2609","-1.45807622504537","1.62976406533575","0.553176043557169","0.917967332123412","2.05117967332123","0","358.0625"
"2612","-0.458076225045372","-0.370235934664247","2.55317604355717","0.917967332123412","2.05117967332123","0","358.0625"
"2615","-0.458076225045372","-0.370235934664247","2.55317604355717","-0.082032667876588","1.05117967332123","0","358.0625"
"2618","0.541923774954628","-0.370235934664247","0.553176043557169","-0.082032667876588","1.05117967332123","0","358.0625"
"2621","0.541923774954628","-0.370235934664247","0.553176043557169","0.917967332123412","0.0511796733212341","0","358.0625"
"2624","0.541923774954628","1.62976406533575","-1.44682395644283","0.917967332123412","0.0511796733212341","0","358.0625"
"2627","0.541923774954628","1.62976406533575","-1.44682395644283","0.917967332123412","1.05117967332123","0","358.0625"
"2630","0.541923774954628","1.62976406533575","-1.44682395644283","0.917967332123412","1.05117967332123","0","358.0625"
"2633","0.541923774954628","1.62976406533575","-1.44682395644283","-2.08203266787659","-0.948820326678766","0","358.0625"
"2636","1.54192377495463","-0.370235934664247","2.55317604355717","-2.08203266787659","-0.948820326678766","0","358.0625"
"2639","1.54192377495463","-0.370235934664247","2.55317604355717","-1.08203266787659","0.0511796733212341","0","358.0625"
"2642","-2.45807622504537","0.629764065335753","2.55317604355717","-1.08203266787659","0.0511796733212341","0","358.0625"
"2645","-2.45807622504537","0.629764065335753","2.55317604355717","0.917967332123412","1.05117967332123","0","358.0625"
"2648","1.54192377495463","3.62976406533575","-0.446823956442831","0.917967332123412","1.05117967332123","0","358.0625"
"2651","1.54192377495463","3.62976406533575","-0.446823956442831","-2.08203266787659","0.0511796733212341","0","358.0625"
"2654","0.541923774954628","-0.370235934664247","0.553176043557169","-2.08203266787659","0.0511796733212341","0","358.0625"
"2657","0.541923774954628","-0.370235934664247","0.553176043557169","-1.08203266787659","2.05117967332123","0","358.0625"
"2660","0.541923774954628","1.62976406533575","-0.446823956442831","-1.08203266787659","2.05117967332123","0","358.0625"
"2663","0.541923774954628","1.62976406533575","-0.446823956442831","-0.082032667876588","0.0511796733212341","0","358.0625"
"2666","2.54192377495463","0.629764065335753","1.55317604355717","-0.082032667876588","0.0511796733212341","0","358.0625"
"2669","2.54192377495463","0.629764065335753","1.55317604355717","0.917967332123412","0.0511796733212341","0","358.0625"
"2672","0.541923774954628","-0.370235934664247","0.553176043557169","0.917967332123412","0.0511796733212341","0","358.0625"
"2675","0.541923774954628","-0.370235934664247","0.553176043557169","0.917967332123412","-2.94882032667877","0","358.0625"
"2678","-1.45807622504537","2.62976406533575","-2.44682395644283","0.917967332123412","-2.94882032667877","0","358.0625"
"2681","-1.45807622504537","2.62976406533575","-2.44682395644283","-0.082032667876588","-2.94882032667877","0","358.0625"
"2684","1.54192377495463","-1.37023593466425","-0.446823956442831","-0.082032667876588","-2.94882032667877","0","358.0625"
"2687","1.54192377495463","-1.37023593466425","-0.446823956442831","-2.08203266787659","1.05117967332123","0","358.0625"
"2690","0.541923774954628","-1.37023593466425","2.55317604355717","-2.08203266787659","1.05117967332123","0","358.0625"
"2693","0.541923774954628","-1.37023593466425","2.55317604355717","-2.08203266787659","1.05117967332123","0","358.0625"
"2696","1.54192377495463","1.62976406533575","-0.446823956442831","-2.08203266787659","1.05117967332123","0","358.0625"
"2703.03125","1.54192377495463","1.62976406533575","-0.446823956442831","3.91796733212341","2.05117967332123","0","358.0625"
"2706.0625","0.541923774954628","0.629764065335753","-0.446823956442831","3.91796733212341","2.05117967332123","0","358.0625"
"2709.09375","0.541923774954628","0.629764065335753","-0.446823956442831","-0.082032667876588","2.05117967332123","0","358.0625"
"2712.125","2.54192377495463","-0.370235934664247","-1.44682395644283","-0.082032667876588","2.05117967332123","0","358.0625"
"2715.15625","2.54192377495463","-0.370235934664247","-1.44682395644283","0.917967332123412","1.05117967332123","0","358.0625"
"2718.1875","-1.45807622504537","1.62976406533575","-0.446823956442831","0.917967332123412","1.05117967332123","0","358.0625"
"2721.21875","-1.45807622504537","1.62976406533575","-0.446823956442831","1.91796733212341","-0.948820326678766","0","358.0625"
"2724.25","1.54192377495463","1.62976406533575","2.55317604355717","1.91796733212341","-0.948820326678766","0","358.0625"
"2727.28125","1.54192377495463","1.62976406533575","2.55317604355717","2.91796733212341","0.0511796733212341","0","358.0625"
"2730.3125","0.541923774954628","-0.370235934664247","-2.44682395644283","2.91796733212341","0.0511796733212341","0","358.0625"
"2733.34375","0.541923774954628","-0.370235934664247","-2.44682395644283","0.917967332123412","0.0511796733212341","0","358.0625"
"2736.375","1.54192377495463","1.62976406533575","1.55317604355717","0.917967332123412","0.0511796733212341","0","358.0625"
"2739.40625","1.54192377495463","1.62976406533575","1.55317604355717","2.91796733212341","2.05117967332123","0","358.0625"
"2742.4375","0.541923774954628","1.62976406533575","1.55317604355717","2.91796733212341","2.05117967332123","0","358.0625"
"2745.46875","0.541923774954628","1.62976406533575","1.55317604355717","0.917967332123412","0.0511796733212341","0","358.0625"
"2748.5","0.541923774954628","1.62976406533575","1.55317604355717","0.917967332123412","0.0511796733212341","0","358.0625"
"2751.53125","0.541923774954628","1.62976406533575","1.55317604355717","1.91796733212341","2.05117967332123","0","358.0625"
"2754.5625","-0.458076225045372","1.62976406533575","-0.446823956442831","1.91796733212341","2.05117967332123","0","358.0625"
"2757.59375","-0.458076225045372","1.62976406533575","-0.446823956442831","-1.08203266787659","-0.948820326678766","0","358.0625"
"2760.625","-0.458076225045372","-0.370235934664247","-0.446823956442831","-1.08203266787659","-0.948820326678766","0","358.0625"
"2763.65625","-0.458076225045372","-0.370235934664247","-0.446823956442831","1.91796733212341","3.05117967332123","0","358.0625"
"2766.6875","0.541923774954628","1.62976406533575","0.553176043557169","1.91796733212341","3.05117967332123","0","358.0625"
"2769.71875","0.541923774954628","1.62976406533575","0.553176043557169","-0.082032667876588","0.0511796733212341","0","358.0625"
"2772.75","0.541923774954628","1.62976406533575","0.553176043557169","-0.082032667876588","0.0511796733212341","0","358.0625"
"2775.78125","0.541923774954628","1.62976406533575","0.553176043557169","0.917967332123412","-0.948820326678766","0","358.0625"
"2778.8125","1.54192377495463","0.629764065335753","-1.44682395644283","0.917967332123412","-0.948820326678766","0","358.0625"
"2781.84375","1.54192377495463","0.629764065335753","-1.44682395644283","-2.08203266787659","-0.948820326678766","0","358.0625"
"2784.875","0.541923774954628","-0.370235934664247","1.55317604355717","-2.08203266787659","-0.948820326678766","0","358.0625"
"2787.90625","0.541923774954628","-0.370235934664247","1.55317604355717","0.917967332123412","-0.948820326678766","0","358.0625"
"2790.9375","1.54192377495463","-0.370235934664247","1.55317604355717","0.917967332123412","-0.948820326678766","0","358.0625"
"2793.96875","1.54192377495463","-0.370235934664247","1.55317604355717","-0.082032667876588","-1.94882032667877","0","358.0625"
"2797","0.541923774954628","0.629764065335753","-1.44682395644283","-0.082032667876588","-1.94882032667877","0","358.0625"
"2802.91176","0.541923774954628","0.629764065335753","-1.44682395644283","0.917967332123412","-1.94882032667877","0","358.0625"
"2805.82353","-0.458076225045372","0.629764065335753","-0.446823956442831","0.917967332123412","-1.94882032667877","0","358.0625"
"2808.73529","-0.458076225045372","0.629764065335753","-0.446823956442831","1.91796733212341","1.05117967332123","0","358.0625"
"2811.64706","0.541923774954628","1.62976406533575","-0.446823956442831","1.91796733212341","1.05117967332123","0","358.0625"
"2814.55882","0.541923774954628","1.62976406533575","-0.446823956442831","1.91796733212341","-1.94882032667877","0","358.0625"
"2817.47059","-0.458076225045372","1.62976406533575","-0.446823956442831","1.91796733212341","-1.94882032667877","0","358.0625"
"2820.38235","-0.458076225045372","1.62976406533575","-0.446823956442831","1.91796733212341","0.0511796733212341","0","358.0625"
"2823.29412","-0.458076225045372","0.629764065335753","2.55317604355717","1.91796733212341","0.0511796733212341","0","358.0625"
"2826.20588","-0.458076225045372","0.629764065335753","2.55317604355717","1.91796733212341","-0.948820326678766","0","358.0625"
"2829.11765","0.541923774954628","1.62976406533575","-0.446823956442831","1.91796733212341","-0.948820326678766","0","358.0625"
"2832.02941","0.541923774954628","1.62976406533575","-0.446823956442831","-4.08203266787659","2.05117967332123","0","358.0625"
"2834.94118","-0.458076225045372","0.629764065335753","-3.44682395644283","-4.08203266787659","2.05117967332123","0","358.0625"
"2837.85294","-0.458076225045372","0.629764065335753","-3.44682395644283","-1.08203266787659","2.05117967332123","0","358.0625"
"2840.76471","0.541923774954628","0.629764065335753","0.553176043557169","-1.08203266787659","2.05117967332123","0","358.0625"
"2843.67647","0.541923774954628","0.629764065335753","0.553176043557169","-0.082032667876588","-0.948820326678766","0","358.0625"
"2846.58824","0.541923774954628","1.62976406533575","2.55317604355717","-0.082032667876588","-0.948820326678766","0","358.0625"
"2849.5","0.541923774954628","1.62976406533575","2.55317604355717","0.917967332123412","1.05117967332123","0","358.0625"
"2852.41176","1.54192377495463","-0.370235934664247","-0.446823956442831","0.917967332123412","1.05117967332123","0","358.0625"
"2855.32353","1.54192377495463","-0.370235934664247","-0.446823956442831","1.91796733212341","-3.94882032667877","0","358.0625"
"2858.23529","1.54192377495463","-0.370235934664247","1.55317604355717","1.91796733212341","-3.94882032667877","0","358.0625"
"2861.14706","1.54192377495463","-0.370235934664247","1.55317604355717","-1.08203266787659","-0.948820326678766","0","358.0625"
"2864.05882","-0.458076225045372","1.62976406533575","0.553176043557169","-1.08203266787659","-0.948820326678766","0","358.0625"
"2866.97059","-0.458076225045372","1.62976406533575","0.553176043557169","3.91796733212341","0.0511796733212341","0","358.0625"
"2869.88235","0.541923774954628","-0.370235934664247","2.55317604355717","3.91796733212341","0.0511796733212341","0","358.0625"
"2872.79412","0.541923774954628","-0.370235934664247","2.55317604355717","2.91796733212341","-1.94882032667877","0","358.0625"
"2875.70588","-0.458076225045372","0.629764065335753","-0.446823956442831","2.91796733212341","-1.94882032667877","0","358.0625"
"2878.61765","-0.458076225045372","0.629764065335753","-0.446823956442831","-0.082032667876588","0.0511796733212341","0","358.0625"
"2881.52941","0.541923774954628","0.629764065335753","-1.44682395644283","-0.082032667876588","0.0511796733212341","0","358.0625"
"2884.44118","0.541923774954628","0.629764065335753","-1.44682395644283","0.917967332123412","1.05117967332123","0","358.0625"
"2887.35294","1.54192377495463","0.629764065335753","0.553176043557169","0.917967332123412","1.05117967332123","0","358.0625"
"2890.26471","1.54192377495463","0.629764065335753","0.553176043557169","-0.082032667876588","1.05117967332123","0","358.0625"
"2893.17647","1.54192377495463","2.62976406533575","-1.44682395644283","-0.082032667876588","1.05117967332123","0","358.0625"
"2896.08824","1.54192377495463","2.62976406533575","-1.44682395644283","-0.082032667876588","-1.94882032667877","0","358.0625"
"2899","-0.458076225045372","-0.370235934664247","-0.446823956442831","-0.082032667876588","-1.94882032667877","0","358.0625"
"2902.96875","-0.458076225045372","-0.370235934664247","-0.446823956442831","-1.08203266787659","0.0511796733212341","0","358.0625"
"2905.9375","0.541923774954628","0.629764065335753","-0.446823956442831","-1.08203266787659","0.0511796733212341","0","358.0625"
"2908.90625","0.541923774954628","0.629764065335753","-0.446823956442831","0.917967332123412","2.05117967332123","0","358.0625"
"2911.875","0.541923774954628","0.629764065335753","-0.446823956442831","0.917967332123412","2.05117967332123","0","358.0625"
"2914.84375","0.541923774954628","0.629764065335753","-0.446823956442831","-0.082032667876588","-0.948820326678766","0","358.0625"
"2917.8125","-1.45807622504537","1.62976406533575","1.55317604355717","-0.082032667876588","-0.948820326678766","0","358.0625"
"2920.78125","-1.45807622504537","1.62976406533575","1.55317604355717","-0.082032667876588","-0.948820326678766","0","358.0625"
"2923.75","-0.458076225045372","-0.370235934664247","-1.44682395644283","-0.082032667876588","-0.948820326678766","0","358.0625"
"2926.71875","-0.458076225045372","-0.370235934664247","-1.44682395644283","-2.08203266787659","-2.94882032667877","0","358.0625"
"2929.6875","1.54192377495463","1.62976406533575","0.553176043557169","-2.08203266787659","-2.94882032667877","0","358.0625"
"2932.65625","1.54192377495463","1.62976406533575","0.553176043557169","-2.08203266787659","1.05117967332123","0","358.0625"
"2935.625","-0.458076225045372","-0.370235934664247","-0.446823956442831","-2.08203266787659","1.05117967332123","0","358.0625"
"2938.59375","-0.458076225045372","-0.370235934664247","-0.446823956442831","-0.082032667876588","0.0511796733212341","0","358.0625"
"2941.5625","-0.458076225045372","1.62976406533575","1.55317604355717","-0.082032667876588","0.0511796733212341","0","358.0625"
"2944.53125","-0.458076225045372","1.62976406533575","1.55317604355717","-1.08203266787659","1.05117967332123","0","358.0625"
"2947.5","0.541923774954628","1.62976406533575","0.553176043557169","-1.08203266787659","1.05117967332123","0","358.0625"
"2950.46875","0.541923774954628","1.62976406533575","0.553176043557169","-1.08203266787659","1.05117967332123","0","358.0625"
"2953.4375","1.54192377495463","0.629764065335753","-1.44682395644283","-1.08203266787659","1.05117967332123","0","358.0625"
"2956.40625","1.54192377495463","0.629764065335753","-1.44682395644283","0.917967332123412","0.0511796733212341","0","358.0625"
"2959.375","0.541923774954628","1.62976406533575","-1.44682395644283","0.917967332123412","0.0511796733212341","0","358.0625"
"2962.34375","0.541923774954628","1.62976406533575","-1.44682395644283","-0.082032667876588","-2.94882032667877","0","358.0625"
"2965.3125","-1.45807622504537","0.629764065335753","-0.446823956442831","-0.082032667876588","-2.94882032667877","0","358.0625"
"2968.28125","-1.45807622504537","0.629764065335753","-0.446823956442831","-0.082032667876588","-1.94882032667877","0","358.0625"
"2971.25","2.54192377495463","1.62976406533575","2.55317604355717","-0.082032667876588","-1.94882032667877","0","358.0625"
"2974.21875","2.54192377495463","1.62976406533575","2.55317604355717","-0.082032667876588","-0.948820326678766","0","358.0625"
"2977.1875","-0.458076225045372","1.62976406533575","1.55317604355717","-0.082032667876588","-0.948820326678766","0","358.0625"
"2980.15625","-0.458076225045372","1.62976406533575","1.55317604355717","-0.082032667876588","-0.948820326678766","0","358.0625"
"2983.125","0.541923774954628","-0.370235934664247","-1.44682395644283","-0.082032667876588","-0.948820326678766","0","358.0625"
"2986.09375","0.541923774954628","-0.370235934664247","-1.44682395644283","-0.082032667876588","-1.94882032667877","0","358.0625"
"2989.0625","-0.458076225045372","0.629764065335753","-0.446823956442831","-0.082032667876588","-1.94882032667877","0","358.0625"
"2992.03125","-0.458076225045372","0.629764065335753","-0.446823956442831","-1.08203266787659","-0.948820326678766","0","358.0625"
"2995","0.541923774954628","0.629764065335753","-1.44682395644283","-1.08203266787659","-0.948820326678766","0","358.0625"
"3000","0.541923774954628","0.629764065335753","-1.44682395644283","0.917967332123412","0.0511796733212341","0","358.0625"
"3000","-1.45807622504537","-1.37023593466425","-0.446823956442831","0.917967332123412","0.0511796733212341","0","358.0625"
