Timer,AX,AY,AZ,GX,GY,GZ,A
"90","-0.239042357274401","1.09834254143646","0.894290976058933","0.0519337016574586","1.99447513812155","0","358.6875"
"48","-0.239042357274401","1.09834254143646","0.894290976058933","-0.948066298342541","-1.00552486187845","0","358.6875"
"96","0.760957642725599","-1.90165745856354","2.89429097605893","-0.948066298342541","-1.00552486187845","0","358.6875"
"102.96875","0.760957642725599","-1.90165745856354","2.89429097605893","-0.948066298342541","0.994475138121547","0","358.6875"
"105.9375","0.760957642725599","-1.90165745856354","2.89429097605893","-0.948066298342541","0.994475138121547","0","358.6875"
"108.90625","0.760957642725599","-1.90165745856354","2.89429097605893","-1.94806629834254","-1.00552486187845","0","358.6875"
"111.875","-1.2390423572744","0.0983425414364643","0.894290976058933","-1.94806629834254","-1.00552486187845","0","358.6875"
"114.84375","-1.2390423572744","0.0983425414364643","0.894290976058933","-2.94806629834254","-2.00552486187845","0","358.6875"
"117.8125","1.7609576427256","2.09834254143646","0.894290976058933","-2.94806629834254","-2.00552486187845","0","358.6875"
"120.78125","1.7609576427256","2.09834254143646","0.894290976058933","1.05193370165746","-1.00552486187845","0","358.6875"
"123.75","0.760957642725599","1.09834254143646","-1.10570902394107","1.05193370165746","-1.00552486187845","0","358.6875"
"126.71875","0.760957642725599","1.09834254143646","-1.10570902394107","2.05193370165746","-1.00552486187845","0","358.6875"
"129.6875","-1.2390423572744","0.0983425414364643","0.894290976058933","2.05193370165746","-1.00552486187845","0","358.6875"
"132.65625","-1.2390423572744","0.0983425414364643","0.894290976058933","-0.948066298342541","0.994475138121547","0","358.6875"
"135.625","-1.2390423572744","0.0983425414364643","0.894290976058933","-0.948066298342541","0.994475138121547","0","358.6875"
"138.59375","-1.2390423572744","0.0983425414364643","0.894290976058933","2.05193370165746","-2.00552486187845","0","358.6875"
"141.5625","0.760957642725599","1.09834254143646","-0.105709023941067","2.05193370165746","-2.00552486187845","0","358.6875"
"144.53125","0.760957642725599","1.09834254143646","-0.105709023941067","2.05193370165746","0.994475138121547","0","358.6875"
"147.5","0.760957642725599","4.09834254143646","-1.10570902394107","2.05193370165746","0.994475138121547","0","358.6875"
"150.46875","0.760957642725599","4.09834254143646","-1.10570902394107","-2.94806629834254","-0.00552486187845304","0","358.6875"
"153.4375","0.760957642725599","2.09834254143646","1.89429097605893","-2.94806629834254","-0.00552486187845304","0","358.6875"
"156.40625","0.760957642725599","2.09834254143646","1.89429097605893","-4.94806629834254","-2.00552486187845","0","358.6875"
"159.375","0.760957642725599","0.0983425414364643","-0.105709023941067","-4.94806629834254","-2.00552486187845","0","358.6875"
"162.34375","0.760957642725599","0.0983425414364643","-0.105709023941067","-0.948066298342541","0.994475138121547","0","358.6875"
"165.3125","0.760957642725599","0.0983425414364643","-0.105709023941067","-0.948066298342541","0.994475138121547","0","358.6875"
"168.28125","0.760957642725599","0.0983425414364643","-0.105709023941067","-1.94806629834254","-0.00552486187845304","0","358.6875"
"171.25","0.760957642725599","0.0983425414364643","-0.105709023941067","-1.94806629834254","-0.00552486187845304","0","358.6875"
"174.21875","0.760957642725599","0.0983425414364643","-0.105709023941067","-2.94806629834254","-0.00552486187845304","0","358.6875"
"177.1875","1.7609576427256","-0.901657458563536","1.89429097605893","-2.94806629834254","-0.00552486187845304","0","358.6875"
"180.15625","1.7609576427256","-0.901657458563536","1.89429097605893","-0.948066298342541","-1.00552486187845","0","358.6875"
"183.125","-0.239042357274401","1.09834254143646","-3.10570902394107","-0.948066298342541","-1.00552486187845","0","358.6875"
"186.09375","-0.239042357274401","1.09834254143646","-3.10570902394107","-2.94806629834254","-1.00552486187845","0","358.6875"
"189.0625","-0.239042357274401","-0.901657458563536","-0.105709023941067","-2.94806629834254","-1.00552486187845","0","358.6875"
"192.03125","-0.239042357274401","-0.901657458563536","-0.105709023941067","-3.94806629834254","-0.00552486187845304","0","358.6875"
"195","-0.239042357274401","-0.901657458563536","-0.105709023941067","-3.94806629834254","-0.00552486187845304","0","358.6875"
"203.0625","-0.239042357274401","-0.901657458563536","-0.105709023941067","-4.94806629834254","-1.00552486187845","0","358.6875"
"206.125","1.7609576427256","2.09834254143646","1.89429097605893","-4.94806629834254","-1.00552486187845","0","358.6875"
"209.1875","1.7609576427256","2.09834254143646","1.89429097605893","1.05193370165746","-0.00552486187845304","0","358.6875"
"212.25","-0.239042357274401","1.09834254143646","-0.105709023941067","1.05193370165746","-0.00552486187845304","0","358.6875"
"215.3125","-0.239042357274401","1.09834254143646","-0.105709023941067","0.0519337016574586","1.99447513812155","0","358.6875"
"218.375","1.7609576427256","1.09834254143646","-0.105709023941067","0.0519337016574586","1.99447513812155","0","358.6875"
"221.4375","1.7609576427256","1.09834254143646","-0.105709023941067","-0.948066298342541","1.99447513812155","0","358.6875"
"224.5","-0.239042357274401","2.09834254143646","-2.10570902394107","-0.948066298342541","1.99447513812155","0","358.6875"
"227.5625","-0.239042357274401","2.09834254143646","-2.10570902394107","0.0519337016574586","-2.00552486187845","0","358.6875"
"230.625","-0.239042357274401","2.09834254143646","-2.10570902394107","0.0519337016574586","-2.00552486187845","0","358.6875"
"233.6875","-0.239042357274401","2.09834254143646","-2.10570902394107","0.0519337016574586","-2.00552486187845","0","358.6875"
"236.75","0.760957642725599","1.09834254143646","-0.105709023941067","0.0519337016574586","-2.00552486187845","0","358.6875"
"239.8125","0.760957642725599","1.09834254143646","-0.105709023941067","-2.94806629834254","1.99447513812155","0","358.6875"
"242.875","0.760957642725599","1.09834254143646","-0.105709023941067","-2.94806629834254","1.99447513812155","0","358.6875"
"245.9375","0.760957642725599","1.09834254143646","-0.105709023941067","2.05193370165746","0.994475138121547","0","358.6875"
"249","1.7609576427256","1.09834254143646","-2.10570902394107","2.05193370165746","0.994475138121547","0","358.6875"
"252.0625","1.7609576427256","1.09834254143646","-2.10570902394107","-1.94806629834254","-2.00552486187845","0","358.6875"
"255.125","-0.239042357274401","-1.90165745856354","1.89429097605893","-1.94806629834254","-2.00552486187845","0","358.6875"
"258.1875","-0.239042357274401","-1.90165745856354","1.89429097605893","-0.948066298342541","-0.00552486187845304","0","358.6875"
"261.25","-0.239042357274401","-1.90165745856354","1.89429097605893","-0.948066298342541","-0.00552486187845304","0","358.6875"
"264.3125","-0.239042357274401","-1.90165745856354","1.89429097605893","-1.94806629834254","0.994475138121547","0","358.6875"
"267.375","-1.2390423572744","2.09834254143646","1.89429097605893","-1.94806629834254","0.994475138121547","0","358.6875"
"270.4375","-1.2390423572744","2.09834254143646","1.89429097605893","3.05193370165746","-0.00552486187845304","0","358.6875"
"273.5","-1.2390423572744","2.09834254143646","1.89429097605893","3.05193370165746","-0.00552486187845304","0","358.6875"
"276.5625","-1.2390423572744","2.09834254143646","1.89429097605893","3.05193370165746","0.994475138121547","0","358.6875"
"279.625","1.7609576427256","2.09834254143646","0.894290976058933","3.05193370165746","0.994475138121547","0","358.6875"
"282.6875","1.7609576427256","2.09834254143646","0.894290976058933","0.0519337016574586","-0.00552486187845304","0","358.6875"
"285.75","-1.2390423572744","4.09834254143646","-1.10570902394107","0.0519337016574586","-0.00552486187845304","0","358.6875"
"288.8125","-1.2390423572744","4.09834254143646","-1.10570902394107","0.0519337016574586","-4.00552486187845","0","358.6875"
"291.875","-1.2390423572744","4.09834254143646","-1.10570902394107","0.0519337016574586","-4.00552486187845","0","358.6875"
"294.9375","-1.2390423572744","4.09834254143646","-1.10570902394107","1.05193370165746","-2.00552486187845","0","358.6875"
"298","0.760957642725599","0.0983425414364643","1.89429097605893","1.05193370165746","-2.00552486187845","0","358.6875"
"303.03125","0.760957642725599","0.0983425414364643","1.89429097605893","0.0519337016574586","0.994475138121547","0","358.6875"
"306.0625","0.760957642725599","2.09834254143646","0.894290976058933","0.0519337016574586","0.994475138121547","0","358.6875"
"309.09375","0.760957642725599","2.09834254143646","0.894290976058933","-1.94806629834254","-0.00552486187845304","0","358.6875"
"312.125","-0.239042357274401","2.09834254143646","-1.10570902394107","-1.94806629834254","-0.00552486187845304","0","358.6875"
"315.15625","-0.239042357274401","2.09834254143646","-1.10570902394107","-1.94806629834254","-1.00552486187845","0","358.6875"
"318.1875","-2.2390423572744","2.09834254143646","0.894290976058933","-1.94806629834254","-1.00552486187845","0","358.6875"
"321.21875","-2.2390423572744","2.09834254143646","0.894290976058933","-0.948066298342541","1.99447513812155","0","358.6875"
"324.25","-1.2390423572744","-0.901657458563536","-1.10570902394107","-0.948066298342541","1.99447513812155","0","358.6875"
"327.28125","-1.2390423572744","-0.901657458563536","-1.10570902394107","2.05193370165746","-1.00552486187845","0","358.6875"
"330.3125","-0.239042357274401","-1.90165745856354","1.89429097605893","2.05193370165746","-1.00552486187845","0","358.6875"
"333.34375","-0.239042357274401","-1.90165745856354","1.89429097605893","-4.94806629834254","-1.00552486187845","0","358.6875"
"336.375","-0.239042357274401","1.09834254143646","-0.105709023941067","-4.94806629834254","-1.00552486187845","0","358.6875"
"339.40625","-0.239042357274401","1.09834254143646","-0.105709023941067","-2.94806629834254","-2.00552486187845","0","358.6875"
"342.4375","-2.2390423572744","1.09834254143646","-2.10570902394107","-2.94806629834254","-2.00552486187845","0","358.6875"
"345.46875","-2.2390423572744","1.09834254143646","-2.10570902394107","-2.94806629834254","-3.00552486187845","0","358.6875"
"348.5","-0.239042357274401","-0.901657458563536","-0.105709023941067","-2.94806629834254","-3.00552486187845","0","358.6875"
"351.53125","-0.239042357274401","-0.901657458563536","-0.105709023941067","-0.948066298342541","-2.00552486187845","0","358.6875"
"354.5625","-0.239042357274401","0.0983425414364643","1.89429097605893","-0.948066298342541","-2.00552486187845","0","358.6875"
"357.59375","-0.239042357274401","0.0983425414364643","1.89429097605893","1.05193370165746","-0.00552486187845304","0","358.6875"
"360.625","0.760957642725599","-0.901657458563536","0.894290976058933","1.05193370165746","-0.00552486187845304","0","358.6875"
"363.65625","0.760957642725599","-0.901657458563536","0.894290976058933","2.05193370165746","-0.00552486187845304","0","358.6875"
"366.6875","-0.239042357274401","1.09834254143646","-1.10570902394107","2.05193370165746","-0.00552486187845304","0","358.6875"
"369.71875","-0.239042357274401","1.09834254143646","-1.10570902394107","1.05193370165746","-2.00552486187845","0","358.6875"
"372.75","1.7609576427256","0.0983425414364643","-1.10570902394107","1.05193370165746","-2.00552486187845","0","358.6875"
"375.78125","1.7609576427256","0.0983425414364643","-1.10570902394107","1.05193370165746","-1.00552486187845","0","358.6875"
"378.8125","-1.2390423572744","0.0983425414364643","1.89429097605893","1.05193370165746","-1.00552486187845","0","358.6875"
"381.84375","-1.2390423572744","0.0983425414364643","1.89429097605893","0.0519337016574586","-1.00552486187845","0","358.6875"
"384.875","-1.2390423572744","1.09834254143646","1.89429097605893","0.0519337016574586","-1.00552486187845","0","358.6875"
"387.90625","-1.2390423572744","1.09834254143646","1.89429097605893","-1.94806629834254","-0.00552486187845304","0","358.6875"
"390.9375","-2.2390423572744","0.0983425414364643","-0.105709023941067","-1.94806629834254","-0.00552486187845304","0","358.6875"
"393.96875","-2.2390423572744","0.0983425414364643","-0.105709023941067","0.0519337016574586","-0.00552486187845304","0","358.6875"
"397","-0.239042357274401","2.09834254143646","1.89429097605893","0.0519337016574586","-0.00552486187845304","0","358.6875"
"403.35714","-0.239042357274401","2.09834254143646","1.89429097605893","-0.948066298342541","0.994475138121547","0","358.6875"
"406.71429","-0.239042357274401","1.09834254143646","-0.105709023941067","-0.948066298342541","0.994475138121547","0","358.6875"
"410.07143","-0.239042357274401","1.09834254143646","-0.105709023941067","1.05193370165746","-1.00552486187845","0","358.6875"
"413.42857","-0.239042357274401","1.09834254143646","-0.105709023941067","1.05193370165746","-1.00552486187845","0","358.6875"
"416.78571","-0.239042357274401","1.09834254143646","-0.105709023941067","1.05193370165746","2.99447513812155","0","358.6875"
"420.14286","-2.2390423572744","3.09834254143646","-0.105709023941067","1.05193370165746","2.99447513812155","0","358.6875"
"423.5","-2.2390423572744","3.09834254143646","-0.105709023941067","0.0519337016574586","0.994475138121547","0","358.6875"
"426.85714","-0.239042357274401","2.09834254143646","-0.105709023941067","0.0519337016574586","0.994475138121547","0","358.6875"
"430.21429","-0.239042357274401","2.09834254143646","-0.105709023941067","-0.948066298342541","-0.00552486187845304","0","358.6875"
"433.57143","0.760957642725599","1.09834254143646","-0.105709023941067","-0.948066298342541","-0.00552486187845304","0","358.6875"
"436.92857","0.760957642725599","1.09834254143646","-0.105709023941067","-3.94806629834254","-0.00552486187845304","0","358.6875"
"440.28571","-0.239042357274401","-1.90165745856354","0.894290976058933","-3.94806629834254","-0.00552486187845304","0","358.6875"
"443.64286","-0.239042357274401","-1.90165745856354","0.894290976058933","-2.94806629834254","1.99447513812155","0","358.6875"
"447","0.760957642725599","1.09834254143646","-2.10570902394107","-2.94806629834254","1.99447513812155","0","358.6875"
"450.35714","0.760957642725599","1.09834254143646","-2.10570902394107","-0.948066298342541","0.994475138121547","0","358.6875"
"453.71429","-0.239042357274401","2.09834254143646","-0.105709023941067","-0.948066298342541","0.994475138121547","0","358.6875"
"457.07143","-0.239042357274401","2.09834254143646","-0.105709023941067","0.0519337016574586","-1.00552486187845","0","358.6875"
"460.42857","-1.2390423572744","-0.901657458563536","0.894290976058933","0.0519337016574586","-1.00552486187845","0","358.6875"
"463.78571","-1.2390423572744","-0.901657458563536","0.894290976058933","-1.94806629834254","1.99447513812155","0","358.6875"
"467.14286","-1.2390423572744","-0.901657458563536","-1.10570902394107","-1.94806629834254","1.99447513812155","0","358.6875"
"470.5","-1.2390423572744","-0.901657458563536","-1.10570902394107","-3.94806629834254","1.99447513812155","0","358.6875"
"473.85714","-0.239042357274401","1.09834254143646","-1.10570902394107","-3.94806629834254","1.99447513812155","0","358.6875"
"477.21429","-0.239042357274401","1.09834254143646","-1.10570902394107","-3.94806629834254","2.99447513812155","0","358.6875"
"480.57143","-1.2390423572744","2.09834254143646","0.894290976058933","-3.94806629834254","2.99447513812155","0","358.6875"
"483.92857","-1.2390423572744","2.09834254143646","0.894290976058933","-2.94806629834254","0.994475138121547","0","358.6875"
"487.28571","-0.239042357274401","1.09834254143646","-1.10570902394107","-2.94806629834254","0.994475138121547","0","358.6875"
"490.64286","-0.239042357274401","1.09834254143646","-1.10570902394107","-2.94806629834254","1.99447513812155","0","358.6875"
"494","-1.2390423572744","1.09834254143646","1.89429097605893","-2.94806629834254","1.99447513812155","0","358.6875"
"503.03125","-1.2390423572744","1.09834254143646","1.89429097605893","-3.94806629834254","-0.00552486187845304","0","358.6875"
"506.0625","0.760957642725599","2.09834254143646","-2.10570902394107","-3.94806629834254","-0.00552486187845304","0","358.6875"
"509.09375","0.760957642725599","2.09834254143646","-2.10570902394107","3.05193370165746","-0.00552486187845304","0","358.6875"
"512.125","-0.239042357274401","-0.901657458563536","-2.10570902394107","3.05193370165746","-0.00552486187845304","0","358.6875"
"515.15625","-0.239042357274401","-0.901657458563536","-2.10570902394107","-1.94806629834254","1.99447513812155","0","358.6875"
"518.1875","-0.239042357274401","0.0983425414364643","-0.105709023941067","-1.94806629834254","1.99447513812155","0","358.6875"
"521.21875","-0.239042357274401","0.0983425414364643","-0.105709023941067","0.0519337016574586","0.994475138121547","0","358.6875"
"524.25","-1.2390423572744","-0.901657458563536","0.894290976058933","0.0519337016574586","0.994475138121547","0","358.6875"
"527.28125","-1.2390423572744","-0.901657458563536","0.894290976058933","2.05193370165746","0.994475138121547","0","358.6875"
"530.3125","-1.2390423572744","0.0983425414364643","-1.10570902394107","2.05193370165746","0.994475138121547","0","358.6875"
"533.34375","-1.2390423572744","0.0983425414364643","-1.10570902394107","-0.948066298342541","-0.00552486187845304","0","358.6875"
"536.375","1.7609576427256","1.09834254143646","-0.105709023941067","-0.948066298342541","-0.00552486187845304","0","358.6875"
"539.40625","1.7609576427256","1.09834254143646","-0.105709023941067","0.0519337016574586","-0.00552486187845304","0","358.6875"
"542.4375","0.760957642725599","-0.901657458563536","-4.10570902394107","0.0519337016574586","-0.00552486187845304","0","358.6875"
"545.46875","0.760957642725599","-0.901657458563536","-4.10570902394107","1.05193370165746","1.99447513812155","0","358.6875"
"548.5","0.760957642725599","2.09834254143646","-0.105709023941067","1.05193370165746","1.99447513812155","0","358.6875"
"551.53125","0.760957642725599","2.09834254143646","-0.105709023941067","2.05193370165746","-0.00552486187845304","0","358.6875"
"554.5625","0.760957642725599","1.09834254143646","0.894290976058933","2.05193370165746","-0.00552486187845304","0","358.6875"
"557.59375","0.760957642725599","1.09834254143646","0.894290976058933","3.05193370165746","-1.00552486187845","0","358.6875"
"560.625","0.760957642725599","0.0983425414364643","-2.10570902394107","3.05193370165746","-1.00552486187845","0","358.6875"
"563.65625","0.760957642725599","0.0983425414364643","-2.10570902394107","1.05193370165746","0.994475138121547","0","358.6875"
"566.6875","-1.2390423572744","-0.901657458563536","0.894290976058933","1.05193370165746","0.994475138121547","0","358.6875"
"569.71875","-1.2390423572744","-0.901657458563536","0.894290976058933","-1.94806629834254","-0.00552486187845304","0","358.6875"
"572.75","0.760957642725599","1.09834254143646","-2.10570902394107","-1.94806629834254","-0.00552486187845304","0","358.6875"
"575.78125","0.760957642725599","1.09834254143646","-2.10570902394107","1.05193370165746","1.99447513812155","0","358.6875"
"578.8125","1.7609576427256","2.09834254143646","-0.105709023941067","1.05193370165746","1.99447513812155","0","358.6875"
"581.84375","1.7609576427256","2.09834254143646","-0.105709023941067","0.0519337016574586","0.994475138121547","0","358.6875"
"584.875","1.7609576427256","0.0983425414364643","0.894290976058933","0.0519337016574586","0.994475138121547","0","358.6875"
"587.90625","1.7609576427256","0.0983425414364643","0.894290976058933","1.05193370165746","-0.00552486187845304","0","358.6875"
"590.9375","1.7609576427256","2.09834254143646","2.89429097605893","1.05193370165746","-0.00552486187845304","0","358.6875"
"593.96875","1.7609576427256","2.09834254143646","2.89429097605893","0.0519337016574586","1.99447513812155","0","358.6875"
"597","-1.2390423572744","-0.901657458563536","-1.10570902394107","0.0519337016574586","1.99447513812155","0","358.6875"
"602.96875","-1.2390423572744","-0.901657458563536","-1.10570902394107","1.05193370165746","-0.00552486187845304","0","358.6875"
"605.9375","0.760957642725599","2.09834254143646","-1.10570902394107","1.05193370165746","-0.00552486187845304","0","358.6875"
"608.90625","0.760957642725599","2.09834254143646","-1.10570902394107","1.05193370165746","0.994475138121547","0","358.6875"
"611.875","-0.239042357274401","-0.901657458563536","-0.105709023941067","1.05193370165746","0.994475138121547","0","358.6875"
"614.84375","-0.239042357274401","-0.901657458563536","-0.105709023941067","1.05193370165746","0.994475138121547","0","358.6875"
"617.8125","0.760957642725599","1.09834254143646","-1.10570902394107","1.05193370165746","0.994475138121547","0","358.6875"
"620.78125","0.760957642725599","1.09834254143646","-1.10570902394107","-1.94806629834254","-0.00552486187845304","0","358.6875"
"623.75","-0.239042357274401","0.0983425414364643","-0.105709023941067","-1.94806629834254","-0.00552486187845304","0","358.6875"
"626.71875","-0.239042357274401","0.0983425414364643","-0.105709023941067","2.05193370165746","1.99447513812155","0","358.6875"
"629.6875","1.7609576427256","-0.901657458563536","-1.10570902394107","2.05193370165746","1.99447513812155","0","358.6875"
"632.65625","1.7609576427256","-0.901657458563536","-1.10570902394107","0.0519337016574586","-0.00552486187845304","0","358.6875"
"635.625","0.760957642725599","4.09834254143646","-1.10570902394107","0.0519337016574586","-0.00552486187845304","0","358.6875"
"638.59375","0.760957642725599","4.09834254143646","-1.10570902394107","0.0519337016574586","-1.00552486187845","0","358.6875"
"641.5625","-0.239042357274401","-0.901657458563536","0.894290976058933","0.0519337016574586","-1.00552486187845","0","358.6875"
"644.53125","-0.239042357274401","-0.901657458563536","0.894290976058933","1.05193370165746","0.994475138121547","0","358.6875"
"647.5","-0.239042357274401","-0.901657458563536","0.894290976058933","1.05193370165746","0.994475138121547","0","358.6875"
"650.46875","-0.239042357274401","-0.901657458563536","0.894290976058933","-1.94806629834254","0.994475138121547","0","358.6875"
"653.4375","1.7609576427256","2.09834254143646","-1.10570902394107","-1.94806629834254","0.994475138121547","0","358.6875"
"656.40625","1.7609576427256","2.09834254143646","-1.10570902394107","0.0519337016574586","0.994475138121547","0","358.6875"
"659.375","-1.2390423572744","-0.901657458563536","-0.105709023941067","0.0519337016574586","0.994475138121547","0","358.6875"
"662.34375","-1.2390423572744","-0.901657458563536","-0.105709023941067","-0.948066298342541","0.994475138121547","0","358.6875"
"665.3125","-3.2390423572744","1.09834254143646","-2.10570902394107","-0.948066298342541","0.994475138121547","0","358.6875"
"668.28125","-3.2390423572744","1.09834254143646","-2.10570902394107","-4.94806629834254","0.994475138121547","0","358.6875"
"671.25","0.760957642725599","3.09834254143646","-0.105709023941067","-4.94806629834254","0.994475138121547","0","358.6875"
"674.21875","0.760957642725599","3.09834254143646","-0.105709023941067","-0.948066298342541","1.99447513812155","0","358.6875"
"677.1875","-0.239042357274401","-1.90165745856354","-0.105709023941067","-0.948066298342541","1.99447513812155","0","358.6875"
"680.15625","-0.239042357274401","-1.90165745856354","-0.105709023941067","0.0519337016574586","-1.00552486187845","0","358.6875"
"683.125","-2.2390423572744","-0.901657458563536","1.89429097605893","0.0519337016574586","-1.00552486187845","0","358.6875"
"686.09375","-2.2390423572744","-0.901657458563536","1.89429097605893","0.0519337016574586","1.99447513812155","0","358.6875"
"689.0625","-0.239042357274401","3.09834254143646","1.89429097605893","0.0519337016574586","1.99447513812155","0","358.6875"
"692.03125","-0.239042357274401","3.09834254143646","1.89429097605893","0.0519337016574586","2.99447513812155","0","358.6875"
"695","-0.239042357274401","-0.901657458563536","-0.105709023941067","0.0519337016574586","2.99447513812155","0","358.6875"
"703.2","-0.239042357274401","-0.901657458563536","-0.105709023941067","-4.94806629834254","-0.00552486187845304","0","358.6875"
"706.4","-0.239042357274401","1.09834254143646","-0.105709023941067","-4.94806629834254","-0.00552486187845304","0","358.6875"
"709.6","-0.239042357274401","1.09834254143646","-0.105709023941067","1.05193370165746","1.99447513812155","0","358.6875"
"712.8","1.7609576427256","2.09834254143646","-0.105709023941067","1.05193370165746","1.99447513812155","0","358.6875"
"716","1.7609576427256","2.09834254143646","-0.105709023941067","-1.94806629834254","-0.00552486187845304","0","358.6875"
"719.2","1.7609576427256","0.0983425414364643","0.894290976058933","-1.94806629834254","-0.00552486187845304","0","358.6875"
"722.4","1.7609576427256","0.0983425414364643","0.894290976058933","0.0519337016574586","-1.00552486187845","0","358.6875"
"725.6","-0.239042357274401","2.09834254143646","0.894290976058933","0.0519337016574586","-1.00552486187845","0","358.6875"
"728.8","-0.239042357274401","2.09834254143646","0.894290976058933","2.05193370165746","-0.00552486187845304","0","358.6875"
"732","1.7609576427256","2.09834254143646","-2.10570902394107","2.05193370165746","-0.00552486187845304","0","358.6875"
"735.2","1.7609576427256","2.09834254143646","-2.10570902394107","-0.948066298342541","0.994475138121547","0","358.6875"
"738.4","-0.239042357274401","0.0983425414364643","-1.10570902394107","-0.948066298342541","0.994475138121547","0","358.6875"
"741.6","-0.239042357274401","0.0983425414364643","-1.10570902394107","1.05193370165746","0.994475138121547","0","358.6875"
"744.8","0.760957642725599","1.09834254143646","-0.105709023941067","1.05193370165746","0.994475138121547","0","358.6875"
"748","0.760957642725599","1.09834254143646","-0.105709023941067","2.05193370165746","-1.00552486187845","0","358.6875"
"751.2","-0.239042357274401","-0.901657458563536","-0.105709023941067","2.05193370165746","-1.00552486187845","0","358.6875"
"754.4","-0.239042357274401","-0.901657458563536","-0.105709023941067","-0.948066298342541","-1.00552486187845","0","358.6875"
"757.6","-1.2390423572744","2.09834254143646","0.894290976058933","-0.948066298342541","-1.00552486187845","0","358.6875"
"760.8","-1.2390423572744","2.09834254143646","0.894290976058933","2.05193370165746","-1.00552486187845","0","358.6875"
"764","0.760957642725599","1.09834254143646","-2.10570902394107","2.05193370165746","-1.00552486187845","0","358.6875"
"767.2","0.760957642725599","1.09834254143646","-2.10570902394107","1.05193370165746","-3.00552486187845","0","358.6875"
"770.4","-0.239042357274401","1.09834254143646","-0.105709023941067","1.05193370165746","-3.00552486187845","0","358.6875"
"773.6","-0.239042357274401","1.09834254143646","-0.105709023941067","0.0519337016574586","-3.00552486187845","0","358.6875"
"776.8","-0.239042357274401","-2.90165745856354","-1.10570902394107","0.0519337016574586","-3.00552486187845","0","358.6875"
"780","-0.239042357274401","-2.90165745856354","-1.10570902394107","-2.94806629834254","1.99447513812155","0","358.6875"
"783.2","0.760957642725599","3.09834254143646","2.89429097605893","-2.94806629834254","1.99447513812155","0","358.6875"
"786.4","0.760957642725599","3.09834254143646","2.89429097605893","0.0519337016574586","-0.00552486187845304","0","358.6875"
"789.6","0.760957642725599","0.0983425414364643","-1.10570902394107","0.0519337016574586","-0.00552486187845304","0","358.6875"
"792.8","0.760957642725599","0.0983425414364643","-1.10570902394107","-0.948066298342541","-1.00552486187845","0","358.6875"
"796","0.760957642725599","-0.901657458563536","-0.105709023941067","-0.948066298342541","-1.00552486187845","0","358.6875"
"802.91176","0.760957642725599","-0.901657458563536","-0.105709023941067","-2.94806629834254","0.994475138121547","0","358.6875"
"805.82353","1.7609576427256","2.09834254143646","1.89429097605893","-2.94806629834254","0.994475138121547","0","358.6875"
"808.73529","1.7609576427256","2.09834254143646","1.89429097605893","-1.94806629834254","-0.00552486187845304","0","358.6875"
"811.64706","1.7609576427256","1.09834254143646","-0.105709023941067","-1.94806629834254","-0.00552486187845304","0","358.6875"
"814.55882","1.7609576427256","1.09834254143646","-0.105709023941067","-4.94806629834254","1.99447513812155","0","358.6875"
"817.47059","1.7609576427256","-0.901657458563536","-0.105709023941067","-4.94806629834254","1.99447513812155","0","358.6875"
"820.38235","1.7609576427256","-0.901657458563536","-0.105709023941067","-4.94806629834254","0.994475138121547","0","358.6875"
"823.29412","0.760957642725599","0.0983425414364643","-0.105709023941067","-4.94806629834254","0.994475138121547","0","358.6875"
"826.20588","0.760957642725599","0.0983425414364643","-0.105709023941067","-2.94806629834254","-0.00552486187845304","0","358.6875"
"829.11765","-0.239042357274401","2.09834254143646","-1.10570902394107","-2.94806629834254","-0.00552486187845304","0","358.6875"
"832.02941","-0.239042357274401","2.09834254143646","-1.10570902394107","-2.94806629834254","0.994475138121547","0","358.6875"
"834.94118","0.760957642725599","0.0983425414364643","-0.105709023941067","-2.94806629834254","0.994475138121547","0","358.6875"
"837.85294","0.760957642725599","0.0983425414364643","-0.105709023941067","-1.94806629834254","1.99447513812155","0","358.6875"
"840.76471","-0.239042357274401","0.0983425414364643","0.894290976058933","-1.94806629834254","1.99447513812155","0","358.6875"
"843.67647","-0.239042357274401","0.0983425414364643","0.894290976058933","-0.948066298342541","-0.00552486187845304","0","358.6875"
"846.58824","0.760957642725599","0.0983425414364643","0.894290976058933","-0.948066298342541","-0.00552486187845304","0","358.6875"
"849.5","0.760957642725599","0.0983425414364643","0.894290976058933","0.0519337016574586","-2.00552486187845","0","358.6875"
"852.41176","0.760957642725599","2.09834254143646","-2.10570902394107","0.0519337016574586","-2.00552486187845","0","358.6875"
"855.32353","0.760957642725599","2.09834254143646","-2.10570902394107","0.0519337016574586","-2.00552486187845","0","358.6875"
"858.23529","-1.2390423572744","2.09834254143646","-2.10570902394107","0.0519337016574586","-2.00552486187845","0","358.6875"
"861.14706","-1.2390423572744","2.09834254143646","-2.10570902394107","0.0519337016574586","0.994475138121547","0","358.6875"
"864.05882","-1.2390423572744","0.0983425414364643","0.894290976058933","0.0519337016574586","0.994475138121547","0","358.6875"
"866.97059","-1.2390423572744","0.0983425414364643","0.894290976058933","-0.948066298342541","-0.00552486187845304","0","358.6875"
"869.88235","-0.239042357274401","0.0983425414364643","0.894290976058933","-0.948066298342541","-0.00552486187845304","0","358.6875"
"872.79412","-0.239042357274401","0.0983425414364643","0.894290976058933","1.05193370165746","-1.00552486187845","0","358.6875"
"875.70588","-0.239042357274401","0.0983425414364643","-1.10570902394107","1.05193370165746","-1.00552486187845","0","358.6875"
"878.61765","-0.239042357274401","0.0983425414364643","-1.10570902394107","-0.948066298342541","1.99447513812155","0","358.6875"
"881.52941","-0.239042357274401","0.0983425414364643","0.894290976058933","-0.948066298342541","1.99447513812155","0","358.6875"
"884.44118","-0.239042357274401","0.0983425414364643","0.894290976058933","0.0519337016574586","0.994475138121547","0","358.6875"
"887.35294","0.760957642725599","1.09834254143646","-0.105709023941067","0.0519337016574586","0.994475138121547","0","358.6875"
"890.26471","0.760957642725599","1.09834254143646","-0.105709023941067","-0.948066298342541","0.994475138121547","0","358.6875"
"893.17647","-2.2390423572744","0.0983425414364643","-0.105709023941067","-0.948066298342541","0.994475138121547","0","358.6875"
"896.08824","-2.2390423572744","0.0983425414364643","-0.105709023941067","-0.948066298342541","-0.00552486187845304","0","358.6875"
"899","-0.239042357274401","0.0983425414364643","-0.105709023941067","-0.948066298342541","-0.00552486187845304","0","358.6875"
"903.16667","-0.239042357274401","0.0983425414364643","-0.105709023941067","0.0519337016574586","-1.00552486187845","0","358.6875"
"906.33333","1.7609576427256","1.09834254143646","0.894290976058933","0.0519337016574586","-1.00552486187845","0","358.6875"
"909.5","1.7609576427256","1.09834254143646","0.894290976058933","0.0519337016574586","-2.00552486187845","0","358.6875"
"912.66667","-0.239042357274401","-0.901657458563536","1.89429097605893","0.0519337016574586","-2.00552486187845","0","358.6875"
"915.83333","-0.239042357274401","-0.901657458563536","1.89429097605893","2.05193370165746","-1.00552486187845","0","358.6875"
"919","0.760957642725599","2.09834254143646","-1.10570902394107","2.05193370165746","-1.00552486187845","0","358.6875"
"922.16667","0.760957642725599","2.09834254143646","-1.10570902394107","2.05193370165746","1.99447513812155","0","358.6875"
"925.33333","1.7609576427256","0.0983425414364643","-1.10570902394107","2.05193370165746","1.99447513812155","0","358.6875"
"928.5","1.7609576427256","0.0983425414364643","-1.10570902394107","-0.948066298342541","0.994475138121547","0","358.6875"
"931.66667","1.7609576427256","0.0983425414364643","-0.105709023941067","-0.948066298342541","0.994475138121547","0","358.6875"
"934.83333","1.7609576427256","0.0983425414364643","-0.105709023941067","-0.948066298342541","0.994475138121547","0","358.6875"
"938","-0.239042357274401","-1.90165745856354","1.89429097605893","-0.948066298342541","0.994475138121547","0","358.6875"
"941.16667","-0.239042357274401","-1.90165745856354","1.89429097605893","-1.94806629834254","0.994475138121547","0","358.6875"
"944.33333","1.7609576427256","3.09834254143646","-0.105709023941067","-1.94806629834254","0.994475138121547","0","358.6875"
"947.5","1.7609576427256","3.09834254143646","-0.105709023941067","1.05193370165746","-0.00552486187845304","0","358.6875"
"950.66667","1.7609576427256","3.09834254143646","-1.10570902394107","1.05193370165746","-0.00552486187845304","0","358.6875"
"953.83333","1.7609576427256","3.09834254143646","-1.10570902394107","2.05193370165746","0.994475138121547","0","358.6875"
"957","-0.239042357274401","-1.90165745856354","-1.10570902394107","2.05193370165746","0.994475138121547","0","358.6875"
"960.16667","-0.239042357274401","-1.90165745856354","-1.10570902394107","-1.94806629834254","-0.00552486187845304","0","358.6875"
"963.33333","1.7609576427256","2.09834254143646","-0.105709023941067","-1.94806629834254","-0.00552486187845304","0","358.6875"
"966.5","1.7609576427256","2.09834254143646","-0.105709023941067","1.05193370165746","-1.00552486187845","0","358.6875"
"969.66667","0.760957642725599","1.09834254143646","-0.105709023941067","1.05193370165746","-1.00552486187845","0","358.6875"
"972.83333","0.760957642725599","1.09834254143646","-0.105709023941067","2.05193370165746","-2.00552486187845","0","358.6875"
"976","1.7609576427256","-1.90165745856354","-1.10570902394107","2.05193370165746","-2.00552486187845","0","358.6875"
"979.16667","1.7609576427256","-1.90165745856354","-1.10570902394107","1.05193370165746","0.994475138121547","0","358.6875"
"982.33333","0.760957642725599","0.0983425414364643","-1.10570902394107","1.05193370165746","0.994475138121547","0","358.6875"
"985.5","0.760957642725599","0.0983425414364643","-1.10570902394107","-1.94806629834254","1.99447513812155","0","358.6875"
"988.66667","0.760957642725599","0.0983425414364643","-0.105709023941067","-1.94806629834254","1.99447513812155","0","358.6875"
"991.83333","0.760957642725599","0.0983425414364643","-0.105709023941067","-0.948066298342541","-1.00552486187845","0","358.6875"
"995","-2.2390423572744","2.09834254143646","-0.105709023941067","-0.948066298342541","-1.00552486187845","0","358.6875"
"1002.96875","-2.2390423572744","2.09834254143646","-0.105709023941067","-0.948066298342541","-0.00552486187845304","0","358.6875"
"1005.9375","0.760957642725599","1.09834254143646","-0.105709023941067","-0.948066298342541","-0.00552486187845304","0","358.6875"
"1008.90625","0.760957642725599","1.09834254143646","-0.105709023941067","2.05193370165746","0.994475138121547","0","358.6875"
"1011.875","-0.239042357274401","2.09834254143646","1.89429097605893","2.05193370165746","0.994475138121547","0","358.6875"
"1014.84375","-0.239042357274401","2.09834254143646","1.89429097605893","0.0519337016574586","0.994475138121547","0","358.6875"
"1017.8125","-1.2390423572744","2.09834254143646","-2.10570902394107","0.0519337016574586","0.994475138121547","0","358.6875"
"1020.78125","-1.2390423572744","2.09834254143646","-2.10570902394107","0.0519337016574586","-1.00552486187845","0","358.6875"
"1023.75","-2.2390423572744","1.09834254143646","-0.105709023941067","0.0519337016574586","-1.00552486187845","0","358.6875"
"1026.71875","-2.2390423572744","1.09834254143646","-0.105709023941067","-1.94806629834254","-0.00552486187845304","0","358.6875"
"1029.6875","-1.2390423572744","3.09834254143646","-0.105709023941067","-1.94806629834254","-0.00552486187845304","0","358.6875"
"1032.65625","-1.2390423572744","3.09834254143646","-0.105709023941067","1.05193370165746","0.994475138121547","0","358.6875"
"1035.625","-2.2390423572744","2.09834254143646","-0.105709023941067","1.05193370165746","0.994475138121547","0","358.6875"
"1038.59375","-2.2390423572744","2.09834254143646","-0.105709023941067","-3.94806629834254","-1.00552486187845","0","358.6875"
"1041.5625","1.7609576427256","0.0983425414364643","-0.105709023941067","-3.94806629834254","-1.00552486187845","0","358.6875"
"1044.53125","1.7609576427256","0.0983425414364643","-0.105709023941067","-1.94806629834254","-1.00552486187845","0","358.6875"
"1047.5","-1.2390423572744","1.09834254143646","-1.10570902394107","-1.94806629834254","-1.00552486187845","0","358.6875"
"1050.46875","-1.2390423572744","1.09834254143646","-1.10570902394107","-0.948066298342541","-0.00552486187845304","0","358.6875"
"1053.4375","0.760957642725599","0.0983425414364643","-0.105709023941067","-0.948066298342541","-0.00552486187845304","0","358.6875"
"1056.40625","0.760957642725599","0.0983425414364643","-0.105709023941067","-3.94806629834254","1.99447513812155","0","358.6875"
"1059.375","0.760957642725599","0.0983425414364643","0.894290976058933","-3.94806629834254","1.99447513812155","0","358.6875"
"1062.34375","0.760957642725599","0.0983425414364643","0.894290976058933","0.0519337016574586","-1.00552486187845","0","358.6875"
"1065.3125","-2.2390423572744","0.0983425414364643","0.894290976058933","0.0519337016574586","-1.00552486187845","0","358.6875"
"1068.28125","-2.2390423572744","0.0983425414364643","0.894290976058933","-1.94806629834254","-2.00552486187845","0","358.6875"
"1071.25","0.760957642725599","0.0983425414364643","0.894290976058933","-1.94806629834254","-2.00552486187845","0","358.6875"
"1074.21875","0.760957642725599","0.0983425414364643","0.894290976058933","1.05193370165746","-1.00552486187845","0","358.6875"
"1077.1875","-0.239042357274401","0.0983425414364643","-0.105709023941067","1.05193370165746","-1.00552486187845","0","358.6875"
"1080.15625","-0.239042357274401","0.0983425414364643","-0.105709023941067","-0.948066298342541","1.99447513812155","0","358.6875"
"1083.125","-0.239042357274401","1.09834254143646","-0.105709023941067","-0.948066298342541","1.99447513812155","0","358.6875"
"1086.09375","-0.239042357274401","1.09834254143646","-0.105709023941067","-1.94806629834254","1.99447513812155","0","358.6875"
"1089.0625","-1.2390423572744","0.0983425414364643","-2.10570902394107","-1.94806629834254","1.99447513812155","0","358.6875"
"1092.03125","-1.2390423572744","0.0983425414364643","-2.10570902394107","-2.94806629834254","-3.00552486187845","0","358.6875"
"1095","-0.239042357274401","2.09834254143646","0.894290976058933","-2.94806629834254","-3.00552486187845","0","358.6875"
"1103.0625","-0.239042357274401","2.09834254143646","0.894290976058933","-1.94806629834254","0.994475138121547","0","358.6875"
"1106.125","-0.239042357274401","0.0983425414364643","1.89429097605893","-1.94806629834254","0.994475138121547","0","358.6875"
"1109.1875","-0.239042357274401","0.0983425414364643","1.89429097605893","-1.94806629834254","1.99447513812155","0","358.6875"
"1112.25","0.760957642725599","-1.90165745856354","-0.105709023941067","-1.94806629834254","1.99447513812155","0","358.6875"
"1115.3125","0.760957642725599","-1.90165745856354","-0.105709023941067","-1.94806629834254","-1.00552486187845","0","358.6875"
"1118.375","-1.2390423572744","0.0983425414364643","-3.10570902394107","-1.94806629834254","-1.00552486187845","0","358.6875"
"1121.4375","-1.2390423572744","0.0983425414364643","-3.10570902394107","-0.948066298342541","-3.00552486187845","0","358.6875"
"1124.5","-0.239042357274401","-0.901657458563536","1.89429097605893","-0.948066298342541","-3.00552486187845","0","358.6875"
"1127.5625","-0.239042357274401","-0.901657458563536","1.89429097605893","-1.94806629834254","1.99447513812155","0","358.6875"
"1130.625","-0.239042357274401","0.0983425414364643","1.89429097605893","-1.94806629834254","1.99447513812155","0","358.6875"
"1133.6875","-0.239042357274401","0.0983425414364643","1.89429097605893","0.0519337016574586","-1.00552486187845","0","358.6875"
"1136.75","-0.239042357274401","1.09834254143646","-0.105709023941067","0.0519337016574586","-1.00552486187845","0","358.6875"
"1139.8125","-0.239042357274401","1.09834254143646","-0.105709023941067","1.05193370165746","0.994475138121547","0","358.6875"
"1142.875","-0.239042357274401","1.09834254143646","-0.105709023941067","1.05193370165746","0.994475138121547","0","358.6875"
"1145.9375","-0.239042357274401","1.09834254143646","-0.105709023941067","-0.948066298342541","-0.00552486187845304","0","358.6875"
"1149","-1.2390423572744","-0.901657458563536","1.89429097605893","-0.948066298342541","-0.00552486187845304","0","358.6875"
"1152.0625","-1.2390423572744","-0.901657458563536","1.89429097605893","1.05193370165746","1.99447513812155","0","358.6875"
"1155.125","-0.239042357274401","0.0983425414364643","-0.105709023941067","1.05193370165746","1.99447513812155","0","358.6875"
"1158.1875","-0.239042357274401","0.0983425414364643","-0.105709023941067","-0.948066298342541","2.99447513812155","0","358.6875"
"1161.25","-0.239042357274401","0.0983425414364643","0.894290976058933","-0.948066298342541","2.99447513812155","0","358.6875"
"1164.3125","-0.239042357274401","0.0983425414364643","0.894290976058933","-0.948066298342541","0.994475138121547","0","358.6875"
"1167.375","0.760957642725599","2.09834254143646","0.894290976058933","-0.948066298342541","0.994475138121547","0","358.6875"
"1170.4375","0.760957642725599","2.09834254143646","0.894290976058933","0.0519337016574586","0.994475138121547","0","358.6875"
"1173.5","-1.2390423572744","-0.901657458563536","-0.105709023941067","0.0519337016574586","0.994475138121547","0","358.6875"
"1176.5625","-1.2390423572744","-0.901657458563536","-0.105709023941067","-1.94806629834254","0.994475138121547","0","358.6875"
"1179.625","1.7609576427256","0.0983425414364643","-0.105709023941067","-1.94806629834254","0.994475138121547","0","358.6875"
"1182.6875","1.7609576427256","0.0983425414364643","-0.105709023941067","-3.94806629834254","-0.00552486187845304","0","358.6875"
"1185.75","-2.2390423572744","0.0983425414364643","1.89429097605893","-3.94806629834254","-0.00552486187845304","0","358.6875"
"1188.8125","-2.2390423572744","0.0983425414364643","1.89429097605893","-2.94806629834254","-2.00552486187845","0","358.6875"
"1191.875","-0.239042357274401","2.09834254143646","0.894290976058933","-2.94806629834254","-2.00552486187845","0","358.6875"
"1194.9375","-0.239042357274401","2.09834254143646","0.894290976058933","1.05193370165746","-0.00552486187845304","0","358.6875"
"1198","0.760957642725599","-0.901657458563536","-0.105709023941067","1.05193370165746","-0.00552486187845304","0","358.6875"
"1202.96875","0.760957642725599","-0.901657458563536","-0.105709023941067","0.0519337016574586","-2.00552486187845","0","358.6875"
"1205.9375","-0.239042357274401","-2.90165745856354","0.894290976058933","0.0519337016574586","-2.00552486187845","0","358.6875"
"1208.90625","-0.239042357274401","-2.90165745856354","0.894290976058933","1.05193370165746","-0.00552486187845304","0","358.6875"
"1211.875","0.760957642725599","2.09834254143646","-0.105709023941067","1.05193370165746","-0.00552486187845304","0","358.6875"
"1214.84375","0.760957642725599","2.09834254143646","-0.105709023941067","0.0519337016574586","-0.00552486187845304","0","358.6875"
"1217.8125","0.760957642725599","2.09834254143646","-0.105709023941067","0.0519337016574586","-0.00552486187845304","0","358.6875"
"1220.78125","0.760957642725599","2.09834254143646","-0.105709023941067","-1.94806629834254","1.99447513812155","0","358.6875"
"1223.75","0.760957642725599","0.0983425414364643","0.894290976058933","-1.94806629834254","1.99447513812155","0","358.6875"
"1226.71875","0.760957642725599","0.0983425414364643","0.894290976058933","-5.94806629834254","-0.00552486187845304","0","358.6875"
"1229.6875","-0.239042357274401","0.0983425414364643","0.894290976058933","-5.94806629834254","-0.00552486187845304","0","358.6875"
"1232.65625","-0.239042357274401","0.0983425414364643","0.894290976058933","-0.948066298342541","-0.00552486187845304","0","358.6875"
"1235.625","1.7609576427256","0.0983425414364643","-0.105709023941067","-0.948066298342541","-0.00552486187845304","0","358.6875"
"1238.59375","1.7609576427256","0.0983425414364643","-0.105709023941067","-0.948066298342541","-1.00552486187845","0","358.6875"
"1241.5625","0.760957642725599","1.09834254143646","-0.105709023941067","-0.948066298342541","-1.00552486187845","0","358.6875"
"1244.53125","0.760957642725599","1.09834254143646","-0.105709023941067","0.0519337016574586","-0.00552486187845304","0","358.6875"
"1247.5","-0.239042357274401","0.0983425414364643","-1.10570902394107","0.0519337016574586","-0.00552486187845304","0","358.6875"
"1250.46875","-0.239042357274401","0.0983425414364643","-1.10570902394107","-1.94806629834254","0.994475138121547","0","358.6875"
"1253.4375","-0.239042357274401","-0.901657458563536","-0.105709023941067","-1.94806629834254","0.994475138121547","0","358.6875"
"1256.40625","-0.239042357274401","-0.901657458563536","-0.105709023941067","-0.948066298342541","0.994475138121547","0","358.6875"
"1259.375","0.760957642725599","1.09834254143646","-0.105709023941067","-0.948066298342541","0.994475138121547","0","358.6875"
"1262.34375","0.760957642725599","1.09834254143646","-0.105709023941067","1.05193370165746","0.994475138121547","0","358.6875"
"1265.3125","0.760957642725599","1.09834254143646","-2.10570902394107","1.05193370165746","0.994475138121547","0","358.6875"
"1268.28125","0.760957642725599","1.09834254143646","-2.10570902394107","1.05193370165746","3.99447513812155","0","358.6875"
"1271.25","0.760957642725599","2.09834254143646","0.894290976058933","1.05193370165746","3.99447513812155","0","358.6875"
"1274.21875","0.760957642725599","2.09834254143646","0.894290976058933","1.05193370165746","0.994475138121547","0","358.6875"
"1277.1875","1.7609576427256","1.09834254143646","-0.105709023941067","1.05193370165746","0.994475138121547","0","358.6875"
"1280.15625","1.7609576427256","1.09834254143646","-0.105709023941067","-0.948066298342541","0.994475138121547","0","358.6875"
"1283.125","-2.2390423572744","1.09834254143646","1.89429097605893","-0.948066298342541","0.994475138121547","0","358.6875"
"1286.09375","-2.2390423572744","1.09834254143646","1.89429097605893","-2.94806629834254","1.99447513812155","0","358.6875"
"1289.0625","0.760957642725599","2.09834254143646","0.894290976058933","-2.94806629834254","1.99447513812155","0","358.6875"
"1292.03125","0.760957642725599","2.09834254143646","0.894290976058933","-0.948066298342541","-1.00552486187845","0","358.6875"
"1295","1.7609576427256","1.09834254143646","-1.10570902394107","-0.948066298342541","-1.00552486187845","0","358.6875"
"1303.53571","1.7609576427256","1.09834254143646","-1.10570902394107","-0.948066298342541","-1.00552486187845","0","358.6875"
"1307.07143","0.760957642725599","1.09834254143646","-1.10570902394107","-0.948066298342541","-1.00552486187845","0","358.6875"
"1310.60714","0.760957642725599","1.09834254143646","-1.10570902394107","-1.94806629834254","-1.00552486187845","0","358.6875"
"1314.14286","-1.2390423572744","1.09834254143646","-0.105709023941067","-1.94806629834254","-1.00552486187845","0","358.6875"
"1317.67857","-1.2390423572744","1.09834254143646","-0.105709023941067","0.0519337016574586","-1.00552486187845","0","358.6875"
"1321.21429","-0.239042357274401","1.09834254143646","-0.105709023941067","0.0519337016574586","-1.00552486187845","0","358.6875"
"1324.75","-0.239042357274401","1.09834254143646","-0.105709023941067","1.05193370165746","-0.00552486187845304","0","358.6875"
"1328.28571","-2.2390423572744","-1.90165745856354","-0.105709023941067","1.05193370165746","-0.00552486187845304","0","358.6875"
"1331.82143","-2.2390423572744","-1.90165745856354","-0.105709023941067","-0.948066298342541","0.994475138121547","0","358.6875"
"1335.35714","0.760957642725599","0.0983425414364643","-4.10570902394107","-0.948066298342541","0.994475138121547","0","358.6875"
"1338.89286","0.760957642725599","0.0983425414364643","-4.10570902394107","1.05193370165746","0.994475138121547","0","358.6875"
"1342.42857","-1.2390423572744","2.09834254143646","-2.10570902394107","1.05193370165746","0.994475138121547","0","358.6875"
"1345.96429","-1.2390423572744","2.09834254143646","-2.10570902394107","2.05193370165746","0.994475138121547","0","358.6875"
"1349.5","-1.2390423572744","-0.901657458563536","1.89429097605893","2.05193370165746","0.994475138121547","0","358.6875"
"1353.03571","-1.2390423572744","-0.901657458563536","1.89429097605893","1.05193370165746","1.99447513812155","0","358.6875"
"1356.57143","-1.2390423572744","1.09834254143646","-0.105709023941067","1.05193370165746","1.99447513812155","0","358.6875"
"1360.10714","-1.2390423572744","1.09834254143646","-0.105709023941067","2.05193370165746","0.994475138121547","0","358.6875"
"1363.64286","1.7609576427256","2.09834254143646","-0.105709023941067","2.05193370165746","0.994475138121547","0","358.6875"
"1367.17857","1.7609576427256","2.09834254143646","-0.105709023941067","-1.94806629834254","-0.00552486187845304","0","358.6875"
"1370.71429","-0.239042357274401","-0.901657458563536","0.894290976058933","-1.94806629834254","-0.00552486187845304","0","358.6875"
"1374.25","-0.239042357274401","-0.901657458563536","0.894290976058933","-0.948066298342541","0.994475138121547","0","358.6875"
"1377.78571","-1.2390423572744","1.09834254143646","-2.10570902394107","-0.948066298342541","0.994475138121547","0","358.6875"
"1381.32143","-1.2390423572744","1.09834254143646","-2.10570902394107","-4.94806629834254","-2.00552486187845","0","358.6875"
"1384.85714","0.760957642725599","2.09834254143646","0.894290976058933","-4.94806629834254","-2.00552486187845","0","358.6875"
"1388.39286","0.760957642725599","2.09834254143646","0.894290976058933","-5.94806629834254","1.99447513812155","0","358.6875"
"1391.92857","0.760957642725599","0.0983425414364643","1.89429097605893","-5.94806629834254","1.99447513812155","0","358.6875"
"1395.46429","0.760957642725599","0.0983425414364643","1.89429097605893","-3.94806629834254","0.994475138121547","0","358.6875"
"1399","0.760957642725599","-0.901657458563536","-0.105709023941067","-3.94806629834254","0.994475138121547","0","358.6875"
"1403.0625","0.760957642725599","-0.901657458563536","-0.105709023941067","-2.94806629834254","0.994475138121547","0","358.6875"
"1406.125","1.7609576427256","1.09834254143646","-2.10570902394107","-2.94806629834254","0.994475138121547","0","358.6875"
"1409.1875","1.7609576427256","1.09834254143646","-2.10570902394107","-0.948066298342541","-0.00552486187845304","0","358.6875"
"1412.25","-0.239042357274401","0.0983425414364643","-2.10570902394107","-0.948066298342541","-0.00552486187845304","0","358.6875"
"1415.3125","-0.239042357274401","0.0983425414364643","-2.10570902394107","-4.94806629834254","-2.00552486187845","0","358.6875"
"1418.375","0.760957642725599","0.0983425414364643","1.89429097605893","-4.94806629834254","-2.00552486187845","0","358.6875"
"1421.4375","0.760957642725599","0.0983425414364643","1.89429097605893","0.0519337016574586","-3.00552486187845","0","358.6875"
"1424.5","-0.239042357274401","0.0983425414364643","-0.105709023941067","0.0519337016574586","-3.00552486187845","0","358.6875"
"1427.5625","-0.239042357274401","0.0983425414364643","-0.105709023941067","2.05193370165746","-2.00552486187845","0","358.6875"
"1430.625","-1.2390423572744","0.0983425414364643","0.894290976058933","2.05193370165746","-2.00552486187845","0","358.6875"
"1433.6875","-1.2390423572744","0.0983425414364643","0.894290976058933","-1.94806629834254","-0.00552486187845304","0","358.6875"
"1436.75","-1.2390423572744","0.0983425414364643","-0.105709023941067","-1.94806629834254","-0.00552486187845304","0","358.6875"
"1439.8125","-1.2390423572744","0.0983425414364643","-0.105709023941067","-0.948066298342541","0.994475138121547","0","358.6875"
"1442.875","1.7609576427256","-0.901657458563536","0.894290976058933","-0.948066298342541","0.994475138121547","0","358.6875"
"1445.9375","1.7609576427256","-0.901657458563536","0.894290976058933","-3.94806629834254","0.994475138121547","0","358.6875"
"1449","-0.239042357274401","2.09834254143646","-1.10570902394107","-3.94806629834254","0.994475138121547","0","358.6875"
"1452.0625","-0.239042357274401","2.09834254143646","-1.10570902394107","0.0519337016574586","-1.00552486187845","0","358.6875"
"1455.125","-0.239042357274401","-0.901657458563536","-0.105709023941067","0.0519337016574586","-1.00552486187845","0","358.6875"
"1458.1875","-0.239042357274401","-0.901657458563536","-0.105709023941067","-2.94806629834254","0.994475138121547","0","358.6875"
"1461.25","-1.2390423572744","4.09834254143646","-0.105709023941067","-2.94806629834254","0.994475138121547","0","358.6875"
"1464.3125","-1.2390423572744","4.09834254143646","-0.105709023941067","-1.94806629834254","-1.00552486187845","0","358.6875"
"1467.375","0.760957642725599","3.09834254143646","-0.105709023941067","-1.94806629834254","-1.00552486187845","0","358.6875"
"1470.4375","0.760957642725599","3.09834254143646","-0.105709023941067","-1.94806629834254","0.994475138121547","0","358.6875"
"1473.5","-1.2390423572744","-0.901657458563536","-0.105709023941067","-1.94806629834254","0.994475138121547","0","358.6875"
"1476.5625","-1.2390423572744","-0.901657458563536","-0.105709023941067","-4.94806629834254","2.99447513812155","0","358.6875"
"1479.625","-1.2390423572744","-0.901657458563536","1.89429097605893","-4.94806629834254","2.99447513812155","0","358.6875"
"1482.6875","-1.2390423572744","-0.901657458563536","1.89429097605893","1.05193370165746","-0.00552486187845304","0","358.6875"
"1485.75","-2.2390423572744","2.09834254143646","1.89429097605893","1.05193370165746","-0.00552486187845304","0","358.6875"
"1488.8125","-2.2390423572744","2.09834254143646","1.89429097605893","0.0519337016574586","-2.00552486187845","0","358.6875"
"1491.875","-2.2390423572744","3.09834254143646","-0.105709023941067","0.0519337016574586","-2.00552486187845","0","358.6875"
"1494.9375","-2.2390423572744","3.09834254143646","-0.105709023941067","0.0519337016574586","-0.00552486187845304","0","358.6875"
"1498","-0.239042357274401","-0.901657458563536","-0.105709023941067","0.0519337016574586","-0.00552486187845304","0","358.6875"
"1503.73077","-0.239042357274401","-0.901657458563536","-0.105709023941067","-2.94806629834254","-0.00552486187845304","0","358.6875"
"1507.46154","-0.239042357274401","1.09834254143646","-1.10570902394107","-2.94806629834254","-0.00552486187845304","0","358.6875"
"1511.19231","-0.239042357274401","1.09834254143646","-1.10570902394107","2.05193370165746","-2.00552486187845","0","358.6875"
"1514.92308","-1.2390423572744","1.09834254143646","-0.105709023941067","2.05193370165746","-2.00552486187845","0","358.6875"
"1518.65385","-1.2390423572744","1.09834254143646","-0.105709023941067","-3.94806629834254","-4.00552486187845","0","358.6875"
"1522.38462","-2.2390423572744","0.0983425414364643","-0.105709023941067","-3.94806629834254","-4.00552486187845","0","358.6875"
"1526.11538","-2.2390423572744","0.0983425414364643","-0.105709023941067","-4.94806629834254","-2.00552486187845","0","358.6875"
"1529.84615","1.7609576427256","2.09834254143646","0.894290976058933","-4.94806629834254","-2.00552486187845","0","358.6875"
"1533.57692","1.7609576427256","2.09834254143646","0.894290976058933","-0.948066298342541","-4.00552486187845","0","358.6875"
"1537.30769","-0.239042357274401","2.09834254143646","-2.10570902394107","-0.948066298342541","-4.00552486187845","0","358.6875"
"1541.03846","-0.239042357274401","2.09834254143646","-2.10570902394107","0.0519337016574586","-3.00552486187845","0","358.6875"
"1544.76923","0.760957642725599","-0.901657458563536","-1.10570902394107","0.0519337016574586","-3.00552486187845","0","358.6875"
"1548.5","0.760957642725599","-0.901657458563536","-1.10570902394107","-3.94806629834254","-0.00552486187845304","0","358.6875"
"1552.23077","-2.2390423572744","1.09834254143646","0.894290976058933","-3.94806629834254","-0.00552486187845304","0","358.6875"
"1555.96154","-2.2390423572744","1.09834254143646","0.894290976058933","-1.94806629834254","1.99447513812155","0","358.6875"
"1559.69231","0.760957642725599","-0.901657458563536","-0.105709023941067","-1.94806629834254","1.99447513812155","0","358.6875"
"1563.42308","0.760957642725599","-0.901657458563536","-0.105709023941067","-0.948066298342541","-1.00552486187845","0","358.6875"
"1567.15385","1.7609576427256","0.0983425414364643","1.89429097605893","-0.948066298342541","-1.00552486187845","0","358.6875"
"1570.88462","1.7609576427256","0.0983425414364643","1.89429097605893","-1.94806629834254","-1.00552486187845","0","358.6875"
"1574.61538","-0.239042357274401","0.0983425414364643","-1.10570902394107","-1.94806629834254","-1.00552486187845","0","358.6875"
"1578.34615","-0.239042357274401","0.0983425414364643","-1.10570902394107","-0.948066298342541","-2.00552486187845","0","358.6875"
"1582.07692","1.7609576427256","-0.901657458563536","0.894290976058933","-0.948066298342541","-2.00552486187845","0","358.6875"
"1585.80769","1.7609576427256","-0.901657458563536","0.894290976058933","-1.94806629834254","0.994475138121547","0","358.6875"
"1589.53846","-0.239042357274401","0.0983425414364643","0.894290976058933","-1.94806629834254","0.994475138121547","0","358.6875"
"1593.26923","-0.239042357274401","0.0983425414364643","0.894290976058933","-1.94806629834254","0.994475138121547","0","358.6875"
"1597","-1.2390423572744","1.09834254143646","1.89429097605893","-1.94806629834254","0.994475138121547","0","358.6875"
"1602.9375","-1.2390423572744","1.09834254143646","1.89429097605893","2.05193370165746","0.994475138121547","0","358.6875"
"1605.875","-2.2390423572744","0.0983425414364643","-0.105709023941067","2.05193370165746","0.994475138121547","0","358.6875"
"1608.8125","-2.2390423572744","0.0983425414364643","-0.105709023941067","-0.948066298342541","0.994475138121547","0","358.6875"
"1611.75","0.760957642725599","0.0983425414364643","-3.10570902394107","-0.948066298342541","0.994475138121547","0","358.6875"
"1614.6875","0.760957642725599","0.0983425414364643","-3.10570902394107","-1.94806629834254","-0.00552486187845304","0","358.6875"
"1617.625","-1.2390423572744","0.0983425414364643","-2.10570902394107","-1.94806629834254","-0.00552486187845304","0","358.6875"
"1620.5625","-1.2390423572744","0.0983425414364643","-2.10570902394107","-2.94806629834254","-0.00552486187845304","0","358.6875"
"1623.5","-0.239042357274401","0.0983425414364643","-1.10570902394107","-2.94806629834254","-0.00552486187845304","0","358.6875"
"1626.4375","-0.239042357274401","0.0983425414364643","-1.10570902394107","0.0519337016574586","-1.00552486187845","0","358.6875"
"1629.375","-1.2390423572744","1.09834254143646","-3.10570902394107","0.0519337016574586","-1.00552486187845","0","358.6875"
"1632.3125","-1.2390423572744","1.09834254143646","-3.10570902394107","-2.94806629834254","-1.00552486187845","0","358.6875"
"1635.25","-0.239042357274401","-0.901657458563536","-1.10570902394107","-2.94806629834254","-1.00552486187845","0","358.6875"
"1638.1875","-0.239042357274401","-0.901657458563536","-1.10570902394107","-1.94806629834254","0.994475138121547","0","358.6875"
"1641.125","-2.2390423572744","-0.901657458563536","-2.10570902394107","-1.94806629834254","0.994475138121547","0","358.6875"
"1644.0625","-2.2390423572744","-0.901657458563536","-2.10570902394107","-1.94806629834254","-2.00552486187845","0","358.6875"
"1647","-0.239042357274401","-0.901657458563536","-1.10570902394107","-1.94806629834254","-2.00552486187845","0","358.6875"
"1649.9375","-0.239042357274401","-0.901657458563536","-1.10570902394107","1.05193370165746","-2.00552486187845","0","358.6875"
"1652.875","-1.2390423572744","-0.901657458563536","0.894290976058933","1.05193370165746","-2.00552486187845","0","358.6875"
"1655.8125","-1.2390423572744","-0.901657458563536","0.894290976058933","2.05193370165746","-1.00552486187845","0","358.6875"
"1658.75","-1.2390423572744","-1.90165745856354","1.89429097605893","2.05193370165746","-1.00552486187845","0","358.6875"
"1661.6875","-1.2390423572744","-1.90165745856354","1.89429097605893","-3.94806629834254","1.99447513812155","0","358.6875"
"1664.625","-1.2390423572744","-1.90165745856354","1.89429097605893","-3.94806629834254","1.99447513812155","0","358.6875"
"1667.5625","-1.2390423572744","-1.90165745856354","1.89429097605893","2.05193370165746","3.99447513812155","0","358.6875"
"1670.5","-1.2390423572744","-1.90165745856354","1.89429097605893","2.05193370165746","3.99447513812155","0","358.6875"
"1673.4375","-1.2390423572744","-1.90165745856354","1.89429097605893","7.05193370165746","2.99447513812155","0","358.6875"
"1676.375","21.7609576427256","-15.9016574585635","10.8942909760589","7.05193370165746","2.99447513812155","0","358.6875"
"1679.3125","21.7609576427256","-15.9016574585635","10.8942909760589","5.05193370165746","5.99447513812155","0","358.6875"
"1682.25","-4.2390423572744","-29.9016574585635","7.89429097605893","5.05193370165746","5.99447513812155","0","358.6875"
"1685.1875","-4.2390423572744","-29.9016574585635","7.89429097605893","-11.9480662983425","-6.00552486187845","0","358.6875"
"1688.125","-3.2390423572744","7.09834254143646","-2.10570902394107","-11.9480662983425","-6.00552486187845","0","358.6875"
"1691.0625","-3.2390423572744","7.09834254143646","-2.10570902394107","2.05193370165746","3.99447513812155","0","358.6875"
"1694","-4.2390423572744","34.0983425414365","-9.10570902394107","2.05193370165746","3.99447513812155","0","358.6875"
"1700","-4.2390423572744","34.0983425414365","-9.10570902394107","16.0519337016575","-5.00552486187845","0","358.6875"
"1700","-10.2390423572744","-24.9016574585635","-0.105709023941067","16.0519337016575","-5.00552486187845","0","358.6875"
"1703.5","-10.2390423572744","-24.9016574585635","-0.105709023941067","-9.94806629834254","-4.00552486187845","0","358.6875"
"1707","-4.2390423572744","0.0983425414364643","-11.1057090239411","-9.94806629834254","-4.00552486187845","0","358.6875"
"1710.5","-4.2390423572744","0.0983425414364643","-11.1057090239411","-4.94806629834254","0.994475138121547","0","358.6875"
"1714","17.7609576427256","16.0983425414365","4.89429097605893","-4.94806629834254","0.994475138121547","0","358.6875"
"1717.5","17.7609576427256","16.0983425414365","4.89429097605893","10.0519337016575","-5.00552486187845","0","358.6875"
"1721","-2.2390423572744","-0.901657458563536","4.89429097605893","10.0519337016575","-5.00552486187845","0","358.6875"
"1724.5","-2.2390423572744","-0.901657458563536","4.89429097605893","1.05193370165746","-0.00552486187845304","0","358.6875"
"1728","1.7609576427256","-7.90165745856354","-6.10570902394107","1.05193370165746","-0.00552486187845304","0","358.6875"
"1731.5","1.7609576427256","-7.90165745856354","-6.10570902394107","-7.94806629834254","-1.00552486187845","0","358.6875"
"1735","3.7609576427256","-6.90165745856354","3.89429097605893","-7.94806629834254","-1.00552486187845","0","358.6875"
"1738.5","3.7609576427256","-6.90165745856354","3.89429097605893","-3.94806629834254","-0.00552486187845304","0","358.6875"
"1742","0.760957642725599","11.0983425414365","0.894290976058933","-3.94806629834254","-0.00552486187845304","0","358.6875"
"1745.5","0.760957642725599","11.0983425414365","0.894290976058933","0.0519337016574586","-2.00552486187845","0","358.6875"
"1749","1.7609576427256","-3.90165745856354","-0.105709023941067","0.0519337016574586","-2.00552486187845","0","358.6875"
"1752.5","1.7609576427256","-3.90165745856354","-0.105709023941067","3.05193370165746","-0.00552486187845304","0","358.6875"
"1756","-5.2390423572744","-12.9016574585635","-0.105709023941067","3.05193370165746","-0.00552486187845304","0","358.6875"
"1759.5","-5.2390423572744","-12.9016574585635","-0.105709023941067","-5.94806629834254","2.99447513812155","0","358.6875"
"1763","9.7609576427256","-3.90165745856354","4.89429097605893","-5.94806629834254","2.99447513812155","0","358.6875"
"1766.5","9.7609576427256","-3.90165745856354","4.89429097605893","1.05193370165746","-2.00552486187845","0","358.6875"
"1770","3.7609576427256","5.09834254143646","2.89429097605893","1.05193370165746","-2.00552486187845","0","358.6875"
"1773.5","3.7609576427256","5.09834254143646","2.89429097605893","2.05193370165746","-1.00552486187845","0","358.6875"
"1777","2.7609576427256","2.09834254143646","0.894290976058933","2.05193370165746","-1.00552486187845","0","358.6875"
"1780.5","2.7609576427256","2.09834254143646","0.894290976058933","0.0519337016574586","2.99447513812155","0","358.6875"
"1784","1.7609576427256","0.0983425414364643","-4.10570902394107","0.0519337016574586","2.99447513812155","0","358.6875"
"1787.5","1.7609576427256","0.0983425414364643","-4.10570902394107","-1.94806629834254","1.99447513812155","0","358.6875"
"1791","0.760957642725599","2.09834254143646","2.89429097605893","-1.94806629834254","1.99447513812155","0","358.6875"
"1794.5","0.760957642725599","2.09834254143646","2.89429097605893","-3.94806629834254","0.994475138121547","0","358.6875"
"1798","4.7609576427256","6.09834254143646","3.89429097605893","-3.94806629834254","0.994475138121547","0","358.6875"
"1802.9375","4.7609576427256","6.09834254143646","3.89429097605893","0.0519337016574586","0.994475138121547","0","358.6875"
"1805.875","2.7609576427256","4.09834254143646","-0.105709023941067","0.0519337016574586","0.994475138121547","0","358.6875"
"1808.8125","2.7609576427256","4.09834254143646","-0.105709023941067","4.05193370165746","-1.00552486187845","0","358.6875"
"1811.75","-3.2390423572744","1.09834254143646","-3.10570902394107","4.05193370165746","-1.00552486187845","0","358.6875"
"1814.6875","-3.2390423572744","1.09834254143646","-3.10570902394107","0.0519337016574586","2.99447513812155","0","358.6875"
"1817.625","1.7609576427256","-0.901657458563536","-1.10570902394107","0.0519337016574586","2.99447513812155","0","358.6875"
"1820.5625","1.7609576427256","-0.901657458563536","-1.10570902394107","-3.94806629834254","-0.00552486187845304","0","358.6875"
"1823.5","-1.2390423572744","0.0983425414364643","-0.105709023941067","-3.94806629834254","-0.00552486187845304","0","358.6875"
"1826.4375","-1.2390423572744","0.0983425414364643","-0.105709023941067","1.05193370165746","1.99447513812155","0","358.6875"
"1829.375","-2.2390423572744","-1.90165745856354","1.89429097605893","1.05193370165746","1.99447513812155","0","358.6875"
"1832.3125","-2.2390423572744","-1.90165745856354","1.89429097605893","0.0519337016574586","0.994475138121547","0","358.6875"
"1835.25","1.7609576427256","-2.90165745856354","0.894290976058933","0.0519337016574586","0.994475138121547","0","358.6875"
"1838.1875","1.7609576427256","-2.90165745856354","0.894290976058933","1.05193370165746","-1.00552486187845","0","358.6875"
"1841.125","1.7609576427256","-1.90165745856354","-0.105709023941067","1.05193370165746","-1.00552486187845","0","358.6875"
"1844.0625","1.7609576427256","-1.90165745856354","-0.105709023941067","0.0519337016574586","1.99447513812155","0","358.6875"
"1847","-0.239042357274401","-2.90165745856354","-0.105709023941067","0.0519337016574586","1.99447513812155","0","358.6875"
"1849.9375","-0.239042357274401","-2.90165745856354","-0.105709023941067","0.0519337016574586","1.99447513812155","0","358.6875"
"1852.875","-3.2390423572744","-1.90165745856354","3.89429097605893","0.0519337016574586","1.99447513812155","0","358.6875"
"1855.8125","-3.2390423572744","-1.90165745856354","3.89429097605893","1.05193370165746","3.99447513812155","0","358.6875"
"1858.75","-2.2390423572744","1.09834254143646","-0.105709023941067","1.05193370165746","3.99447513812155","0","358.6875"
"1861.6875","-2.2390423572744","1.09834254143646","-0.105709023941067","4.05193370165746","1.99447513812155","0","358.6875"
"1864.625","-0.239042357274401","1.09834254143646","-1.10570902394107","4.05193370165746","1.99447513812155","0","358.6875"
"1867.5625","-0.239042357274401","1.09834254143646","-1.10570902394107","0.0519337016574586","1.99447513812155","0","358.6875"
"1870.5","1.7609576427256","1.09834254143646","-1.10570902394107","0.0519337016574586","1.99447513812155","0","358.6875"
"1873.4375","1.7609576427256","1.09834254143646","-1.10570902394107","0.0519337016574586","2.99447513812155","0","358.6875"
"1876.375","0.760957642725599","3.09834254143646","1.89429097605893","0.0519337016574586","2.99447513812155","0","358.6875"
"1879.3125","0.760957642725599","3.09834254143646","1.89429097605893","2.05193370165746","0.994475138121547","0","358.6875"
"1882.25","0.760957642725599","4.09834254143646","-2.10570902394107","2.05193370165746","0.994475138121547","0","358.6875"
"1885.1875","0.760957642725599","4.09834254143646","-2.10570902394107","1.05193370165746","2.99447513812155","0","358.6875"
"1888.125","-0.239042357274401","6.09834254143646","0.894290976058933","1.05193370165746","2.99447513812155","0","358.6875"
"1891.0625","-0.239042357274401","6.09834254143646","0.894290976058933","1.05193370165746","1.99447513812155","0","358.6875"
"1894","-0.239042357274401","3.09834254143646","-0.105709023941067","1.05193370165746","1.99447513812155","0","358.6875"
"1900","-0.239042357274401","3.09834254143646","-0.105709023941067","2.05193370165746","0.994475138121547","0","358.6875"
"1900","0.760957642725599","4.09834254143646","-2.10570902394107","2.05193370165746","0.994475138121547","0","358.6875"
"1903.3","0.760957642725599","4.09834254143646","-2.10570902394107","-1.94806629834254","0.994475138121547","0","358.6875"
"1906.6","0.760957642725599","4.09834254143646","-0.105709023941067","-1.94806629834254","0.994475138121547","0","358.6875"
"1909.9","0.760957642725599","4.09834254143646","-0.105709023941067","2.05193370165746","1.99447513812155","0","358.6875"
"1913.2","0.760957642725599","1.09834254143646","-0.105709023941067","2.05193370165746","1.99447513812155","0","358.6875"
"1916.5","0.760957642725599","1.09834254143646","-0.105709023941067","-3.94806629834254","0.994475138121547","0","358.6875"
"1919.8","0.760957642725599","0.0983425414364643","-0.105709023941067","-3.94806629834254","0.994475138121547","0","358.6875"
"1923.1","0.760957642725599","0.0983425414364643","-0.105709023941067","-2.94806629834254","0.994475138121547","0","358.6875"
"1926.4","0.760957642725599","4.09834254143646","-0.105709023941067","-2.94806629834254","0.994475138121547","0","358.6875"
"1929.7","0.760957642725599","4.09834254143646","-0.105709023941067","1.05193370165746","-2.00552486187845","0","358.6875"
"1933","-0.239042357274401","1.09834254143646","-2.10570902394107","1.05193370165746","-2.00552486187845","0","358.6875"
"1936.3","-0.239042357274401","1.09834254143646","-2.10570902394107","-0.948066298342541","-0.00552486187845304","0","358.6875"
"1939.6","1.7609576427256","-3.90165745856354","1.89429097605893","-0.948066298342541","-0.00552486187845304","0","358.6875"
"1942.9","1.7609576427256","-3.90165745856354","1.89429097605893","-2.94806629834254","1.99447513812155","0","358.6875"
"1946.2","-0.239042357274401","-0.901657458563536","-0.105709023941067","-2.94806629834254","1.99447513812155","0","358.6875"
"1949.5","-0.239042357274401","-0.901657458563536","-0.105709023941067","-0.948066298342541","0.994475138121547","0","358.6875"
"1952.8","-0.239042357274401","1.09834254143646","-0.105709023941067","-0.948066298342541","0.994475138121547","0","358.6875"
"1956.1","-0.239042357274401","1.09834254143646","-0.105709023941067","-2.94806629834254","0.994475138121547","0","358.6875"
"1959.4","-0.239042357274401","-2.90165745856354","-1.10570902394107","-2.94806629834254","0.994475138121547","0","358.6875"
"1962.7","-0.239042357274401","-2.90165745856354","-1.10570902394107","2.05193370165746","-0.00552486187845304","0","358.6875"
"1966","1.7609576427256","-2.90165745856354","1.89429097605893","2.05193370165746","-0.00552486187845304","0","358.6875"
"1969.3","1.7609576427256","-2.90165745856354","1.89429097605893","1.05193370165746","-2.00552486187845","0","358.6875"
"1972.6","1.7609576427256","2.09834254143646","-0.105709023941067","1.05193370165746","-2.00552486187845","0","358.6875"
"1975.9","1.7609576427256","2.09834254143646","-0.105709023941067","-0.948066298342541","1.99447513812155","0","358.6875"
"1979.2","0.760957642725599","4.09834254143646","-1.10570902394107","-0.948066298342541","1.99447513812155","0","358.6875"
"1982.5","0.760957642725599","4.09834254143646","-1.10570902394107","0.0519337016574586","-0.00552486187845304","0","358.6875"
"1985.8","0.760957642725599","1.09834254143646","1.89429097605893","0.0519337016574586","-0.00552486187845304","0","358.6875"
"1989.1","0.760957642725599","1.09834254143646","1.89429097605893","-1.94806629834254","0.994475138121547","0","358.6875"
"1992.4","1.7609576427256","-2.90165745856354","0.894290976058933","-1.94806629834254","0.994475138121547","0","358.6875"
"1995.7","1.7609576427256","-2.90165745856354","0.894290976058933","-2.94806629834254","2.99447513812155","0","358.6875"
"1999","-0.239042357274401","1.09834254143646","-1.10570902394107","-2.94806629834254","2.99447513812155","0","358.6875"
"2003.09375","-0.239042357274401","1.09834254143646","-1.10570902394107","0.0519337016574586","3.99447513812155","0","358.6875"
"2006.1875","1.7609576427256","5.09834254143646","-1.10570902394107","0.0519337016574586","3.99447513812155","0","358.6875"
"2009.28125","1.7609576427256","5.09834254143646","-1.10570902394107","-1.94806629834254","1.99447513812155","0","358.6875"
"2012.375","1.7609576427256","-0.901657458563536","1.89429097605893","-1.94806629834254","1.99447513812155","0","358.6875"
"2015.46875","1.7609576427256","-0.901657458563536","1.89429097605893","-0.948066298342541","0.994475138121547","0","358.6875"
"2018.5625","0.760957642725599","-0.901657458563536","1.89429097605893","-0.948066298342541","0.994475138121547","0","358.6875"
"2021.65625","0.760957642725599","-0.901657458563536","1.89429097605893","-1.94806629834254","1.99447513812155","0","358.6875"
"2024.75","-1.2390423572744","0.0983425414364643","-0.105709023941067","-1.94806629834254","1.99447513812155","0","358.6875"
"2027.84375","-1.2390423572744","0.0983425414364643","-0.105709023941067","1.05193370165746","0.994475138121547","0","358.6875"
"2030.9375","1.7609576427256","-1.90165745856354","0.894290976058933","1.05193370165746","0.994475138121547","0","358.6875"
"2034.03125","1.7609576427256","-1.90165745856354","0.894290976058933","-0.948066298342541","-0.00552486187845304","0","358.6875"
"2037.125","1.7609576427256","-3.90165745856354","-0.105709023941067","-0.948066298342541","-0.00552486187845304","0","358.6875"
"2040.21875","1.7609576427256","-3.90165745856354","-0.105709023941067","-0.948066298342541","1.99447513812155","0","358.6875"
"2043.3125","0.760957642725599","3.09834254143646","-0.105709023941067","-0.948066298342541","1.99447513812155","0","358.6875"
"2046.40625","0.760957642725599","3.09834254143646","-0.105709023941067","3.05193370165746","3.99447513812155","0","358.6875"
"2049.5","-0.239042357274401","1.09834254143646","0.894290976058933","3.05193370165746","3.99447513812155","0","358.6875"
"2052.59375","-0.239042357274401","1.09834254143646","0.894290976058933","4.05193370165746","0.994475138121547","0","358.6875"
"2055.6875","-0.239042357274401","-3.90165745856354","-1.10570902394107","4.05193370165746","0.994475138121547","0","358.6875"
"2058.78125","-0.239042357274401","-3.90165745856354","-1.10570902394107","0.0519337016574586","2.99447513812155","0","358.6875"
"2061.875","-3.2390423572744","1.09834254143646","-2.10570902394107","0.0519337016574586","2.99447513812155","0","358.6875"
"2064.96875","-3.2390423572744","1.09834254143646","-2.10570902394107","-1.94806629834254","2.99447513812155","0","358.6875"
"2068.0625","-0.239042357274401","7.09834254143646","-0.105709023941067","-1.94806629834254","2.99447513812155","0","358.6875"
"2071.15625","-0.239042357274401","7.09834254143646","-0.105709023941067","1.05193370165746","0.994475138121547","0","358.6875"
"2074.25","-0.239042357274401","-1.90165745856354","1.89429097605893","1.05193370165746","0.994475138121547","0","358.6875"
"2077.34375","-0.239042357274401","-1.90165745856354","1.89429097605893","-1.94806629834254","0.994475138121547","0","358.6875"
"2080.4375","-0.239042357274401","-1.90165745856354","1.89429097605893","-1.94806629834254","0.994475138121547","0","358.6875"
"2083.53125","-0.239042357274401","-1.90165745856354","1.89429097605893","-4.94806629834254","2.99447513812155","0","358.6875"
"2086.625","1.7609576427256","2.09834254143646","-1.10570902394107","-4.94806629834254","2.99447513812155","0","358.6875"
"2089.71875","1.7609576427256","2.09834254143646","-1.10570902394107","0.0519337016574586","0.994475138121547","0","358.6875"
"2092.8125","0.760957642725599","-0.901657458563536","0.894290976058933","0.0519337016574586","0.994475138121547","0","358.6875"
"2095.90625","0.760957642725599","-0.901657458563536","0.894290976058933","0.0519337016574586","-0.00552486187845304","0","358.6875"
"2099","0.760957642725599","-2.90165745856354","1.89429097605893","0.0519337016574586","-0.00552486187845304","0","358.6875"
"2103.35714","0.760957642725599","-2.90165745856354","1.89429097605893","-3.94806629834254","2.99447513812155","0","358.6875"
"2106.71429","0.760957642725599","-1.90165745856354","-0.105709023941067","-3.94806629834254","2.99447513812155","0","358.6875"
"2110.07143","0.760957642725599","-1.90165745856354","-0.105709023941067","3.05193370165746","-0.00552486187845304","0","358.6875"
"2113.42857","-0.239042357274401","-0.901657458563536","-0.105709023941067","3.05193370165746","-0.00552486187845304","0","358.6875"
"2116.78571","-0.239042357274401","-0.901657458563536","-0.105709023941067","1.05193370165746","1.99447513812155","0","358.6875"
"2120.14286","-1.2390423572744","0.0983425414364643","-0.105709023941067","1.05193370165746","1.99447513812155","0","358.6875"
"2123.5","-1.2390423572744","0.0983425414364643","-0.105709023941067","-1.94806629834254","0.994475138121547","0","358.6875"
"2126.85714","0.760957642725599","1.09834254143646","-2.10570902394107","-1.94806629834254","0.994475138121547","0","358.6875"
"2130.21429","0.760957642725599","1.09834254143646","-2.10570902394107","2.05193370165746","-1.00552486187845","0","358.6875"
"2133.57143","1.7609576427256","1.09834254143646","-0.105709023941067","2.05193370165746","-1.00552486187845","0","358.6875"
"2136.92857","1.7609576427256","1.09834254143646","-0.105709023941067","0.0519337016574586","1.99447513812155","0","358.6875"
"2140.28571","1.7609576427256","0.0983425414364643","-2.10570902394107","0.0519337016574586","1.99447513812155","0","358.6875"
"2143.64286","1.7609576427256","0.0983425414364643","-2.10570902394107","-0.948066298342541","1.99447513812155","0","358.6875"
"2147","0.760957642725599","1.09834254143646","0.894290976058933","-0.948066298342541","1.99447513812155","0","358.6875"
"2150.35714","0.760957642725599","1.09834254143646","0.894290976058933","0.0519337016574586","1.99447513812155","0","358.6875"
"2153.71429","1.7609576427256","3.09834254143646","2.89429097605893","0.0519337016574586","1.99447513812155","0","358.6875"
"2157.07143","1.7609576427256","3.09834254143646","2.89429097605893","0.0519337016574586","0.994475138121547","0","358.6875"
"2160.42857","-0.239042357274401","2.09834254143646","-2.10570902394107","0.0519337016574586","0.994475138121547","0","358.6875"
"2163.78571","-0.239042357274401","2.09834254143646","-2.10570902394107","2.05193370165746","1.99447513812155","0","358.6875"
"2167.14286","0.760957642725599","3.09834254143646","-0.105709023941067","2.05193370165746","1.99447513812155","0","358.6875"
"2170.5","0.760957642725599","3.09834254143646","-0.105709023941067","-0.948066298342541","2.99447513812155","0","358.6875"
"2173.85714","1.7609576427256","3.09834254143646","0.894290976058933","-0.948066298342541","2.99447513812155","0","358.6875"
"2177.21429","1.7609576427256","3.09834254143646","0.894290976058933","1.05193370165746","0.994475138121547","0","358.6875"
"2180.57143","1.7609576427256","0.0983425414364643","2.89429097605893","1.05193370165746","0.994475138121547","0","358.6875"
"2183.92857","1.7609576427256","0.0983425414364643","2.89429097605893","0.0519337016574586","1.99447513812155","0","358.6875"
"2187.28571","-1.2390423572744","0.0983425414364643","0.894290976058933","0.0519337016574586","1.99447513812155","0","358.6875"
"2190.64286","-1.2390423572744","0.0983425414364643","0.894290976058933","0.0519337016574586","-3.00552486187845","0","358.6875"
"2194","-1.2390423572744","2.09834254143646","-2.10570902394107","0.0519337016574586","-3.00552486187845","0","358.6875"
"2200","-1.2390423572744","2.09834254143646","-2.10570902394107","1.05193370165746","-1.00552486187845","0","358.6875"
"2200","-1.2390423572744","1.09834254143646","-3.10570902394107","1.05193370165746","-1.00552486187845","0","358.6875"
"2203.09375","-1.2390423572744","1.09834254143646","-3.10570902394107","1.05193370165746","-0.00552486187845304","0","358.6875"
"2206.1875","1.7609576427256","-0.901657458563536","1.89429097605893","1.05193370165746","-0.00552486187845304","0","358.6875"
"2209.28125","1.7609576427256","-0.901657458563536","1.89429097605893","-2.94806629834254","-4.00552486187845","0","358.6875"
"2212.375","1.7609576427256","-0.901657458563536","1.89429097605893","-2.94806629834254","-4.00552486187845","0","358.6875"
"2215.46875","1.7609576427256","-0.901657458563536","1.89429097605893","-1.94806629834254","-1.00552486187845","0","358.6875"
"2218.5625","0.760957642725599","1.09834254143646","1.89429097605893","-1.94806629834254","-1.00552486187845","0","358.6875"
"2221.65625","0.760957642725599","1.09834254143646","1.89429097605893","-0.948066298342541","-1.00552486187845","0","358.6875"
"2224.75","0.760957642725599","-1.90165745856354","0.894290976058933","-0.948066298342541","-1.00552486187845","0","358.6875"
"2227.84375","0.760957642725599","-1.90165745856354","0.894290976058933","0.0519337016574586","-1.00552486187845","0","358.6875"
"2230.9375","0.760957642725599","1.09834254143646","-2.10570902394107","0.0519337016574586","-1.00552486187845","0","358.6875"
"2234.03125","0.760957642725599","1.09834254143646","-2.10570902394107","-0.948066298342541","-1.00552486187845","0","358.6875"
"2237.125","1.7609576427256","3.09834254143646","-0.105709023941067","-0.948066298342541","-1.00552486187845","0","358.6875"
"2240.21875","1.7609576427256","3.09834254143646","-0.105709023941067","3.05193370165746","-2.00552486187845","0","358.6875"
"2243.3125","0.760957642725599","1.09834254143646","-0.105709023941067","3.05193370165746","-2.00552486187845","0","358.6875"
"2246.40625","0.760957642725599","1.09834254143646","-0.105709023941067","4.05193370165746","-0.00552486187845304","0","358.6875"
"2249.5","0.760957642725599","0.0983425414364643","0.894290976058933","4.05193370165746","-0.00552486187845304","0","358.6875"
"2252.59375","0.760957642725599","0.0983425414364643","0.894290976058933","-0.948066298342541","-0.00552486187845304","0","358.6875"
"2255.6875","-1.2390423572744","2.09834254143646","-1.10570902394107","-0.948066298342541","-0.00552486187845304","0","358.6875"
"2258.78125","-1.2390423572744","2.09834254143646","-1.10570902394107","-3.94806629834254","-0.00552486187845304","0","358.6875"
"2261.875","1.7609576427256","4.09834254143646","-1.10570902394107","-3.94806629834254","-0.00552486187845304","0","358.6875"
"2264.96875","1.7609576427256","4.09834254143646","-1.10570902394107","0.0519337016574586","0.994475138121547","0","358.6875"
"2268.0625","-0.239042357274401","1.09834254143646","-0.105709023941067","0.0519337016574586","0.994475138121547","0","358.6875"
"2271.15625","-0.239042357274401","1.09834254143646","-0.105709023941067","0.0519337016574586","-3.00552486187845","0","358.6875"
"2274.25","-0.239042357274401","1.09834254143646","-0.105709023941067","0.0519337016574586","-3.00552486187845","0","358.6875"
"2277.34375","-0.239042357274401","1.09834254143646","-0.105709023941067","1.05193370165746","0.994475138121547","0","358.6875"
"2280.4375","-0.239042357274401","2.09834254143646","-1.10570902394107","1.05193370165746","0.994475138121547","0","358.6875"
"2283.53125","-0.239042357274401","2.09834254143646","-1.10570902394107","-2.94806629834254","-0.00552486187845304","0","358.6875"
"2286.625","0.760957642725599","1.09834254143646","-2.10570902394107","-2.94806629834254","-0.00552486187845304","0","358.6875"
"2289.71875","0.760957642725599","1.09834254143646","-2.10570902394107","-1.94806629834254","0.994475138121547","0","358.6875"
"2292.8125","1.7609576427256","1.09834254143646","-0.105709023941067","-1.94806629834254","0.994475138121547","0","358.6875"
"2295.90625","1.7609576427256","1.09834254143646","-0.105709023941067","1.05193370165746","-1.00552486187845","0","358.6875"
"2299","-0.239042357274401","-0.901657458563536","0.894290976058933","1.05193370165746","-1.00552486187845","0","358.6875"
"2303.23333","-0.239042357274401","-0.901657458563536","0.894290976058933","2.05193370165746","-4.00552486187845","0","358.6875"
"2306.46667","0.760957642725599","1.09834254143646","-0.105709023941067","2.05193370165746","-4.00552486187845","0","358.6875"
"2309.7","0.760957642725599","1.09834254143646","-0.105709023941067","2.05193370165746","-3.00552486187845","0","358.6875"
"2312.93333","0.760957642725599","0.0983425414364643","-2.10570902394107","2.05193370165746","-3.00552486187845","0","358.6875"
"2316.16667","0.760957642725599","0.0983425414364643","-2.10570902394107","2.05193370165746","-1.00552486187845","0","358.6875"
"2319.4","1.7609576427256","-1.90165745856354","0.894290976058933","2.05193370165746","-1.00552486187845","0","358.6875"
"2322.63333","1.7609576427256","-1.90165745856354","0.894290976058933","0.0519337016574586","-0.00552486187845304","0","358.6875"
"2325.86667","0.760957642725599","2.09834254143646","-3.10570902394107","0.0519337016574586","-0.00552486187845304","0","358.6875"
"2329.1","0.760957642725599","2.09834254143646","-3.10570902394107","2.05193370165746","0.994475138121547","0","358.6875"
"2332.33333","-0.239042357274401","2.09834254143646","-3.10570902394107","2.05193370165746","0.994475138121547","0","358.6875"
"2335.56667","-0.239042357274401","2.09834254143646","-3.10570902394107","0.0519337016574586","-2.00552486187845","0","358.6875"
"2338.8","-1.2390423572744","0.0983425414364643","-0.105709023941067","0.0519337016574586","-2.00552486187845","0","358.6875"
"2342.03333","-1.2390423572744","0.0983425414364643","-0.105709023941067","1.05193370165746","-1.00552486187845","0","358.6875"
"2345.26667","0.760957642725599","1.09834254143646","0.894290976058933","1.05193370165746","-1.00552486187845","0","358.6875"
"2348.5","0.760957642725599","1.09834254143646","0.894290976058933","1.05193370165746","-3.00552486187845","0","358.6875"
"2351.73333","1.7609576427256","2.09834254143646","0.894290976058933","1.05193370165746","-3.00552486187845","0","358.6875"
"2354.96667","1.7609576427256","2.09834254143646","0.894290976058933","3.05193370165746","0.994475138121547","0","358.6875"
"2358.2","0.760957642725599","1.09834254143646","-0.105709023941067","3.05193370165746","0.994475138121547","0","358.6875"
"2361.43333","0.760957642725599","1.09834254143646","-0.105709023941067","-0.948066298342541","1.99447513812155","0","358.6875"
"2364.66667","0.760957642725599","0.0983425414364643","1.89429097605893","-0.948066298342541","1.99447513812155","0","358.6875"
"2367.9","0.760957642725599","0.0983425414364643","1.89429097605893","-1.94806629834254","-0.00552486187845304","0","358.6875"
"2371.13333","1.7609576427256","-0.901657458563536","-0.105709023941067","-1.94806629834254","-0.00552486187845304","0","358.6875"
"2374.36667","1.7609576427256","-0.901657458563536","-0.105709023941067","-3.94806629834254","1.99447513812155","0","358.6875"
"2377.6","1.7609576427256","1.09834254143646","0.894290976058933","-3.94806629834254","1.99447513812155","0","358.6875"
"2380.83333","1.7609576427256","1.09834254143646","0.894290976058933","1.05193370165746","-0.00552486187845304","0","358.6875"
"2384.06667","-1.2390423572744","2.09834254143646","-2.10570902394107","1.05193370165746","-0.00552486187845304","0","358.6875"
"2387.3","-1.2390423572744","2.09834254143646","-2.10570902394107","0.0519337016574586","-1.00552486187845","0","358.6875"
"2390.53333","0.760957642725599","0.0983425414364643","0.894290976058933","0.0519337016574586","-1.00552486187845","0","358.6875"
"2393.76667","0.760957642725599","0.0983425414364643","0.894290976058933","0.0519337016574586","-0.00552486187845304","0","358.6875"
"2397","-1.2390423572744","1.09834254143646","0.894290976058933","0.0519337016574586","-0.00552486187845304","0","358.6875"
"2403.16667","-1.2390423572744","1.09834254143646","0.894290976058933","1.05193370165746","-1.00552486187845","0","358.6875"
"2406.33333","0.760957642725599","1.09834254143646","0.894290976058933","1.05193370165746","-1.00552486187845","0","358.6875"
"2409.5","0.760957642725599","1.09834254143646","0.894290976058933","-1.94806629834254","-0.00552486187845304","0","358.6875"
"2412.66667","-0.239042357274401","-0.901657458563536","1.89429097605893","-1.94806629834254","-0.00552486187845304","0","358.6875"
"2415.83333","-0.239042357274401","-0.901657458563536","1.89429097605893","2.05193370165746","-1.00552486187845","0","358.6875"
"2419","0.760957642725599","0.0983425414364643","-0.105709023941067","2.05193370165746","-1.00552486187845","0","358.6875"
"2422.16667","0.760957642725599","0.0983425414364643","-0.105709023941067","2.05193370165746","-0.00552486187845304","0","358.6875"
"2425.33333","1.7609576427256","2.09834254143646","0.894290976058933","2.05193370165746","-0.00552486187845304","0","358.6875"
"2428.5","1.7609576427256","2.09834254143646","0.894290976058933","-0.948066298342541","-1.00552486187845","0","358.6875"
"2431.66667","1.7609576427256","2.09834254143646","2.89429097605893","-0.948066298342541","-1.00552486187845","0","358.6875"
"2434.83333","1.7609576427256","2.09834254143646","2.89429097605893","1.05193370165746","-1.00552486187845","0","358.6875"
"2438","-1.2390423572744","-1.90165745856354","1.89429097605893","1.05193370165746","-1.00552486187845","0","358.6875"
"2441.16667","-1.2390423572744","-1.90165745856354","1.89429097605893","-1.94806629834254","-2.00552486187845","0","358.6875"
"2444.33333","0.760957642725599","1.09834254143646","-0.105709023941067","-1.94806629834254","-2.00552486187845","0","358.6875"
"2447.5","0.760957642725599","1.09834254143646","-0.105709023941067","-1.94806629834254","-4.00552486187845","0","358.6875"
"2450.66667","1.7609576427256","2.09834254143646","-0.105709023941067","-1.94806629834254","-4.00552486187845","0","358.6875"
"2453.83333","1.7609576427256","2.09834254143646","-0.105709023941067","3.05193370165746","-2.00552486187845","0","358.6875"
"2457","1.7609576427256","2.09834254143646","-0.105709023941067","3.05193370165746","-2.00552486187845","0","358.6875"
"2460.16667","1.7609576427256","2.09834254143646","-0.105709023941067","3.05193370165746","-0.00552486187845304","0","358.6875"
"2463.33333","-0.239042357274401","-0.901657458563536","0.894290976058933","3.05193370165746","-0.00552486187845304","0","358.6875"
"2466.5","-0.239042357274401","-0.901657458563536","0.894290976058933","-0.948066298342541","-2.00552486187845","0","358.6875"
"2469.66667","-1.2390423572744","1.09834254143646","2.89429097605893","-0.948066298342541","-2.00552486187845","0","358.6875"
"2472.83333","-1.2390423572744","1.09834254143646","2.89429097605893","1.05193370165746","-4.00552486187845","0","358.6875"
"2476","2.7609576427256","2.09834254143646","1.89429097605893","1.05193370165746","-4.00552486187845","0","358.6875"
"2479.16667","2.7609576427256","2.09834254143646","1.89429097605893","2.05193370165746","-0.00552486187845304","0","358.6875"
"2482.33333","0.760957642725599","-1.90165745856354","-0.105709023941067","2.05193370165746","-0.00552486187845304","0","358.6875"
"2485.5","0.760957642725599","-1.90165745856354","-0.105709023941067","1.05193370165746","0.994475138121547","0","358.6875"
"2488.66667","-0.239042357274401","2.09834254143646","1.89429097605893","1.05193370165746","0.994475138121547","0","358.6875"
"2491.83333","-0.239042357274401","2.09834254143646","1.89429097605893","-0.948066298342541","-0.00552486187845304","0","358.6875"
"2495","1.7609576427256","-1.90165745856354","0.894290976058933","-0.948066298342541","-0.00552486187845304","0","358.6875"
"2503.1","1.7609576427256","-1.90165745856354","0.894290976058933","2.05193370165746","-1.00552486187845","0","358.6875"
"2506.2","1.7609576427256","1.09834254143646","1.89429097605893","2.05193370165746","-1.00552486187845","0","358.6875"
"2509.3","1.7609576427256","1.09834254143646","1.89429097605893","-0.948066298342541","0.994475138121547","0","358.6875"
"2512.4","1.7609576427256","0.0983425414364643","-0.105709023941067","-0.948066298342541","0.994475138121547","0","358.6875"
"2515.5","1.7609576427256","0.0983425414364643","-0.105709023941067","2.05193370165746","1.99447513812155","0","358.6875"
"2518.6","0.760957642725599","1.09834254143646","-2.10570902394107","2.05193370165746","1.99447513812155","0","358.6875"
"2521.7","0.760957642725599","1.09834254143646","-2.10570902394107","-1.94806629834254","1.99447513812155","0","358.6875"
"2524.8","-0.239042357274401","0.0983425414364643","-0.105709023941067","-1.94806629834254","1.99447513812155","0","358.6875"
"2527.9","-0.239042357274401","0.0983425414364643","-0.105709023941067","-0.948066298342541","0.994475138121547","0","358.6875"
"2531","-1.2390423572744","1.09834254143646","-0.105709023941067","-0.948066298342541","0.994475138121547","0","358.6875"
"2534.1","-1.2390423572744","1.09834254143646","-0.105709023941067","3.05193370165746","-2.00552486187845","0","358.6875"
"2537.2","-0.239042357274401","0.0983425414364643","-0.105709023941067","3.05193370165746","-2.00552486187845","0","358.6875"
"2540.3","-0.239042357274401","0.0983425414364643","-0.105709023941067","0.0519337016574586","1.99447513812155","0","358.6875"
"2543.4","0.760957642725599","0.0983425414364643","1.89429097605893","0.0519337016574586","1.99447513812155","0","358.6875"
"2546.5","0.760957642725599","0.0983425414364643","1.89429097605893","-1.94806629834254","-0.00552486187845304","0","358.6875"
"2549.6","0.760957642725599","1.09834254143646","-0.105709023941067","-1.94806629834254","-0.00552486187845304","0","358.6875"
"2552.7","0.760957642725599","1.09834254143646","-0.105709023941067","1.05193370165746","-2.00552486187845","0","358.6875"
"2555.8","0.760957642725599","-1.90165745856354","-1.10570902394107","1.05193370165746","-2.00552486187845","0","358.6875"
"2558.9","0.760957642725599","-1.90165745856354","-1.10570902394107","0.0519337016574586","-0.00552486187845304","0","358.6875"
"2562","0.760957642725599","-0.901657458563536","4.89429097605893","0.0519337016574586","-0.00552486187845304","0","358.6875"
"2565.1","0.760957642725599","-0.901657458563536","4.89429097605893","-0.948066298342541","-1.00552486187845","0","358.6875"
"2568.2","-0.239042357274401","3.09834254143646","1.89429097605893","-0.948066298342541","-1.00552486187845","0","358.6875"
"2571.3","-0.239042357274401","3.09834254143646","1.89429097605893","2.05193370165746","0.994475138121547","0","358.6875"
"2574.4","0.760957642725599","-0.901657458563536","-2.10570902394107","2.05193370165746","0.994475138121547","0","358.6875"
"2577.5","0.760957642725599","-0.901657458563536","-2.10570902394107","0.0519337016574586","0.994475138121547","0","358.6875"
"2580.6","0.760957642725599","-1.90165745856354","-0.105709023941067","0.0519337016574586","0.994475138121547","0","358.6875"
"2583.7","0.760957642725599","-1.90165745856354","-0.105709023941067","-0.948066298342541","1.99447513812155","0","358.6875"
"2586.8","0.760957642725599","1.09834254143646","-0.105709023941067","-0.948066298342541","1.99447513812155","0","358.6875"
"2589.9","0.760957642725599","1.09834254143646","-0.105709023941067","-4.94806629834254","-0.00552486187845304","0","358.6875"
"2593","0.760957642725599","2.09834254143646","0.894290976058933","-4.94806629834254","-0.00552486187845304","0","358.6875"
"2600","0.760957642725599","2.09834254143646","0.894290976058933","0.0519337016574586","-0.00552486187845304","0","358.6875"
"2603","-2.2390423572744","1.09834254143646","0.894290976058933","0.0519337016574586","-0.00552486187845304","0","358.6875"
"2606","-2.2390423572744","1.09834254143646","0.894290976058933","-0.948066298342541","0.994475138121547","0","358.6875"
"2609","1.7609576427256","1.09834254143646","-0.105709023941067","-0.948066298342541","0.994475138121547","0","358.6875"
"2612","1.7609576427256","1.09834254143646","-0.105709023941067","-2.94806629834254","0.994475138121547","0","358.6875"
"2615","1.7609576427256","0.0983425414364643","-1.10570902394107","-2.94806629834254","0.994475138121547","0","358.6875"
"2618","1.7609576427256","0.0983425414364643","-1.10570902394107","0.0519337016574586","-1.00552486187845","0","358.6875"
"2621","0.760957642725599","2.09834254143646","0.894290976058933","0.0519337016574586","-1.00552486187845","0","358.6875"
"2624","0.760957642725599","2.09834254143646","0.894290976058933","0.0519337016574586","-1.00552486187845","0","358.6875"
"2627","0.760957642725599","3.09834254143646","0.894290976058933","0.0519337016574586","-1.00552486187845","0","358.6875"
"2630","0.760957642725599","3.09834254143646","0.894290976058933","2.05193370165746","-1.00552486187845","0","358.6875"
"2633","-0.239042357274401","0.0983425414364643","-0.105709023941067","2.05193370165746","-1.00552486187845","0","358.6875"
"2636","-0.239042357274401","0.0983425414364643","-0.105709023941067","-2.94806629834254","0.994475138121547","0","358.6875"
"2639","1.7609576427256","1.09834254143646","-1.10570902394107","-2.94806629834254","0.994475138121547","0","358.6875"
"2642","1.7609576427256","1.09834254143646","-1.10570902394107","0.0519337016574586","0.994475138121547","0","358.6875"
"2645","-2.2390423572744","4.09834254143646","-1.10570902394107","0.0519337016574586","0.994475138121547","0","358.6875"
"2648","-2.2390423572744","4.09834254143646","-1.10570902394107","1.05193370165746","-0.00552486187845304","0","358.6875"
"2651","-2.2390423572744","2.09834254143646","-0.105709023941067","1.05193370165746","-0.00552486187845304","0","358.6875"
"2654","-2.2390423572744","2.09834254143646","-0.105709023941067","-0.948066298342541","-2.00552486187845","0","358.6875"
"2657","0.760957642725599","1.09834254143646","-0.105709023941067","-0.948066298342541","-2.00552486187845","0","358.6875"
"2660","0.760957642725599","1.09834254143646","-0.105709023941067","-1.94806629834254","-2.00552486187845","0","358.6875"
"2663","1.7609576427256","1.09834254143646","-0.105709023941067","-1.94806629834254","-2.00552486187845","0","358.6875"
"2666","1.7609576427256","1.09834254143646","-0.105709023941067","1.05193370165746","-1.00552486187845","0","358.6875"
"2669","0.760957642725599","1.09834254143646","0.894290976058933","1.05193370165746","-1.00552486187845","0","358.6875"
"2672","0.760957642725599","1.09834254143646","0.894290976058933","-1.94806629834254","-0.00552486187845304","0","358.6875"
"2675","0.760957642725599","3.09834254143646","-1.10570902394107","-1.94806629834254","-0.00552486187845304","0","358.6875"
"2678","0.760957642725599","3.09834254143646","-1.10570902394107","1.05193370165746","0.994475138121547","0","358.6875"
"2681","1.7609576427256","-0.901657458563536","-0.105709023941067","1.05193370165746","0.994475138121547","0","358.6875"
"2684","1.7609576427256","-0.901657458563536","-0.105709023941067","0.0519337016574586","-0.00552486187845304","0","358.6875"
"2687","0.760957642725599","-0.901657458563536","-0.105709023941067","0.0519337016574586","-0.00552486187845304","0","358.6875"
"2690","0.760957642725599","-0.901657458563536","-0.105709023941067","0.0519337016574586","-1.00552486187845","0","358.6875"
"2693","1.7609576427256","1.09834254143646","0.894290976058933","0.0519337016574586","-1.00552486187845","0","358.6875"
"2696","1.7609576427256","1.09834254143646","0.894290976058933","-1.94806629834254","-0.00552486187845304","0","358.6875"
"2699","-2.2390423572744","1.09834254143646","-1.10570902394107","-1.94806629834254","-0.00552486187845304","0","358.6875"
"2703.28571","-2.2390423572744","1.09834254143646","-1.10570902394107","0.0519337016574586","-1.00552486187845","0","358.6875"
"2706.57143","0.760957642725599","-0.901657458563536","1.89429097605893","0.0519337016574586","-1.00552486187845","0","358.6875"
"2709.85714","0.760957642725599","-0.901657458563536","1.89429097605893","0.0519337016574586","-0.00552486187845304","0","358.6875"
"2713.14286","1.7609576427256","1.09834254143646","0.894290976058933","0.0519337016574586","-0.00552486187845304","0","358.6875"
"2716.42857","1.7609576427256","1.09834254143646","0.894290976058933","-1.94806629834254","-1.00552486187845","0","358.6875"
"2719.71429","0.760957642725599","1.09834254143646","0.894290976058933","-1.94806629834254","-1.00552486187845","0","358.6875"
"2723","0.760957642725599","1.09834254143646","0.894290976058933","1.05193370165746","-3.00552486187845","0","358.6875"
"2726.28571","-1.2390423572744","1.09834254143646","-0.105709023941067","1.05193370165746","-3.00552486187845","0","358.6875"
"2729.57143","-1.2390423572744","1.09834254143646","-0.105709023941067","2.05193370165746","0.994475138121547","0","358.6875"
"2732.85714","-0.239042357274401","-0.901657458563536","-0.105709023941067","2.05193370165746","0.994475138121547","0","358.6875"
"2736.14286","-0.239042357274401","-0.901657458563536","-0.105709023941067","1.05193370165746","-1.00552486187845","0","358.6875"
"2739.42857","0.760957642725599","0.0983425414364643","-5.10570902394107","1.05193370165746","-1.00552486187845","0","358.6875"
"2742.71429","0.760957642725599","0.0983425414364643","-5.10570902394107","-0.948066298342541","-0.00552486187845304","0","358.6875"
"2746","1.7609576427256","1.09834254143646","-0.105709023941067","-0.948066298342541","-0.00552486187845304","0","358.6875"
"2749.28571","1.7609576427256","1.09834254143646","-0.105709023941067","0.0519337016574586","-2.00552486187845","0","358.6875"
"2752.57143","1.7609576427256","1.09834254143646","1.89429097605893","0.0519337016574586","-2.00552486187845","0","358.6875"
"2755.85714","1.7609576427256","1.09834254143646","1.89429097605893","2.05193370165746","0.994475138121547","0","358.6875"
"2759.14286","-2.2390423572744","0.0983425414364643","-0.105709023941067","2.05193370165746","0.994475138121547","0","358.6875"
"2762.42857","-2.2390423572744","0.0983425414364643","-0.105709023941067","0.0519337016574586","0.994475138121547","0","358.6875"
"2765.71429","1.7609576427256","0.0983425414364643","2.89429097605893","0.0519337016574586","0.994475138121547","0","358.6875"
"2769","1.7609576427256","0.0983425414364643","2.89429097605893","-2.94806629834254","-1.00552486187845","0","358.6875"
"2772.28571","1.7609576427256","1.09834254143646","-0.105709023941067","-2.94806629834254","-1.00552486187845","0","358.6875"
"2775.57143","1.7609576427256","1.09834254143646","-0.105709023941067","1.05193370165746","-0.00552486187845304","0","358.6875"
"2778.85714","0.760957642725599","1.09834254143646","-0.105709023941067","1.05193370165746","-0.00552486187845304","0","358.6875"
"2782.14286","0.760957642725599","1.09834254143646","-0.105709023941067","1.05193370165746","1.99447513812155","0","358.6875"
"2785.42857","-0.239042357274401","1.09834254143646","-0.105709023941067","1.05193370165746","1.99447513812155","0","358.6875"
"2788.71429","-0.239042357274401","1.09834254143646","-0.105709023941067","1.05193370165746","1.99447513812155","0","358.6875"
"2792","0.760957642725599","1.09834254143646","-0.105709023941067","1.05193370165746","1.99447513812155","0","358.6875"
"2803.0625","0.760957642725599","1.09834254143646","-0.105709023941067","-0.948066298342541","-0.00552486187845304","0","358.6875"
"2806.125","1.7609576427256","1.09834254143646","0.894290976058933","-0.948066298342541","-0.00552486187845304","0","358.6875"
"2809.1875","1.7609576427256","1.09834254143646","0.894290976058933","-3.94806629834254","0.994475138121547","0","358.6875"
"2812.25","2.7609576427256","1.09834254143646","-2.10570902394107","-3.94806629834254","0.994475138121547","0","358.6875"
"2815.3125","2.7609576427256","1.09834254143646","-2.10570902394107","-0.948066298342541","-0.00552486187845304","0","358.6875"
"2818.375","1.7609576427256","1.09834254143646","0.894290976058933","-0.948066298342541","-0.00552486187845304","0","358.6875"
"2821.4375","1.7609576427256","1.09834254143646","0.894290976058933","1.05193370165746","-0.00552486187845304","0","358.6875"
"2824.5","0.760957642725599","2.09834254143646","-0.105709023941067","1.05193370165746","-0.00552486187845304","0","358.6875"
"2827.5625","0.760957642725599","2.09834254143646","-0.105709023941067","2.05193370165746","-2.00552486187845","0","358.6875"
"2830.625","1.7609576427256","-1.90165745856354","-0.105709023941067","2.05193370165746","-2.00552486187845","0","358.6875"
"2833.6875","1.7609576427256","-1.90165745856354","-0.105709023941067","-2.94806629834254","-1.00552486187845","0","358.6875"
"2836.75","4.7609576427256","-0.901657458563536","2.89429097605893","-2.94806629834254","-1.00552486187845","0","358.6875"
"2839.8125","4.7609576427256","-0.901657458563536","2.89429097605893","3.05193370165746","-1.00552486187845","0","358.6875"
"2842.875","1.7609576427256","2.09834254143646","-0.105709023941067","3.05193370165746","-1.00552486187845","0","358.6875"
"2845.9375","1.7609576427256","2.09834254143646","-0.105709023941067","1.05193370165746","-0.00552486187845304","0","358.6875"
"2849","1.7609576427256","0.0983425414364643","-0.105709023941067","1.05193370165746","-0.00552486187845304","0","358.6875"
"2852.0625","1.7609576427256","0.0983425414364643","-0.105709023941067","2.05193370165746","-2.00552486187845","0","358.6875"
"2855.125","1.7609576427256","-0.901657458563536","0.894290976058933","2.05193370165746","-2.00552486187845","0","358.6875"
"2858.1875","1.7609576427256","-0.901657458563536","0.894290976058933","2.05193370165746","-0.00552486187845304","0","358.6875"
"2861.25","1.7609576427256","1.09834254143646","1.89429097605893","2.05193370165746","-0.00552486187845304","0","358.6875"
"2864.3125","1.7609576427256","1.09834254143646","1.89429097605893","0.0519337016574586","0.994475138121547","0","358.6875"
"2867.375","-1.2390423572744","1.09834254143646","0.894290976058933","0.0519337016574586","0.994475138121547","0","358.6875"
"2870.4375","-1.2390423572744","1.09834254143646","0.894290976058933","3.05193370165746","-1.00552486187845","0","358.6875"
"2873.5","0.760957642725599","3.09834254143646","-1.10570902394107","3.05193370165746","-1.00552486187845","0","358.6875"
"2876.5625","0.760957642725599","3.09834254143646","-1.10570902394107","4.05193370165746","-0.00552486187845304","0","358.6875"
"2879.625","-0.239042357274401","0.0983425414364643","-0.105709023941067","4.05193370165746","-0.00552486187845304","0","358.6875"
"2882.6875","-0.239042357274401","0.0983425414364643","-0.105709023941067","0.0519337016574586","-1.00552486187845","0","358.6875"
"2885.75","0.760957642725599","0.0983425414364643","-0.105709023941067","0.0519337016574586","-1.00552486187845","0","358.6875"
"2888.8125","0.760957642725599","0.0983425414364643","-0.105709023941067","-3.94806629834254","-0.00552486187845304","0","358.6875"
"2891.875","-1.2390423572744","5.09834254143646","1.89429097605893","-3.94806629834254","-0.00552486187845304","0","358.6875"
"2894.9375","-1.2390423572744","5.09834254143646","1.89429097605893","-1.94806629834254","-1.00552486187845","0","358.6875"
"2898","0.760957642725599","4.09834254143646","-0.105709023941067","-1.94806629834254","-1.00552486187845","0","358.6875"
"2903.61538","0.760957642725599","4.09834254143646","-0.105709023941067","-0.948066298342541","0.994475138121547","0","358.6875"
"2907.23077","1.7609576427256","-1.90165745856354","1.89429097605893","-0.948066298342541","0.994475138121547","0","358.6875"
"2910.84615","1.7609576427256","-1.90165745856354","1.89429097605893","0.0519337016574586","0.994475138121547","0","358.6875"
"2914.46154","0.760957642725599","-2.90165745856354","-1.10570902394107","0.0519337016574586","0.994475138121547","0","358.6875"
"2918.07692","0.760957642725599","-2.90165745856354","-1.10570902394107","-0.948066298342541","0.994475138121547","0","358.6875"
"2921.69231","-1.2390423572744","4.09834254143646","1.89429097605893","-0.948066298342541","0.994475138121547","0","358.6875"
"2925.30769","-1.2390423572744","4.09834254143646","1.89429097605893","4.05193370165746","-1.00552486187845","0","358.6875"
"2928.92308","1.7609576427256","1.09834254143646","-0.105709023941067","4.05193370165746","-1.00552486187845","0","358.6875"
"2932.53846","1.7609576427256","1.09834254143646","-0.105709023941067","4.05193370165746","-1.00552486187845","0","358.6875"
"2936.15385","1.7609576427256","-0.901657458563536","3.89429097605893","4.05193370165746","-1.00552486187845","0","358.6875"
"2939.76923","1.7609576427256","-0.901657458563536","3.89429097605893","0.0519337016574586","-4.00552486187845","0","358.6875"
"2943.38462","-0.239042357274401","0.0983425414364643","-1.10570902394107","0.0519337016574586","-4.00552486187845","0","358.6875"
"2947","-0.239042357274401","0.0983425414364643","-1.10570902394107","1.05193370165746","-0.00552486187845304","0","358.6875"
"2950.61538","1.7609576427256","1.09834254143646","-0.105709023941067","1.05193370165746","-0.00552486187845304","0","358.6875"
"2954.23077","1.7609576427256","1.09834254143646","-0.105709023941067","0.0519337016574586","-0.00552486187845304","0","358.6875"
"2957.84615","-0.239042357274401","1.09834254143646","0.894290976058933","0.0519337016574586","-0.00552486187845304","0","358.6875"
"2961.46154","-0.239042357274401","1.09834254143646","0.894290976058933","-0.948066298342541","0.994475138121547","0","358.6875"
"2965.07692","1.7609576427256","0.0983425414364643","1.89429097605893","-0.948066298342541","0.994475138121547","0","358.6875"
"2968.69231","1.7609576427256","0.0983425414364643","1.89429097605893","-2.94806629834254","1.99447513812155","0","358.6875"
"2972.30769","1.7609576427256","1.09834254143646","2.89429097605893","-2.94806629834254","1.99447513812155","0","358.6875"
"2975.92308","1.7609576427256","1.09834254143646","2.89429097605893","-0.948066298342541","1.99447513812155","0","358.6875"
"2979.53846","1.7609576427256","5.09834254143646","-3.10570902394107","-0.948066298342541","1.99447513812155","0","358.6875"
"2983.15385","1.7609576427256","5.09834254143646","-3.10570902394107","0.0519337016574586","-0.00552486187845304","0","358.6875"
"2986.76923","-1.2390423572744","1.09834254143646","-1.10570902394107","0.0519337016574586","-0.00552486187845304","0","358.6875"
"2990.38462","-1.2390423572744","1.09834254143646","-1.10570902394107","-1.94806629834254","0.994475138121547","0","358.6875"
"2994","0.760957642725599","-0.901657458563536","-0.105709023941067","-1.94806629834254","0.994475138121547","0","358.6875"
"3003.2","0.760957642725599","-0.901657458563536","-0.105709023941067","-1.94806629834254","0.994475138121547","0","358.6875"
"3006.4","0.760957642725599","-0.901657458563536","1.89429097605893","-1.94806629834254","0.994475138121547","0","358.6875"
"3009.6","0.760957642725599","-0.901657458563536","1.89429097605893","-1.94806629834254","0.994475138121547","0","358.6875"
"3012.8","1.7609576427256","1.09834254143646","-1.10570902394107","-1.94806629834254","0.994475138121547","0","358.6875"
"3016","1.7609576427256","1.09834254143646","-1.10570902394107","1.05193370165746","0.994475138121547","0","358.6875"
"3019.2","0.760957642725599","1.09834254143646","-3.10570902394107","1.05193370165746","0.994475138121547","0","358.6875"
"3022.4","0.760957642725599","1.09834254143646","-3.10570902394107","1.05193370165746","0.994475138121547","0","358.6875"
"3025.6","1.7609576427256","-0.901657458563536","-0.105709023941067","1.05193370165746","0.994475138121547","0","358.6875"
"3028.8","1.7609576427256","-0.901657458563536","-0.105709023941067","1.05193370165746","-1.00552486187845","0","358.6875"
"3032","1.7609576427256","-1.90165745856354","-0.105709023941067","1.05193370165746","-1.00552486187845","0","358.6875"
"3035.2","1.7609576427256","-1.90165745856354","-0.105709023941067","-2.94806629834254","1.99447513812155","0","358.6875"
"3038.4","1.7609576427256","0.0983425414364643","0.894290976058933","-2.94806629834254","1.99447513812155","0","358.6875"
"3041.6","1.7609576427256","0.0983425414364643","0.894290976058933","-2.94806629834254","1.99447513812155","0","358.6875"
"3044.8","-0.239042357274401","1.09834254143646","1.89429097605893","-2.94806629834254","1.99447513812155","0","358.6875"
"3048","-0.239042357274401","1.09834254143646","1.89429097605893","-0.948066298342541","1.99447513812155","0","358.6875"
"3051.2","-0.239042357274401","1.09834254143646","-1.10570902394107","-0.948066298342541","1.99447513812155","0","358.6875"
"3054.4","-0.239042357274401","1.09834254143646","-1.10570902394107","0.0519337016574586","-0.00552486187845304","0","358.6875"
"3057.6","1.7609576427256","-1.90165745856354","0.894290976058933","0.0519337016574586","-0.00552486187845304","0","358.6875"
"3060.8","1.7609576427256","-1.90165745856354","0.894290976058933","1.05193370165746","0.994475138121547","0","358.6875"
"3064","1.7609576427256","2.09834254143646","0.894290976058933","1.05193370165746","0.994475138121547","0","358.6875"
"3067.2","1.7609576427256","2.09834254143646","0.894290976058933","1.05193370165746","-1.00552486187845","0","358.6875"
"3070.4","1.7609576427256","2.09834254143646","0.894290976058933","1.05193370165746","-1.00552486187845","0","358.6875"
"3073.6","1.7609576427256","2.09834254143646","0.894290976058933","1.05193370165746","-1.00552486187845","0","358.6875"
"3076.8","1.7609576427256","2.09834254143646","-0.105709023941067","1.05193370165746","-1.00552486187845","0","358.6875"
"3080","1.7609576427256","2.09834254143646","-0.105709023941067","1.05193370165746","-0.00552486187845304","0","358.6875"
"3083.2","0.760957642725599","1.09834254143646","-0.105709023941067","1.05193370165746","-0.00552486187845304","0","358.6875"
"3086.4","0.760957642725599","1.09834254143646","-0.105709023941067","-0.948066298342541","-0.00552486187845304","0","358.6875"
"3089.6","1.7609576427256","1.09834254143646","-0.105709023941067","-0.948066298342541","-0.00552486187845304","0","358.6875"
"3092.8","1.7609576427256","1.09834254143646","-0.105709023941067","-0.948066298342541","-0.00552486187845304","0","358.6875"
"3096","1.7609576427256","0.0983425414364643","1.89429097605893","-0.948066298342541","-0.00552486187845304","0","358.6875"
"3103.03125","1.7609576427256","0.0983425414364643","1.89429097605893","-0.948066298342541","0.994475138121547","0","358.6875"
"3106.0625","-0.239042357274401","1.09834254143646","-0.105709023941067","-0.948066298342541","0.994475138121547","0","358.6875"
"3109.09375","-0.239042357274401","1.09834254143646","-0.105709023941067","-0.948066298342541","0.994475138121547","0","358.6875"
"3112.125","0.760957642725599","1.09834254143646","1.89429097605893","-0.948066298342541","0.994475138121547","0","358.6875"
"3115.15625","0.760957642725599","1.09834254143646","1.89429097605893","0.0519337016574586","-1.00552486187845","0","358.6875"
"3118.1875","-0.239042357274401","1.09834254143646","-5.10570902394107","0.0519337016574586","-1.00552486187845","0","358.6875"
"3121.21875","-0.239042357274401","1.09834254143646","-5.10570902394107","3.05193370165746","-4.00552486187845","0","358.6875"
"3124.25","-1.2390423572744","1.09834254143646","-2.10570902394107","3.05193370165746","-4.00552486187845","0","358.6875"
"3127.28125","-1.2390423572744","1.09834254143646","-2.10570902394107","3.05193370165746","-4.00552486187845","0","358.6875"
"3130.3125","1.7609576427256","2.09834254143646","1.89429097605893","3.05193370165746","-4.00552486187845","0","358.6875"
"3133.34375","1.7609576427256","2.09834254143646","1.89429097605893","2.05193370165746","-0.00552486187845304","0","358.6875"
"3136.375","1.7609576427256","2.09834254143646","1.89429097605893","2.05193370165746","-0.00552486187845304","0","358.6875"
"3139.40625","1.7609576427256","2.09834254143646","1.89429097605893","0.0519337016574586","-0.00552486187845304","0","358.6875"
"3142.4375","1.7609576427256","-1.90165745856354","-0.105709023941067","0.0519337016574586","-0.00552486187845304","0","358.6875"
"3145.46875","1.7609576427256","-1.90165745856354","-0.105709023941067","-0.948066298342541","-1.00552486187845","0","358.6875"
"3148.5","0.760957642725599","1.09834254143646","0.894290976058933","-0.948066298342541","-1.00552486187845","0","358.6875"
"3151.53125","0.760957642725599","1.09834254143646","0.894290976058933","0.0519337016574586","0.994475138121547","0","358.6875"
"3154.5625","0.760957642725599","3.09834254143646","-0.105709023941067","0.0519337016574586","0.994475138121547","0","358.6875"
"3157.59375","0.760957642725599","3.09834254143646","-0.105709023941067","0.0519337016574586","-3.00552486187845","0","358.6875"
"3160.625","1.7609576427256","1.09834254143646","0.894290976058933","0.0519337016574586","-3.00552486187845","0","358.6875"
"3163.65625","1.7609576427256","1.09834254143646","0.894290976058933","-1.94806629834254","-0.00552486187845304","0","358.6875"
"3166.6875","1.7609576427256","1.09834254143646","0.894290976058933","-1.94806629834254","-0.00552486187845304","0","358.6875"
"3169.71875","1.7609576427256","1.09834254143646","0.894290976058933","0.0519337016574586","-3.00552486187845","0","358.6875"
"3172.75","1.7609576427256","-0.901657458563536","0.894290976058933","0.0519337016574586","-3.00552486187845","0","358.6875"
"3175.78125","1.7609576427256","-0.901657458563536","0.894290976058933","-2.94806629834254","-1.00552486187845","0","358.6875"
"3178.8125","1.7609576427256","1.09834254143646","-1.10570902394107","-2.94806629834254","-1.00552486187845","0","358.6875"
