Timer,AX,AY,AZ,GX,GY,GZ,A
"19","6.30611469806305","1.01936954044816","-0.412077478161791","1.3900493733384","0.759589821496392","-0.199392328142803","0.3125"
"4.08696","5.30611469806305","1.01936954044816","-2.41207747816179","1.3900493733384","0.759589821496392","-0.199392328142803","0.3125"
"8.17391","5.30611469806305","1.01936954044816","-2.41207747816179","2.3900493733384","-0.240410178503608","-0.199392328142803","0.3125"
"12.26087","4.30611469806305","3.01936954044816","-1.41207747816179","2.3900493733384","-0.240410178503608","-0.199392328142803","0.3125"
"16.34783","4.30611469806305","3.01936954044816","-1.41207747816179","1.3900493733384","-0.240410178503608","-0.199392328142803","0.3125"
"20.43478","4.30611469806305","1.01936954044816","0.587922521838209","1.3900493733384","-0.240410178503608","-0.199392328142803","0.3125"
"24.52174","4.30611469806305","1.01936954044816","0.587922521838209","-2.6099506266616","-0.240410178503608","-0.199392328142803","0.3125"
"28.6087","5.30611469806305","4.01936954044816","1.58792252183821","-2.6099506266616","-0.240410178503608","-0.199392328142803","0.3125"
"32.69565","5.30611469806305","4.01936954044816","1.58792252183821","0.390049373338397","-1.24041017850361","-0.199392328142803","0.3125"
"36.78261","6.30611469806305","3.01936954044816","2.58792252183821","0.390049373338397","-1.24041017850361","-0.199392328142803","0.3125"
"40.86957","6.30611469806305","3.01936954044816","2.58792252183821","4.3900493733384","0.759589821496392","-0.199392328142803","0.3125"
"44.95652","6.30611469806305","0.019369540448158","3.58792252183821","4.3900493733384","0.759589821496392","-0.199392328142803","0.3125"
"49.04348","6.30611469806305","0.019369540448158","3.58792252183821","3.3900493733384","0.759589821496392","-0.199392328142803","0.3125"
"53.13043","4.30611469806305","1.01936954044816","2.58792252183821","3.3900493733384","0.759589821496392","-0.199392328142803","0.3125"
"57.21739","4.30611469806305","1.01936954044816","2.58792252183821","3.3900493733384","0.759589821496392","-0.199392328142803","0.3125"
"61.30435","2.30611469806305","2.01936954044816","2.58792252183821","3.3900493733384","0.759589821496392","-0.199392328142803","0.3125"
"65.3913","2.30611469806305","2.01936954044816","2.58792252183821","1.3900493733384","1.75958982149639","-0.199392328142803","0.3125"
"69.47826","4.30611469806305","2.01936954044816","0.587922521838209","1.3900493733384","1.75958982149639","-0.199392328142803","0.3125"
"73.56522","4.30611469806305","2.01936954044816","0.587922521838209","1.3900493733384","0.759589821496392","-0.199392328142803","0.3125"
"77.65217","5.30611469806305","1.01936954044816","0.587922521838209","1.3900493733384","0.759589821496392","-0.199392328142803","0.3125"
"81.73913","5.30611469806305","1.01936954044816","0.587922521838209","-0.609950626661603","0.759589821496392","-0.199392328142803","0.3125"
"85.82609","5.30611469806305","1.01936954044816","0.587922521838209","-0.609950626661603","0.759589821496392","-0.199392328142803","0.3125"
"89.91304","5.30611469806305","1.01936954044816","0.587922521838209","-1.6099506266616","-0.240410178503608","-0.199392328142803","0.3125"
"94","2.30611469806305","3.01936954044816","0.587922521838209","-1.6099506266616","-0.240410178503608","-0.199392328142803","0.3125"
"100","2.30611469806305","3.01936954044816","0.587922521838209","-0.609950626661603","-2.24041017850361","-0.199392328142803","0.3125"
"100","6.30611469806305","2.01936954044816","1.58792252183821","-0.609950626661603","-2.24041017850361","-0.199392328142803","0.3125"
"103.09375","6.30611469806305","2.01936954044816","1.58792252183821","-2.6099506266616","1.75958982149639","-0.199392328142803","0.3125"
"106.1875","6.30611469806305","1.01936954044816","0.587922521838209","-2.6099506266616","1.75958982149639","-0.199392328142803","0.3125"
"109.28125","6.30611469806305","1.01936954044816","0.587922521838209","-1.6099506266616","2.75958982149639","-0.199392328142803","0.3125"
"112.375","2.30611469806305","1.01936954044816","1.58792252183821","-1.6099506266616","2.75958982149639","-0.199392328142803","0.3125"
"115.46875","2.30611469806305","1.01936954044816","1.58792252183821","-2.6099506266616","3.75958982149639","-0.199392328142803","0.3125"
"118.5625","3.30611469806305","2.01936954044816","-2.41207747816179","-2.6099506266616","3.75958982149639","-0.199392328142803","0.3125"
"121.65625","3.30611469806305","2.01936954044816","-2.41207747816179","2.3900493733384","0.759589821496392","-0.199392328142803","0.3125"
"124.75","1.30611469806305","0.019369540448158","3.58792252183821","2.3900493733384","0.759589821496392","-0.199392328142803","0.3125"
"127.84375","1.30611469806305","0.019369540448158","3.58792252183821","2.3900493733384","0.759589821496392","-0.199392328142803","0.3125"
"130.9375","4.30611469806305","0.019369540448158","0.587922521838209","2.3900493733384","0.759589821496392","-0.199392328142803","0.3125"
"134.03125","4.30611469806305","0.019369540448158","0.587922521838209","0.390049373338397","1.75958982149639","-0.199392328142803","0.3125"
"137.125","6.30611469806305","1.01936954044816","2.58792252183821","0.390049373338397","1.75958982149639","-0.199392328142803","0.3125"
"140.21875","6.30611469806305","1.01936954044816","2.58792252183821","-3.6099506266616","-0.240410178503608","-0.199392328142803","0.3125"
"143.3125","5.30611469806305","1.01936954044816","1.58792252183821","-3.6099506266616","-0.240410178503608","-0.199392328142803","0.3125"
"146.40625","5.30611469806305","1.01936954044816","1.58792252183821","2.3900493733384","-1.24041017850361","-0.199392328142803","0.3125"
"149.5","4.30611469806305","-0.980630459551842","0.587922521838209","2.3900493733384","-1.24041017850361","-0.199392328142803","0.3125"
"152.59375","4.30611469806305","-0.980630459551842","0.587922521838209","-1.6099506266616","0.759589821496392","-0.199392328142803","0.3125"
"155.6875","2.30611469806305","2.01936954044816","0.587922521838209","-1.6099506266616","0.759589821496392","-0.199392328142803","0.3125"
"158.78125","2.30611469806305","2.01936954044816","0.587922521838209","0.390049373338397","1.75958982149639","-0.199392328142803","0.3125"
"161.875","2.30611469806305","-0.980630459551842","-1.41207747816179","0.390049373338397","1.75958982149639","-0.199392328142803","0.3125"
"164.96875","2.30611469806305","-0.980630459551842","-1.41207747816179","1.3900493733384","1.75958982149639","-0.199392328142803","0.3125"
"168.0625","5.30611469806305","-0.980630459551842","1.58792252183821","1.3900493733384","1.75958982149639","-0.199392328142803","0.3125"
"171.15625","5.30611469806305","-0.980630459551842","1.58792252183821","-0.609950626661603","-0.240410178503608","-0.199392328142803","0.3125"
"174.25","6.30611469806305","2.01936954044816","0.587922521838209","-0.609950626661603","-0.240410178503608","-0.199392328142803","0.3125"
"177.34375","6.30611469806305","2.01936954044816","0.587922521838209","-2.6099506266616","1.75958982149639","-0.199392328142803","0.3125"
"180.4375","4.30611469806305","3.01936954044816","0.587922521838209","-2.6099506266616","1.75958982149639","-0.199392328142803","0.3125"
"183.53125","4.30611469806305","3.01936954044816","0.587922521838209","-0.609950626661603","-1.24041017850361","-0.199392328142803","0.3125"
"186.625","5.30611469806305","1.01936954044816","0.587922521838209","-0.609950626661603","-1.24041017850361","-0.199392328142803","0.3125"
"189.71875","5.30611469806305","1.01936954044816","0.587922521838209","1.3900493733384","-0.240410178503608","-0.199392328142803","0.3125"
"192.8125","8.30611469806305","2.01936954044816","4.58792252183821","1.3900493733384","-0.240410178503608","-0.199392328142803","0.3125"
"195.90625","8.30611469806305","2.01936954044816","4.58792252183821","-0.609950626661603","-1.24041017850361","-0.199392328142803","0.3125"
"199","5.30611469806305","2.01936954044816","1.58792252183821","-0.609950626661603","-1.24041017850361","-0.199392328142803","0.3125"
"203.28571","5.30611469806305","2.01936954044816","1.58792252183821","3.3900493733384","-0.240410178503608","-0.199392328142803","0.3125"
"206.57143","5.30611469806305","3.01936954044816","2.58792252183821","3.3900493733384","-0.240410178503608","-0.199392328142803","0.3125"
"209.85714","5.30611469806305","3.01936954044816","2.58792252183821","-0.609950626661603","-0.240410178503608","-0.199392328142803","0.3125"
"213.14286","6.30611469806305","3.01936954044816","-0.412077478161791","-0.609950626661603","-0.240410178503608","-0.199392328142803","0.3125"
"216.42857","6.30611469806305","3.01936954044816","-0.412077478161791","1.3900493733384","-2.24041017850361","-0.199392328142803","0.3125"
"219.71429","-2.69388530193695","1.01936954044816","-2.41207747816179","1.3900493733384","-2.24041017850361","-0.199392328142803","0.3125"
"223","-2.69388530193695","1.01936954044816","-2.41207747816179","0.390049373338397","-1.24041017850361","-0.199392328142803","0.3125"
"226.28571","9.30611469806305","0.019369540448158","0.587922521838209","0.390049373338397","-1.24041017850361","-0.199392328142803","0.3125"
"229.57143","9.30611469806305","0.019369540448158","0.587922521838209","-0.609950626661603","-2.24041017850361","-0.199392328142803","0.3125"
"232.85714","0.306114698063046","2.01936954044816","-0.412077478161791","-0.609950626661603","-2.24041017850361","-0.199392328142803","0.3125"
"236.14286","0.306114698063046","2.01936954044816","-0.412077478161791","1.3900493733384","-1.24041017850361","-0.199392328142803","0.3125"
"239.42857","1.30611469806305","1.01936954044816","-4.41207747816179","1.3900493733384","-1.24041017850361","-0.199392328142803","0.3125"
"242.71429","1.30611469806305","1.01936954044816","-4.41207747816179","-1.6099506266616","3.75958982149639","-0.199392328142803","0.3125"
"246","9.30611469806305","-1.98063045955184","3.58792252183821","-1.6099506266616","3.75958982149639","-0.199392328142803","0.3125"
"249.28571","9.30611469806305","-1.98063045955184","3.58792252183821","-1.6099506266616","-4.24041017850361","-0.199392328142803","0.3125"
"252.57143","-0.693885301936954","7.01936954044816","-0.412077478161791","-1.6099506266616","-4.24041017850361","-0.199392328142803","0.3125"
"255.85714","-0.693885301936954","7.01936954044816","-0.412077478161791","0.390049373338397","-1.24041017850361","-0.199392328142803","0.3125"
"259.14286","7.30611469806305","1.01936954044816","1.58792252183821","0.390049373338397","-1.24041017850361","-0.199392328142803","0.3125"
"262.42857","7.30611469806305","1.01936954044816","1.58792252183821","-0.609950626661603","-1.24041017850361","-0.199392328142803","0.3125"
"265.71429","9.30611469806305","-5.98063045955184","7.58792252183821","-0.609950626661603","-1.24041017850361","-0.199392328142803","0.3125"
"269","9.30611469806305","-5.98063045955184","7.58792252183821","-2.6099506266616","-2.24041017850361","-0.199392328142803","0.3125"
"272.28571","3.30611469806305","7.01936954044816","-4.41207747816179","-2.6099506266616","-2.24041017850361","-0.199392328142803","0.3125"
"275.57143","3.30611469806305","7.01936954044816","-4.41207747816179","1.3900493733384","-1.24041017850361","-0.199392328142803","0.3125"
"278.85714","9.30611469806305","1.01936954044816","3.58792252183821","1.3900493733384","-1.24041017850361","-0.199392328142803","0.3125"
"282.14286","9.30611469806305","1.01936954044816","3.58792252183821","2.3900493733384","-1.24041017850361","-0.199392328142803","0.3125"
"285.42857","5.30611469806305","-2.98063045955184","3.58792252183821","2.3900493733384","-1.24041017850361","-0.199392328142803","0.3125"
"288.71429","5.30611469806305","-2.98063045955184","3.58792252183821","-1.6099506266616","0.759589821496392","-0.199392328142803","0.3125"
"292","1.30611469806305","4.01936954044816","0.587922521838209","-1.6099506266616","0.759589821496392","-0.199392328142803","0.3125"
"300","1.30611469806305","4.01936954044816","0.587922521838209","3.3900493733384","2.75958982149639","-0.199392328142803","0.3125"
"300","6.30611469806305","-1.98063045955184","2.58792252183821","3.3900493733384","2.75958982149639","-0.199392328142803","0.3125"
"302.91176","6.30611469806305","-1.98063045955184","2.58792252183821","4.3900493733384","-1.24041017850361","-0.199392328142803","0.3125"
"305.82353","4.30611469806305","1.01936954044816","3.58792252183821","4.3900493733384","-1.24041017850361","-0.199392328142803","0.3125"
"308.73529","4.30611469806305","1.01936954044816","3.58792252183821","-1.6099506266616","-1.24041017850361","-0.199392328142803","0.3125"
"311.64706","2.30611469806305","6.01936954044816","-5.41207747816179","-1.6099506266616","-1.24041017850361","-0.199392328142803","0.3125"
"314.55882","2.30611469806305","6.01936954044816","-5.41207747816179","4.3900493733384","1.75958982149639","-0.199392328142803","0.3125"
"317.47059","2.30611469806305","-1.98063045955184","0.587922521838209","4.3900493733384","1.75958982149639","-0.199392328142803","0.3125"
"320.38235","2.30611469806305","-1.98063045955184","0.587922521838209","-0.609950626661603","0.759589821496392","-0.199392328142803","0.3125"
"323.29412","2.30611469806305","3.01936954044816","-1.41207747816179","-0.609950626661603","0.759589821496392","-0.199392328142803","0.3125"
"326.20588","2.30611469806305","3.01936954044816","-1.41207747816179","0.390049373338397","-1.24041017850361","-0.199392328142803","0.3125"
"329.11765","6.30611469806305","4.01936954044816","-4.41207747816179","0.390049373338397","-1.24041017850361","-0.199392328142803","0.3125"
"332.02941","6.30611469806305","4.01936954044816","-4.41207747816179","1.3900493733384","-2.24041017850361","-0.199392328142803","0.3125"
"334.94118","2.30611469806305","-0.980630459551842","-2.41207747816179","1.3900493733384","-2.24041017850361","-0.199392328142803","0.3125"
"337.85294","2.30611469806305","-0.980630459551842","-2.41207747816179","-3.6099506266616","-0.240410178503608","-0.199392328142803","0.3125"
"340.76471","3.30611469806305","5.01936954044816","-2.41207747816179","-3.6099506266616","-0.240410178503608","-0.199392328142803","0.3125"
"343.67647","3.30611469806305","5.01936954044816","-2.41207747816179","-2.6099506266616","-1.24041017850361","-0.199392328142803","0.3125"
"346.58824","5.30611469806305","1.01936954044816","1.58792252183821","-2.6099506266616","-1.24041017850361","-0.199392328142803","0.3125"
"349.5","5.30611469806305","1.01936954044816","1.58792252183821","-3.6099506266616","0.759589821496392","-0.199392328142803","0.3125"
"352.41176","3.30611469806305","-2.98063045955184","1.58792252183821","-3.6099506266616","0.759589821496392","-0.199392328142803","0.3125"
"355.32353","3.30611469806305","-2.98063045955184","1.58792252183821","0.390049373338397","1.75958982149639","-0.199392328142803","0.3125"
"358.23529","6.30611469806305","4.01936954044816","2.58792252183821","0.390049373338397","1.75958982149639","-0.199392328142803","0.3125"
"361.14706","6.30611469806305","4.01936954044816","2.58792252183821","1.3900493733384","2.75958982149639","-0.199392328142803","0.3125"
"364.05882","3.30611469806305","-0.980630459551842","1.58792252183821","1.3900493733384","2.75958982149639","-0.199392328142803","0.3125"
"366.97059","3.30611469806305","-0.980630459551842","1.58792252183821","3.3900493733384","-1.24041017850361","-0.199392328142803","0.3125"
"369.88235","2.30611469806305","-0.980630459551842","-0.412077478161791","3.3900493733384","-1.24041017850361","-0.199392328142803","0.3125"
"372.79412","2.30611469806305","-0.980630459551842","-0.412077478161791","-0.609950626661603","2.75958982149639","-0.199392328142803","0.3125"
"375.70588","7.30611469806305","4.01936954044816","4.58792252183821","-0.609950626661603","2.75958982149639","-0.199392328142803","0.3125"
"378.61765","7.30611469806305","4.01936954044816","4.58792252183821","0.390049373338397","1.75958982149639","-0.199392328142803","0.3125"
"381.52941","3.30611469806305","2.01936954044816","0.587922521838209","0.390049373338397","1.75958982149639","-0.199392328142803","0.3125"
"384.44118","3.30611469806305","2.01936954044816","0.587922521838209","2.3900493733384","-2.24041017850361","-0.199392328142803","0.3125"
"387.35294","6.30611469806305","2.01936954044816","0.587922521838209","2.3900493733384","-2.24041017850361","-0.199392328142803","0.3125"
"390.26471","6.30611469806305","2.01936954044816","0.587922521838209","0.390049373338397","-0.240410178503608","-0.199392328142803","0.3125"
"393.17647","5.30611469806305","1.01936954044816","1.58792252183821","0.390049373338397","-0.240410178503608","-0.199392328142803","0.3125"
"396.08824","5.30611469806305","1.01936954044816","1.58792252183821","0.390049373338397","-3.24041017850361","-0.199392328142803","0.3125"
"399","7.30611469806305","4.01936954044816","-0.412077478161791","0.390049373338397","-3.24041017850361","-0.199392328142803","0.3125"
"403.03125","7.30611469806305","4.01936954044816","-0.412077478161791","-1.6099506266616","-1.24041017850361","-0.199392328142803","0.3125"
"406.0625","6.30611469806305","1.01936954044816","-1.41207747816179","-1.6099506266616","-1.24041017850361","-0.199392328142803","0.3125"
"409.09375","6.30611469806305","1.01936954044816","-1.41207747816179","-0.609950626661603","-0.240410178503608","-0.199392328142803","0.3125"
"412.125","5.30611469806305","4.01936954044816","0.587922521838209","-0.609950626661603","-0.240410178503608","-0.199392328142803","0.3125"
"415.15625","5.30611469806305","4.01936954044816","0.587922521838209","0.390049373338397","-0.240410178503608","-0.199392328142803","0.3125"
"418.1875","6.30611469806305","1.01936954044816","1.58792252183821","0.390049373338397","-0.240410178503608","-0.199392328142803","0.3125"
"421.21875","6.30611469806305","1.01936954044816","1.58792252183821","0.390049373338397","-0.240410178503608","-0.199392328142803","0.3125"
"424.25","5.30611469806305","1.01936954044816","-1.41207747816179","0.390049373338397","-0.240410178503608","-0.199392328142803","0.3125"
"427.28125","5.30611469806305","1.01936954044816","-1.41207747816179","-2.6099506266616","-0.240410178503608","-0.199392328142803","0.3125"
"430.3125","4.30611469806305","0.019369540448158","-0.412077478161791","-2.6099506266616","-0.240410178503608","-0.199392328142803","0.3125"
"433.34375","4.30611469806305","0.019369540448158","-0.412077478161791","0.390049373338397","-2.24041017850361","-0.199392328142803","0.3125"
"436.375","4.30611469806305","2.01936954044816","-1.41207747816179","0.390049373338397","-2.24041017850361","-0.199392328142803","0.3125"
"439.40625","4.30611469806305","2.01936954044816","-1.41207747816179","-1.6099506266616","-3.24041017850361","-0.199392328142803","0.3125"
"442.4375","4.30611469806305","1.01936954044816","-3.41207747816179","-1.6099506266616","-3.24041017850361","-0.199392328142803","0.3125"
"445.46875","4.30611469806305","1.01936954044816","-3.41207747816179","-0.609950626661603","-2.24041017850361","-0.199392328142803","0.3125"
"448.5","5.30611469806305","1.01936954044816","0.587922521838209","-0.609950626661603","-2.24041017850361","-0.199392328142803","0.3125"
"451.53125","5.30611469806305","1.01936954044816","0.587922521838209","0.390049373338397","-3.24041017850361","-0.199392328142803","0.3125"
"454.5625","9.30611469806305","3.01936954044816","2.58792252183821","0.390049373338397","-3.24041017850361","-0.199392328142803","0.3125"
"457.59375","9.30611469806305","3.01936954044816","2.58792252183821","0.390049373338397","-1.24041017850361","-0.199392328142803","0.3125"
"460.625","3.30611469806305","-1.98063045955184","-5.41207747816179","0.390049373338397","-1.24041017850361","-0.199392328142803","0.3125"
"463.65625","3.30611469806305","-1.98063045955184","-5.41207747816179","-0.609950626661603","1.75958982149639","-0.199392328142803","0.3125"
"466.6875","2.30611469806305","-6.98063045955184","-4.41207747816179","-0.609950626661603","1.75958982149639","-0.199392328142803","0.3125"
"469.71875","2.30611469806305","-6.98063045955184","-4.41207747816179","2.3900493733384","1.75958982149639","-0.199392328142803","0.3125"
"472.75","10.306114698063","1.01936954044816","5.58792252183821","2.3900493733384","1.75958982149639","-0.199392328142803","0.3125"
"475.78125","10.306114698063","1.01936954044816","5.58792252183821","3.3900493733384","-1.24041017850361","-0.199392328142803","0.3125"
"478.8125","1.30611469806305","4.01936954044816","-0.412077478161791","3.3900493733384","-1.24041017850361","-0.199392328142803","0.3125"
"481.84375","1.30611469806305","4.01936954044816","-0.412077478161791","3.3900493733384","-1.24041017850361","-0.199392328142803","0.3125"
"484.875","4.30611469806305","-13.9806304595518","2.58792252183821","3.3900493733384","-1.24041017850361","-0.199392328142803","0.3125"
"487.90625","4.30611469806305","-13.9806304595518","2.58792252183821","-2.6099506266616","3.75958982149639","-0.199392328142803","0.3125"
"490.9375","7.30611469806305","-4.98063045955184","3.58792252183821","-2.6099506266616","3.75958982149639","-0.199392328142803","0.3125"
"493.96875","7.30611469806305","-4.98063045955184","3.58792252183821","-3.6099506266616","2.75958982149639","-0.199392328142803","0.3125"
"497","1.30611469806305","13.0193695404482","-5.41207747816179","-3.6099506266616","2.75958982149639","-0.199392328142803","0.3125"
"502.82353","1.30611469806305","13.0193695404482","-5.41207747816179","2.3900493733384","1.75958982149639","-0.199392328142803","0.3125"
"505.64706","0.306114698063046","-5.98063045955184","-1.41207747816179","2.3900493733384","1.75958982149639","-0.199392328142803","0.3125"
"508.47059","0.306114698063046","-5.98063045955184","-1.41207747816179","2.3900493733384","-1.24041017850361","-0.199392328142803","0.3125"
"511.29412","5.30611469806305","-1.98063045955184","3.58792252183821","2.3900493733384","-1.24041017850361","-0.199392328142803","0.3125"
"514.11765","5.30611469806305","-1.98063045955184","3.58792252183821","2.3900493733384","-1.24041017850361","-0.199392328142803","0.3125"
"516.94118","4.30611469806305","9.01936954044816","5.58792252183821","2.3900493733384","-1.24041017850361","-0.199392328142803","0.3125"
"519.76471","4.30611469806305","9.01936954044816","5.58792252183821","4.3900493733384","-0.240410178503608","-0.199392328142803","0.3125"
"522.58824","-0.693885301936954","-3.98063045955184","-2.41207747816179","4.3900493733384","-0.240410178503608","-0.199392328142803","0.3125"
"525.41176","-0.693885301936954","-3.98063045955184","-2.41207747816179","3.3900493733384","0.759589821496392","-0.199392328142803","0.3125"
"528.23529","5.30611469806305","1.01936954044816","5.58792252183821","3.3900493733384","0.759589821496392","-0.199392328142803","0.3125"
"531.05882","5.30611469806305","1.01936954044816","5.58792252183821","-0.609950626661603","-2.24041017850361","-0.199392328142803","0.3125"
"533.88235","6.30611469806305","9.01936954044816","2.58792252183821","-0.609950626661603","-2.24041017850361","-0.199392328142803","0.3125"
"536.70588","6.30611469806305","9.01936954044816","2.58792252183821","2.3900493733384","-1.24041017850361","-0.199392328142803","0.3125"
"539.52941","6.30611469806305","9.01936954044816","2.58792252183821","2.3900493733384","-1.24041017850361","-0.199392328142803","0.3125"
"542.35294","6.30611469806305","9.01936954044816","2.58792252183821","2.3900493733384","-1.24041017850361","-0.199392328142803","0.3125"
"545.17647","5.30611469806305","1.01936954044816","3.58792252183821","2.3900493733384","-1.24041017850361","-0.199392328142803","0.3125"
"548","5.30611469806305","1.01936954044816","3.58792252183821","1.3900493733384","-3.24041017850361","-0.199392328142803","0.3125"
"550.82353","-0.693885301936954","8.01936954044816","-4.41207747816179","1.3900493733384","-3.24041017850361","-0.199392328142803","0.3125"
"553.64706","-0.693885301936954","8.01936954044816","-4.41207747816179","3.3900493733384","-0.240410178503608","-0.199392328142803","0.3125"
"556.47059","0.306114698063046","2.01936954044816","-1.41207747816179","3.3900493733384","-0.240410178503608","-0.199392328142803","0.3125"
"559.29412","0.306114698063046","2.01936954044816","-1.41207747816179","1.3900493733384","-1.24041017850361","-0.199392328142803","0.3125"
"562.11765","9.30611469806305","0.019369540448158","5.58792252183821","1.3900493733384","-1.24041017850361","-0.199392328142803","0.3125"
"564.94118","9.30611469806305","0.019369540448158","5.58792252183821","-1.6099506266616","-2.24041017850361","-0.199392328142803","0.3125"
"567.76471","7.30611469806305","10.0193695404482","-0.412077478161791","-1.6099506266616","-2.24041017850361","-0.199392328142803","0.3125"
"570.58824","7.30611469806305","10.0193695404482","-0.412077478161791","-1.6099506266616","-2.24041017850361","-0.199392328142803","0.3125"
"573.41176","10.306114698063","6.01936954044816","3.58792252183821","-1.6099506266616","-2.24041017850361","-0.199392328142803","0.3125"
"576.23529","10.306114698063","6.01936954044816","3.58792252183821","0.390049373338397","-2.24041017850361","-0.199392328142803","0.3125"
"579.05882","9.30611469806305","0.019369540448158","2.58792252183821","0.390049373338397","-2.24041017850361","-0.199392328142803","0.3125"
"581.88235","9.30611469806305","0.019369540448158","2.58792252183821","-3.6099506266616","-3.24041017850361","-0.199392328142803","0.3125"
"584.70588","5.30611469806305","3.01936954044816","-2.41207747816179","-3.6099506266616","-3.24041017850361","-0.199392328142803","0.3125"
"587.52941","5.30611469806305","3.01936954044816","-2.41207747816179","0.390049373338397","-0.240410178503608","-0.199392328142803","0.3125"
"590.35294","6.30611469806305","-0.980630459551842","1.58792252183821","0.390049373338397","-0.240410178503608","-0.199392328142803","0.3125"
"593.17647","6.30611469806305","-0.980630459551842","1.58792252183821","0.390049373338397","1.75958982149639","-0.199392328142803","0.3125"
"596","6.30611469806305","-0.980630459551842","1.58792252183821","0.390049373338397","1.75958982149639","-0.199392328142803","0.3125"
"603.13333","6.30611469806305","-0.980630459551842","1.58792252183821","0.390049373338397","1.75958982149639","-0.199392328142803","0.3125"
"606.26667","1.30611469806305","3.01936954044816","-2.41207747816179","0.390049373338397","1.75958982149639","-0.199392328142803","0.3125"
"609.4","1.30611469806305","3.01936954044816","-2.41207747816179","-1.6099506266616","-0.240410178503608","-0.199392328142803","0.3125"
"612.53333","5.30611469806305","-2.98063045955184","1.58792252183821","-1.6099506266616","-0.240410178503608","-0.199392328142803","0.3125"
"615.66667","5.30611469806305","-2.98063045955184","1.58792252183821","-1.6099506266616","-0.240410178503608","-0.199392328142803","0.3125"
"618.8","6.30611469806305","3.01936954044816","0.587922521838209","-1.6099506266616","-0.240410178503608","-0.199392328142803","0.3125"
"621.93333","6.30611469806305","3.01936954044816","0.587922521838209","-2.6099506266616","-0.240410178503608","-0.199392328142803","0.3125"
"625.06667","5.30611469806305","5.01936954044816","-2.41207747816179","-2.6099506266616","-0.240410178503608","-0.199392328142803","0.3125"
"628.2","5.30611469806305","5.01936954044816","-2.41207747816179","2.3900493733384","-2.24041017850361","-0.199392328142803","0.3125"
"631.33333","5.30611469806305","5.01936954044816","-2.41207747816179","2.3900493733384","-2.24041017850361","-0.199392328142803","0.3125"
"634.46667","5.30611469806305","5.01936954044816","-2.41207747816179","2.3900493733384","-2.24041017850361","-0.199392328142803","0.3125"
"637.6","8.30611469806305","-4.98063045955184","5.58792252183821","2.3900493733384","-2.24041017850361","-0.199392328142803","0.3125"
"640.73333","8.30611469806305","-4.98063045955184","5.58792252183821","-1.6099506266616","-2.24041017850361","-0.199392328142803","0.3125"
"643.86667","12.306114698063","7.01936954044816","0.587922521838209","-1.6099506266616","-2.24041017850361","-0.199392328142803","0.3125"
"647","12.306114698063","7.01936954044816","0.587922521838209","5.3900493733384","-0.240410178503608","-0.199392328142803","0.3125"
"650.13333","9.30611469806305","-2.98063045955184","0.587922521838209","5.3900493733384","-0.240410178503608","-0.199392328142803","0.3125"
"653.26667","9.30611469806305","-2.98063045955184","0.587922521838209","3.3900493733384","-1.24041017850361","-0.199392328142803","0.3125"
"656.4","8.30611469806305","-3.98063045955184","6.58792252183821","3.3900493733384","-1.24041017850361","-0.199392328142803","0.3125"
"659.53333","8.30611469806305","-3.98063045955184","6.58792252183821","3.3900493733384","-1.24041017850361","-0.199392328142803","0.3125"
"662.66667","8.30611469806305","-3.98063045955184","6.58792252183821","3.3900493733384","-1.24041017850361","-0.199392328142803","0.3125"
"665.8","8.30611469806305","-3.98063045955184","6.58792252183821","-0.609950626661603","2.75958982149639","-0.199392328142803","0.3125"
"668.93333","5.30611469806305","3.01936954044816","-0.412077478161791","-0.609950626661603","2.75958982149639","-0.199392328142803","0.3125"
"672.06667","5.30611469806305","3.01936954044816","-0.412077478161791","-0.609950626661603","0.759589821496392","-0.199392328142803","0.3125"
"675.2","4.30611469806305","1.01936954044816","-1.41207747816179","-0.609950626661603","0.759589821496392","-0.199392328142803","0.3125"
"678.33333","4.30611469806305","1.01936954044816","-1.41207747816179","2.3900493733384","2.75958982149639","-0.199392328142803","0.3125"
"681.46667","3.30611469806305","3.01936954044816","1.58792252183821","2.3900493733384","2.75958982149639","-0.199392328142803","0.3125"
"684.6","3.30611469806305","3.01936954044816","1.58792252183821","-0.609950626661603","0.759589821496392","-0.199392328142803","0.3125"
"687.73333","1.30611469806305","3.01936954044816","0.587922521838209","-0.609950626661603","0.759589821496392","-0.199392328142803","0.3125"
"690.86667","1.30611469806305","3.01936954044816","0.587922521838209","2.3900493733384","0.759589821496392","-0.199392328142803","0.3125"
"694","1.30611469806305","3.01936954044816","0.587922521838209","2.3900493733384","0.759589821496392","-0.199392328142803","0.3125"
"702.88235","1.30611469806305","3.01936954044816","0.587922521838209","2.3900493733384","-0.240410178503608","-0.199392328142803","0.3125"
"705.76471","2.30611469806305","-0.980630459551842","1.58792252183821","2.3900493733384","-0.240410178503608","-0.199392328142803","0.3125"
"708.64706","2.30611469806305","-0.980630459551842","1.58792252183821","3.3900493733384","2.75958982149639","-0.199392328142803","0.3125"
"711.52941","3.30611469806305","1.01936954044816","0.587922521838209","3.3900493733384","2.75958982149639","-0.199392328142803","0.3125"
"714.41176","3.30611469806305","1.01936954044816","0.587922521838209","-1.6099506266616","-2.24041017850361","-0.199392328142803","0.3125"
"717.29412","0.306114698063046","1.01936954044816","-1.41207747816179","-1.6099506266616","-2.24041017850361","-0.199392328142803","0.3125"
"720.17647","0.306114698063046","1.01936954044816","-1.41207747816179","0.390049373338397","0.759589821496392","-0.199392328142803","0.3125"
"723.05882","-0.693885301936954","-1.98063045955184","4.58792252183821","0.390049373338397","0.759589821496392","-0.199392328142803","0.3125"
"725.94118","-0.693885301936954","-1.98063045955184","4.58792252183821","3.3900493733384","2.75958982149639","-0.199392328142803","0.3125"
"728.82353","-0.693885301936954","-1.98063045955184","4.58792252183821","3.3900493733384","2.75958982149639","-0.199392328142803","0.3125"
"731.70588","-0.693885301936954","-1.98063045955184","4.58792252183821","-1.6099506266616","1.75958982149639","-0.199392328142803","0.3125"
"734.58824","2.30611469806305","2.01936954044816","0.587922521838209","-1.6099506266616","1.75958982149639","-0.199392328142803","0.3125"
"737.47059","2.30611469806305","2.01936954044816","0.587922521838209","1.3900493733384","-0.240410178503608","-0.199392328142803","0.3125"
"740.35294","0.306114698063046","1.01936954044816","-2.41207747816179","1.3900493733384","-0.240410178503608","-0.199392328142803","0.3125"
"743.23529","0.306114698063046","1.01936954044816","-2.41207747816179","3.3900493733384","0.759589821496392","-0.199392328142803","0.3125"
"746.11765","5.30611469806305","2.01936954044816","2.58792252183821","3.3900493733384","0.759589821496392","-0.199392328142803","0.3125"
"749","5.30611469806305","2.01936954044816","2.58792252183821","-4.6099506266616","-1.24041017850361","-0.199392328142803","0.3125"
"751.88235","6.30611469806305","2.01936954044816","-2.41207747816179","-4.6099506266616","-1.24041017850361","-0.199392328142803","0.3125"
"754.76471","6.30611469806305","2.01936954044816","-2.41207747816179","-3.6099506266616","1.75958982149639","-0.199392328142803","0.3125"
"757.64706","6.30611469806305","2.01936954044816","-2.41207747816179","-3.6099506266616","1.75958982149639","-0.199392328142803","0.3125"
"760.52941","6.30611469806305","2.01936954044816","-2.41207747816179","-0.609950626661603","-0.240410178503608","-0.199392328142803","0.3125"
"763.41176","9.30611469806305","1.01936954044816","3.58792252183821","-0.609950626661603","-0.240410178503608","-0.199392328142803","0.3125"
"766.29412","9.30611469806305","1.01936954044816","3.58792252183821","4.3900493733384","-3.24041017850361","-0.199392328142803","0.3125"
"769.17647","9.30611469806305","-2.98063045955184","4.58792252183821","4.3900493733384","-3.24041017850361","-0.199392328142803","0.3125"
"772.05882","9.30611469806305","-2.98063045955184","4.58792252183821","0.390049373338397","-0.240410178503608","-0.199392328142803","0.3125"
"774.94118","8.30611469806305","1.01936954044816","0.587922521838209","0.390049373338397","-0.240410178503608","-0.199392328142803","0.3125"
"777.82353","8.30611469806305","1.01936954044816","0.587922521838209","-0.609950626661603","-0.240410178503608","-0.199392328142803","0.3125"
"780.70588","6.30611469806305","4.01936954044816","0.587922521838209","-0.609950626661603","-0.240410178503608","-0.199392328142803","0.3125"
"783.58824","6.30611469806305","4.01936954044816","0.587922521838209","-3.6099506266616","-0.240410178503608","-0.199392328142803","0.3125"
"786.47059","6.30611469806305","4.01936954044816","0.587922521838209","-3.6099506266616","-0.240410178503608","-0.199392328142803","0.3125"
"789.35294","6.30611469806305","4.01936954044816","0.587922521838209","3.3900493733384","1.75958982149639","-0.199392328142803","0.3125"
"792.23529","8.30611469806305","-5.98063045955184","1.58792252183821","3.3900493733384","1.75958982149639","-0.199392328142803","0.3125"
"795.11765","8.30611469806305","-5.98063045955184","1.58792252183821","2.3900493733384","-0.240410178503608","-0.199392328142803","0.3125"
"798","7.30611469806305","1.01936954044816","-0.412077478161791","2.3900493733384","-0.240410178503608","-0.199392328142803","0.3125"
"803.23333","7.30611469806305","1.01936954044816","-0.412077478161791","0.390049373338397","0.759589821496392","-0.199392328142803","0.3125"
"806.46667","7.30611469806305","10.0193695404482","-1.41207747816179","0.390049373338397","0.759589821496392","-0.199392328142803","0.3125"
"809.7","7.30611469806305","10.0193695404482","-1.41207747816179","0.390049373338397","0.759589821496392","-0.199392328142803","0.3125"
"812.93333","4.30611469806305","-4.98063045955184","3.58792252183821","0.390049373338397","0.759589821496392","-0.199392328142803","0.3125"
"816.16667","4.30611469806305","-4.98063045955184","3.58792252183821","4.3900493733384","1.75958982149639","-0.199392328142803","0.3125"
"819.4","4.30611469806305","-4.98063045955184","3.58792252183821","4.3900493733384","1.75958982149639","-0.199392328142803","0.3125"
"822.63333","4.30611469806305","-4.98063045955184","3.58792252183821","3.3900493733384","1.75958982149639","-0.199392328142803","0.3125"
"825.86667","3.30611469806305","13.0193695404482","-0.412077478161791","3.3900493733384","1.75958982149639","-0.199392328142803","0.3125"
"829.1","3.30611469806305","13.0193695404482","-0.412077478161791","-1.6099506266616","-0.240410178503608","-0.199392328142803","0.3125"
"832.33333","1.30611469806305","8.01936954044816","-3.41207747816179","-1.6099506266616","-0.240410178503608","-0.199392328142803","0.3125"
"835.56667","1.30611469806305","8.01936954044816","-3.41207747816179","3.3900493733384","0.759589821496392","-0.199392328142803","0.3125"
"838.8","3.30611469806305","-4.98063045955184","2.58792252183821","3.3900493733384","0.759589821496392","-0.199392328142803","0.3125"
"842.03333","3.30611469806305","-4.98063045955184","2.58792252183821","1.3900493733384","-0.240410178503608","-0.199392328142803","0.3125"
"845.26667","3.30611469806305","8.01936954044816","-0.412077478161791","1.3900493733384","-0.240410178503608","-0.199392328142803","0.3125"
"848.5","3.30611469806305","8.01936954044816","-0.412077478161791","-4.6099506266616","-4.24041017850361","-0.199392328142803","0.3125"
"851.73333","3.30611469806305","8.01936954044816","-0.412077478161791","-4.6099506266616","-4.24041017850361","-0.199392328142803","0.3125"
"854.96667","3.30611469806305","8.01936954044816","-0.412077478161791","-0.609950626661603","-1.24041017850361","-0.199392328142803","0.3125"
"858.2","3.30611469806305","-4.98063045955184","2.58792252183821","-0.609950626661603","-1.24041017850361","-0.199392328142803","0.3125"
"861.43333","3.30611469806305","-4.98063045955184","2.58792252183821","3.3900493733384","-0.240410178503608","-0.199392328142803","0.3125"
"864.66667","3.30611469806305","-2.98063045955184","0.587922521838209","3.3900493733384","-0.240410178503608","-0.199392328142803","0.3125"
"867.9","3.30611469806305","-2.98063045955184","0.587922521838209","-2.6099506266616","-0.240410178503608","-0.199392328142803","0.3125"
"871.13333","2.30611469806305","1.01936954044816","0.587922521838209","-2.6099506266616","-0.240410178503608","-0.199392328142803","0.3125"
"874.36667","2.30611469806305","1.01936954044816","0.587922521838209","-4.6099506266616","0.759589821496392","-0.199392328142803","0.3125"
"877.6","3.30611469806305","1.01936954044816","3.58792252183821","-4.6099506266616","0.759589821496392","-0.199392328142803","0.3125"
"880.83333","3.30611469806305","1.01936954044816","3.58792252183821","-0.609950626661603","-1.24041017850361","-0.199392328142803","0.3125"
"884.06667","3.30611469806305","1.01936954044816","3.58792252183821","-0.609950626661603","-1.24041017850361","-0.199392328142803","0.3125"
"887.3","3.30611469806305","1.01936954044816","3.58792252183821","3.3900493733384","-0.240410178503608","-0.199392328142803","0.3125"
"890.53333","5.30611469806305","-1.98063045955184","-0.412077478161791","3.3900493733384","-0.240410178503608","-0.199392328142803","0.3125"
"893.76667","5.30611469806305","-1.98063045955184","-0.412077478161791","2.3900493733384","-0.240410178503608","-0.199392328142803","0.3125"
"897","7.30611469806305","1.01936954044816","1.58792252183821","2.3900493733384","-0.240410178503608","-0.199392328142803","0.3125"
"902.96875","7.30611469806305","1.01936954044816","1.58792252183821","-0.609950626661603","1.75958982149639","-0.199392328142803","0.3125"
"905.9375","4.30611469806305","4.01936954044816","-1.41207747816179","-0.609950626661603","1.75958982149639","-0.199392328142803","0.3125"
"908.90625","4.30611469806305","4.01936954044816","-1.41207747816179","1.3900493733384","-2.24041017850361","-0.199392328142803","0.3125"
"911.875","4.30611469806305","0.019369540448158","2.58792252183821","1.3900493733384","-2.24041017850361","-0.199392328142803","0.3125"
"914.84375","4.30611469806305","0.019369540448158","2.58792252183821","3.3900493733384","-1.24041017850361","-0.199392328142803","0.3125"
"917.8125","4.30611469806305","0.019369540448158","2.58792252183821","3.3900493733384","-1.24041017850361","-0.199392328142803","0.3125"
"920.78125","4.30611469806305","0.019369540448158","2.58792252183821","1.3900493733384","-2.24041017850361","-0.199392328142803","0.3125"
"923.75","5.30611469806305","8.01936954044816","1.58792252183821","1.3900493733384","-2.24041017850361","-0.199392328142803","0.3125"
"926.71875","5.30611469806305","8.01936954044816","1.58792252183821","1.3900493733384","-1.24041017850361","-0.199392328142803","0.3125"
"929.6875","6.30611469806305","2.01936954044816","1.58792252183821","1.3900493733384","-1.24041017850361","-0.199392328142803","0.3125"
"932.65625","6.30611469806305","2.01936954044816","1.58792252183821","4.3900493733384","-2.24041017850361","-0.199392328142803","0.3125"
"935.625","5.30611469806305","-2.98063045955184","2.58792252183821","4.3900493733384","-2.24041017850361","-0.199392328142803","0.3125"
"938.59375","5.30611469806305","-2.98063045955184","2.58792252183821","3.3900493733384","-1.24041017850361","-0.199392328142803","0.3125"
"941.5625","4.30611469806305","0.019369540448158","2.58792252183821","3.3900493733384","-1.24041017850361","-0.199392328142803","0.3125"
"944.53125","4.30611469806305","0.019369540448158","2.58792252183821","0.390049373338397","-3.24041017850361","-0.199392328142803","0.3125"
"947.5","4.30611469806305","0.019369540448158","2.58792252183821","0.390049373338397","-3.24041017850361","-0.199392328142803","0.3125"
"950.46875","4.30611469806305","0.019369540448158","2.58792252183821","0.390049373338397","1.75958982149639","-0.199392328142803","0.3125"
"953.4375","6.30611469806305","2.01936954044816","1.58792252183821","0.390049373338397","1.75958982149639","-0.199392328142803","0.3125"
"956.40625","6.30611469806305","2.01936954044816","1.58792252183821","4.3900493733384","0.759589821496392","-0.199392328142803","0.3125"
"959.375","3.30611469806305","1.01936954044816","1.58792252183821","4.3900493733384","0.759589821496392","-0.199392328142803","0.3125"
"962.34375","3.30611469806305","1.01936954044816","1.58792252183821","2.3900493733384","-0.240410178503608","-0.199392328142803","0.3125"
"965.3125","4.30611469806305","2.01936954044816","-0.412077478161791","2.3900493733384","-0.240410178503608","-0.199392328142803","0.3125"
"968.28125","4.30611469806305","2.01936954044816","-0.412077478161791","1.3900493733384","-1.24041017850361","-0.199392328142803","0.3125"
"971.25","5.30611469806305","4.01936954044816","0.587922521838209","1.3900493733384","-1.24041017850361","-0.199392328142803","0.3125"
"974.21875","5.30611469806305","4.01936954044816","0.587922521838209","0.390049373338397","0.759589821496392","-0.199392328142803","0.3125"
"977.1875","5.30611469806305","4.01936954044816","0.587922521838209","0.390049373338397","0.759589821496392","-0.199392328142803","0.3125"
"980.15625","5.30611469806305","4.01936954044816","0.587922521838209","2.3900493733384","-3.24041017850361","-0.199392328142803","0.3125"
"983.125","3.30611469806305","-0.980630459551842","1.58792252183821","2.3900493733384","-3.24041017850361","-0.199392328142803","0.3125"
"986.09375","3.30611469806305","-0.980630459551842","1.58792252183821","1.3900493733384","-1.24041017850361","-0.199392328142803","0.3125"
"989.0625","0.306114698063046","5.01936954044816","-3.41207747816179","1.3900493733384","-1.24041017850361","-0.199392328142803","0.3125"
"992.03125","0.306114698063046","5.01936954044816","-3.41207747816179","1.3900493733384","-3.24041017850361","-0.199392328142803","0.3125"
"995","3.30611469806305","2.01936954044816","-1.41207747816179","1.3900493733384","-3.24041017850361","-0.199392328142803","0.3125"
"1002.82353","3.30611469806305","2.01936954044816","-1.41207747816179","-1.6099506266616","-0.240410178503608","-0.199392328142803","0.3125"
"1005.64706","3.30611469806305","-1.98063045955184","2.58792252183821","-1.6099506266616","-0.240410178503608","-0.199392328142803","0.3125"
"1008.47059","3.30611469806305","-1.98063045955184","2.58792252183821","3.3900493733384","-3.24041017850361","-0.199392328142803","0.3125"
"1011.29412","3.30611469806305","-1.98063045955184","2.58792252183821","3.3900493733384","-3.24041017850361","-0.199392328142803","0.3125"
"1014.11765","3.30611469806305","-1.98063045955184","2.58792252183821","-0.609950626661603","-2.24041017850361","-0.199392328142803","0.3125"
"1016.94118","4.30611469806305","1.01936954044816","1.58792252183821","-0.609950626661603","-2.24041017850361","-0.199392328142803","0.3125"
"1019.76471","4.30611469806305","1.01936954044816","1.58792252183821","0.390049373338397","-1.24041017850361","-0.199392328142803","0.3125"
"1022.58824","4.30611469806305","-0.980630459551842","-0.412077478161791","0.390049373338397","-1.24041017850361","-0.199392328142803","0.3125"
"1025.41176","4.30611469806305","-0.980630459551842","-0.412077478161791","3.3900493733384","1.75958982149639","-0.199392328142803","0.3125"
"1028.23529","4.30611469806305","1.01936954044816","0.587922521838209","3.3900493733384","1.75958982149639","-0.199392328142803","0.3125"
"1031.05882","4.30611469806305","1.01936954044816","0.587922521838209","-1.6099506266616","-1.24041017850361","-0.199392328142803","0.3125"
"1033.88235","2.30611469806305","3.01936954044816","0.587922521838209","-1.6099506266616","-1.24041017850361","-0.199392328142803","0.3125"
"1036.70588","2.30611469806305","3.01936954044816","0.587922521838209","-2.6099506266616","-0.240410178503608","-0.199392328142803","0.3125"
"1039.52941","2.30611469806305","3.01936954044816","0.587922521838209","-2.6099506266616","-0.240410178503608","-0.199392328142803","0.3125"
"1042.35294","2.30611469806305","3.01936954044816","0.587922521838209","1.3900493733384","-2.24041017850361","-0.199392328142803","0.3125"
"1045.17647","3.30611469806305","3.01936954044816","1.58792252183821","1.3900493733384","-2.24041017850361","-0.199392328142803","0.3125"
"1048","3.30611469806305","3.01936954044816","1.58792252183821","0.390049373338397","-2.24041017850361","-0.199392328142803","0.3125"
"1050.82353","4.30611469806305","0.019369540448158","-2.41207747816179","0.390049373338397","-2.24041017850361","-0.199392328142803","0.3125"
"1053.64706","4.30611469806305","0.019369540448158","-2.41207747816179","0.390049373338397","-2.24041017850361","-0.199392328142803","0.3125"
"1056.47059","4.30611469806305","5.01936954044816","-1.41207747816179","0.390049373338397","-2.24041017850361","-0.199392328142803","0.3125"
"1059.29412","4.30611469806305","5.01936954044816","-1.41207747816179","-3.6099506266616","0.759589821496392","-0.199392328142803","0.3125"
"1062.11765","4.30611469806305","6.01936954044816","-0.412077478161791","-3.6099506266616","0.759589821496392","-0.199392328142803","0.3125"
"1064.94118","4.30611469806305","6.01936954044816","-0.412077478161791","0.390049373338397","-1.24041017850361","-0.199392328142803","0.3125"
"1067.76471","4.30611469806305","6.01936954044816","-0.412077478161791","0.390049373338397","-1.24041017850361","-0.199392328142803","0.3125"
"1070.58824","4.30611469806305","6.01936954044816","-0.412077478161791","2.3900493733384","-0.240410178503608","-0.199392328142803","0.3125"
"1073.41176","5.30611469806305","2.01936954044816","0.587922521838209","2.3900493733384","-0.240410178503608","-0.199392328142803","0.3125"
"1076.23529","5.30611469806305","2.01936954044816","0.587922521838209","1.3900493733384","0.759589821496392","-0.199392328142803","0.3125"
"1079.05882","6.30611469806305","6.01936954044816","-1.41207747816179","1.3900493733384","0.759589821496392","-0.199392328142803","0.3125"
"1081.88235","6.30611469806305","6.01936954044816","-1.41207747816179","-3.6099506266616","1.75958982149639","-0.199392328142803","0.3125"
"1084.70588","5.30611469806305","-0.980630459551842","0.587922521838209","-3.6099506266616","1.75958982149639","-0.199392328142803","0.3125"
"1087.52941","5.30611469806305","-0.980630459551842","0.587922521838209","-1.6099506266616","-2.24041017850361","-0.199392328142803","0.3125"
"1090.35294","5.30611469806305","0.019369540448158","1.58792252183821","-1.6099506266616","-2.24041017850361","-0.199392328142803","0.3125"
"1093.17647","5.30611469806305","0.019369540448158","1.58792252183821","3.3900493733384","-0.240410178503608","-0.199392328142803","0.3125"
"1096","5.30611469806305","0.019369540448158","1.58792252183821","3.3900493733384","-0.240410178503608","-0.199392328142803","0.3125"
"1103.32143","5.30611469806305","0.019369540448158","1.58792252183821","0.390049373338397","-0.240410178503608","-0.199392328142803","0.3125"
"1106.64286","7.30611469806305","1.01936954044816","0.587922521838209","0.390049373338397","-0.240410178503608","-0.199392328142803","0.3125"
"1109.96429","7.30611469806305","1.01936954044816","0.587922521838209","1.3900493733384","-1.24041017850361","-0.199392328142803","0.3125"
"1113.28571","4.30611469806305","1.01936954044816","0.587922521838209","1.3900493733384","-1.24041017850361","-0.199392328142803","0.3125"
"1116.60714","4.30611469806305","1.01936954044816","0.587922521838209","-1.6099506266616","-2.24041017850361","-0.199392328142803","0.3125"
"1119.92857","3.30611469806305","0.019369540448158","-0.412077478161791","-1.6099506266616","-2.24041017850361","-0.199392328142803","0.3125"
"1123.25","3.30611469806305","0.019369540448158","-0.412077478161791","-2.6099506266616","-2.24041017850361","-0.199392328142803","0.3125"
"1126.57143","4.30611469806305","0.019369540448158","2.58792252183821","-2.6099506266616","-2.24041017850361","-0.199392328142803","0.3125"
"1129.89286","4.30611469806305","0.019369540448158","2.58792252183821","-0.609950626661603","0.759589821496392","-0.199392328142803","0.3125"
"1133.21429","4.30611469806305","0.019369540448158","2.58792252183821","-0.609950626661603","0.759589821496392","-0.199392328142803","0.3125"
"1136.53571","4.30611469806305","0.019369540448158","2.58792252183821","0.390049373338397","-0.240410178503608","-0.199392328142803","0.3125"
"1139.85714","5.30611469806305","1.01936954044816","0.587922521838209","0.390049373338397","-0.240410178503608","-0.199392328142803","0.3125"
"1143.17857","5.30611469806305","1.01936954044816","0.587922521838209","3.3900493733384","-3.24041017850361","-0.199392328142803","0.3125"
"1146.5","6.30611469806305","2.01936954044816","-0.412077478161791","3.3900493733384","-3.24041017850361","-0.199392328142803","0.3125"
"1149.82143","6.30611469806305","2.01936954044816","-0.412077478161791","2.3900493733384","1.75958982149639","-0.199392328142803","0.3125"
"1153.14286","6.30611469806305","2.01936954044816","0.587922521838209","2.3900493733384","1.75958982149639","-0.199392328142803","0.3125"
"1156.46429","6.30611469806305","2.01936954044816","0.587922521838209","-0.609950626661603","0.759589821496392","-0.199392328142803","0.3125"
"1159.78571","3.30611469806305","0.019369540448158","1.58792252183821","-0.609950626661603","0.759589821496392","-0.199392328142803","0.3125"
"1163.10714","3.30611469806305","0.019369540448158","1.58792252183821","3.3900493733384","-2.24041017850361","-0.199392328142803","0.3125"
"1166.42857","3.30611469806305","0.019369540448158","1.58792252183821","3.3900493733384","-2.24041017850361","-0.199392328142803","0.3125"
"1169.75","3.30611469806305","0.019369540448158","1.58792252183821","3.3900493733384","-0.240410178503608","-0.199392328142803","0.3125"
"1173.07143","4.30611469806305","4.01936954044816","0.587922521838209","3.3900493733384","-0.240410178503608","-0.199392328142803","0.3125"
"1176.39286","4.30611469806305","4.01936954044816","0.587922521838209","1.3900493733384","0.759589821496392","-0.199392328142803","0.3125"
"1179.71429","4.30611469806305","2.01936954044816","-2.41207747816179","1.3900493733384","0.759589821496392","-0.199392328142803","0.3125"
"1183.03571","4.30611469806305","2.01936954044816","-2.41207747816179","1.3900493733384","1.75958982149639","-0.199392328142803","0.3125"
"1186.35714","7.30611469806305","3.01936954044816","0.587922521838209","1.3900493733384","1.75958982149639","-0.199392328142803","0.3125"
"1189.67857","7.30611469806305","3.01936954044816","0.587922521838209","1.3900493733384","-2.24041017850361","-0.199392328142803","0.3125"
"1193","3.30611469806305","1.01936954044816","-1.41207747816179","1.3900493733384","-2.24041017850361","-0.199392328142803","0.3125"
"1202.72222","3.30611469806305","1.01936954044816","-1.41207747816179","-1.6099506266616","-0.240410178503608","-0.199392328142803","0.3125"
"1205.44444","3.30611469806305","1.01936954044816","-1.41207747816179","-1.6099506266616","-0.240410178503608","-0.199392328142803","0.3125"
"1208.16667","3.30611469806305","1.01936954044816","-1.41207747816179","1.3900493733384","-0.240410178503608","-0.199392328142803","0.3125"
"1210.88889","4.30611469806305","1.01936954044816","0.587922521838209","1.3900493733384","-0.240410178503608","-0.199392328142803","0.3125"
"1213.61111","4.30611469806305","1.01936954044816","0.587922521838209","2.3900493733384","0.759589821496392","-0.199392328142803","0.3125"
"1216.33333","4.30611469806305","-0.980630459551842","-1.41207747816179","2.3900493733384","0.759589821496392","-0.199392328142803","0.3125"
"1219.05556","4.30611469806305","-0.980630459551842","-1.41207747816179","0.390049373338397","-0.240410178503608","-0.199392328142803","0.3125"
"1221.77778","6.30611469806305","2.01936954044816","0.587922521838209","0.390049373338397","-0.240410178503608","-0.199392328142803","0.3125"
"1224.5","6.30611469806305","2.01936954044816","0.587922521838209","0.390049373338397","-1.24041017850361","-0.199392328142803","0.3125"
"1227.22222","3.30611469806305","2.01936954044816","1.58792252183821","0.390049373338397","-1.24041017850361","-0.199392328142803","0.3125"
"1229.94444","3.30611469806305","2.01936954044816","1.58792252183821","1.3900493733384","-2.24041017850361","-0.199392328142803","0.3125"
"1232.66667","3.30611469806305","2.01936954044816","1.58792252183821","1.3900493733384","-2.24041017850361","-0.199392328142803","0.3125"
"1235.38889","3.30611469806305","2.01936954044816","1.58792252183821","2.3900493733384","0.759589821496392","-0.199392328142803","0.3125"
"1238.11111","6.30611469806305","-0.980630459551842","1.58792252183821","2.3900493733384","0.759589821496392","-0.199392328142803","0.3125"
"1240.83333","6.30611469806305","-0.980630459551842","1.58792252183821","1.3900493733384","-2.24041017850361","-0.199392328142803","0.3125"
"1243.55556","6.30611469806305","-0.980630459551842","1.58792252183821","1.3900493733384","-2.24041017850361","-0.199392328142803","0.3125"
"1246.27778","6.30611469806305","-0.980630459551842","1.58792252183821","-1.6099506266616","-2.24041017850361","-0.199392328142803","0.3125"
"1249","6.30611469806305","1.01936954044816","0.587922521838209","-1.6099506266616","-2.24041017850361","-0.199392328142803","0.3125"
"1251.72222","6.30611469806305","1.01936954044816","0.587922521838209","0.390049373338397","-2.24041017850361","-0.199392328142803","0.3125"
"1254.44444","5.30611469806305","1.01936954044816","0.587922521838209","0.390049373338397","-2.24041017850361","-0.199392328142803","0.3125"
"1257.16667","5.30611469806305","1.01936954044816","0.587922521838209","3.3900493733384","0.759589821496392","-0.199392328142803","0.3125"
"1259.88889","5.30611469806305","1.01936954044816","0.587922521838209","3.3900493733384","0.759589821496392","-0.199392328142803","0.3125"
"1262.61111","5.30611469806305","1.01936954044816","0.587922521838209","0.390049373338397","-0.240410178503608","-0.199392328142803","0.3125"
"1265.33333","6.30611469806305","0.019369540448158","3.58792252183821","0.390049373338397","-0.240410178503608","-0.199392328142803","0.3125"
"1268.05556","6.30611469806305","0.019369540448158","3.58792252183821","-0.609950626661603","-2.24041017850361","-0.199392328142803","0.3125"
"1270.77778","6.30611469806305","0.019369540448158","3.58792252183821","-0.609950626661603","-2.24041017850361","-0.199392328142803","0.3125"
"1273.5","6.30611469806305","0.019369540448158","3.58792252183821","0.390049373338397","-3.24041017850361","-0.199392328142803","0.3125"
"1276.22222","4.30611469806305","1.01936954044816","-0.412077478161791","0.390049373338397","-3.24041017850361","-0.199392328142803","0.3125"
"1278.94444","4.30611469806305","1.01936954044816","-0.412077478161791","-1.6099506266616","0.759589821496392","-0.199392328142803","0.3125"
"1281.66667","6.30611469806305","3.01936954044816","1.58792252183821","-1.6099506266616","0.759589821496392","-0.199392328142803","0.3125"
"1284.38889","6.30611469806305","3.01936954044816","1.58792252183821","-2.6099506266616","1.75958982149639","-0.199392328142803","0.3125"
"1287.11111","6.30611469806305","3.01936954044816","1.58792252183821","-2.6099506266616","1.75958982149639","-0.199392328142803","0.3125"
"1289.83333","6.30611469806305","3.01936954044816","1.58792252183821","1.3900493733384","1.75958982149639","-0.199392328142803","0.3125"
"1292.55556","2.30611469806305","1.01936954044816","1.58792252183821","1.3900493733384","1.75958982149639","-0.199392328142803","0.3125"
"1295.27778","2.30611469806305","1.01936954044816","1.58792252183821","1.3900493733384","0.759589821496392","-0.199392328142803","0.3125"
"1298","2.30611469806305","1.01936954044816","1.58792252183821","1.3900493733384","0.759589821496392","-0.199392328142803","0.3125"
"1303.09375","2.30611469806305","1.01936954044816","1.58792252183821","2.3900493733384","0.759589821496392","-0.199392328142803","0.3125"
"1306.1875","4.30611469806305","3.01936954044816","-0.412077478161791","2.3900493733384","0.759589821496392","-0.199392328142803","0.3125"
"1309.28125","4.30611469806305","3.01936954044816","-0.412077478161791","6.3900493733384","-3.24041017850361","-0.199392328142803","0.3125"
"1312.375","3.30611469806305","3.01936954044816","0.587922521838209","6.3900493733384","-3.24041017850361","-0.199392328142803","0.3125"
"1315.46875","3.30611469806305","3.01936954044816","0.587922521838209","3.3900493733384","-0.240410178503608","-0.199392328142803","0.3125"
"1318.5625","3.30611469806305","3.01936954044816","0.587922521838209","3.3900493733384","-0.240410178503608","-0.199392328142803","0.3125"
"1321.65625","3.30611469806305","3.01936954044816","0.587922521838209","0.390049373338397","-1.24041017850361","-0.199392328142803","0.3125"
"1324.75","3.30611469806305","1.01936954044816","0.587922521838209","0.390049373338397","-1.24041017850361","-0.199392328142803","0.3125"
"1327.84375","3.30611469806305","1.01936954044816","0.587922521838209","-0.609950626661603","0.759589821496392","-0.199392328142803","0.3125"
"1330.9375","4.30611469806305","3.01936954044816","0.587922521838209","-0.609950626661603","0.759589821496392","-0.199392328142803","0.3125"
"1334.03125","4.30611469806305","3.01936954044816","0.587922521838209","-0.609950626661603","-3.24041017850361","-0.199392328142803","0.3125"
"1337.125","6.30611469806305","1.01936954044816","1.58792252183821","-0.609950626661603","-3.24041017850361","-0.199392328142803","0.3125"
"1340.21875","6.30611469806305","1.01936954044816","1.58792252183821","0.390049373338397","-1.24041017850361","-0.199392328142803","0.3125"
"1343.3125","4.30611469806305","-0.980630459551842","-2.41207747816179","0.390049373338397","-1.24041017850361","-0.199392328142803","0.3125"
"1346.40625","4.30611469806305","-0.980630459551842","-2.41207747816179","-2.6099506266616","-1.24041017850361","-0.199392328142803","0.3125"
"1349.5","4.30611469806305","1.01936954044816","0.587922521838209","-2.6099506266616","-1.24041017850361","-0.199392328142803","0.3125"
"1352.59375","4.30611469806305","1.01936954044816","0.587922521838209","4.3900493733384","1.75958982149639","-0.199392328142803","0.3125"
"1355.6875","3.30611469806305","2.01936954044816","0.587922521838209","4.3900493733384","1.75958982149639","-0.199392328142803","0.3125"
"1358.78125","3.30611469806305","2.01936954044816","0.587922521838209","2.3900493733384","-0.240410178503608","-0.199392328142803","0.3125"
"1361.875","6.30611469806305","1.01936954044816","1.58792252183821","2.3900493733384","-0.240410178503608","-0.199392328142803","0.3125"
"1364.96875","6.30611469806305","1.01936954044816","1.58792252183821","-0.609950626661603","-1.24041017850361","-0.199392328142803","0.3125"
"1368.0625","4.30611469806305","0.019369540448158","-2.41207747816179","-0.609950626661603","-1.24041017850361","-0.199392328142803","0.3125"
"1371.15625","4.30611469806305","0.019369540448158","-2.41207747816179","0.390049373338397","-2.24041017850361","-0.199392328142803","0.3125"
"1374.25","4.30611469806305","1.01936954044816","0.587922521838209","0.390049373338397","-2.24041017850361","-0.199392328142803","0.3125"
"1377.34375","4.30611469806305","1.01936954044816","0.587922521838209","1.3900493733384","-2.24041017850361","-0.199392328142803","0.3125"
"1380.4375","5.30611469806305","1.01936954044816","1.58792252183821","1.3900493733384","-2.24041017850361","-0.199392328142803","0.3125"
"1383.53125","5.30611469806305","1.01936954044816","1.58792252183821","-0.609950626661603","-1.24041017850361","-0.199392328142803","0.3125"
"1386.625","5.30611469806305","1.01936954044816","0.587922521838209","-0.609950626661603","-1.24041017850361","-0.199392328142803","0.3125"
"1389.71875","5.30611469806305","1.01936954044816","0.587922521838209","1.3900493733384","-0.240410178503608","-0.199392328142803","0.3125"
"1392.8125","5.30611469806305","0.019369540448158","1.58792252183821","1.3900493733384","-0.240410178503608","-0.199392328142803","0.3125"
"1395.90625","5.30611469806305","0.019369540448158","1.58792252183821","1.3900493733384","-1.24041017850361","-0.199392328142803","0.3125"
"1399","5.30611469806305","1.01936954044816","0.587922521838209","1.3900493733384","-1.24041017850361","-0.199392328142803","0.3125"
"1402.9375","5.30611469806305","1.01936954044816","0.587922521838209","0.390049373338397","-1.24041017850361","-0.199392328142803","0.3125"
"1405.875","5.30611469806305","3.01936954044816","0.587922521838209","0.390049373338397","-1.24041017850361","-0.199392328142803","0.3125"
"1408.8125","5.30611469806305","3.01936954044816","0.587922521838209","3.3900493733384","-2.24041017850361","-0.199392328142803","0.3125"
"1411.75","6.30611469806305","1.01936954044816","0.587922521838209","3.3900493733384","-2.24041017850361","-0.199392328142803","0.3125"
"1414.6875","6.30611469806305","1.01936954044816","0.587922521838209","1.3900493733384","-1.24041017850361","-0.199392328142803","0.3125"
"1417.625","7.30611469806305","3.01936954044816","1.58792252183821","1.3900493733384","-1.24041017850361","-0.199392328142803","0.3125"
"1420.5625","7.30611469806305","3.01936954044816","1.58792252183821","-1.6099506266616","0.759589821496392","-0.199392328142803","0.3125"
"1423.5","3.30611469806305","4.01936954044816","1.58792252183821","-1.6099506266616","0.759589821496392","-0.199392328142803","0.3125"
"1426.4375","3.30611469806305","4.01936954044816","1.58792252183821","-0.609950626661603","0.759589821496392","-0.199392328142803","0.3125"
"1429.375","5.30611469806305","2.01936954044816","-1.41207747816179","-0.609950626661603","0.759589821496392","-0.199392328142803","0.3125"
"1432.3125","5.30611469806305","2.01936954044816","-1.41207747816179","0.390049373338397","-0.240410178503608","-0.199392328142803","0.3125"
"1435.25","3.30611469806305","3.01936954044816","-0.412077478161791","0.390049373338397","-0.240410178503608","-0.199392328142803","0.3125"
"1438.1875","3.30611469806305","3.01936954044816","-0.412077478161791","1.3900493733384","-0.240410178503608","-0.199392328142803","0.3125"
"1441.125","6.30611469806305","1.01936954044816","3.58792252183821","1.3900493733384","-0.240410178503608","-0.199392328142803","0.3125"
"1444.0625","6.30611469806305","1.01936954044816","3.58792252183821","1.3900493733384","-2.24041017850361","-0.199392328142803","0.3125"
"1447","6.30611469806305","1.01936954044816","0.587922521838209","1.3900493733384","-2.24041017850361","-0.199392328142803","0.3125"
"1449.9375","6.30611469806305","1.01936954044816","0.587922521838209","0.390049373338397","-2.24041017850361","-0.199392328142803","0.3125"
"1452.875","6.30611469806305","1.01936954044816","0.587922521838209","0.390049373338397","-2.24041017850361","-0.199392328142803","0.3125"
"1455.8125","6.30611469806305","1.01936954044816","0.587922521838209","1.3900493733384","-0.240410178503608","-0.199392328142803","0.3125"
"1458.75","5.30611469806305","0.019369540448158","0.587922521838209","1.3900493733384","-0.240410178503608","-0.199392328142803","0.3125"
"1461.6875","5.30611469806305","0.019369540448158","0.587922521838209","2.3900493733384","0.759589821496392","-0.199392328142803","0.3125"
"1464.625","6.30611469806305","0.019369540448158","0.587922521838209","2.3900493733384","0.759589821496392","-0.199392328142803","0.3125"
"1467.5625","6.30611469806305","0.019369540448158","0.587922521838209","1.3900493733384","2.75958982149639","-0.199392328142803","0.3125"
"1470.5","6.30611469806305","2.01936954044816","-0.412077478161791","1.3900493733384","2.75958982149639","-0.199392328142803","0.3125"
"1473.4375","6.30611469806305","2.01936954044816","-0.412077478161791","3.3900493733384","-0.240410178503608","-0.199392328142803","0.3125"
"1476.375","4.30611469806305","1.01936954044816","3.58792252183821","3.3900493733384","-0.240410178503608","-0.199392328142803","0.3125"
"1479.3125","4.30611469806305","1.01936954044816","3.58792252183821","-0.609950626661603","1.75958982149639","-0.199392328142803","0.3125"
"1482.25","5.30611469806305","1.01936954044816","0.587922521838209","-0.609950626661603","1.75958982149639","-0.199392328142803","0.3125"
"1485.1875","5.30611469806305","1.01936954044816","0.587922521838209","-2.6099506266616","-0.240410178503608","-0.199392328142803","0.3125"
"1488.125","5.30611469806305","1.01936954044816","1.58792252183821","-2.6099506266616","-0.240410178503608","-0.199392328142803","0.3125"
"1491.0625","5.30611469806305","1.01936954044816","1.58792252183821","-0.609950626661603","-1.24041017850361","-0.199392328142803","0.3125"
"1494","5.30611469806305","2.01936954044816","0.587922521838209","-0.609950626661603","-1.24041017850361","-0.199392328142803","0.3125"
"1500","5.30611469806305","2.01936954044816","0.587922521838209","1.3900493733384","-1.24041017850361","-0.199392328142803","0.3125"
"1500","4.30611469806305","1.01936954044816","1.58792252183821","1.3900493733384","-1.24041017850361","-0.199392328142803","0.3125"
"1503.46429","4.30611469806305","1.01936954044816","1.58792252183821","0.390049373338397","0.759589821496392","-0.199392328142803","0.3125"
"1506.92857","5.30611469806305","3.01936954044816","2.58792252183821","0.390049373338397","0.759589821496392","-0.199392328142803","0.3125"
"1510.39286","5.30611469806305","3.01936954044816","2.58792252183821","0.390049373338397","0.759589821496392","-0.199392328142803","0.3125"
"1513.85714","3.30611469806305","1.01936954044816","1.58792252183821","0.390049373338397","0.759589821496392","-0.199392328142803","0.3125"
"1517.32143","3.30611469806305","1.01936954044816","1.58792252183821","-3.6099506266616","-2.24041017850361","-0.199392328142803","0.3125"
"1520.78571","7.30611469806305","4.01936954044816","3.58792252183821","-3.6099506266616","-2.24041017850361","-0.199392328142803","0.3125"
"1524.25","7.30611469806305","4.01936954044816","3.58792252183821","-2.6099506266616","-0.240410178503608","-0.199392328142803","0.3125"
"1527.71429","4.30611469806305","1.01936954044816","-0.412077478161791","-2.6099506266616","-0.240410178503608","-0.199392328142803","0.3125"
"1531.17857","4.30611469806305","1.01936954044816","-0.412077478161791","4.3900493733384","0.759589821496392","-0.199392328142803","0.3125"
"1534.64286","2.30611469806305","0.019369540448158","4.58792252183821","4.3900493733384","0.759589821496392","-0.199392328142803","0.3125"
"1538.10714","2.30611469806305","0.019369540448158","4.58792252183821","-1.6099506266616","1.75958982149639","-0.199392328142803","0.3125"
"1541.57143","5.30611469806305","5.01936954044816","1.58792252183821","-1.6099506266616","1.75958982149639","-0.199392328142803","0.3125"
"1545.03571","5.30611469806305","5.01936954044816","1.58792252183821","-0.609950626661603","1.75958982149639","-0.199392328142803","0.3125"
"1548.5","5.30611469806305","1.01936954044816","-1.41207747816179","-0.609950626661603","1.75958982149639","-0.199392328142803","0.3125"
"1551.96429","5.30611469806305","1.01936954044816","-1.41207747816179","2.3900493733384","-0.240410178503608","-0.199392328142803","0.3125"
"1555.42857","5.30611469806305","0.019369540448158","2.58792252183821","2.3900493733384","-0.240410178503608","-0.199392328142803","0.3125"
"1558.89286","5.30611469806305","0.019369540448158","2.58792252183821","-0.609950626661603","-1.24041017850361","-0.199392328142803","0.3125"
"1562.35714","4.30611469806305","4.01936954044816","0.587922521838209","-0.609950626661603","-1.24041017850361","-0.199392328142803","0.3125"
"1565.82143","4.30611469806305","4.01936954044816","0.587922521838209","4.3900493733384","-2.24041017850361","-0.199392328142803","0.3125"
"1569.28571","5.30611469806305","1.01936954044816","0.587922521838209","4.3900493733384","-2.24041017850361","-0.199392328142803","0.3125"
"1572.75","5.30611469806305","1.01936954044816","0.587922521838209","0.390049373338397","0.759589821496392","-0.199392328142803","0.3125"
"1576.21429","5.30611469806305","0.019369540448158","-0.412077478161791","0.390049373338397","0.759589821496392","-0.199392328142803","0.3125"
"1579.67857","5.30611469806305","0.019369540448158","-0.412077478161791","-2.6099506266616","0.759589821496392","-0.199392328142803","0.3125"
"1583.14286","4.30611469806305","2.01936954044816","1.58792252183821","-2.6099506266616","0.759589821496392","-0.199392328142803","0.3125"
"1586.60714","4.30611469806305","2.01936954044816","1.58792252183821","0.390049373338397","-1.24041017850361","-0.199392328142803","0.3125"
"1590.07143","4.30611469806305","1.01936954044816","-0.412077478161791","0.390049373338397","-1.24041017850361","-0.199392328142803","0.3125"
"1593.53571","4.30611469806305","1.01936954044816","-0.412077478161791","-1.6099506266616","-0.240410178503608","-0.199392328142803","0.3125"
"1597","4.30611469806305","0.019369540448158","1.58792252183821","-1.6099506266616","-0.240410178503608","-0.199392328142803","0.3125"
"1602.82353","4.30611469806305","0.019369540448158","1.58792252183821","1.3900493733384","1.75958982149639","-0.199392328142803","0.3125"
"1605.64706","6.30611469806305","1.01936954044816","1.58792252183821","1.3900493733384","1.75958982149639","-0.199392328142803","0.3125"
"1608.47059","6.30611469806305","1.01936954044816","1.58792252183821","0.390049373338397","0.759589821496392","-0.199392328142803","0.3125"
"1611.29412","6.30611469806305","1.01936954044816","0.587922521838209","0.390049373338397","0.759589821496392","-0.199392328142803","0.3125"
"1614.11765","6.30611469806305","1.01936954044816","0.587922521838209","1.3900493733384","0.759589821496392","-0.199392328142803","0.3125"
"1616.94118","5.30611469806305","1.01936954044816","-1.41207747816179","1.3900493733384","0.759589821496392","-0.199392328142803","0.3125"
"1619.76471","5.30611469806305","1.01936954044816","-1.41207747816179","0.390049373338397","0.759589821496392","-0.199392328142803","0.3125"
"1622.58824","3.30611469806305","2.01936954044816","-0.412077478161791","0.390049373338397","0.759589821496392","-0.199392328142803","0.3125"
"1625.41176","3.30611469806305","2.01936954044816","-0.412077478161791","-0.609950626661603","-0.240410178503608","-0.199392328142803","0.3125"
"1628.23529","5.30611469806305","1.01936954044816","1.58792252183821","-0.609950626661603","-0.240410178503608","-0.199392328142803","0.3125"
"1631.05882","5.30611469806305","1.01936954044816","1.58792252183821","-0.609950626661603","-3.24041017850361","-0.199392328142803","0.3125"
"1633.88235","6.30611469806305","2.01936954044816","3.58792252183821","-0.609950626661603","-3.24041017850361","-0.199392328142803","0.3125"
"1636.70588","6.30611469806305","2.01936954044816","3.58792252183821","-0.609950626661603","0.759589821496392","-0.199392328142803","0.3125"
"1639.52941","4.30611469806305","4.01936954044816","0.587922521838209","-0.609950626661603","0.759589821496392","-0.199392328142803","0.3125"
"1642.35294","4.30611469806305","4.01936954044816","0.587922521838209","0.390049373338397","1.75958982149639","-0.199392328142803","0.3125"
"1645.17647","6.30611469806305","0.019369540448158","-0.412077478161791","0.390049373338397","1.75958982149639","-0.199392328142803","0.3125"
"1648","6.30611469806305","0.019369540448158","-0.412077478161791","-0.609950626661603","0.759589821496392","-0.199392328142803","0.3125"
"1650.82353","5.30611469806305","1.01936954044816","-1.41207747816179","-0.609950626661603","0.759589821496392","-0.199392328142803","0.3125"
"1653.64706","5.30611469806305","1.01936954044816","-1.41207747816179","0.390049373338397","-0.240410178503608","-0.199392328142803","0.3125"
"1656.47059","5.30611469806305","2.01936954044816","-0.412077478161791","0.390049373338397","-0.240410178503608","-0.199392328142803","0.3125"
"1659.29412","5.30611469806305","2.01936954044816","-0.412077478161791","-0.609950626661603","2.75958982149639","-0.199392328142803","0.3125"
"1662.11765","5.30611469806305","3.01936954044816","1.58792252183821","-0.609950626661603","2.75958982149639","-0.199392328142803","0.3125"
"1664.94118","5.30611469806305","3.01936954044816","1.58792252183821","2.3900493733384","-0.240410178503608","-0.199392328142803","0.3125"
"1667.76471","5.30611469806305","1.01936954044816","2.58792252183821","2.3900493733384","-0.240410178503608","-0.199392328142803","0.3125"
"1670.58824","5.30611469806305","1.01936954044816","2.58792252183821","-3.6099506266616","-0.240410178503608","-0.199392328142803","0.3125"
"1673.41176","4.30611469806305","-1.98063045955184","0.587922521838209","-3.6099506266616","-0.240410178503608","-0.199392328142803","0.3125"
"1676.23529","4.30611469806305","-1.98063045955184","0.587922521838209","-1.6099506266616","-2.24041017850361","-0.199392328142803","0.3125"
"1679.05882","6.30611469806305","0.019369540448158","0.587922521838209","-1.6099506266616","-2.24041017850361","-0.199392328142803","0.3125"
"1681.88235","6.30611469806305","0.019369540448158","0.587922521838209","-1.6099506266616","-1.24041017850361","-0.199392328142803","0.3125"
"1684.70588","5.30611469806305","4.01936954044816","0.587922521838209","-1.6099506266616","-1.24041017850361","-0.199392328142803","0.3125"
"1687.52941","5.30611469806305","4.01936954044816","0.587922521838209","0.390049373338397","1.75958982149639","-0.199392328142803","0.3125"
"1690.35294","7.30611469806305","1.01936954044816","2.58792252183821","0.390049373338397","1.75958982149639","-0.199392328142803","0.3125"
"1693.17647","7.30611469806305","1.01936954044816","2.58792252183821","3.3900493733384","1.75958982149639","-0.199392328142803","0.3125"
"1696","6.30611469806305","-0.980630459551842","0.587922521838209","3.3900493733384","1.75958982149639","-0.199392328142803","0.3125"
"1703.3","6.30611469806305","-0.980630459551842","0.587922521838209","0.390049373338397","0.759589821496392","-0.199392328142803","0.3125"
"1706.6","6.30611469806305","1.01936954044816","-1.41207747816179","0.390049373338397","0.759589821496392","-0.199392328142803","0.3125"
"1709.9","6.30611469806305","1.01936954044816","-1.41207747816179","0.390049373338397","-0.240410178503608","-0.199392328142803","0.3125"
"1713.2","5.30611469806305","3.01936954044816","-1.41207747816179","0.390049373338397","-0.240410178503608","-0.199392328142803","0.3125"
"1716.5","5.30611469806305","3.01936954044816","-1.41207747816179","1.3900493733384","3.75958982149639","-0.199392328142803","0.3125"
"1719.8","6.30611469806305","1.01936954044816","0.587922521838209","1.3900493733384","3.75958982149639","-0.199392328142803","0.3125"
"1723.1","6.30611469806305","1.01936954044816","0.587922521838209","2.3900493733384","2.75958982149639","-0.199392328142803","0.3125"
"1726.4","6.30611469806305","0.019369540448158","1.58792252183821","2.3900493733384","2.75958982149639","-0.199392328142803","0.3125"
"1729.7","6.30611469806305","0.019369540448158","1.58792252183821","-1.6099506266616","0.759589821496392","-0.199392328142803","0.3125"
"1733","4.30611469806305","1.01936954044816","3.58792252183821","-1.6099506266616","0.759589821496392","-0.199392328142803","0.3125"
"1736.3","4.30611469806305","1.01936954044816","3.58792252183821","-1.6099506266616","-0.240410178503608","-0.199392328142803","0.3125"
"1739.6","7.30611469806305","1.01936954044816","1.58792252183821","-1.6099506266616","-0.240410178503608","-0.199392328142803","0.3125"
"1742.9","7.30611469806305","1.01936954044816","1.58792252183821","-0.609950626661603","0.759589821496392","-0.199392328142803","0.3125"
"1746.2","4.30611469806305","3.01936954044816","-1.41207747816179","-0.609950626661603","0.759589821496392","-0.199392328142803","0.3125"
"1749.5","4.30611469806305","3.01936954044816","-1.41207747816179","-1.6099506266616","0.759589821496392","-0.199392328142803","0.3125"
"1752.8","6.30611469806305","2.01936954044816","3.58792252183821","-1.6099506266616","0.759589821496392","-0.199392328142803","0.3125"
"1756.1","6.30611469806305","2.01936954044816","3.58792252183821","-2.6099506266616","2.75958982149639","-0.199392328142803","0.3125"
"1759.4","6.30611469806305","1.01936954044816","0.587922521838209","-2.6099506266616","2.75958982149639","-0.199392328142803","0.3125"
"1762.7","6.30611469806305","1.01936954044816","0.587922521838209","-0.609950626661603","1.75958982149639","-0.199392328142803","0.3125"
"1766","6.30611469806305","2.01936954044816","2.58792252183821","-0.609950626661603","1.75958982149639","-0.199392328142803","0.3125"
"1769.3","6.30611469806305","2.01936954044816","2.58792252183821","1.3900493733384","-0.240410178503608","-0.199392328142803","0.3125"
"1772.6","5.30611469806305","2.01936954044816","0.587922521838209","1.3900493733384","-0.240410178503608","-0.199392328142803","0.3125"
"1775.9","5.30611469806305","2.01936954044816","0.587922521838209","-1.6099506266616","2.75958982149639","-0.199392328142803","0.3125"
"1779.2","4.30611469806305","1.01936954044816","0.587922521838209","-1.6099506266616","2.75958982149639","-0.199392328142803","0.3125"
"1782.5","4.30611469806305","1.01936954044816","0.587922521838209","-1.6099506266616","-0.240410178503608","-0.199392328142803","0.3125"
"1785.8","3.30611469806305","3.01936954044816","0.587922521838209","-1.6099506266616","-0.240410178503608","-0.199392328142803","0.3125"
"1789.1","3.30611469806305","3.01936954044816","0.587922521838209","1.3900493733384","-2.24041017850361","-0.199392328142803","0.3125"
"1792.4","4.30611469806305","4.01936954044816","1.58792252183821","1.3900493733384","-2.24041017850361","-0.199392328142803","0.3125"
"1795.7","4.30611469806305","4.01936954044816","1.58792252183821","1.3900493733384","0.759589821496392","-0.199392328142803","0.3125"
"1799","4.30611469806305","1.01936954044816","2.58792252183821","1.3900493733384","0.759589821496392","-0.199392328142803","0.3125"
"1803.41379","4.30611469806305","1.01936954044816","2.58792252183821","-0.609950626661603","1.75958982149639","-0.199392328142803","0.3125"
"1806.82759","3.30611469806305","1.01936954044816","0.587922521838209","-0.609950626661603","1.75958982149639","-0.199392328142803","0.3125"
"1810.24138","3.30611469806305","1.01936954044816","0.587922521838209","1.3900493733384","1.75958982149639","-0.199392328142803","0.3125"
"1813.65517","4.30611469806305","2.01936954044816","1.58792252183821","1.3900493733384","1.75958982149639","-0.199392328142803","0.3125"
"1817.06897","4.30611469806305","2.01936954044816","1.58792252183821","2.3900493733384","0.759589821496392","-0.199392328142803","0.3125"
"1820.48276","4.30611469806305","2.01936954044816","-0.412077478161791","2.3900493733384","0.759589821496392","-0.199392328142803","0.3125"
"1823.89655","4.30611469806305","2.01936954044816","-0.412077478161791","0.390049373338397","-0.240410178503608","-0.199392328142803","0.3125"
"1827.31034","4.30611469806305","1.01936954044816","2.58792252183821","0.390049373338397","-0.240410178503608","-0.199392328142803","0.3125"
"1830.72414","4.30611469806305","1.01936954044816","2.58792252183821","0.390049373338397","0.759589821496392","-0.199392328142803","0.3125"
"1834.13793","4.30611469806305","1.01936954044816","1.58792252183821","0.390049373338397","0.759589821496392","-0.199392328142803","0.3125"
"1837.55172","4.30611469806305","1.01936954044816","1.58792252183821","2.3900493733384","-1.24041017850361","-0.199392328142803","0.3125"
"1840.96552","4.30611469806305","2.01936954044816","1.58792252183821","2.3900493733384","-1.24041017850361","-0.199392328142803","0.3125"
"1844.37931","4.30611469806305","2.01936954044816","1.58792252183821","4.3900493733384","-1.24041017850361","-0.199392328142803","0.3125"
"1847.7931","5.30611469806305","1.01936954044816","0.587922521838209","4.3900493733384","-1.24041017850361","-0.199392328142803","0.3125"
"1851.2069","5.30611469806305","1.01936954044816","0.587922521838209","2.3900493733384","-1.24041017850361","-0.199392328142803","0.3125"
"1854.62069","5.30611469806305","-0.980630459551842","0.587922521838209","2.3900493733384","-1.24041017850361","-0.199392328142803","0.3125"
"1858.03448","5.30611469806305","-0.980630459551842","0.587922521838209","3.3900493733384","0.759589821496392","-0.199392328142803","0.3125"
"1861.44828","4.30611469806305","1.01936954044816","0.587922521838209","3.3900493733384","0.759589821496392","-0.199392328142803","0.3125"
"1864.86207","4.30611469806305","1.01936954044816","0.587922521838209","2.3900493733384","-0.240410178503608","-0.199392328142803","0.3125"
"1868.27586","3.30611469806305","1.01936954044816","1.58792252183821","2.3900493733384","-0.240410178503608","-0.199392328142803","0.3125"
"1871.68966","3.30611469806305","1.01936954044816","1.58792252183821","1.3900493733384","-0.240410178503608","-0.199392328142803","0.3125"
"1875.10345","4.30611469806305","0.019369540448158","1.58792252183821","1.3900493733384","-0.240410178503608","-0.199392328142803","0.3125"
"1878.51724","4.30611469806305","0.019369540448158","1.58792252183821","1.3900493733384","-0.240410178503608","-0.199392328142803","0.3125"
"1881.93103","4.30611469806305","1.01936954044816","-1.41207747816179","1.3900493733384","-0.240410178503608","-0.199392328142803","0.3125"
"1885.34483","4.30611469806305","1.01936954044816","-1.41207747816179","0.390049373338397","2.75958982149639","-0.199392328142803","0.3125"
"1888.75862","5.30611469806305","3.01936954044816","0.587922521838209","0.390049373338397","2.75958982149639","-0.199392328142803","0.3125"
"1892.17241","5.30611469806305","3.01936954044816","0.587922521838209","-0.609950626661603","-1.24041017850361","-0.199392328142803","0.3125"
"1895.58621","5.30611469806305","3.01936954044816","0.587922521838209","0.390049373338397","-1.24041017850361","-0.199392328142803","0.3125"
"1899","5.30611469806305","3.01936954044816","0.587922521838209","0.390049373338397","-1.24041017850361","-0.199392328142803","0.3125"
"1903.48148","5.30611469806305","3.01936954044816","0.587922521838209","-3.6099506266616","2.75958982149639","-0.199392328142803","0.3125"
"1906.96296","4.30611469806305","1.01936954044816","-0.412077478161791","-3.6099506266616","2.75958982149639","-0.199392328142803","0.3125"
"1910.44444","4.30611469806305","1.01936954044816","-0.412077478161791","-0.609950626661603","-1.24041017850361","-0.199392328142803","0.3125"
"1913.92593","8.30611469806305","2.01936954044816","0.587922521838209","-0.609950626661603","-1.24041017850361","-0.199392328142803","0.3125"
"1917.40741","8.30611469806305","2.01936954044816","0.587922521838209","-3.6099506266616","-3.24041017850361","-0.199392328142803","0.3125"
"1920.88889","5.30611469806305","3.01936954044816","0.587922521838209","-3.6099506266616","-3.24041017850361","-0.199392328142803","0.3125"
"1924.37037","5.30611469806305","3.01936954044816","0.587922521838209","-0.609950626661603","-1.24041017850361","-0.199392328142803","0.3125"
"1927.85185","5.30611469806305","3.01936954044816","0.587922521838209","0.390049373338397","-1.24041017850361","-0.199392328142803","0.3125"
"1931.33333","5.30611469806305","3.01936954044816","0.587922521838209","0.390049373338397","-1.24041017850361","-0.199392328142803","0.3125"
"1934.81481","5.30611469806305","3.01936954044816","0.587922521838209","-3.6099506266616","2.75958982149639","-0.199392328142803","0.3125"
"1938.2963","4.30611469806305","1.01936954044816","-0.412077478161791","-3.6099506266616","2.75958982149639","-0.199392328142803","0.3125"
"1941.77778","4.30611469806305","1.01936954044816","-0.412077478161791","-0.609950626661603","-1.24041017850361","-0.199392328142803","0.3125"
"1945.25926","8.30611469806305","2.01936954044816","0.587922521838209","-0.609950626661603","-1.24041017850361","-0.199392328142803","0.3125"
"1948.74074","8.30611469806305","2.01936954044816","0.587922521838209","-3.6099506266616","-3.24041017850361","-0.199392328142803","0.3125"
"1952.22222","5.30611469806305","3.01936954044816","0.587922521838209","-3.6099506266616","-3.24041017850361","-0.199392328142803","0.3125"
"1955.7037","5.30611469806305","3.01936954044816","0.587922521838209","-0.609950626661603","-1.24041017850361","-0.199392328142803","0.3125"
"1959.18519","5.30611469806305","3.01936954044816","0.587922521838209","-0.609950626661603","-1.24041017850361","-0.199392328142803","0.3125"
"1962.66667","5.30611469806305","3.01936954044816","0.587922521838209","2.3900493733384","-1.24041017850361","-0.199392328142803","0.3125"
"1966.14815","5.30611469806305","1.01936954044816","0.587922521838209","2.3900493733384","-1.24041017850361","-0.199392328142803","0.3125"
"1969.62963","5.30611469806305","1.01936954044816","0.587922521838209","-2.6099506266616","0.759589821496392","-0.199392328142803","0.3125"
"1973.11111","4.30611469806305","1.01936954044816","-1.41207747816179","-2.6099506266616","0.759589821496392","-0.199392328142803","0.3125"
"1976.59259","4.30611469806305","1.01936954044816","-1.41207747816179","-0.609950626661603","1.75958982149639","-0.199392328142803","0.3125"
"1980.07407","6.30611469806305","1.01936954044816","-0.412077478161791","-0.609950626661603","1.75958982149639","-0.199392328142803","0.3125"
"1983.55556","6.30611469806305","1.01936954044816","-0.412077478161791","-0.609950626661603","0.759589821496392","-0.199392328142803","0.3125"
"1987.03704","5.30611469806305","1.01936954044816","2.58792252183821","-0.609950626661603","0.759589821496392","-0.199392328142803","0.3125"
"1990.51852","5.30611469806305","1.01936954044816","2.58792252183821","-3.6099506266616","-1.24041017850361","-0.199392328142803","0.3125"
"1994","5.30611469806305","1.01936954044816","2.58792252183821","-3.6099506266616","-1.24041017850361","-0.199392328142803","0.3125"
"2003.13333","5.30611469806305","1.01936954044816","2.58792252183821","-0.609950626661603","0.759589821496392","-0.199392328142803","0.3125"
"2006.26667","5.30611469806305","0.019369540448158","2.58792252183821","-0.609950626661603","0.759589821496392","-0.199392328142803","0.3125"
"2009.4","5.30611469806305","0.019369540448158","2.58792252183821","0.390049373338397","-1.24041017850361","-0.199392328142803","0.3125"
"2012.53333","3.30611469806305","-0.980630459551842","1.58792252183821","0.390049373338397","-1.24041017850361","-0.199392328142803","0.3125"
"2015.66667","3.30611469806305","-0.980630459551842","1.58792252183821","-1.6099506266616","1.75958982149639","-0.199392328142803","0.3125"
"2018.8","3.30611469806305","0.019369540448158","0.587922521838209","-1.6099506266616","1.75958982149639","-0.199392328142803","0.3125"
"2021.93333","3.30611469806305","0.019369540448158","0.587922521838209","2.3900493733384","0.759589821496392","-0.199392328142803","0.3125"
"2025.06667","5.30611469806305","3.01936954044816","1.58792252183821","2.3900493733384","0.759589821496392","-0.199392328142803","0.3125"
"2028.2","5.30611469806305","3.01936954044816","1.58792252183821","1.3900493733384","-0.240410178503608","-0.199392328142803","0.3125"
"2031.33333","5.30611469806305","3.01936954044816","1.58792252183821","1.3900493733384","-0.240410178503608","-0.199392328142803","0.3125"
"2034.46667","5.30611469806305","3.01936954044816","1.58792252183821","2.3900493733384","-2.24041017850361","-0.199392328142803","0.3125"
"2037.6","4.30611469806305","1.01936954044816","0.587922521838209","2.3900493733384","-2.24041017850361","-0.199392328142803","0.3125"
"2040.73333","4.30611469806305","1.01936954044816","0.587922521838209","0.390049373338397","0.759589821496392","-0.199392328142803","0.3125"
"2043.86667","5.30611469806305","2.01936954044816","-2.41207747816179","0.390049373338397","0.759589821496392","-0.199392328142803","0.3125"
"2047","5.30611469806305","2.01936954044816","-2.41207747816179","2.3900493733384","1.75958982149639","-0.199392328142803","0.3125"
"2050.13333","7.30611469806305","2.01936954044816","-0.412077478161791","2.3900493733384","1.75958982149639","-0.199392328142803","0.3125"
"2053.26667","7.30611469806305","2.01936954044816","-0.412077478161791","0.390049373338397","-2.24041017850361","-0.199392328142803","0.3125"
"2056.4","6.30611469806305","1.01936954044816","1.58792252183821","0.390049373338397","-2.24041017850361","-0.199392328142803","0.3125"
"2059.53333","6.30611469806305","1.01936954044816","1.58792252183821","1.3900493733384","-2.24041017850361","-0.199392328142803","0.3125"
"2062.66667","6.30611469806305","1.01936954044816","1.58792252183821","1.3900493733384","-2.24041017850361","-0.199392328142803","0.3125"
"2065.8","6.30611469806305","1.01936954044816","1.58792252183821","-0.609950626661603","-3.24041017850361","-0.199392328142803","0.3125"
"2068.93333","6.30611469806305","0.019369540448158","0.587922521838209","-0.609950626661603","-3.24041017850361","-0.199392328142803","0.3125"
"2072.06667","6.30611469806305","0.019369540448158","0.587922521838209","-0.609950626661603","-1.24041017850361","-0.199392328142803","0.3125"
"2075.2","6.30611469806305","0.019369540448158","0.587922521838209","-0.609950626661603","-1.24041017850361","-0.199392328142803","0.3125"
"2078.33333","6.30611469806305","0.019369540448158","0.587922521838209","2.3900493733384","-1.24041017850361","-0.199392328142803","0.3125"
"2081.46667","4.30611469806305","0.019369540448158","0.587922521838209","2.3900493733384","-1.24041017850361","-0.199392328142803","0.3125"
"2084.6","4.30611469806305","0.019369540448158","0.587922521838209","2.3900493733384","-1.24041017850361","-0.199392328142803","0.3125"
"2087.73333","9.30611469806305","0.019369540448158","1.58792252183821","2.3900493733384","-1.24041017850361","-0.199392328142803","0.3125"
"2090.86667","9.30611469806305","0.019369540448158","1.58792252183821","0.390049373338397","0.759589821496392","-0.199392328142803","0.3125"
"2094","9.30611469806305","0.019369540448158","1.58792252183821","0.390049373338397","0.759589821496392","-0.199392328142803","0.3125"
"2100","9.30611469806305","0.019369540448158","1.58792252183821","1.3900493733384","-4.24041017850361","-0.199392328142803","0.3125"
"2100","2.30611469806305","1.01936954044816","0.587922521838209","1.3900493733384","-4.24041017850361","-0.199392328142803","0.3125"
"2103.42857","2.30611469806305","1.01936954044816","0.587922521838209","3.3900493733384","-0.240410178503608","-0.199392328142803","0.3125"
"2106.85714","2.30611469806305","2.01936954044816","-0.412077478161791","3.3900493733384","-0.240410178503608","-0.199392328142803","0.3125"
"2110.28571","2.30611469806305","2.01936954044816","-0.412077478161791","2.3900493733384","0.759589821496392","-0.199392328142803","0.3125"
"2113.71429","2.30611469806305","2.01936954044816","-0.412077478161791","2.3900493733384","0.759589821496392","-0.199392328142803","0.3125"
"2117.14286","2.30611469806305","2.01936954044816","-0.412077478161791","4.3900493733384","-2.24041017850361","-0.199392328142803","0.3125"
"2120.57143","3.30611469806305","1.01936954044816","-1.41207747816179","4.3900493733384","-2.24041017850361","-0.199392328142803","0.3125"
"2124","3.30611469806305","1.01936954044816","-1.41207747816179","3.3900493733384","-1.24041017850361","-0.199392328142803","0.3125"
"2127.42857","3.30611469806305","1.01936954044816","-1.41207747816179","3.3900493733384","-1.24041017850361","-0.199392328142803","0.3125"
"2130.85714","3.30611469806305","1.01936954044816","-1.41207747816179","-0.609950626661603","-0.240410178503608","-0.199392328142803","0.3125"
"2134.28571","5.30611469806305","1.01936954044816","2.58792252183821","-0.609950626661603","-0.240410178503608","-0.199392328142803","0.3125"
"2137.71429","5.30611469806305","1.01936954044816","2.58792252183821","-1.6099506266616","0.759589821496392","-0.199392328142803","0.3125"
"2141.14286","4.30611469806305","2.01936954044816","2.58792252183821","-1.6099506266616","0.759589821496392","-0.199392328142803","0.3125"
"2144.57143","4.30611469806305","2.01936954044816","2.58792252183821","-1.6099506266616","-1.24041017850361","-0.199392328142803","0.3125"
"2148","7.30611469806305","1.01936954044816","0.587922521838209","-1.6099506266616","-1.24041017850361","-0.199392328142803","0.3125"
"2151.42857","7.30611469806305","1.01936954044816","0.587922521838209","0.390049373338397","-2.24041017850361","-0.199392328142803","0.3125"
"2154.85714","5.30611469806305","1.01936954044816","0.587922521838209","0.390049373338397","-2.24041017850361","-0.199392328142803","0.3125"
"2158.28571","5.30611469806305","1.01936954044816","0.587922521838209","1.3900493733384","-0.240410178503608","-0.199392328142803","0.3125"
"2161.71429","5.30611469806305","1.01936954044816","0.587922521838209","1.3900493733384","-0.240410178503608","-0.199392328142803","0.3125"
"2165.14286","5.30611469806305","1.01936954044816","0.587922521838209","1.3900493733384","-1.24041017850361","-0.199392328142803","0.3125"
"2168.57143","6.30611469806305","0.019369540448158","2.58792252183821","1.3900493733384","-1.24041017850361","-0.199392328142803","0.3125"
"2172","6.30611469806305","0.019369540448158","2.58792252183821","-0.609950626661603","-2.24041017850361","-0.199392328142803","0.3125"
"2175.42857","4.30611469806305","1.01936954044816","-1.41207747816179","-0.609950626661603","-2.24041017850361","-0.199392328142803","0.3125"
"2178.85714","4.30611469806305","1.01936954044816","-1.41207747816179","-0.609950626661603","0.759589821496392","-0.199392328142803","0.3125"
"2182.28571","4.30611469806305","0.019369540448158","0.587922521838209","-0.609950626661603","0.759589821496392","-0.199392328142803","0.3125"
"2185.71429","4.30611469806305","0.019369540448158","0.587922521838209","-1.6099506266616","-2.24041017850361","-0.199392328142803","0.3125"
"2189.14286","6.30611469806305","1.01936954044816","0.587922521838209","-1.6099506266616","-2.24041017850361","-0.199392328142803","0.3125"
"2192.57143","6.30611469806305","1.01936954044816","0.587922521838209","0.390049373338397","-2.24041017850361","-0.199392328142803","0.3125"
"2196","6.30611469806305","1.01936954044816","0.587922521838209","0.390049373338397","-2.24041017850361","-0.199392328142803","0.3125"
"2203.2","6.30611469806305","1.01936954044816","0.587922521838209","0.390049373338397","-0.240410178503608","-0.199392328142803","0.3125"
"2206.4","5.30611469806305","-0.980630459551842","2.58792252183821","0.390049373338397","-0.240410178503608","-0.199392328142803","0.3125"
"2209.6","5.30611469806305","-0.980630459551842","2.58792252183821","1.3900493733384","-1.24041017850361","-0.199392328142803","0.3125"
"2212.8","6.30611469806305","1.01936954044816","0.587922521838209","1.3900493733384","-1.24041017850361","-0.199392328142803","0.3125"
"2216","6.30611469806305","1.01936954044816","0.587922521838209","2.3900493733384","-2.24041017850361","-0.199392328142803","0.3125"
"2219.2","4.30611469806305","1.01936954044816","0.587922521838209","2.3900493733384","-2.24041017850361","-0.199392328142803","0.3125"
"2222.4","4.30611469806305","1.01936954044816","0.587922521838209","0.390049373338397","-0.240410178503608","-0.199392328142803","0.3125"
"2225.6","4.30611469806305","3.01936954044816","0.587922521838209","0.390049373338397","-0.240410178503608","-0.199392328142803","0.3125"
"2228.8","4.30611469806305","3.01936954044816","0.587922521838209","0.390049373338397","-1.24041017850361","-0.199392328142803","0.3125"
"2232","4.30611469806305","3.01936954044816","0.587922521838209","0.390049373338397","-1.24041017850361","-0.199392328142803","0.3125"
"2235.2","4.30611469806305","3.01936954044816","0.587922521838209","-0.609950626661603","-0.240410178503608","-0.199392328142803","0.3125"
"2238.4","5.30611469806305","1.01936954044816","2.58792252183821","-0.609950626661603","-0.240410178503608","-0.199392328142803","0.3125"
"2241.6","5.30611469806305","1.01936954044816","2.58792252183821","0.390049373338397","-1.24041017850361","-0.199392328142803","0.3125"
"2244.8","6.30611469806305","1.01936954044816","0.587922521838209","0.390049373338397","-1.24041017850361","-0.199392328142803","0.3125"
"2248","6.30611469806305","1.01936954044816","0.587922521838209","-0.609950626661603","-1.24041017850361","-0.199392328142803","0.3125"
"2251.2","6.30611469806305","2.01936954044816","-1.41207747816179","-0.609950626661603","-1.24041017850361","-0.199392328142803","0.3125"
"2254.4","6.30611469806305","2.01936954044816","-1.41207747816179","2.3900493733384","-0.240410178503608","-0.199392328142803","0.3125"
"2257.6","4.30611469806305","1.01936954044816","0.587922521838209","2.3900493733384","-0.240410178503608","-0.199392328142803","0.3125"
"2260.8","4.30611469806305","1.01936954044816","0.587922521838209","2.3900493733384","-0.240410178503608","-0.199392328142803","0.3125"
"2264","6.30611469806305","0.019369540448158","0.587922521838209","2.3900493733384","-0.240410178503608","-0.199392328142803","0.3125"
"2267.2","6.30611469806305","0.019369540448158","0.587922521838209","0.390049373338397","-1.24041017850361","-0.199392328142803","0.3125"
"2270.4","6.30611469806305","1.01936954044816","-0.412077478161791","0.390049373338397","-1.24041017850361","-0.199392328142803","0.3125"
"2273.6","6.30611469806305","1.01936954044816","-0.412077478161791","0.390049373338397","-1.24041017850361","-0.199392328142803","0.3125"
"2276.8","3.30611469806305","3.01936954044816","2.58792252183821","0.390049373338397","-1.24041017850361","-0.199392328142803","0.3125"
"2280","3.30611469806305","3.01936954044816","2.58792252183821","5.3900493733384","-1.24041017850361","-0.199392328142803","0.3125"
"2283.2","3.30611469806305","3.01936954044816","0.587922521838209","5.3900493733384","-1.24041017850361","-0.199392328142803","0.3125"
"2286.4","3.30611469806305","3.01936954044816","0.587922521838209","2.3900493733384","-1.24041017850361","-0.199392328142803","0.3125"
"2289.6","6.30611469806305","1.01936954044816","0.587922521838209","2.3900493733384","-1.24041017850361","-0.199392328142803","0.3125"
"2292.8","6.30611469806305","1.01936954044816","0.587922521838209","1.3900493733384","0.759589821496392","-0.199392328142803","0.3125"
"2296","6.30611469806305","3.01936954044816","1.58792252183821","1.3900493733384","0.759589821496392","-0.199392328142803","0.3125"
"2303.23333","6.30611469806305","3.01936954044816","1.58792252183821","0.390049373338397","2.75958982149639","-0.199392328142803","0.3125"
"2306.46667","4.30611469806305","3.01936954044816","0.587922521838209","0.390049373338397","2.75958982149639","-0.199392328142803","0.3125"
"2309.7","4.30611469806305","3.01936954044816","0.587922521838209","4.3900493733384","0.759589821496392","-0.199392328142803","0.3125"
"2312.93333","7.30611469806305","1.01936954044816","-0.412077478161791","4.3900493733384","0.759589821496392","-0.199392328142803","0.3125"
"2316.16667","7.30611469806305","1.01936954044816","-0.412077478161791","4.3900493733384","-2.24041017850361","-0.199392328142803","0.3125"
"2319.4","7.30611469806305","1.01936954044816","0.587922521838209","4.3900493733384","-2.24041017850361","-0.199392328142803","0.3125"
"2322.63333","7.30611469806305","1.01936954044816","0.587922521838209","1.3900493733384","-0.240410178503608","-0.199392328142803","0.3125"
"2325.86667","6.30611469806305","2.01936954044816","0.587922521838209","1.3900493733384","-0.240410178503608","-0.199392328142803","0.3125"
"2329.1","6.30611469806305","2.01936954044816","0.587922521838209","3.3900493733384","1.75958982149639","-0.199392328142803","0.3125"
"2332.33333","5.30611469806305","2.01936954044816","-0.412077478161791","3.3900493733384","1.75958982149639","-0.199392328142803","0.3125"
"2335.56667","5.30611469806305","2.01936954044816","-0.412077478161791","1.3900493733384","0.759589821496392","-0.199392328142803","0.3125"
"2338.8","7.30611469806305","1.01936954044816","1.58792252183821","1.3900493733384","0.759589821496392","-0.199392328142803","0.3125"
"2342.03333","7.30611469806305","1.01936954044816","1.58792252183821","-0.609950626661603","-1.24041017850361","-0.199392328142803","0.3125"
"2345.26667","6.30611469806305","0.019369540448158","0.587922521838209","-0.609950626661603","-1.24041017850361","-0.199392328142803","0.3125"
"2348.5","6.30611469806305","0.019369540448158","0.587922521838209","0.390049373338397","-0.240410178503608","-0.199392328142803","0.3125"
"2351.73333","6.30611469806305","2.01936954044816","-0.412077478161791","0.390049373338397","-0.240410178503608","-0.199392328142803","0.3125"
"2354.96667","6.30611469806305","2.01936954044816","-0.412077478161791","1.3900493733384","-2.24041017850361","-0.199392328142803","0.3125"
"2358.2","5.30611469806305","1.01936954044816","0.587922521838209","1.3900493733384","-2.24041017850361","-0.199392328142803","0.3125"
"2361.43333","5.30611469806305","1.01936954044816","0.587922521838209","0.390049373338397","-2.24041017850361","-0.199392328142803","0.3125"
"2364.66667","4.30611469806305","-0.980630459551842","0.587922521838209","0.390049373338397","-2.24041017850361","-0.199392328142803","0.3125"
"2367.9","4.30611469806305","-0.980630459551842","0.587922521838209","-2.6099506266616","-2.24041017850361","-0.199392328142803","0.3125"
"2371.13333","4.30611469806305","-0.980630459551842","-0.412077478161791","-2.6099506266616","-2.24041017850361","-0.199392328142803","0.3125"
"2374.36667","4.30611469806305","-0.980630459551842","-0.412077478161791","-1.6099506266616","-0.240410178503608","-0.199392328142803","0.3125"
"2377.6","5.30611469806305","2.01936954044816","2.58792252183821","-1.6099506266616","-0.240410178503608","-0.199392328142803","0.3125"
"2380.83333","5.30611469806305","2.01936954044816","2.58792252183821","-0.609950626661603","1.75958982149639","-0.199392328142803","0.3125"
"2384.06667","3.30611469806305","1.01936954044816","0.587922521838209","-0.609950626661603","1.75958982149639","-0.199392328142803","0.3125"
"2387.3","3.30611469806305","1.01936954044816","0.587922521838209","-0.609950626661603","-3.24041017850361","-0.199392328142803","0.3125"
"2390.53333","7.30611469806305","1.01936954044816","1.58792252183821","-0.609950626661603","-3.24041017850361","-0.199392328142803","0.3125"
"2393.76667","7.30611469806305","1.01936954044816","1.58792252183821","-2.6099506266616","1.75958982149639","-0.199392328142803","0.3125"
"2397","7.30611469806305","1.01936954044816","1.58792252183821","-2.6099506266616","1.75958982149639","-0.199392328142803","0.3125"
"2403.0625","7.30611469806305","1.01936954044816","1.58792252183821","0.390049373338397","1.75958982149639","-0.199392328142803","0.3125"
"2406.125","5.30611469806305","3.01936954044816","0.587922521838209","0.390049373338397","1.75958982149639","-0.199392328142803","0.3125"
"2409.1875","5.30611469806305","3.01936954044816","0.587922521838209","0.390049373338397","-2.24041017850361","-0.199392328142803","0.3125"
"2412.25","6.30611469806305","2.01936954044816","0.587922521838209","0.390049373338397","-2.24041017850361","-0.199392328142803","0.3125"
"2415.3125","6.30611469806305","2.01936954044816","0.587922521838209","-2.6099506266616","0.759589821496392","-0.199392328142803","0.3125"
"2418.375","4.30611469806305","3.01936954044816","-1.41207747816179","-2.6099506266616","0.759589821496392","-0.199392328142803","0.3125"
"2421.4375","4.30611469806305","3.01936954044816","-1.41207747816179","-0.609950626661603","1.75958982149639","-0.199392328142803","0.3125"
"2424.5","4.30611469806305","2.01936954044816","1.58792252183821","-0.609950626661603","1.75958982149639","-0.199392328142803","0.3125"
"2427.5625","4.30611469806305","2.01936954044816","1.58792252183821","-1.6099506266616","0.759589821496392","-0.199392328142803","0.3125"
"2430.625","4.30611469806305","2.01936954044816","-0.412077478161791","-1.6099506266616","0.759589821496392","-0.199392328142803","0.3125"
"2433.6875","4.30611469806305","2.01936954044816","-0.412077478161791","1.3900493733384","-1.24041017850361","-0.199392328142803","0.3125"
"2436.75","4.30611469806305","1.01936954044816","1.58792252183821","1.3900493733384","-1.24041017850361","-0.199392328142803","0.3125"
"2439.8125","4.30611469806305","1.01936954044816","1.58792252183821","-1.6099506266616","1.75958982149639","-0.199392328142803","0.3125"
"2442.875","3.30611469806305","1.01936954044816","-1.41207747816179","-1.6099506266616","1.75958982149639","-0.199392328142803","0.3125"
"2445.9375","3.30611469806305","1.01936954044816","-1.41207747816179","0.390049373338397","-1.24041017850361","-0.199392328142803","0.3125"
"2449","4.30611469806305","4.01936954044816","-1.41207747816179","0.390049373338397","-1.24041017850361","-0.199392328142803","0.3125"
"2452.0625","4.30611469806305","4.01936954044816","-1.41207747816179","0.390049373338397","-0.240410178503608","-0.199392328142803","0.3125"
"2455.125","7.30611469806305","1.01936954044816","2.58792252183821","0.390049373338397","-0.240410178503608","-0.199392328142803","0.3125"
"2458.1875","7.30611469806305","1.01936954044816","2.58792252183821","0.390049373338397","0.759589821496392","-0.199392328142803","0.3125"
"2461.25","5.30611469806305","0.019369540448158","-1.41207747816179","0.390049373338397","0.759589821496392","-0.199392328142803","0.3125"
"2464.3125","5.30611469806305","0.019369540448158","-1.41207747816179","0.390049373338397","-2.24041017850361","-0.199392328142803","0.3125"
"2467.375","3.30611469806305","2.01936954044816","3.58792252183821","0.390049373338397","-2.24041017850361","-0.199392328142803","0.3125"
"2470.4375","3.30611469806305","2.01936954044816","3.58792252183821","-1.6099506266616","0.759589821496392","-0.199392328142803","0.3125"
"2473.5","5.30611469806305","1.01936954044816","0.587922521838209","-1.6099506266616","0.759589821496392","-0.199392328142803","0.3125"
"2476.5625","5.30611469806305","1.01936954044816","0.587922521838209","-1.6099506266616","0.759589821496392","-0.199392328142803","0.3125"
"2479.625","7.30611469806305","2.01936954044816","0.587922521838209","-1.6099506266616","0.759589821496392","-0.199392328142803","0.3125"
"2482.6875","7.30611469806305","2.01936954044816","0.587922521838209","-2.6099506266616","-0.240410178503608","-0.199392328142803","0.3125"
"2485.75","3.30611469806305","-1.98063045955184","1.58792252183821","-2.6099506266616","-0.240410178503608","-0.199392328142803","0.3125"
"2488.8125","3.30611469806305","-1.98063045955184","1.58792252183821","0.390049373338397","-1.24041017850361","-0.199392328142803","0.3125"
"2491.875","4.30611469806305","2.01936954044816","0.587922521838209","0.390049373338397","-1.24041017850361","-0.199392328142803","0.3125"
"2494.9375","4.30611469806305","2.01936954044816","0.587922521838209","-0.609950626661603","0.759589821496392","-0.199392328142803","0.3125"
"2498","1.30611469806305","3.01936954044816","0.587922521838209","-0.609950626661603","0.759589821496392","-0.199392328142803","0.3125"
"2503.09375","1.30611469806305","3.01936954044816","0.587922521838209","-1.6099506266616","-1.24041017850361","-0.199392328142803","0.3125"
"2506.1875","7.30611469806305","-0.980630459551842","1.58792252183821","-1.6099506266616","-1.24041017850361","-0.199392328142803","0.3125"
"2509.28125","7.30611469806305","-0.980630459551842","1.58792252183821","0.390049373338397","-0.240410178503608","-0.199392328142803","0.3125"
"2512.375","6.30611469806305","0.019369540448158","-0.412077478161791","0.390049373338397","-0.240410178503608","-0.199392328142803","0.3125"
"2515.46875","6.30611469806305","0.019369540448158","-0.412077478161791","-1.6099506266616","-0.240410178503608","-0.199392328142803","0.3125"
"2518.5625","4.30611469806305","3.01936954044816","3.58792252183821","-1.6099506266616","-0.240410178503608","-0.199392328142803","0.3125"
"2521.65625","4.30611469806305","3.01936954044816","3.58792252183821","0.390049373338397","-0.240410178503608","-0.199392328142803","0.3125"
"2524.75","5.30611469806305","3.01936954044816","3.58792252183821","0.390049373338397","-0.240410178503608","-0.199392328142803","0.3125"
"2527.84375","5.30611469806305","3.01936954044816","3.58792252183821","1.3900493733384","-1.24041017850361","-0.199392328142803","0.3125"
"2530.9375","3.30611469806305","-0.980630459551842","-1.41207747816179","1.3900493733384","-1.24041017850361","-0.199392328142803","0.3125"
"2534.03125","3.30611469806305","-0.980630459551842","-1.41207747816179","-1.6099506266616","-2.24041017850361","-0.199392328142803","0.3125"
"2537.125","5.30611469806305","1.01936954044816","1.58792252183821","-1.6099506266616","-2.24041017850361","-0.199392328142803","0.3125"
"2540.21875","5.30611469806305","1.01936954044816","1.58792252183821","1.3900493733384","0.759589821496392","-0.199392328142803","0.3125"
"2543.3125","4.30611469806305","4.01936954044816","0.587922521838209","1.3900493733384","0.759589821496392","-0.199392328142803","0.3125"
"2546.40625","4.30611469806305","4.01936954044816","0.587922521838209","1.3900493733384","-0.240410178503608","-0.199392328142803","0.3125"
"2549.5","2.30611469806305","1.01936954044816","0.587922521838209","1.3900493733384","-0.240410178503608","-0.199392328142803","0.3125"
"2552.59375","2.30611469806305","1.01936954044816","0.587922521838209","-2.6099506266616","-0.240410178503608","-0.199392328142803","0.3125"
"2555.6875","6.30611469806305","-0.980630459551842","1.58792252183821","-2.6099506266616","-0.240410178503608","-0.199392328142803","0.3125"
"2558.78125","6.30611469806305","-0.980630459551842","1.58792252183821","-2.6099506266616","-1.24041017850361","-0.199392328142803","0.3125"
"2561.875","6.30611469806305","1.01936954044816","0.587922521838209","-2.6099506266616","-1.24041017850361","-0.199392328142803","0.3125"
"2564.96875","6.30611469806305","1.01936954044816","0.587922521838209","-2.6099506266616","-0.240410178503608","-0.199392328142803","0.3125"
"2568.0625","5.30611469806305","4.01936954044816","0.587922521838209","-2.6099506266616","-0.240410178503608","-0.199392328142803","0.3125"
"2571.15625","5.30611469806305","4.01936954044816","0.587922521838209","-1.6099506266616","-0.240410178503608","-0.199392328142803","0.3125"
"2574.25","2.30611469806305","2.01936954044816","-0.412077478161791","-1.6099506266616","-0.240410178503608","-0.199392328142803","0.3125"
"2577.34375","2.30611469806305","2.01936954044816","-0.412077478161791","-0.609950626661603","0.759589821496392","-0.199392328142803","0.3125"
"2580.4375","4.30611469806305","1.01936954044816","3.58792252183821","-0.609950626661603","0.759589821496392","-0.199392328142803","0.3125"
"2583.53125","4.30611469806305","1.01936954044816","3.58792252183821","-1.6099506266616","0.759589821496392","-0.199392328142803","0.3125"
"2586.625","5.30611469806305","2.01936954044816","0.587922521838209","-1.6099506266616","0.759589821496392","-0.199392328142803","0.3125"
"2589.71875","5.30611469806305","2.01936954044816","0.587922521838209","-0.609950626661603","-1.24041017850361","-0.199392328142803","0.3125"
"2592.8125","8.30611469806305","2.01936954044816","2.58792252183821","-0.609950626661603","-1.24041017850361","-0.199392328142803","0.3125"
"2595.90625","8.30611469806305","2.01936954044816","2.58792252183821","-1.6099506266616","-2.24041017850361","-0.199392328142803","0.3125"
"2599","5.30611469806305","5.01936954044816","-0.412077478161791","-1.6099506266616","-2.24041017850361","-0.199392328142803","0.3125"
"2603.35714","5.30611469806305","5.01936954044816","-0.412077478161791","-0.609950626661603","-0.240410178503608","-0.199392328142803","0.3125"
"2606.71429","5.30611469806305","1.01936954044816","-2.41207747816179","-0.609950626661603","-0.240410178503608","-0.199392328142803","0.3125"
"2610.07143","5.30611469806305","1.01936954044816","-2.41207747816179","2.3900493733384","-2.24041017850361","-0.199392328142803","0.3125"
"2613.42857","6.30611469806305","2.01936954044816","1.58792252183821","2.3900493733384","-2.24041017850361","-0.199392328142803","0.3125"
"2616.78571","6.30611469806305","2.01936954044816","1.58792252183821","1.3900493733384","-0.240410178503608","-0.199392328142803","0.3125"
"2620.14286","4.30611469806305","4.01936954044816","2.58792252183821","1.3900493733384","-0.240410178503608","-0.199392328142803","0.3125"
"2623.5","4.30611469806305","4.01936954044816","2.58792252183821","1.3900493733384","0.759589821496392","-0.199392328142803","0.3125"
"2626.85714","6.30611469806305","2.01936954044816","2.58792252183821","1.3900493733384","0.759589821496392","-0.199392328142803","0.3125"
"2630.21429","6.30611469806305","2.01936954044816","2.58792252183821","0.390049373338397","-0.240410178503608","-0.199392328142803","0.3125"
"2633.57143","5.30611469806305","1.01936954044816","2.58792252183821","0.390049373338397","-0.240410178503608","-0.199392328142803","0.3125"
"2636.92857","5.30611469806305","1.01936954044816","2.58792252183821","2.3900493733384","0.759589821496392","-0.199392328142803","0.3125"
"2640.28571","5.30611469806305","1.01936954044816","1.58792252183821","2.3900493733384","0.759589821496392","-0.199392328142803","0.3125"
"2643.64286","5.30611469806305","1.01936954044816","1.58792252183821","1.3900493733384","-0.240410178503608","-0.199392328142803","0.3125"
"2647","5.30611469806305","1.01936954044816","-0.412077478161791","1.3900493733384","-0.240410178503608","-0.199392328142803","0.3125"
"2650.35714","5.30611469806305","1.01936954044816","-0.412077478161791","2.3900493733384","-0.240410178503608","-0.199392328142803","0.3125"
"2653.71429","4.30611469806305","1.01936954044816","2.58792252183821","2.3900493733384","-0.240410178503608","-0.199392328142803","0.3125"
"2657.07143","4.30611469806305","1.01936954044816","2.58792252183821","-2.6099506266616","0.759589821496392","-0.199392328142803","0.3125"
"2660.42857","5.30611469806305","2.01936954044816","0.587922521838209","-2.6099506266616","0.759589821496392","-0.199392328142803","0.3125"
"2663.78571","5.30611469806305","2.01936954044816","0.587922521838209","-1.6099506266616","-0.240410178503608","-0.199392328142803","0.3125"
"2667.14286","6.30611469806305","1.01936954044816","1.58792252183821","-1.6099506266616","-0.240410178503608","-0.199392328142803","0.3125"
"2670.5","6.30611469806305","1.01936954044816","1.58792252183821","3.3900493733384","1.75958982149639","-0.199392328142803","0.3125"
"2673.85714","4.30611469806305","1.01936954044816","0.587922521838209","3.3900493733384","1.75958982149639","-0.199392328142803","0.3125"
"2677.21429","4.30611469806305","1.01936954044816","0.587922521838209","-0.609950626661603","-0.240410178503608","-0.199392328142803","0.3125"
"2680.57143","6.30611469806305","1.01936954044816","1.58792252183821","-0.609950626661603","-0.240410178503608","-0.199392328142803","0.3125"
"2683.92857","6.30611469806305","1.01936954044816","1.58792252183821","0.390049373338397","-0.240410178503608","-0.199392328142803","0.3125"
"2687.28571","5.30611469806305","0.019369540448158","1.58792252183821","0.390049373338397","-0.240410178503608","-0.199392328142803","0.3125"
"2690.64286","5.30611469806305","0.019369540448158","1.58792252183821","1.3900493733384","0.759589821496392","-0.199392328142803","0.3125"
"2694","5.30611469806305","2.01936954044816","-1.41207747816179","1.3900493733384","0.759589821496392","-0.199392328142803","0.3125"
"2700","5.30611469806305","2.01936954044816","-1.41207747816179","-0.609950626661603","-1.24041017850361","-0.199392328142803","0.3125"
"2700","4.30611469806305","1.01936954044816","3.58792252183821","-0.609950626661603","-1.24041017850361","-0.199392328142803","0.3125"
"2703.23333","4.30611469806305","1.01936954044816","3.58792252183821","3.3900493733384","-1.24041017850361","-0.199392328142803","0.3125"
"2706.46667","3.30611469806305","1.01936954044816","-0.412077478161791","3.3900493733384","-1.24041017850361","-0.199392328142803","0.3125"
"2709.7","3.30611469806305","1.01936954044816","-0.412077478161791","0.390049373338397","-0.240410178503608","-0.199392328142803","0.3125"
"2712.93333","6.30611469806305","1.01936954044816","0.587922521838209","0.390049373338397","-0.240410178503608","-0.199392328142803","0.3125"
"2716.16667","6.30611469806305","1.01936954044816","0.587922521838209","-2.6099506266616","1.75958982149639","-0.199392328142803","0.3125"
"2719.4","4.30611469806305","1.01936954044816","-0.412077478161791","-2.6099506266616","1.75958982149639","-0.199392328142803","0.3125"
"2722.63333","4.30611469806305","1.01936954044816","-0.412077478161791","1.3900493733384","2.75958982149639","-0.199392328142803","0.3125"
"2725.86667","4.30611469806305","0.019369540448158","1.58792252183821","1.3900493733384","2.75958982149639","-0.199392328142803","0.3125"
"2729.1","4.30611469806305","0.019369540448158","1.58792252183821","2.3900493733384","-0.240410178503608","-0.199392328142803","0.3125"
"2732.33333","5.30611469806305","4.01936954044816","1.58792252183821","2.3900493733384","-0.240410178503608","-0.199392328142803","0.3125"
"2735.56667","5.30611469806305","4.01936954044816","1.58792252183821","2.3900493733384","-1.24041017850361","-0.199392328142803","0.3125"
"2738.8","4.30611469806305","3.01936954044816","-2.41207747816179","2.3900493733384","-1.24041017850361","-0.199392328142803","0.3125"
"2742.03333","4.30611469806305","3.01936954044816","-2.41207747816179","0.390049373338397","-1.24041017850361","-0.199392328142803","0.3125"
"2745.26667","4.30611469806305","0.019369540448158","0.587922521838209","0.390049373338397","-1.24041017850361","-0.199392328142803","0.3125"
"2748.5","4.30611469806305","0.019369540448158","0.587922521838209","-0.609950626661603","3.75958982149639","-0.199392328142803","0.3125"
"2751.73333","5.30611469806305","2.01936954044816","3.58792252183821","-0.609950626661603","3.75958982149639","-0.199392328142803","0.3125"
"2754.96667","5.30611469806305","2.01936954044816","3.58792252183821","-0.609950626661603","0.759589821496392","-0.199392328142803","0.3125"
"2758.2","5.30611469806305","3.01936954044816","1.58792252183821","-0.609950626661603","0.759589821496392","-0.199392328142803","0.3125"
"2761.43333","5.30611469806305","3.01936954044816","1.58792252183821","0.390049373338397","2.75958982149639","-0.199392328142803","0.3125"
"2764.66667","5.30611469806305","1.01936954044816","2.58792252183821","0.390049373338397","2.75958982149639","-0.199392328142803","0.3125"
"2767.9","5.30611469806305","1.01936954044816","2.58792252183821","-1.6099506266616","-0.240410178503608","-0.199392328142803","0.3125"
"2771.13333","4.30611469806305","1.01936954044816","-0.412077478161791","-1.6099506266616","-0.240410178503608","-0.199392328142803","0.3125"
"2774.36667","4.30611469806305","1.01936954044816","-0.412077478161791","3.3900493733384","-2.24041017850361","-0.199392328142803","0.3125"
"2777.6","4.30611469806305","1.01936954044816","0.587922521838209","3.3900493733384","-2.24041017850361","-0.199392328142803","0.3125"
"2780.83333","4.30611469806305","1.01936954044816","0.587922521838209","1.3900493733384","-1.24041017850361","-0.199392328142803","0.3125"
