Timer,AX,AY,AZ,GX,GY,GZ,A
"16","1.99447717231222","1.05633284241532","-0.565905743740796","-1.96649484536082","-0.317746686303387","-1.04565537555228","359.375"
"16","1.99447717231222","1.05633284241532","2.4340942562592","-1.96649484536082","-0.317746686303387","-1.04565537555228","359.375"
"23","1.99447717231222","1.05633284241532","2.4340942562592","2.03350515463918","-2.31774668630339","-1.04565537555228","359.375"
"23","1.99447717231222","1.05633284241532","0.434094256259204","2.03350515463918","-2.31774668630339","-1.04565537555228","359.375"
"28","1.99447717231222","1.05633284241532","0.434094256259204","-0.966494845360825","-0.317746686303387","-1.04565537555228","359.375"
"28","2.99447717231222","1.05633284241532","-0.565905743740796","-0.966494845360825","-0.317746686303387","-1.04565537555228","359.375"
"35","2.99447717231222","1.05633284241532","-0.565905743740796","-0.966494845360825","-2.31774668630339","-1.04565537555228","359.375"
"35","2.99447717231222","2.05633284241532","1.4340942562592","-0.966494845360825","-2.31774668630339","-1.04565537555228","359.375"
"40","2.99447717231222","2.05633284241532","1.4340942562592","0.0335051546391753","0.682253313696613","-1.04565537555228","359.375"
"41","2.99447717231222","2.05633284241532","0.434094256259204","0.0335051546391753","0.682253313696613","-1.04565537555228","359.375"
"46","2.99447717231222","2.05633284241532","0.434094256259204","1.03350515463918","3.68225331369661","-1.04565537555228","359.375"
"46","-0.00552282768777612","0.0563328424153167","0.434094256259204","1.03350515463918","3.68225331369661","-1.04565537555228","359.375"
"52","-0.00552282768777612","0.0563328424153167","0.434094256259204","0.0335051546391753","-0.317746686303387","-1.04565537555228","359.375"
"52","1.99447717231222","1.05633284241532","-0.565905743740796","0.0335051546391753","-0.317746686303387","-1.04565537555228","359.375"
"58","1.99447717231222","1.05633284241532","-0.565905743740796","-3.96649484536082","-2.31774668630339","-1.04565537555228","359.375"
"58","1.99447717231222","2.05633284241532","-0.565905743740796","-3.96649484536082","-2.31774668630339","-1.04565537555228","359.375"
"63","1.99447717231222","2.05633284241532","-0.565905743740796","-0.966494845360825","-2.31774668630339","-1.04565537555228","359.375"
"64","1.99447717231222","1.05633284241532","-0.565905743740796","-0.966494845360825","-2.31774668630339","-1.04565537555228","359.375"
"69","1.99447717231222","1.05633284241532","-0.565905743740796","0.0335051546391753","2.68225331369661","-1.04565537555228","359.375"
"69","1.99447717231222","3.05633284241532","1.4340942562592","0.0335051546391753","2.68225331369661","-1.04565537555228","359.375"
"75","1.99447717231222","3.05633284241532","1.4340942562592","-0.966494845360825","-0.317746686303387","-1.04565537555228","359.375"
"75","1.99447717231222","0.0563328424153167","-0.565905743740796","-0.966494845360825","-0.317746686303387","-1.04565537555228","359.375"
"81","1.99447717231222","0.0563328424153167","-0.565905743740796","-1.96649484536082","-0.317746686303387","-1.04565537555228","359.375"
"81","1.99447717231222","0.0563328424153167","0.434094256259204","-1.96649484536082","-0.317746686303387","-1.04565537555228","359.375"
"87","1.99447717231222","0.0563328424153167","0.434094256259204","0.0335051546391753","-2.31774668630339","-1.04565537555228","359.375"
"87","0.994477172312224","1.05633284241532","-0.565905743740796","0.0335051546391753","-2.31774668630339","-1.04565537555228","359.375"
"93","0.994477172312224","1.05633284241532","-0.565905743740796","-2.96649484536082","-1.31774668630339","-1.04565537555228","359.375"
"93","0.994477172312224","2.05633284241532","-0.565905743740796","-2.96649484536082","-1.31774668630339","-1.04565537555228","359.375"
"99","0.994477172312224","2.05633284241532","-0.565905743740796","-1.96649484536082","1.68225331369661","-1.04565537555228","359.375"
"99","1.99447717231222","1.05633284241532","0.434094256259204","-1.96649484536082","1.68225331369661","-1.04565537555228","359.375"
"105","1.99447717231222","1.05633284241532","0.434094256259204","0.0335051546391753","0.682253313696613","-1.04565537555228","359.375"
"105","0.994477172312224","1.05633284241532","0.434094256259204","0.0335051546391753","0.682253313696613","-1.04565537555228","359.375"
"111","0.994477172312224","1.05633284241532","0.434094256259204","1.03350515463918","-2.31774668630339","-1.04565537555228","359.375"
"111","1.99447717231222","1.05633284241532","-2.5659057437408","1.03350515463918","-2.31774668630339","-1.04565537555228","359.375"
"117","1.99447717231222","1.05633284241532","-2.5659057437408","0.0335051546391753","-2.31774668630339","-1.04565537555228","359.375"
"117","1.99447717231222","2.05633284241532","-1.5659057437408","0.0335051546391753","-2.31774668630339","-1.04565537555228","359.375"
"123","1.99447717231222","2.05633284241532","-1.5659057437408","-1.96649484536082","0.682253313696613","-1.04565537555228","359.375"
"123","3.99447717231222","1.05633284241532","-1.5659057437408","-1.96649484536082","0.682253313696613","-1.04565537555228","359.375"
"129","3.99447717231222","1.05633284241532","-1.5659057437408","-1.96649484536082","-0.317746686303387","-1.04565537555228","359.375"
"129","1.99447717231222","0.0563328424153167","0.434094256259204","-1.96649484536082","-0.317746686303387","-1.04565537555228","359.375"
"135","1.99447717231222","0.0563328424153167","0.434094256259204","-1.96649484536082","-0.317746686303387","-1.04565537555228","359.375"
"135","2.99447717231222","3.05633284241532","-0.565905743740796","-1.96649484536082","-0.317746686303387","-1.04565537555228","359.375"
"141","2.99447717231222","3.05633284241532","-0.565905743740796","-0.966494845360825","-2.31774668630339","-1.04565537555228","359.375"
"141","1.99447717231222","1.05633284241532","-1.5659057437408","-0.966494845360825","-2.31774668630339","-1.04565537555228","359.375"
"147","1.99447717231222","1.05633284241532","-1.5659057437408","-0.966494845360825","-0.317746686303387","-1.04565537555228","359.375"
"147","2.99447717231222","1.05633284241532","0.434094256259204","-0.966494845360825","-0.317746686303387","-1.04565537555228","359.375"
"153","2.99447717231222","1.05633284241532","0.434094256259204","-1.96649484536082","-1.31774668630339","-1.04565537555228","359.375"
"153","1.99447717231222","1.05633284241532","-3.5659057437408","-1.96649484536082","-1.31774668630339","-1.04565537555228","359.375"
"158","1.99447717231222","1.05633284241532","-3.5659057437408","-0.966494845360825","-0.317746686303387","-1.04565537555228","359.375"
"159","1.99447717231222","1.05633284241532","-0.565905743740796","-0.966494845360825","-0.317746686303387","-1.04565537555228","359.375"
"164","1.99447717231222","1.05633284241532","-0.565905743740796","-1.96649484536082","-2.31774668630339","-1.04565537555228","359.375"
"165","1.99447717231222","1.05633284241532","1.4340942562592","-1.96649484536082","-2.31774668630339","-1.04565537555228","359.375"
"171","1.99447717231222","1.05633284241532","1.4340942562592","-3.96649484536082","-0.317746686303387","-1.04565537555228","359.375"
"171","2.99447717231222","4.05633284241532","-1.5659057437408","-3.96649484536082","-0.317746686303387","-1.04565537555228","359.375"
"177","2.99447717231222","4.05633284241532","-1.5659057437408","-0.966494845360825","-0.317746686303387","-1.04565537555228","359.375"
"178","1.99447717231222","0.0563328424153167","-3.5659057437408","-0.966494845360825","-0.317746686303387","-1.04565537555228","359.375"
"186","1.99447717231222","0.0563328424153167","-3.5659057437408","2.03350515463918","-0.317746686303387","-1.04565537555228","359.375"
"186","2.99447717231222","-1.94366715758468","1.4340942562592","2.03350515463918","-0.317746686303387","-1.04565537555228","359.375"
"193","2.99447717231222","-1.94366715758468","1.4340942562592","-1.96649484536082","-0.317746686303387","-1.04565537555228","359.375"
"193","1.99447717231222","0.0563328424153167","0.434094256259204","-1.96649484536082","-0.317746686303387","-1.04565537555228","359.375"
"199","1.99447717231222","0.0563328424153167","0.434094256259204","0.0335051546391753","0.682253313696613","-1.04565537555228","359.375"
"199","1.99447717231222","1.05633284241532","-0.565905743740796","0.0335051546391753","0.682253313696613","-1.04565537555228","359.375"
"207","1.99447717231222","1.05633284241532","-0.565905743740796","1.03350515463918","-0.317746686303387","-1.04565537555228","359.375"
"207","1.99447717231222","1.05633284241532","1.4340942562592","1.03350515463918","-0.317746686303387","-1.04565537555228","359.375"
"214","1.99447717231222","1.05633284241532","1.4340942562592","3.03350515463918","-0.317746686303387","-1.04565537555228","359.375"
"214","1.99447717231222","0.0563328424153167","-1.5659057437408","3.03350515463918","-0.317746686303387","-1.04565537555228","359.375"
"222","1.99447717231222","0.0563328424153167","-1.5659057437408","0.0335051546391753","2.68225331369661","-1.04565537555228","359.375"
"222","0.994477172312224","2.05633284241532","1.4340942562592","0.0335051546391753","2.68225331369661","-1.04565537555228","359.375"
"229","0.994477172312224","2.05633284241532","1.4340942562592","2.03350515463918","1.68225331369661","-1.04565537555228","359.375"
"231","2.99447717231222","2.05633284241532","1.4340942562592","2.03350515463918","1.68225331369661","-1.04565537555228","359.375"
"237","2.99447717231222","2.05633284241532","1.4340942562592","0.0335051546391753","0.682253313696613","-1.04565537555228","359.375"
"237","2.99447717231222","3.05633284241532","1.4340942562592","0.0335051546391753","0.682253313696613","-1.04565537555228","359.375"
"243","2.99447717231222","3.05633284241532","1.4340942562592","-1.96649484536082","0.682253313696613","-1.04565537555228","359.375"
"243","1.99447717231222","-1.94366715758468","-1.5659057437408","-1.96649484536082","0.682253313696613","-1.04565537555228","359.375"
"249","1.99447717231222","-1.94366715758468","-1.5659057437408","-3.96649484536082","-0.317746686303387","-1.04565537555228","359.375"
"249","1.99447717231222","4.05633284241532","-0.565905743740796","-3.96649484536082","-0.317746686303387","-1.04565537555228","359.375"
"254","1.99447717231222","4.05633284241532","-0.565905743740796","0.0335051546391753","-0.317746686303387","-1.04565537555228","359.375"
"255","2.99447717231222","3.05633284241532","-2.5659057437408","0.0335051546391753","-0.317746686303387","-1.04565537555228","359.375"
"260","2.99447717231222","3.05633284241532","-2.5659057437408","-0.966494845360825","-1.31774668630339","-1.04565537555228","359.375"
"260","1.99447717231222","0.0563328424153167","-0.565905743740796","-0.966494845360825","-1.31774668630339","-1.04565537555228","359.375"
"266","1.99447717231222","0.0563328424153167","-0.565905743740796","-2.96649484536082","-0.317746686303387","-1.04565537555228","359.375"
"266","1.99447717231222","0.0563328424153167","-0.565905743740796","-2.96649484536082","-0.317746686303387","-1.04565537555228","359.375"
"271","1.99447717231222","0.0563328424153167","-0.565905743740796","-2.96649484536082","-1.31774668630339","-1.04565537555228","359.375"
"271","1.99447717231222","4.05633284241532","0.434094256259204","-2.96649484536082","-1.31774668630339","-1.04565537555228","359.375"
"277","1.99447717231222","4.05633284241532","0.434094256259204","1.03350515463918","-0.317746686303387","-1.04565537555228","359.375"
"277","0.994477172312224","3.05633284241532","1.4340942562592","1.03350515463918","-0.317746686303387","-1.04565537555228","359.375"
"282","0.994477172312224","3.05633284241532","1.4340942562592","1.03350515463918","0.682253313696613","-1.04565537555228","359.375"
"283","1.99447717231222","-0.943667157584683","-1.5659057437408","1.03350515463918","0.682253313696613","-1.04565537555228","359.375"
"288","1.99447717231222","-0.943667157584683","-1.5659057437408","2.03350515463918","-3.31774668630339","-1.04565537555228","359.375"
"288","2.99447717231222","0.0563328424153167","1.4340942562592","2.03350515463918","-3.31774668630339","-1.04565537555228","359.375"
"294","2.99447717231222","0.0563328424153167","1.4340942562592","-3.96649484536082","-0.317746686303387","-1.04565537555228","359.375"
"295","1.99447717231222","1.05633284241532","-0.565905743740796","-3.96649484536082","-0.317746686303387","-1.04565537555228","359.375"
"301","1.99447717231222","1.05633284241532","-0.565905743740796","2.03350515463918","1.68225331369661","-1.04565537555228","359.375"
"301","1.99447717231222","4.05633284241532","1.4340942562592","2.03350515463918","1.68225331369661","-1.04565537555228","359.375"
"307","1.99447717231222","4.05633284241532","1.4340942562592","-0.966494845360825","-0.317746686303387","-1.04565537555228","359.375"
"307","2.99447717231222","-0.943667157584683","3.4340942562592","-0.966494845360825","-0.317746686303387","-1.04565537555228","359.375"
"312","2.99447717231222","-0.943667157584683","3.4340942562592","-1.96649484536082","-2.31774668630339","-1.04565537555228","359.375"
"312","2.99447717231222","1.05633284241532","-2.5659057437408","-1.96649484536082","-2.31774668630339","-1.04565537555228","359.375"
"318","2.99447717231222","1.05633284241532","-2.5659057437408","-1.96649484536082","-1.31774668630339","-1.04565537555228","359.375"
"318","1.99447717231222","1.05633284241532","0.434094256259204","-1.96649484536082","-1.31774668630339","-1.04565537555228","359.375"
"323","1.99447717231222","1.05633284241532","0.434094256259204","0.0335051546391753","-0.317746686303387","-1.04565537555228","359.375"
"323","1.99447717231222","3.05633284241532","0.434094256259204","0.0335051546391753","-0.317746686303387","-1.04565537555228","359.375"
"329","1.99447717231222","3.05633284241532","0.434094256259204","1.03350515463918","-0.317746686303387","-1.04565537555228","359.375"
"329","2.99447717231222","1.05633284241532","-0.565905743740796","1.03350515463918","-0.317746686303387","-1.04565537555228","359.375"
"335","2.99447717231222","1.05633284241532","-0.565905743740796","-0.966494845360825","1.68225331369661","-1.04565537555228","359.375"
"335","2.99447717231222","-0.943667157584683","-2.5659057437408","-0.966494845360825","1.68225331369661","-1.04565537555228","359.375"
"340","2.99447717231222","-0.943667157584683","-2.5659057437408","-0.966494845360825","-0.317746686303387","-1.04565537555228","359.375"
"340","1.99447717231222","2.05633284241532","-0.565905743740796","-0.966494845360825","-0.317746686303387","-1.04565537555228","359.375"
"346","1.99447717231222","2.05633284241532","-0.565905743740796","-0.966494845360825","-1.31774668630339","-1.04565537555228","359.375"
"346","1.99447717231222","4.05633284241532","0.434094256259204","-0.966494845360825","-1.31774668630339","-1.04565537555228","359.375"
"352","1.99447717231222","4.05633284241532","0.434094256259204","2.03350515463918","-1.31774668630339","-1.04565537555228","359.375"
"353","1.99447717231222","2.05633284241532","-0.565905743740796","2.03350515463918","-1.31774668630339","-1.04565537555228","359.375"
"358","1.99447717231222","2.05633284241532","-0.565905743740796","-0.966494845360825","0.682253313696613","-1.04565537555228","359.375"
"358","1.99447717231222","-0.943667157584683","0.434094256259204","-0.966494845360825","0.682253313696613","-1.04565537555228","359.375"
"364","1.99447717231222","-0.943667157584683","0.434094256259204","-3.96649484536082","-2.31774668630339","-1.04565537555228","359.375"
"364","2.99447717231222","2.05633284241532","-3.5659057437408","-3.96649484536082","-2.31774668630339","-1.04565537555228","359.375"
"370","2.99447717231222","2.05633284241532","-3.5659057437408","-2.96649484536082","2.68225331369661","-1.04565537555228","359.375"
"370","0.994477172312224","3.05633284241532","-2.5659057437408","-2.96649484536082","2.68225331369661","-1.04565537555228","359.375"
"376","0.994477172312224","3.05633284241532","-2.5659057437408","-0.966494845360825","-0.317746686303387","-1.04565537555228","359.375"
"376","2.99447717231222","2.05633284241532","0.434094256259204","-0.966494845360825","-0.317746686303387","-1.04565537555228","359.375"
"383","2.99447717231222","2.05633284241532","0.434094256259204","3.03350515463918","0.682253313696613","-1.04565537555228","359.375"
"383","1.99447717231222","-0.943667157584683","-0.565905743740796","3.03350515463918","0.682253313696613","-1.04565537555228","359.375"
"390","1.99447717231222","-0.943667157584683","-0.565905743740796","0.0335051546391753","0.682253313696613","-1.04565537555228","359.375"
"390","2.99447717231222","0.0563328424153167","2.4340942562592","0.0335051546391753","0.682253313696613","-1.04565537555228","359.375"
"398","2.99447717231222","0.0563328424153167","2.4340942562592","-1.96649484536082","1.68225331369661","-1.04565537555228","359.375"
"398","2.99447717231222","6.05633284241532","-1.5659057437408","-1.96649484536082","1.68225331369661","-1.04565537555228","359.375"
"406","2.99447717231222","6.05633284241532","-1.5659057437408","3.03350515463918","0.682253313696613","-1.04565537555228","359.375"
"406","0.994477172312224","1.05633284241532","-0.565905743740796","3.03350515463918","0.682253313696613","-1.04565537555228","359.375"
"413","0.994477172312224","1.05633284241532","-0.565905743740796","3.03350515463918","-2.31774668630339","-1.04565537555228","359.375"
"413","1.99447717231222","-1.94366715758468","1.4340942562592","3.03350515463918","-2.31774668630339","-1.04565537555228","359.375"
"420","1.99447717231222","-1.94366715758468","1.4340942562592","-0.966494845360825","0.682253313696613","-1.04565537555228","359.375"
"421","1.99447717231222","1.05633284241532","-0.565905743740796","-0.966494845360825","0.682253313696613","-1.04565537555228","359.375"
"426","1.99447717231222","1.05633284241532","-0.565905743740796","0.0335051546391753","0.682253313696613","-1.04565537555228","359.375"
"426","1.99447717231222","4.05633284241532","1.4340942562592","0.0335051546391753","0.682253313696613","-1.04565537555228","359.375"
"433","1.99447717231222","4.05633284241532","1.4340942562592","0.0335051546391753","-1.31774668630339","-1.04565537555228","359.375"
"433","1.99447717231222","1.05633284241532","-2.5659057437408","0.0335051546391753","-1.31774668630339","-1.04565537555228","359.375"
"439","1.99447717231222","1.05633284241532","-2.5659057437408","0.0335051546391753","-3.31774668630339","-1.04565537555228","359.375"
"439","1.99447717231222","1.05633284241532","-1.5659057437408","0.0335051546391753","-3.31774668630339","-1.04565537555228","359.375"
"444","1.99447717231222","1.05633284241532","-1.5659057437408","-1.96649484536082","-2.31774668630339","-1.04565537555228","359.375"
"444","1.99447717231222","-0.943667157584683","-1.5659057437408","-1.96649484536082","-2.31774668630339","-1.04565537555228","359.375"
"450","1.99447717231222","-0.943667157584683","-1.5659057437408","2.03350515463918","-2.31774668630339","-1.04565537555228","359.375"
"450","1.99447717231222","1.05633284241532","-1.5659057437408","2.03350515463918","-2.31774668630339","-1.04565537555228","359.375"
"456","1.99447717231222","1.05633284241532","-1.5659057437408","-0.966494845360825","-0.317746686303387","-1.04565537555228","359.375"
"456","1.99447717231222","2.05633284241532","-1.5659057437408","-0.966494845360825","-0.317746686303387","-1.04565537555228","359.375"
"461","1.99447717231222","2.05633284241532","-1.5659057437408","-3.96649484536082","-1.31774668630339","-1.04565537555228","359.375"
"461","1.99447717231222","1.05633284241532","-2.5659057437408","-3.96649484536082","-1.31774668630339","-1.04565537555228","359.375"
"467","1.99447717231222","1.05633284241532","-2.5659057437408","-1.96649484536082","0.682253313696613","-1.04565537555228","359.375"
"467","1.99447717231222","0.0563328424153167","-0.565905743740796","-1.96649484536082","0.682253313696613","-1.04565537555228","359.375"
"473","1.99447717231222","0.0563328424153167","-0.565905743740796","-0.966494845360825","2.68225331369661","-1.04565537555228","359.375"
"473","0.994477172312224","1.05633284241532","-0.565905743740796","-0.966494845360825","2.68225331369661","-1.04565537555228","359.375"
"479","0.994477172312224","1.05633284241532","-0.565905743740796","-1.96649484536082","0.682253313696613","-1.04565537555228","359.375"
"479","0.994477172312224","3.05633284241532","0.434094256259204","-1.96649484536082","0.682253313696613","-1.04565537555228","359.375"
"486","0.994477172312224","3.05633284241532","0.434094256259204","1.03350515463918","-1.31774668630339","-1.04565537555228","359.375"
"486","0.994477172312224","2.05633284241532","1.4340942562592","1.03350515463918","-1.31774668630339","-1.04565537555228","359.375"
"491","0.994477172312224","2.05633284241532","1.4340942562592","-0.966494845360825","-1.31774668630339","-1.04565537555228","359.375"
"491","2.99447717231222","1.05633284241532","-1.5659057437408","-0.966494845360825","-1.31774668630339","-1.04565537555228","359.375"
"497","2.99447717231222","1.05633284241532","-1.5659057437408","-2.96649484536082","0.682253313696613","-1.04565537555228","359.375"
"497","2.99447717231222","1.05633284241532","1.4340942562592","-2.96649484536082","0.682253313696613","-1.04565537555228","359.375"
"503","2.99447717231222","1.05633284241532","1.4340942562592","0.0335051546391753","-0.317746686303387","-1.04565537555228","359.375"
"503","1.99447717231222","4.05633284241532","0.434094256259204","0.0335051546391753","-0.317746686303387","-1.04565537555228","359.375"
"508","1.99447717231222","4.05633284241532","0.434094256259204","1.03350515463918","0.682253313696613","-1.04565537555228","359.375"
"508","1.99447717231222","2.05633284241532","1.4340942562592","1.03350515463918","0.682253313696613","-1.04565537555228","359.375"
"514","1.99447717231222","2.05633284241532","1.4340942562592","0.0335051546391753","-6.31774668630339","-1.04565537555228","359.375"
"514","2.99447717231222","0.0563328424153167","-1.5659057437408","0.0335051546391753","-6.31774668630339","-1.04565537555228","359.375"
"519","2.99447717231222","0.0563328424153167","-1.5659057437408","0.0335051546391753","-0.317746686303387","-1.04565537555228","359.375"
"519","0.994477172312224","1.05633284241532","0.434094256259204","0.0335051546391753","-0.317746686303387","-1.04565537555228","359.375"
"525","0.994477172312224","1.05633284241532","0.434094256259204","-2.96649484536082","-0.317746686303387","-1.04565537555228","359.375"
"525","1.99447717231222","1.05633284241532","0.434094256259204","-2.96649484536082","-0.317746686303387","-1.04565537555228","359.375"
"531","1.99447717231222","1.05633284241532","0.434094256259204","-2.96649484536082","-1.31774668630339","-1.04565537555228","359.375"
"531","1.99447717231222","1.05633284241532","-0.565905743740796","-2.96649484536082","-1.31774668630339","-1.04565537555228","359.375"
"537","1.99447717231222","1.05633284241532","-0.565905743740796","1.03350515463918","-0.317746686303387","-1.04565537555228","359.375"
"537","2.99447717231222","1.05633284241532","0.434094256259204","1.03350515463918","-0.317746686303387","-1.04565537555228","359.375"
"542","2.99447717231222","1.05633284241532","0.434094256259204","0.0335051546391753","-1.31774668630339","-1.04565537555228","359.375"
"542","-0.00552282768777612","-1.94366715758468","-0.565905743740796","0.0335051546391753","-1.31774668630339","-1.04565537555228","359.375"
"548","-0.00552282768777612","-1.94366715758468","-0.565905743740796","-2.96649484536082","-2.31774668630339","-1.04565537555228","359.375"
"548","1.99447717231222","2.05633284241532","-0.565905743740796","-2.96649484536082","-2.31774668630339","-1.04565537555228","359.375"
"554","1.99447717231222","2.05633284241532","-0.565905743740796","-2.96649484536082","-2.31774668630339","-1.04565537555228","359.375"
"554","2.99447717231222","3.05633284241532","-0.565905743740796","-2.96649484536082","-2.31774668630339","-1.04565537555228","359.375"
"560","2.99447717231222","3.05633284241532","-0.565905743740796","0.0335051546391753","0.682253313696613","-1.04565537555228","359.375"
"560","2.99447717231222","3.05633284241532","-2.5659057437408","0.0335051546391753","0.682253313696613","-1.04565537555228","359.375"
"566","2.99447717231222","3.05633284241532","-2.5659057437408","-3.96649484536082","1.68225331369661","-1.04565537555228","359.375"
"566","3.99447717231222","0.0563328424153167","-1.5659057437408","-3.96649484536082","1.68225331369661","-1.04565537555228","359.375"
"572","3.99447717231222","0.0563328424153167","-1.5659057437408","-0.966494845360825","-0.317746686303387","-1.04565537555228","359.375"
"572","1.99447717231222","1.05633284241532","0.434094256259204","-0.966494845360825","-0.317746686303387","-1.04565537555228","359.375"
"578","1.99447717231222","1.05633284241532","0.434094256259204","-0.966494845360825","-0.317746686303387","-1.04565537555228","359.375"
"578","1.99447717231222","2.05633284241532","-2.5659057437408","-0.966494845360825","-0.317746686303387","-1.04565537555228","359.375"
"584","1.99447717231222","2.05633284241532","-2.5659057437408","-0.966494845360825","-1.31774668630339","-1.04565537555228","359.375"
"584","2.99447717231222","1.05633284241532","2.4340942562592","-0.966494845360825","-1.31774668630339","-1.04565537555228","359.375"
"591","2.99447717231222","1.05633284241532","2.4340942562592","2.03350515463918","-3.31774668630339","-1.04565537555228","359.375"
"591","1.99447717231222","1.05633284241532","2.4340942562592","2.03350515463918","-3.31774668630339","-1.04565537555228","359.375"
"598","1.99447717231222","1.05633284241532","2.4340942562592","-1.96649484536082","-1.31774668630339","-1.04565537555228","359.375"
"598","1.99447717231222","1.05633284241532","0.434094256259204","-1.96649484536082","-1.31774668630339","-1.04565537555228","359.375"
"605","1.99447717231222","1.05633284241532","0.434094256259204","-2.96649484536082","0.682253313696613","-1.04565537555228","359.375"
"605","2.99447717231222","3.05633284241532","-0.565905743740796","-2.96649484536082","0.682253313696613","-1.04565537555228","359.375"
"612","2.99447717231222","3.05633284241532","-0.565905743740796","2.03350515463918","0.682253313696613","-1.04565537555228","359.375"
"612","2.99447717231222","2.05633284241532","0.434094256259204","2.03350515463918","0.682253313696613","-1.04565537555228","359.375"
"619","2.99447717231222","2.05633284241532","0.434094256259204","1.03350515463918","1.68225331369661","-1.04565537555228","359.375"
"619","2.99447717231222","0.0563328424153167","-0.565905743740796","1.03350515463918","1.68225331369661","-1.04565537555228","359.375"
"626","2.99447717231222","0.0563328424153167","-0.565905743740796","-0.966494845360825","1.68225331369661","-1.04565537555228","359.375"
"626","0.994477172312224","0.0563328424153167","-0.565905743740796","-0.966494845360825","1.68225331369661","-1.04565537555228","359.375"
"635","0.994477172312224","0.0563328424153167","-0.565905743740796","2.03350515463918","-0.317746686303387","-1.04565537555228","359.375"
"636","1.99447717231222","2.05633284241532","2.4340942562592","2.03350515463918","-0.317746686303387","-1.04565537555228","359.375"
"644","1.99447717231222","2.05633284241532","2.4340942562592","3.03350515463918","1.68225331369661","-1.04565537555228","359.375"
"644","1.99447717231222","1.05633284241532","-1.5659057437408","3.03350515463918","1.68225331369661","-1.04565537555228","359.375"
"652","1.99447717231222","1.05633284241532","-1.5659057437408","-1.96649484536082","1.68225331369661","-1.04565537555228","359.375"
"652","2.99447717231222","0.0563328424153167","-2.5659057437408","-1.96649484536082","1.68225331369661","-1.04565537555228","359.375"
"659","2.99447717231222","0.0563328424153167","-2.5659057437408","0.0335051546391753","1.68225331369661","-1.04565537555228","359.375"
"659","2.99447717231222","-0.943667157584683","-1.5659057437408","0.0335051546391753","1.68225331369661","-1.04565537555228","359.375"
"666","2.99447717231222","-0.943667157584683","-1.5659057437408","0.0335051546391753","-3.31774668630339","-1.04565537555228","359.375"
"667","1.99447717231222","2.05633284241532","0.434094256259204","0.0335051546391753","-3.31774668630339","-1.04565537555228","359.375"
"673","1.99447717231222","2.05633284241532","0.434094256259204","-1.96649484536082","0.682253313696613","-1.04565537555228","359.375"
"673","2.99447717231222","2.05633284241532","1.4340942562592","-1.96649484536082","0.682253313696613","-1.04565537555228","359.375"
"679","2.99447717231222","2.05633284241532","1.4340942562592","-1.96649484536082","1.68225331369661","-1.04565537555228","359.375"
"679","3.99447717231222","-1.94366715758468","-0.565905743740796","-1.96649484536082","1.68225331369661","-1.04565537555228","359.375"
"685","3.99447717231222","-1.94366715758468","-0.565905743740796","-1.96649484536082","2.68225331369661","-1.04565537555228","359.375"
"685","1.99447717231222","1.05633284241532","-1.5659057437408","-1.96649484536082","2.68225331369661","-1.04565537555228","359.375"
"691","1.99447717231222","1.05633284241532","-1.5659057437408","2.03350515463918","0.682253313696613","-1.04565537555228","359.375"
"691","1.99447717231222","1.05633284241532","0.434094256259204","2.03350515463918","0.682253313696613","-1.04565537555228","359.375"
"696","1.99447717231222","1.05633284241532","0.434094256259204","2.03350515463918","-0.317746686303387","-1.04565537555228","359.375"
"697","2.99447717231222","4.05633284241532","2.4340942562592","2.03350515463918","-0.317746686303387","-1.04565537555228","359.375"
"702","2.99447717231222","4.05633284241532","2.4340942562592","2.03350515463918","0.682253313696613","-1.04565537555228","359.375"
"703","1.99447717231222","1.05633284241532","0.434094256259204","2.03350515463918","0.682253313696613","-1.04565537555228","359.375"
"708","1.99447717231222","1.05633284241532","0.434094256259204","-1.96649484536082","-1.31774668630339","-1.04565537555228","359.375"
"708","1.99447717231222","0.0563328424153167","-0.565905743740796","-1.96649484536082","-1.31774668630339","-1.04565537555228","359.375"
"713","1.99447717231222","0.0563328424153167","-0.565905743740796","-1.96649484536082","-0.317746686303387","-1.04565537555228","359.375"
"714","1.99447717231222","1.05633284241532","-1.5659057437408","-1.96649484536082","-0.317746686303387","-1.04565537555228","359.375"
"719","1.99447717231222","1.05633284241532","-1.5659057437408","0.0335051546391753","-0.317746686303387","-1.04565537555228","359.375"
"720","1.99447717231222","1.05633284241532","-0.565905743740796","0.0335051546391753","-0.317746686303387","-1.04565537555228","359.375"
"725","1.99447717231222","1.05633284241532","-0.565905743740796","2.03350515463918","0.682253313696613","-1.04565537555228","359.375"
"725","2.99447717231222","0.0563328424153167","-0.565905743740796","2.03350515463918","0.682253313696613","-1.04565537555228","359.375"
"731","2.99447717231222","0.0563328424153167","-0.565905743740796","-0.966494845360825","-0.317746686303387","-1.04565537555228","359.375"
"731","1.99447717231222","1.05633284241532","-1.5659057437408","-0.966494845360825","-0.317746686303387","-1.04565537555228","359.375"
"737","1.99447717231222","1.05633284241532","-1.5659057437408","2.03350515463918","-0.317746686303387","-1.04565537555228","359.375"
"737","1.99447717231222","2.05633284241532","-1.5659057437408","2.03350515463918","-0.317746686303387","-1.04565537555228","359.375"
"742","1.99447717231222","2.05633284241532","-1.5659057437408","3.03350515463918","1.68225331369661","-1.04565537555228","359.375"
"742","1.99447717231222","2.05633284241532","-0.565905743740796","3.03350515463918","1.68225331369661","-1.04565537555228","359.375"
"748","1.99447717231222","2.05633284241532","-0.565905743740796","1.03350515463918","0.682253313696613","-1.04565537555228","359.375"
"748","2.99447717231222","1.05633284241532","1.4340942562592","1.03350515463918","0.682253313696613","-1.04565537555228","359.375"
"754","2.99447717231222","1.05633284241532","1.4340942562592","0.0335051546391753","-1.31774668630339","-1.04565537555228","359.375"
"754","1.99447717231222","0.0563328424153167","-2.5659057437408","0.0335051546391753","-1.31774668630339","-1.04565537555228","359.375"
"759","1.99447717231222","0.0563328424153167","-2.5659057437408","2.03350515463918","-0.317746686303387","-1.04565537555228","359.375"
"759","1.99447717231222","2.05633284241532","1.4340942562592","2.03350515463918","-0.317746686303387","-1.04565537555228","359.375"
"765","1.99447717231222","2.05633284241532","1.4340942562592","0.0335051546391753","-0.317746686303387","-1.04565537555228","359.375"
"765","3.99447717231222","3.05633284241532","-1.5659057437408","0.0335051546391753","-0.317746686303387","-1.04565537555228","359.375"
"770","3.99447717231222","3.05633284241532","-1.5659057437408","3.03350515463918","1.68225331369661","-1.04565537555228","359.375"
"770","1.99447717231222","0.0563328424153167","-0.565905743740796","3.03350515463918","1.68225331369661","-1.04565537555228","359.375"
"776","1.99447717231222","0.0563328424153167","-0.565905743740796","1.03350515463918","-0.317746686303387","-1.04565537555228","359.375"
"776","2.99447717231222","-2.94366715758468","-2.5659057437408","1.03350515463918","-0.317746686303387","-1.04565537555228","359.375"
"782","2.99447717231222","-2.94366715758468","-2.5659057437408","0.0335051546391753","-2.31774668630339","-1.04565537555228","359.375"
"782","1.99447717231222","2.05633284241532","-0.565905743740796","0.0335051546391753","-2.31774668630339","-1.04565537555228","359.375"
"788","1.99447717231222","2.05633284241532","-0.565905743740796","3.03350515463918","-0.317746686303387","-1.04565537555228","359.375"
"788","1.99447717231222","0.0563328424153167","2.4340942562592","3.03350515463918","-0.317746686303387","-1.04565537555228","359.375"
"794","1.99447717231222","0.0563328424153167","2.4340942562592","-0.966494845360825","0.682253313696613","-1.04565537555228","359.375"
"794","2.99447717231222","-0.943667157584683","0.434094256259204","-0.966494845360825","0.682253313696613","-1.04565537555228","359.375"
"801","2.99447717231222","-0.943667157584683","0.434094256259204","1.03350515463918","-0.317746686303387","-1.04565537555228","359.375"
"801","1.99447717231222","1.05633284241532","-1.5659057437408","1.03350515463918","-0.317746686303387","-1.04565537555228","359.375"
"808","1.99447717231222","1.05633284241532","-1.5659057437408","2.03350515463918","0.682253313696613","-1.04565537555228","359.375"
"808","1.99447717231222","4.05633284241532","-1.5659057437408","2.03350515463918","0.682253313696613","-1.04565537555228","359.375"
"815","1.99447717231222","4.05633284241532","-1.5659057437408","1.03350515463918","0.682253313696613","-1.04565537555228","359.375"
"815","1.99447717231222","3.05633284241532","-1.5659057437408","1.03350515463918","0.682253313696613","-1.04565537555228","359.375"
"822","1.99447717231222","3.05633284241532","-1.5659057437408","-1.96649484536082","-2.31774668630339","-1.04565537555228","359.375"
"822","4.99447717231222","2.05633284241532","-1.5659057437408","-1.96649484536082","-2.31774668630339","-1.04565537555228","359.375"
"828","4.99447717231222","2.05633284241532","-1.5659057437408","2.03350515463918","0.682253313696613","-1.04565537555228","359.375"
"828","1.99447717231222","0.0563328424153167","-1.5659057437408","2.03350515463918","0.682253313696613","-1.04565537555228","359.375"
"836","1.99447717231222","0.0563328424153167","-1.5659057437408","-1.96649484536082","-3.31774668630339","-1.04565537555228","359.375"
"837","1.99447717231222","3.05633284241532","-2.5659057437408","-1.96649484536082","-3.31774668630339","-1.04565537555228","359.375"
"850","1.99447717231222","3.05633284241532","-2.5659057437408","-0.966494845360825","0.682253313696613","-1.04565537555228","359.375"
"850","1.99447717231222","1.05633284241532","-1.5659057437408","-0.966494845360825","0.682253313696613","-1.04565537555228","359.375"
"857","1.99447717231222","1.05633284241532","-1.5659057437408","3.03350515463918","-2.31774668630339","-1.04565537555228","359.375"
"857","1.99447717231222","1.05633284241532","-0.565905743740796","3.03350515463918","-2.31774668630339","-1.04565537555228","359.375"
"864","1.99447717231222","1.05633284241532","-0.565905743740796","2.03350515463918","-1.31774668630339","-1.04565537555228","359.375"
"864","2.99447717231222","1.05633284241532","-0.565905743740796","2.03350515463918","-1.31774668630339","-1.04565537555228","359.375"
"870","2.99447717231222","1.05633284241532","-0.565905743740796","-1.96649484536082","0.682253313696613","-1.04565537555228","359.375"
"870","1.99447717231222","1.05633284241532","-0.565905743740796","-1.96649484536082","0.682253313696613","-1.04565537555228","359.375"
"876","1.99447717231222","1.05633284241532","-0.565905743740796","0.0335051546391753","-0.317746686303387","-1.04565537555228","359.375"
"876","3.99447717231222","3.05633284241532","-0.565905743740796","0.0335051546391753","-0.317746686303387","-1.04565537555228","359.375"
"882","3.99447717231222","3.05633284241532","-0.565905743740796","2.03350515463918","-1.31774668630339","-1.04565537555228","359.375"
"882","2.99447717231222","-0.943667157584683","-0.565905743740796","2.03350515463918","-1.31774668630339","-1.04565537555228","359.375"
"888","2.99447717231222","-0.943667157584683","-0.565905743740796","2.03350515463918","0.682253313696613","-1.04565537555228","359.375"
"888","2.99447717231222","-0.943667157584683","-0.565905743740796","2.03350515463918","0.682253313696613","-1.04565537555228","359.375"
"893","2.99447717231222","-0.943667157584683","-0.565905743740796","1.03350515463918","-2.31774668630339","-1.04565537555228","359.375"
"893","1.99447717231222","2.05633284241532","-0.565905743740796","1.03350515463918","-2.31774668630339","-1.04565537555228","359.375"
"899","1.99447717231222","2.05633284241532","-0.565905743740796","-0.966494845360825","-1.31774668630339","-1.04565537555228","359.375"
"899","2.99447717231222","2.05633284241532","-1.5659057437408","-0.966494845360825","-1.31774668630339","-1.04565537555228","359.375"
"906","2.99447717231222","2.05633284241532","-1.5659057437408","2.03350515463918","-1.31774668630339","-1.04565537555228","359.375"
"906","1.99447717231222","2.05633284241532","-2.5659057437408","2.03350515463918","-1.31774668630339","-1.04565537555228","359.375"
"911","1.99447717231222","2.05633284241532","-2.5659057437408","-0.966494845360825","-0.317746686303387","-1.04565537555228","359.375"
"911","3.99447717231222","1.05633284241532","-1.5659057437408","-0.966494845360825","-0.317746686303387","-1.04565537555228","359.375"
"918","3.99447717231222","1.05633284241532","-1.5659057437408","0.0335051546391753","-1.31774668630339","-1.04565537555228","359.375"
"918","-0.00552282768777612","1.05633284241532","0.434094256259204","0.0335051546391753","-1.31774668630339","-1.04565537555228","359.375"
"924","-0.00552282768777612","1.05633284241532","0.434094256259204","1.03350515463918","-2.31774668630339","-1.04565537555228","359.375"
"924","1.99447717231222","1.05633284241532","1.4340942562592","1.03350515463918","-2.31774668630339","-1.04565537555228","359.375"
"931","1.99447717231222","1.05633284241532","1.4340942562592","-1.96649484536082","1.68225331369661","-1.04565537555228","359.375"
"931","2.99447717231222","1.05633284241532","0.434094256259204","-1.96649484536082","1.68225331369661","-1.04565537555228","359.375"
"937","2.99447717231222","1.05633284241532","0.434094256259204","0.0335051546391753","-0.317746686303387","-1.04565537555228","359.375"
"937","2.99447717231222","4.05633284241532","0.434094256259204","0.0335051546391753","-0.317746686303387","-1.04565537555228","359.375"
"942","2.99447717231222","4.05633284241532","0.434094256259204","-0.966494845360825","1.68225331369661","-1.04565537555228","359.375"
"943","1.99447717231222","1.05633284241532","-1.5659057437408","-0.966494845360825","1.68225331369661","-1.04565537555228","359.375"
"948","1.99447717231222","1.05633284241532","-1.5659057437408","4.03350515463918","-3.31774668630339","-1.04565537555228","359.375"
"948","1.99447717231222","-1.94366715758468","0.434094256259204","4.03350515463918","-3.31774668630339","-1.04565537555228","359.375"
"954","1.99447717231222","-1.94366715758468","0.434094256259204","0.0335051546391753","1.68225331369661","-1.04565537555228","359.375"
"954","2.99447717231222","3.05633284241532","-2.5659057437408","0.0335051546391753","1.68225331369661","-1.04565537555228","359.375"
"959","2.99447717231222","3.05633284241532","-2.5659057437408","2.03350515463918","0.682253313696613","-1.04565537555228","359.375"
"960","1.99447717231222","3.05633284241532","-2.5659057437408","2.03350515463918","0.682253313696613","-1.04565537555228","359.375"
"965","1.99447717231222","3.05633284241532","-2.5659057437408","1.03350515463918","-0.317746686303387","-1.04565537555228","359.375"
"965","0.994477172312224","1.05633284241532","-2.5659057437408","1.03350515463918","-0.317746686303387","-1.04565537555228","359.375"
"971","0.994477172312224","1.05633284241532","-2.5659057437408","-1.96649484536082","-0.317746686303387","-1.04565537555228","359.375"
"971","3.99447717231222","1.05633284241532","-0.565905743740796","-1.96649484536082","-0.317746686303387","-1.04565537555228","359.375"
"976","3.99447717231222","1.05633284241532","-0.565905743740796","-3.96649484536082","-0.317746686303387","-1.04565537555228","359.375"
"977","-0.00552282768777612","3.05633284241532","-1.5659057437408","-3.96649484536082","-0.317746686303387","-1.04565537555228","359.375"
"983","-0.00552282768777612","3.05633284241532","-1.5659057437408","0.0335051546391753","0.682253313696613","-1.04565537555228","359.375"
"983","1.99447717231222","1.05633284241532","1.4340942562592","0.0335051546391753","0.682253313696613","-1.04565537555228","359.375"
"989","1.99447717231222","1.05633284241532","1.4340942562592","-0.966494845360825","1.68225331369661","-1.04565537555228","359.375"
"990","2.99447717231222","0.0563328424153167","-0.565905743740796","-0.966494845360825","1.68225331369661","-1.04565537555228","359.375"
"995","2.99447717231222","0.0563328424153167","-0.565905743740796","-2.96649484536082","-1.31774668630339","-1.04565537555228","359.375"
"995","1.99447717231222","-0.943667157584683","-0.565905743740796","-2.96649484536082","-1.31774668630339","-1.04565537555228","359.375"
"1001","1.99447717231222","-0.943667157584683","-0.565905743740796","-1.96649484536082","-1.31774668630339","-1.04565537555228","359.375"
"1001","1.99447717231222","4.05633284241532","-0.565905743740796","-1.96649484536082","-1.31774668630339","-1.04565537555228","359.375"
"1007","1.99447717231222","4.05633284241532","-0.565905743740796","-1.96649484536082","-2.31774668630339","-1.04565537555228","359.375"
"1007","1.99447717231222","3.05633284241532","-1.5659057437408","-1.96649484536082","-2.31774668630339","-1.04565537555228","359.375"
"1013","1.99447717231222","3.05633284241532","-1.5659057437408","0.0335051546391753","-1.31774668630339","-1.04565537555228","359.375"
"1014","1.99447717231222","-0.943667157584683","0.434094256259204","0.0335051546391753","-1.31774668630339","-1.04565537555228","359.375"
"1021","1.99447717231222","-0.943667157584683","0.434094256259204","-3.96649484536082","-0.317746686303387","-1.04565537555228","359.375"
"1021","1.99447717231222","1.05633284241532","-1.5659057437408","-3.96649484536082","-0.317746686303387","-1.04565537555228","359.375"
"1027","1.99447717231222","1.05633284241532","-1.5659057437408","-1.96649484536082","-2.31774668630339","-1.04565537555228","359.375"
"1027","1.99447717231222","3.05633284241532","-2.5659057437408","-1.96649484536082","-2.31774668630339","-1.04565537555228","359.375"
"1034","1.99447717231222","3.05633284241532","-2.5659057437408","1.03350515463918","0.682253313696613","-1.04565537555228","359.375"
"1034","2.99447717231222","0.0563328424153167","1.4340942562592","1.03350515463918","0.682253313696613","-1.04565537555228","359.375"
"1040","2.99447717231222","0.0563328424153167","1.4340942562592","2.03350515463918","2.68225331369661","-1.04565537555228","359.375"
"1040","1.99447717231222","1.05633284241532","0.434094256259204","2.03350515463918","2.68225331369661","-1.04565537555228","359.375"
"1048","1.99447717231222","1.05633284241532","0.434094256259204","2.03350515463918","-1.31774668630339","-1.04565537555228","359.375"
"1048","1.99447717231222","1.05633284241532","1.4340942562592","2.03350515463918","-1.31774668630339","-1.04565537555228","359.375"
"1054","1.99447717231222","1.05633284241532","1.4340942562592","1.03350515463918","-1.31774668630339","-1.04565537555228","359.375"
"1055","1.99447717231222","4.05633284241532","-0.565905743740796","1.03350515463918","-1.31774668630339","-1.04565537555228","359.375"
"1062","1.99447717231222","4.05633284241532","-0.565905743740796","-1.96649484536082","1.68225331369661","-1.04565537555228","359.375"
"1062","1.99447717231222","1.05633284241532","-3.5659057437408","-1.96649484536082","1.68225331369661","-1.04565537555228","359.375"
"1070","1.99447717231222","1.05633284241532","-3.5659057437408","-0.966494845360825","1.68225331369661","-1.04565537555228","359.375"
"1071","2.99447717231222","-0.943667157584683","-1.5659057437408","-0.966494845360825","1.68225331369661","-1.04565537555228","359.375"
"1077","2.99447717231222","-0.943667157584683","-1.5659057437408","-2.96649484536082","-0.317746686303387","-1.04565537555228","359.375"
"1078","0.994477172312224","3.05633284241532","3.4340942562592","-2.96649484536082","-0.317746686303387","-1.04565537555228","359.375"
"1084","0.994477172312224","3.05633284241532","3.4340942562592","-4.96649484536082","-0.317746686303387","-1.04565537555228","359.375"
"1084","1.99447717231222","4.05633284241532","-0.565905743740796","-4.96649484536082","-0.317746686303387","-1.04565537555228","359.375"
"1090","1.99447717231222","4.05633284241532","-0.565905743740796","-0.966494845360825","-1.31774668630339","-1.04565537555228","359.375"
"1090","1.99447717231222","1.05633284241532","-2.5659057437408","-0.966494845360825","-1.31774668630339","-1.04565537555228","359.375"
"1096","1.99447717231222","1.05633284241532","-2.5659057437408","-0.966494845360825","1.68225331369661","-1.04565537555228","359.375"
"1097","1.99447717231222","0.0563328424153167","-1.5659057437408","-0.966494845360825","1.68225331369661","-1.04565537555228","359.375"
"1103","1.99447717231222","0.0563328424153167","-1.5659057437408","-3.96649484536082","2.68225331369661","-1.04565537555228","359.375"
"1103","1.99447717231222","2.05633284241532","-3.5659057437408","-3.96649484536082","2.68225331369661","-1.04565537555228","359.375"
"1108","1.99447717231222","2.05633284241532","-3.5659057437408","-0.966494845360825","1.68225331369661","-1.04565537555228","359.375"
"1109","0.994477172312224","3.05633284241532","-0.565905743740796","-0.966494845360825","1.68225331369661","-1.04565537555228","359.375"
"1115","0.994477172312224","3.05633284241532","-0.565905743740796","0.0335051546391753","-0.317746686303387","-1.04565537555228","359.375"
"1115","1.99447717231222","0.0563328424153167","0.434094256259204","0.0335051546391753","-0.317746686303387","-1.04565537555228","359.375"
"1121","1.99447717231222","0.0563328424153167","0.434094256259204","-0.966494845360825","-0.317746686303387","-1.04565537555228","359.375"
"1121","0.994477172312224","0.0563328424153167","-1.5659057437408","-0.966494845360825","-0.317746686303387","-1.04565537555228","359.375"
"1127","0.994477172312224","0.0563328424153167","-1.5659057437408","-0.966494845360825","-0.317746686303387","-1.04565537555228","359.375"
"1127","2.99447717231222","1.05633284241532","-3.5659057437408","-0.966494845360825","-0.317746686303387","-1.04565537555228","359.375"
"1133","2.99447717231222","1.05633284241532","-3.5659057437408","-0.966494845360825","0.682253313696613","-1.04565537555228","359.375"
"1133","0.994477172312224","1.05633284241532","0.434094256259204","-0.966494845360825","0.682253313696613","-1.04565537555228","359.375"
"1139","0.994477172312224","1.05633284241532","0.434094256259204","0.0335051546391753","-0.317746686303387","-1.04565537555228","359.375"
"1139","1.99447717231222","1.05633284241532","-1.5659057437408","0.0335051546391753","-0.317746686303387","-1.04565537555228","359.375"
"1145","1.99447717231222","1.05633284241532","-1.5659057437408","2.03350515463918","-1.31774668630339","-1.04565537555228","359.375"
"1145","0.994477172312224","1.05633284241532","0.434094256259204","2.03350515463918","-1.31774668630339","-1.04565537555228","359.375"
"1152","0.994477172312224","1.05633284241532","0.434094256259204","-1.96649484536082","0.682253313696613","-1.04565537555228","359.375"
"1152","1.99447717231222","1.05633284241532","-0.565905743740796","-1.96649484536082","0.682253313696613","-1.04565537555228","359.375"
"1157","1.99447717231222","1.05633284241532","-0.565905743740796","0.0335051546391753","-3.31774668630339","-1.04565537555228","359.375"
"1158","1.99447717231222","1.05633284241532","-0.565905743740796","0.0335051546391753","-3.31774668630339","-1.04565537555228","359.375"
"1163","1.99447717231222","1.05633284241532","-0.565905743740796","-0.966494845360825","-1.31774668630339","-1.04565537555228","359.375"
"1164","2.99447717231222","3.05633284241532","-0.565905743740796","-0.966494845360825","-1.31774668630339","-1.04565537555228","359.375"
"1170","2.99447717231222","3.05633284241532","-0.565905743740796","-3.96649484536082","1.68225331369661","-1.04565537555228","359.375"
"1170","2.99447717231222","1.05633284241532","-0.565905743740796","-3.96649484536082","1.68225331369661","-1.04565537555228","359.375"
"1177","2.99447717231222","1.05633284241532","-0.565905743740796","-2.96649484536082","-1.31774668630339","-1.04565537555228","359.375"
"1177","1.99447717231222","1.05633284241532","-0.565905743740796","-2.96649484536082","-1.31774668630339","-1.04565537555228","359.375"
"1184","1.99447717231222","1.05633284241532","-0.565905743740796","-0.966494845360825","-1.31774668630339","-1.04565537555228","359.375"
"1184","0.994477172312224","1.05633284241532","0.434094256259204","-0.966494845360825","-1.31774668630339","-1.04565537555228","359.375"
"1191","0.994477172312224","1.05633284241532","0.434094256259204","0.0335051546391753","0.682253313696613","-1.04565537555228","359.375"
"1191","1.99447717231222","3.05633284241532","-2.5659057437408","0.0335051546391753","0.682253313696613","-1.04565537555228","359.375"
"1197","1.99447717231222","3.05633284241532","-2.5659057437408","0.0335051546391753","-1.31774668630339","-1.04565537555228","359.375"
"1197","2.99447717231222","-0.943667157584683","-1.5659057437408","0.0335051546391753","-1.31774668630339","-1.04565537555228","359.375"
"1204","2.99447717231222","-0.943667157584683","-1.5659057437408","-0.966494845360825","-4.31774668630339","-1.04565537555228","359.375"
"1204","1.99447717231222","1.05633284241532","-0.565905743740796","-0.966494845360825","-4.31774668630339","-1.04565537555228","359.375"
"1211","1.99447717231222","1.05633284241532","-0.565905743740796","-1.96649484536082","-3.31774668630339","-1.04565537555228","359.375"
"1211","1.99447717231222","4.05633284241532","-0.565905743740796","-1.96649484536082","-3.31774668630339","-1.04565537555228","359.375"
"1218","1.99447717231222","4.05633284241532","-0.565905743740796","-0.966494845360825","-1.31774668630339","-1.04565537555228","359.375"
"1218","1.99447717231222","1.05633284241532","1.4340942562592","-0.966494845360825","-1.31774668630339","-1.04565537555228","359.375"
"1225","1.99447717231222","1.05633284241532","1.4340942562592","-1.96649484536082","0.682253313696613","-1.04565537555228","359.375"
"1225","1.99447717231222","1.05633284241532","-2.5659057437408","-1.96649484536082","0.682253313696613","-1.04565537555228","359.375"
"1232","1.99447717231222","1.05633284241532","-2.5659057437408","-0.966494845360825","0.682253313696613","-1.04565537555228","359.375"
"1232","1.99447717231222","1.05633284241532","-0.565905743740796","-0.966494845360825","0.682253313696613","-1.04565537555228","359.375"
"1239","1.99447717231222","1.05633284241532","-0.565905743740796","-0.966494845360825","1.68225331369661","-1.04565537555228","359.375"
"1239","2.99447717231222","1.05633284241532","-0.565905743740796","-0.966494845360825","1.68225331369661","-1.04565537555228","359.375"
"1245","2.99447717231222","1.05633284241532","-0.565905743740796","-0.966494845360825","-2.31774668630339","-1.04565537555228","359.375"
"1245","1.99447717231222","1.05633284241532","-0.565905743740796","-0.966494845360825","-2.31774668630339","-1.04565537555228","359.375"
"1252","1.99447717231222","1.05633284241532","-0.565905743740796","-0.966494845360825","-2.31774668630339","-1.04565537555228","359.375"
"1252","1.99447717231222","-0.943667157584683","1.4340942562592","-0.966494845360825","-2.31774668630339","-1.04565537555228","359.375"
"1258","1.99447717231222","-0.943667157584683","1.4340942562592","-0.966494845360825","1.68225331369661","-1.04565537555228","359.375"
"1258","1.99447717231222","1.05633284241532","-0.565905743740796","-0.966494845360825","1.68225331369661","-1.04565537555228","359.375"
"1265","1.99447717231222","1.05633284241532","-0.565905743740796","1.03350515463918","-0.317746686303387","-1.04565537555228","359.375"
"1265","1.99447717231222","4.05633284241532","-1.5659057437408","1.03350515463918","-0.317746686303387","-1.04565537555228","359.375"
"1272","1.99447717231222","4.05633284241532","-1.5659057437408","2.03350515463918","-2.31774668630339","-1.04565537555228","359.375"
"1272","1.99447717231222","-1.94366715758468","0.434094256259204","2.03350515463918","-2.31774668630339","-1.04565537555228","359.375"
"1279","1.99447717231222","-1.94366715758468","0.434094256259204","0.0335051546391753","-0.317746686303387","-1.04565537555228","359.375"
"1279","2.99447717231222","1.05633284241532","-0.565905743740796","0.0335051546391753","-0.317746686303387","-1.04565537555228","359.375"
"1286","2.99447717231222","1.05633284241532","-0.565905743740796","0.0335051546391753","-0.317746686303387","-1.04565537555228","359.375"
"1286","2.99447717231222","1.05633284241532","0.434094256259204","0.0335051546391753","-0.317746686303387","-1.04565537555228","359.375"
"1294","2.99447717231222","1.05633284241532","0.434094256259204","0.0335051546391753","-1.31774668630339","-1.04565537555228","359.375"
"1294","2.99447717231222","1.05633284241532","-1.5659057437408","0.0335051546391753","-1.31774668630339","-1.04565537555228","359.375"
"1301","2.99447717231222","1.05633284241532","-1.5659057437408","0.0335051546391753","-0.317746686303387","-1.04565537555228","359.375"
"1301","2.99447717231222","0.0563328424153167","-0.565905743740796","0.0335051546391753","-0.317746686303387","-1.04565537555228","359.375"
"1308","2.99447717231222","0.0563328424153167","-0.565905743740796","1.03350515463918","-3.31774668630339","-1.04565537555228","359.375"
"1308","1.99447717231222","1.05633284241532","-2.5659057437408","1.03350515463918","-3.31774668630339","-1.04565537555228","359.375"
"1315","1.99447717231222","1.05633284241532","-2.5659057437408","-0.966494845360825","-0.317746686303387","-1.04565537555228","359.375"
"1315","1.99447717231222","1.05633284241532","-2.5659057437408","-0.966494845360825","-0.317746686303387","-1.04565537555228","359.375"
"1322","1.99447717231222","1.05633284241532","-2.5659057437408","-0.966494845360825","-0.317746686303387","-1.04565537555228","359.375"
"1322","1.99447717231222","1.05633284241532","-2.5659057437408","-0.966494845360825","-0.317746686303387","-1.04565537555228","359.375"
"1329","1.99447717231222","1.05633284241532","-2.5659057437408","3.03350515463918","-1.31774668630339","-1.04565537555228","359.375"
"1329","1.99447717231222","1.05633284241532","-2.5659057437408","3.03350515463918","-1.31774668630339","-1.04565537555228","359.375"
"1336","1.99447717231222","1.05633284241532","-2.5659057437408","-0.966494845360825","-0.317746686303387","-1.04565537555228","359.375"
"1336","1.99447717231222","1.05633284241532","-1.5659057437408","-0.966494845360825","-0.317746686303387","-1.04565537555228","359.375"
"1342","1.99447717231222","1.05633284241532","-1.5659057437408","-0.966494845360825","-0.317746686303387","-1.04565537555228","359.375"
"1342","1.99447717231222","1.05633284241532","2.4340942562592","-0.966494845360825","-0.317746686303387","-1.04565537555228","359.375"
"1349","1.99447717231222","1.05633284241532","2.4340942562592","-0.966494845360825","-1.31774668630339","-1.04565537555228","359.375"
"1349","2.99447717231222","2.05633284241532","-1.5659057437408","-0.966494845360825","-1.31774668630339","-1.04565537555228","359.375"
"1356","2.99447717231222","2.05633284241532","-1.5659057437408","-0.966494845360825","-1.31774668630339","-1.04565537555228","359.375"
"1356","0.994477172312224","1.05633284241532","1.4340942562592","-0.966494845360825","-1.31774668630339","-1.04565537555228","359.375"
"1363","0.994477172312224","1.05633284241532","1.4340942562592","0.0335051546391753","-1.31774668630339","-1.04565537555228","359.375"
"1363","0.994477172312224","1.05633284241532","-2.5659057437408","0.0335051546391753","-1.31774668630339","-1.04565537555228","359.375"
"1369","0.994477172312224","1.05633284241532","-2.5659057437408","2.03350515463918","-1.31774668630339","-1.04565537555228","359.375"
"1370","1.99447717231222","1.05633284241532","0.434094256259204","2.03350515463918","-1.31774668630339","-1.04565537555228","359.375"
"1376","1.99447717231222","1.05633284241532","0.434094256259204","0.0335051546391753","0.682253313696613","-1.04565537555228","359.375"
"1376","3.99447717231222","3.05633284241532","-0.565905743740796","0.0335051546391753","0.682253313696613","-1.04565537555228","359.375"
"1382","3.99447717231222","3.05633284241532","-0.565905743740796","-1.96649484536082","1.68225331369661","-1.04565537555228","359.375"
"1382","3.99447717231222","3.05633284241532","-0.565905743740796","-1.96649484536082","1.68225331369661","-1.04565537555228","359.375"
"1389","3.99447717231222","3.05633284241532","-0.565905743740796","-1.96649484536082","1.68225331369661","-1.04565537555228","359.375"
"1389","1.99447717231222","1.05633284241532","-2.5659057437408","-1.96649484536082","1.68225331369661","-1.04565537555228","359.375"
"1395","1.99447717231222","1.05633284241532","-2.5659057437408","1.03350515463918","0.682253313696613","-1.04565537555228","359.375"
"1396","1.99447717231222","1.05633284241532","-0.565905743740796","1.03350515463918","0.682253313696613","-1.04565537555228","359.375"
"1402","1.99447717231222","1.05633284241532","-0.565905743740796","4.03350515463918","-1.31774668630339","-1.04565537555228","359.375"
"1402","1.99447717231222","2.05633284241532","-2.5659057437408","4.03350515463918","-1.31774668630339","-1.04565537555228","359.375"
"1409","1.99447717231222","2.05633284241532","-2.5659057437408","0.0335051546391753","-1.31774668630339","-1.04565537555228","359.375"
"1409","2.99447717231222","1.05633284241532","-0.565905743740796","0.0335051546391753","-1.31774668630339","-1.04565537555228","359.375"
"1415","2.99447717231222","1.05633284241532","-0.565905743740796","1.03350515463918","-0.317746686303387","-1.04565537555228","359.375"
"1416","1.99447717231222","1.05633284241532","0.434094256259204","1.03350515463918","-0.317746686303387","-1.04565537555228","359.375"
"1422","1.99447717231222","1.05633284241532","0.434094256259204","1.03350515463918","-0.317746686303387","-1.04565537555228","359.375"
"1422","2.99447717231222","1.05633284241532","-0.565905743740796","1.03350515463918","-0.317746686303387","-1.04565537555228","359.375"
"1429","2.99447717231222","1.05633284241532","-0.565905743740796","-2.96649484536082","0.682253313696613","-1.04565537555228","359.375"
"1429","1.99447717231222","1.05633284241532","-2.5659057437408","-2.96649484536082","0.682253313696613","-1.04565537555228","359.375"
"1435","1.99447717231222","1.05633284241532","-2.5659057437408","-2.96649484536082","0.682253313696613","-1.04565537555228","359.375"
"1435","1.99447717231222","2.05633284241532","-1.5659057437408","-2.96649484536082","0.682253313696613","-1.04565537555228","359.375"
"1442","1.99447717231222","2.05633284241532","-1.5659057437408","0.0335051546391753","2.68225331369661","-1.04565537555228","359.375"
"1442","1.99447717231222","4.05633284241532","0.434094256259204","0.0335051546391753","2.68225331369661","-1.04565537555228","359.375"
"1449","1.99447717231222","4.05633284241532","0.434094256259204","-0.966494845360825","-0.317746686303387","-1.04565537555228","359.375"
"1449","1.99447717231222","4.05633284241532","0.434094256259204","-0.966494845360825","-0.317746686303387","-1.04565537555228","359.375"
"1455","1.99447717231222","4.05633284241532","0.434094256259204","-0.966494845360825","-0.317746686303387","-1.04565537555228","359.375"
"1456","2.99447717231222","1.05633284241532","-0.565905743740796","-0.966494845360825","-0.317746686303387","-1.04565537555228","359.375"
"1462","2.99447717231222","1.05633284241532","-0.565905743740796","-2.96649484536082","0.682253313696613","-1.04565537555228","359.375"
"1462","1.99447717231222","1.05633284241532","-1.5659057437408","-2.96649484536082","0.682253313696613","-1.04565537555228","359.375"
"1469","1.99447717231222","1.05633284241532","-1.5659057437408","-2.96649484536082","0.682253313696613","-1.04565537555228","359.375"
"1470","1.99447717231222","1.05633284241532","-1.5659057437408","-2.96649484536082","0.682253313696613","-1.04565537555228","359.375"
"1477","1.99447717231222","1.05633284241532","-1.5659057437408","1.03350515463918","-2.31774668630339","-1.04565537555228","359.375"
"1477","1.99447717231222","1.05633284241532","1.4340942562592","1.03350515463918","-2.31774668630339","-1.04565537555228","359.375"
"1486","1.99447717231222","1.05633284241532","1.4340942562592","0.0335051546391753","0.682253313696613","-1.04565537555228","359.375"
"1486","1.99447717231222","1.05633284241532","1.4340942562592","0.0335051546391753","0.682253313696613","-1.04565537555228","359.375"
"1495","1.99447717231222","1.05633284241532","1.4340942562592","0.0335051546391753","0.682253313696613","-1.04565537555228","359.375"
"1495","1.99447717231222","1.05633284241532","-1.5659057437408","0.0335051546391753","0.682253313696613","-1.04565537555228","359.375"
"1504","1.99447717231222","1.05633284241532","-1.5659057437408","-0.966494845360825","0.682253313696613","-1.04565537555228","359.375"
"1504","1.99447717231222","1.05633284241532","-1.5659057437408","-0.966494845360825","0.682253313696613","-1.04565537555228","359.375"
"1512","1.99447717231222","1.05633284241532","-1.5659057437408","0.0335051546391753","-1.31774668630339","-1.04565537555228","359.375"
"1512","1.99447717231222","1.05633284241532","-0.565905743740796","0.0335051546391753","-1.31774668630339","-1.04565537555228","359.375"
"1519","1.99447717231222","1.05633284241532","-0.565905743740796","0.0335051546391753","-1.31774668630339","-1.04565537555228","359.375"
"1519","0.994477172312224","-0.943667157584683","-0.565905743740796","0.0335051546391753","-1.31774668630339","-1.04565537555228","359.375"
"1527","0.994477172312224","-0.943667157584683","-0.565905743740796","0.0335051546391753","1.68225331369661","-1.04565537555228","359.375"
"1527","0.994477172312224","-0.943667157584683","-0.565905743740796","0.0335051546391753","1.68225331369661","-1.04565537555228","359.375"
"1535","0.994477172312224","-0.943667157584683","-0.565905743740796","-0.966494845360825","-1.31774668630339","-1.04565537555228","359.375"
"1535","1.99447717231222","4.05633284241532","0.434094256259204","-0.966494845360825","-1.31774668630339","-1.04565537555228","359.375"
"1540","1.99447717231222","4.05633284241532","0.434094256259204","2.03350515463918","-1.31774668630339","-1.04565537555228","359.375"
"1540","2.99447717231222","2.05633284241532","0.434094256259204","2.03350515463918","-1.31774668630339","-1.04565537555228","359.375"
"1546","2.99447717231222","2.05633284241532","0.434094256259204","2.03350515463918","-1.31774668630339","-1.04565537555228","359.375"
"1547","1.99447717231222","-0.943667157584683","-0.565905743740796","2.03350515463918","-1.31774668630339","-1.04565537555228","359.375"
"1552","1.99447717231222","-0.943667157584683","-0.565905743740796","1.03350515463918","-0.317746686303387","-1.04565537555228","359.375"
"1552","2.99447717231222","1.05633284241532","0.434094256259204","1.03350515463918","-0.317746686303387","-1.04565537555228","359.375"
"1558","2.99447717231222","1.05633284241532","0.434094256259204","-1.96649484536082","1.68225331369661","-1.04565537555228","359.375"
"1558","2.99447717231222","1.05633284241532","0.434094256259204","-1.96649484536082","1.68225331369661","-1.04565537555228","359.375"
"1564","2.99447717231222","1.05633284241532","0.434094256259204","2.03350515463918","-0.317746686303387","-1.04565537555228","359.375"
"1564","1.99447717231222","2.05633284241532","3.4340942562592","2.03350515463918","-0.317746686303387","-1.04565537555228","359.375"
"1569","1.99447717231222","2.05633284241532","3.4340942562592","1.03350515463918","-2.31774668630339","-1.04565537555228","359.375"
"1569","2.99447717231222","-0.943667157584683","0.434094256259204","1.03350515463918","-2.31774668630339","-1.04565537555228","359.375"
"1576","2.99447717231222","-0.943667157584683","0.434094256259204","1.03350515463918","0.682253313696613","-1.04565537555228","359.375"
"1576","1.99447717231222","2.05633284241532","0.434094256259204","1.03350515463918","0.682253313696613","-1.04565537555228","359.375"
"1582","1.99447717231222","2.05633284241532","0.434094256259204","0.0335051546391753","0.682253313696613","-1.04565537555228","359.375"
"1582","1.99447717231222","1.05633284241532","-0.565905743740796","0.0335051546391753","0.682253313696613","-1.04565537555228","359.375"
"1587","1.99447717231222","1.05633284241532","-0.565905743740796","2.03350515463918","-0.317746686303387","-1.04565537555228","359.375"
"1587","1.99447717231222","1.05633284241532","-0.565905743740796","2.03350515463918","-0.317746686303387","-1.04565537555228","359.375"
"1593","1.99447717231222","1.05633284241532","-0.565905743740796","0.0335051546391753","-1.31774668630339","-1.04565537555228","359.375"
"1593","2.99447717231222","1.05633284241532","0.434094256259204","0.0335051546391753","-1.31774668630339","-1.04565537555228","359.375"
"1599","2.99447717231222","1.05633284241532","0.434094256259204","0.0335051546391753","-1.31774668630339","-1.04565537555228","359.375"
"1599","2.99447717231222","1.05633284241532","-1.5659057437408","0.0335051546391753","-1.31774668630339","-1.04565537555228","359.375"
"1605","2.99447717231222","1.05633284241532","-1.5659057437408","-0.966494845360825","-0.317746686303387","-1.04565537555228","359.375"
"1605","0.994477172312224","1.05633284241532","0.434094256259204","-0.966494845360825","-0.317746686303387","-1.04565537555228","359.375"
"1611","0.994477172312224","1.05633284241532","0.434094256259204","1.03350515463918","-0.317746686303387","-1.04565537555228","359.375"
"1611","1.99447717231222","2.05633284241532","-1.5659057437408","1.03350515463918","-0.317746686303387","-1.04565537555228","359.375"
"1617","1.99447717231222","2.05633284241532","-1.5659057437408","-0.966494845360825","-1.31774668630339","-1.04565537555228","359.375"
"1617","1.99447717231222","2.05633284241532","-1.5659057437408","-0.966494845360825","-1.31774668630339","-1.04565537555228","359.375"
"1624","1.99447717231222","2.05633284241532","-1.5659057437408","-0.966494845360825","0.682253313696613","-1.04565537555228","359.375"
"1624","1.99447717231222","0.0563328424153167","1.4340942562592","-0.966494845360825","0.682253313696613","-1.04565537555228","359.375"
"1631","1.99447717231222","0.0563328424153167","1.4340942562592","0.0335051546391753","1.68225331369661","-1.04565537555228","359.375"
"1632","1.99447717231222","2.05633284241532","-1.5659057437408","0.0335051546391753","1.68225331369661","-1.04565537555228","359.375"
"1638","1.99447717231222","2.05633284241532","-1.5659057437408","0.0335051546391753","1.68225331369661","-1.04565537555228","359.375"
"1639","1.99447717231222","0.0563328424153167","-0.565905743740796","0.0335051546391753","1.68225331369661","-1.04565537555228","359.375"
"1644","1.99447717231222","0.0563328424153167","-0.565905743740796","1.03350515463918","-1.31774668630339","-1.04565537555228","359.375"
"1644","1.99447717231222","0.0563328424153167","0.434094256259204","1.03350515463918","-1.31774668630339","-1.04565537555228","359.375"
"1650","1.99447717231222","0.0563328424153167","0.434094256259204","0.0335051546391753","0.682253313696613","-1.04565537555228","359.375"
"1650","1.99447717231222","0.0563328424153167","0.434094256259204","0.0335051546391753","0.682253313696613","-1.04565537555228","359.375"
"1656","1.99447717231222","0.0563328424153167","0.434094256259204","0.0335051546391753","-2.31774668630339","-1.04565537555228","359.375"
"1656","0.994477172312224","1.05633284241532","0.434094256259204","0.0335051546391753","-2.31774668630339","-1.04565537555228","359.375"
"1661","0.994477172312224","1.05633284241532","0.434094256259204","-1.96649484536082","-1.31774668630339","-1.04565537555228","359.375"
"1661","2.99447717231222","1.05633284241532","-3.5659057437408","-1.96649484536082","-1.31774668630339","-1.04565537555228","359.375"
"1667","2.99447717231222","1.05633284241532","-3.5659057437408","-0.966494845360825","-0.317746686303387","-1.04565537555228","359.375"
"1667","2.99447717231222","1.05633284241532","-0.565905743740796","-0.966494845360825","-0.317746686303387","-1.04565537555228","359.375"
"1673","2.99447717231222","1.05633284241532","-0.565905743740796","-0.966494845360825","0.682253313696613","-1.04565537555228","359.375"
"1673","1.99447717231222","1.05633284241532","-0.565905743740796","-0.966494845360825","0.682253313696613","-1.04565537555228","359.375"
"1679","1.99447717231222","1.05633284241532","-0.565905743740796","-0.966494845360825","-1.31774668630339","-1.04565537555228","359.375"
"1679","1.99447717231222","1.05633284241532","-0.565905743740796","-0.966494845360825","-1.31774668630339","-1.04565537555228","359.375"
"1686","1.99447717231222","1.05633284241532","-0.565905743740796","-1.96649484536082","-1.31774668630339","-1.04565537555228","359.375"
"1687","1.99447717231222","1.05633284241532","3.4340942562592","-1.96649484536082","-1.31774668630339","-1.04565537555228","359.375"
"1692","1.99447717231222","1.05633284241532","3.4340942562592","-1.96649484536082","2.68225331369661","-1.04565537555228","359.375"
"1692","1.99447717231222","1.05633284241532","-2.5659057437408","-1.96649484536082","2.68225331369661","-1.04565537555228","359.375"
"1698","1.99447717231222","1.05633284241532","-2.5659057437408","-1.96649484536082","2.68225331369661","-1.04565537555228","359.375"
"1698","3.99447717231222","1.05633284241532","0.434094256259204","-1.96649484536082","2.68225331369661","-1.04565537555228","359.375"
"1706","3.99447717231222","1.05633284241532","0.434094256259204","1.03350515463918","-0.317746686303387","-1.04565537555228","359.375"
"1706","1.99447717231222","2.05633284241532","-1.5659057437408","1.03350515463918","-0.317746686303387","-1.04565537555228","359.375"
"1711","1.99447717231222","2.05633284241532","-1.5659057437408","0.0335051546391753","-2.31774668630339","-1.04565537555228","359.375"
"1712","1.99447717231222","2.05633284241532","-1.5659057437408","0.0335051546391753","-2.31774668630339","-1.04565537555228","359.375"
"1719","1.99447717231222","2.05633284241532","-1.5659057437408","0.0335051546391753","1.68225331369661","-1.04565537555228","359.375"
"1719","1.99447717231222","1.05633284241532","2.4340942562592","0.0335051546391753","1.68225331369661","-1.04565537555228","359.375"
"1725","1.99447717231222","1.05633284241532","2.4340942562592","-1.96649484536082","1.68225331369661","-1.04565537555228","359.375"
"1725","1.99447717231222","1.05633284241532","2.4340942562592","-1.96649484536082","1.68225331369661","-1.04565537555228","359.375"
"1725","1.99447717231222","1.05633284241532","-1.5659057437408","-1.96649484536082","1.68225331369661","-1.04565537555228","359.375"
"1732","1.99447717231222","1.05633284241532","-1.5659057437408","-0.966494845360825","-5.31774668630339","-1.04565537555228","359.375"
"1732","1.99447717231222","1.05633284241532","-1.5659057437408","-0.966494845360825","-5.31774668630339","-1.04565537555228","359.375"
"1737","1.99447717231222","1.05633284241532","-1.5659057437408","-0.966494845360825","-2.31774668630339","-1.04565537555228","359.375"
"1738","1.99447717231222","2.05633284241532","-0.565905743740796","-0.966494845360825","-2.31774668630339","-1.04565537555228","359.375"
"1743","1.99447717231222","2.05633284241532","-0.565905743740796","-0.966494845360825","-0.317746686303387","-1.04565537555228","359.375"
"1743","2.99447717231222","-1.94366715758468","0.434094256259204","-0.966494845360825","-0.317746686303387","-1.04565537555228","359.375"
"1749","2.99447717231222","-1.94366715758468","0.434094256259204","2.03350515463918","-0.317746686303387","-1.04565537555228","359.375"
"1749","1.99447717231222","1.05633284241532","-1.5659057437408","2.03350515463918","-0.317746686303387","-1.04565537555228","359.375"
"1755","1.99447717231222","1.05633284241532","-1.5659057437408","0.0335051546391753","-4.31774668630339","-1.04565537555228","359.375"
"1755","0.994477172312224","1.05633284241532","-0.565905743740796","0.0335051546391753","-4.31774668630339","-1.04565537555228","359.375"
"1760","0.994477172312224","1.05633284241532","-0.565905743740796","2.03350515463918","-1.31774668630339","-1.04565537555228","359.375"
"1761","0.994477172312224","1.05633284241532","-0.565905743740796","2.03350515463918","-1.31774668630339","-1.04565537555228","359.375"
"1767","0.994477172312224","1.05633284241532","-0.565905743740796","3.03350515463918","-3.31774668630339","-1.04565537555228","359.375"
"1767","1.99447717231222","0.0563328424153167","-0.565905743740796","3.03350515463918","-3.31774668630339","-1.04565537555228","359.375"
"1772","1.99447717231222","0.0563328424153167","-0.565905743740796","2.03350515463918","-1.31774668630339","-1.04565537555228","359.375"
"1773","1.99447717231222","-0.943667157584683","-3.5659057437408","2.03350515463918","-1.31774668630339","-1.04565537555228","359.375"
"1778","1.99447717231222","-0.943667157584683","-3.5659057437408","-0.966494845360825","-5.31774668630339","-1.04565537555228","359.375"
"1778","1.99447717231222","1.05633284241532","-3.5659057437408","-0.966494845360825","-5.31774668630339","-1.04565537555228","359.375"
"1784","1.99447717231222","1.05633284241532","-3.5659057437408","1.03350515463918","-0.317746686303387","-1.04565537555228","359.375"
"1785","1.99447717231222","1.05633284241532","0.434094256259204","1.03350515463918","-0.317746686303387","-1.04565537555228","359.375"
"1791","1.99447717231222","1.05633284241532","0.434094256259204","0.0335051546391753","-2.31774668630339","-1.04565537555228","359.375"
"1791","1.99447717231222","1.05633284241532","0.434094256259204","0.0335051546391753","-2.31774668630339","-1.04565537555228","359.375"
"1797","1.99447717231222","1.05633284241532","0.434094256259204","1.03350515463918","-1.31774668630339","-1.04565537555228","359.375"
"1797","1.99447717231222","1.05633284241532","0.434094256259204","1.03350515463918","-1.31774668630339","-1.04565537555228","359.375"
"1802","1.99447717231222","1.05633284241532","0.434094256259204","-0.966494845360825","-3.31774668630339","-1.04565537555228","359.375"
"1803","-0.00552282768777612","-1.94366715758468","-3.5659057437408","-0.966494845360825","-3.31774668630339","-1.04565537555228","359.375"
"1808","-0.00552282768777612","-1.94366715758468","-3.5659057437408","-0.966494845360825","-2.31774668630339","-1.04565537555228","359.375"
"1808","-1.00552282768778","3.05633284241532","-2.5659057437408","-0.966494845360825","-2.31774668630339","-1.04565537555228","359.375"
"1814","-1.00552282768778","3.05633284241532","-2.5659057437408","-1.96649484536082","-0.317746686303387","-1.04565537555228","359.375"
"1814","1.99447717231222","1.05633284241532","2.4340942562592","-1.96649484536082","-0.317746686303387","-1.04565537555228","359.375"
"1820","1.99447717231222","1.05633284241532","2.4340942562592","0.0335051546391753","-1.31774668630339","-1.04565537555228","359.375"
"1820","1.99447717231222","1.05633284241532","2.4340942562592","0.0335051546391753","-1.31774668630339","-1.04565537555228","359.375"
"1825","1.99447717231222","1.05633284241532","2.4340942562592","1.03350515463918","0.682253313696613","-1.04565537555228","359.375"
"1825","0.994477172312224","2.05633284241532","0.434094256259204","1.03350515463918","0.682253313696613","-1.04565537555228","359.375"
"1831","0.994477172312224","2.05633284241532","0.434094256259204","-3.96649484536082","-0.317746686303387","-1.04565537555228","359.375"
"1831","-1.00552282768778","1.05633284241532","-1.5659057437408","-3.96649484536082","-0.317746686303387","-1.04565537555228","359.375"
"1837","-1.00552282768778","1.05633284241532","-1.5659057437408","-1.96649484536082","-3.31774668630339","-1.04565537555228","359.375"
"1837","0.994477172312224","1.05633284241532","0.434094256259204","-1.96649484536082","-3.31774668630339","-1.04565537555228","359.375"
"1843","0.994477172312224","1.05633284241532","0.434094256259204","-4.96649484536082","0.682253313696613","-1.04565537555228","359.375"
"1843","1.99447717231222","1.05633284241532","-1.5659057437408","-4.96649484536082","0.682253313696613","-1.04565537555228","359.375"
"1849","1.99447717231222","1.05633284241532","-1.5659057437408","-0.966494845360825","-2.31774668630339","-1.04565537555228","359.375"
"1849","1.99447717231222","1.05633284241532","-1.5659057437408","-0.966494845360825","-2.31774668630339","-1.04565537555228","359.375"
"1855","1.99447717231222","1.05633284241532","-1.5659057437408","1.03350515463918","-2.31774668630339","-1.04565537555228","359.375"
"1855","2.99447717231222","2.05633284241532","-0.565905743740796","1.03350515463918","-2.31774668630339","-1.04565537555228","359.375"
"1860","2.99447717231222","2.05633284241532","-0.565905743740796","-1.96649484536082","-1.31774668630339","-1.04565537555228","359.375"
"1861","0.994477172312224","0.0563328424153167","-0.565905743740796","-1.96649484536082","-1.31774668630339","-1.04565537555228","359.375"
"1866","0.994477172312224","0.0563328424153167","-0.565905743740796","0.0335051546391753","-1.31774668630339","-1.04565537555228","359.375"
"1867","1.99447717231222","-0.943667157584683","0.434094256259204","0.0335051546391753","-1.31774668630339","-1.04565537555228","359.375"
"1873","1.99447717231222","-0.943667157584683","0.434094256259204","-0.966494845360825","-1.31774668630339","-1.04565537555228","359.375"
"1873","-0.00552282768777612","1.05633284241532","-2.5659057437408","-0.966494845360825","-1.31774668630339","-1.04565537555228","359.375"
"1878","-0.00552282768777612","1.05633284241532","-2.5659057437408","1.03350515463918","-0.317746686303387","-1.04565537555228","359.375"
"1879","-0.00552282768777612","1.05633284241532","-2.5659057437408","1.03350515463918","-0.317746686303387","-1.04565537555228","359.375"
"1885","-0.00552282768777612","1.05633284241532","-2.5659057437408","1.03350515463918","-0.317746686303387","-1.04565537555228","359.375"
"1885","1.99447717231222","2.05633284241532","0.434094256259204","1.03350515463918","-0.317746686303387","-1.04565537555228","359.375"
"1891","1.99447717231222","2.05633284241532","0.434094256259204","-0.966494845360825","1.68225331369661","-1.04565537555228","359.375"
"1891","1.99447717231222","1.05633284241532","-3.5659057437408","-0.966494845360825","1.68225331369661","-1.04565537555228","359.375"
"1898","1.99447717231222","1.05633284241532","-3.5659057437408","-1.96649484536082","-0.317746686303387","-1.04565537555228","359.375"
"1898","-0.00552282768777612","-0.943667157584683","-1.5659057437408","-1.96649484536082","-0.317746686303387","-1.04565537555228","359.375"
"1906","-0.00552282768777612","-0.943667157584683","-1.5659057437408","1.03350515463918","-0.317746686303387","-1.04565537555228","359.375"
"1906","1.99447717231222","1.05633284241532","1.4340942562592","1.03350515463918","-0.317746686303387","-1.04565537555228","359.375"
"1914","1.99447717231222","1.05633284241532","1.4340942562592","0.0335051546391753","-0.317746686303387","-1.04565537555228","359.375"
"1914","1.99447717231222","1.05633284241532","1.4340942562592","0.0335051546391753","-0.317746686303387","-1.04565537555228","359.375"
"1921","1.99447717231222","1.05633284241532","1.4340942562592","1.03350515463918","-3.31774668630339","-1.04565537555228","359.375"
"1921","1.99447717231222","0.0563328424153167","1.4340942562592","1.03350515463918","-3.31774668630339","-1.04565537555228","359.375"
"1928","1.99447717231222","0.0563328424153167","1.4340942562592","-1.96649484536082","-2.31774668630339","-1.04565537555228","359.375"
"1928","1.99447717231222","1.05633284241532","-0.565905743740796","-1.96649484536082","-2.31774668630339","-1.04565537555228","359.375"
"1934","1.99447717231222","1.05633284241532","-0.565905743740796","-3.96649484536082","-0.317746686303387","-1.04565537555228","359.375"
"1935","1.99447717231222","1.05633284241532","1.4340942562592","-3.96649484536082","-0.317746686303387","-1.04565537555228","359.375"
"1940","1.99447717231222","1.05633284241532","1.4340942562592","-0.966494845360825","-0.317746686303387","-1.04565537555228","359.375"
"1940","0.994477172312224","1.05633284241532","-0.565905743740796","-0.966494845360825","-0.317746686303387","-1.04565537555228","359.375"
"1946","0.994477172312224","1.05633284241532","-0.565905743740796","-0.966494845360825","-0.317746686303387","-1.04565537555228","359.375"
"1946","0.994477172312224","1.05633284241532","-0.565905743740796","-0.966494845360825","-0.317746686303387","-1.04565537555228","359.375"
"1952","0.994477172312224","1.05633284241532","-0.565905743740796","0.0335051546391753","-0.317746686303387","-1.04565537555228","359.375"
"1952","4.99447717231222","-0.943667157584683","-0.565905743740796","0.0335051546391753","-0.317746686303387","-1.04565537555228","359.375"
"1958","4.99447717231222","-0.943667157584683","-0.565905743740796","-0.966494845360825","0.682253313696613","-1.04565537555228","359.375"
"1958","1.99447717231222","-0.943667157584683","-2.5659057437408","-0.966494845360825","0.682253313696613","-1.04565537555228","359.375"
"1963","1.99447717231222","-0.943667157584683","-2.5659057437408","-0.966494845360825","0.682253313696613","-1.04565537555228","359.375"
"1963","-1.00552282768778","1.05633284241532","1.4340942562592","-0.966494845360825","0.682253313696613","-1.04565537555228","359.375"
"1970","-1.00552282768778","1.05633284241532","1.4340942562592","2.03350515463918","-1.31774668630339","-1.04565537555228","359.375"
"1970","1.99447717231222","1.05633284241532","0.434094256259204","2.03350515463918","-1.31774668630339","-1.04565537555228","359.375"
"1975","1.99447717231222","1.05633284241532","0.434094256259204","4.03350515463918","-0.317746686303387","-1.04565537555228","359.375"
"1975","1.99447717231222","1.05633284241532","0.434094256259204","4.03350515463918","-0.317746686303387","-1.04565537555228","359.375"
"1981","1.99447717231222","1.05633284241532","0.434094256259204","3.03350515463918","-1.31774668630339","-1.04565537555228","359.375"
"1981","0.994477172312224","0.0563328424153167","-1.5659057437408","3.03350515463918","-1.31774668630339","-1.04565537555228","359.375"
"1987","0.994477172312224","0.0563328424153167","-1.5659057437408","1.03350515463918","1.68225331369661","-1.04565537555228","359.375"
"1987","0.994477172312224","2.05633284241532","-1.5659057437408","1.03350515463918","1.68225331369661","-1.04565537555228","359.375"
"1993","0.994477172312224","2.05633284241532","-1.5659057437408","1.03350515463918","-3.31774668630339","-1.04565537555228","359.375"
"1993","2.99447717231222","2.05633284241532","-0.565905743740796","1.03350515463918","-3.31774668630339","-1.04565537555228","359.375"
"2000","2.99447717231222","2.05633284241532","-0.565905743740796","4.03350515463918","-2.31774668630339","-1.04565537555228","359.375"
"2000","2.99447717231222","-1.94366715758468","-2.5659057437408","4.03350515463918","-2.31774668630339","-1.04565537555228","359.375"
"2006","2.99447717231222","-1.94366715758468","-2.5659057437408","2.03350515463918","1.68225331369661","-1.04565537555228","359.375"
"2006","2.99447717231222","-1.94366715758468","-2.5659057437408","2.03350515463918","1.68225331369661","-1.04565537555228","359.375"
"2012","2.99447717231222","-1.94366715758468","-2.5659057437408","3.03350515463918","1.68225331369661","-1.04565537555228","359.375"
"2012","1.99447717231222","3.05633284241532","0.434094256259204","3.03350515463918","1.68225331369661","-1.04565537555228","359.375"
"2019","1.99447717231222","3.05633284241532","0.434094256259204","0.0335051546391753","-0.317746686303387","-1.04565537555228","359.375"
"2020","1.99447717231222","2.05633284241532","-2.5659057437408","0.0335051546391753","-0.317746686303387","-1.04565537555228","359.375"
"2026","1.99447717231222","2.05633284241532","-2.5659057437408","4.03350515463918","2.68225331369661","-1.04565537555228","359.375"
"2026","0.994477172312224","0.0563328424153167","-1.5659057437408","4.03350515463918","2.68225331369661","-1.04565537555228","359.375"
"2032","0.994477172312224","0.0563328424153167","-1.5659057437408","2.03350515463918","-2.31774668630339","-1.04565537555228","359.375"
"2033","2.99447717231222","-0.943667157584683","-0.565905743740796","2.03350515463918","-2.31774668630339","-1.04565537555228","359.375"
"2038","2.99447717231222","-0.943667157584683","-0.565905743740796","1.03350515463918","0.682253313696613","-1.04565537555228","359.375"
"2039","2.99447717231222","-0.943667157584683","-0.565905743740796","1.03350515463918","0.682253313696613","-1.04565537555228","359.375"
"2045","2.99447717231222","-0.943667157584683","-0.565905743740796","-1.96649484536082","-1.31774668630339","-1.04565537555228","359.375"
"2045","2.99447717231222","1.05633284241532","-0.565905743740796","-1.96649484536082","-1.31774668630339","-1.04565537555228","359.375"
"2051","2.99447717231222","1.05633284241532","-0.565905743740796","-0.966494845360825","-0.317746686303387","-1.04565537555228","359.375"
"2051","1.99447717231222","1.05633284241532","-2.5659057437408","-0.966494845360825","-0.317746686303387","-1.04565537555228","359.375"
"2057","1.99447717231222","1.05633284241532","-2.5659057437408","1.03350515463918","-0.317746686303387","-1.04565537555228","359.375"
"2057","1.99447717231222","1.05633284241532","0.434094256259204","1.03350515463918","-0.317746686303387","-1.04565537555228","359.375"
"2063","1.99447717231222","1.05633284241532","0.434094256259204","0.0335051546391753","0.682253313696613","-1.04565537555228","359.375"
"2063","1.99447717231222","0.0563328424153167","2.4340942562592","0.0335051546391753","0.682253313696613","-1.04565537555228","359.375"
"2069","1.99447717231222","0.0563328424153167","2.4340942562592","0.0335051546391753","2.68225331369661","-1.04565537555228","359.375"
"2069","1.99447717231222","0.0563328424153167","2.4340942562592","0.0335051546391753","2.68225331369661","-1.04565537555228","359.375"
"2075","1.99447717231222","0.0563328424153167","2.4340942562592","-4.96649484536082","-0.317746686303387","-1.04565537555228","359.375"
"2075","1.99447717231222","1.05633284241532","-2.5659057437408","-4.96649484536082","-0.317746686303387","-1.04565537555228","359.375"
"2081","1.99447717231222","1.05633284241532","-2.5659057437408","3.03350515463918","-2.31774668630339","-1.04565537555228","359.375"
"2081","1.99447717231222","-1.94366715758468","-0.565905743740796","3.03350515463918","-2.31774668630339","-1.04565537555228","359.375"
"2088","1.99447717231222","-1.94366715758468","-0.565905743740796","0.0335051546391753","0.682253313696613","-1.04565537555228","359.375"
"2088","0.994477172312224","-0.943667157584683","-0.565905743740796","0.0335051546391753","0.682253313696613","-1.04565537555228","359.375"
"2095","0.994477172312224","-0.943667157584683","-0.565905743740796","-0.966494845360825","-0.317746686303387","-1.04565537555228","359.375"
"2095","2.99447717231222","1.05633284241532","0.434094256259204","-0.966494845360825","-0.317746686303387","-1.04565537555228","359.375"
"2103","2.99447717231222","1.05633284241532","0.434094256259204","1.03350515463918","-0.317746686303387","-1.04565537555228","359.375"
"2103","2.99447717231222","1.05633284241532","0.434094256259204","1.03350515463918","-0.317746686303387","-1.04565537555228","359.375"
"2111","2.99447717231222","1.05633284241532","0.434094256259204","1.03350515463918","1.68225331369661","-1.04565537555228","359.375"
"2111","0.994477172312224","1.05633284241532","-2.5659057437408","1.03350515463918","1.68225331369661","-1.04565537555228","359.375"
"2118","0.994477172312224","1.05633284241532","-2.5659057437408","1.03350515463918","-1.31774668630339","-1.04565537555228","359.375"
"2118","0.994477172312224","2.05633284241532","-4.5659057437408","1.03350515463918","-1.31774668630339","-1.04565537555228","359.375"
"2130","0.994477172312224","2.05633284241532","-4.5659057437408","2.03350515463918","-2.31774668630339","-1.04565537555228","359.375"
"2130","1.99447717231222","1.05633284241532","1.4340942562592","2.03350515463918","-2.31774668630339","-1.04565537555228","359.375"
"2136","1.99447717231222","1.05633284241532","1.4340942562592","1.03350515463918","0.682253313696613","-1.04565537555228","359.375"
"2137","0.994477172312224","1.05633284241532","1.4340942562592","1.03350515463918","0.682253313696613","-1.04565537555228","359.375"
"2144","0.994477172312224","1.05633284241532","1.4340942562592","-0.966494845360825","-2.31774668630339","-1.04565537555228","359.375"
"2144","0.994477172312224","1.05633284241532","1.4340942562592","-0.966494845360825","-2.31774668630339","-1.04565537555228","359.375"
"2152","0.994477172312224","1.05633284241532","1.4340942562592","1.03350515463918","0.682253313696613","-1.04565537555228","359.375"
"2152","0.994477172312224","0.0563328424153167","-0.565905743740796","1.03350515463918","0.682253313696613","-1.04565537555228","359.375"
"2159","0.994477172312224","0.0563328424153167","-0.565905743740796","3.03350515463918","-1.31774668630339","-1.04565537555228","359.375"
"2159","1.99447717231222","1.05633284241532","-2.5659057437408","3.03350515463918","-1.31774668630339","-1.04565537555228","359.375"
"2165","1.99447717231222","1.05633284241532","-2.5659057437408","-0.966494845360825","-0.317746686303387","-1.04565537555228","359.375"
"2166","0.994477172312224","1.05633284241532","0.434094256259204","-0.966494845360825","-0.317746686303387","-1.04565537555228","359.375"
"2173","0.994477172312224","1.05633284241532","0.434094256259204","1.03350515463918","-0.317746686303387","-1.04565537555228","359.375"
"2173","-0.00552282768777612","1.05633284241532","0.434094256259204","1.03350515463918","-0.317746686303387","-1.04565537555228","359.375"
"2179","-0.00552282768777612","1.05633284241532","0.434094256259204","3.03350515463918","0.682253313696613","-1.04565537555228","359.375"
"2180","-0.00552282768777612","1.05633284241532","0.434094256259204","3.03350515463918","0.682253313696613","-1.04565537555228","359.375"
"2185","-0.00552282768777612","1.05633284241532","0.434094256259204","1.03350515463918","-0.317746686303387","-1.04565537555228","359.375"
"2186","1.99447717231222","1.05633284241532","1.4340942562592","1.03350515463918","-0.317746686303387","-1.04565537555228","359.375"
"2191","1.99447717231222","1.05633284241532","1.4340942562592","-2.96649484536082","-0.317746686303387","-1.04565537555228","359.375"
"2191","1.99447717231222","1.05633284241532","1.4340942562592","-2.96649484536082","-0.317746686303387","-1.04565537555228","359.375"
"2197","1.99447717231222","1.05633284241532","1.4340942562592","1.03350515463918","-1.31774668630339","-1.04565537555228","359.375"
"2197","1.99447717231222","1.05633284241532","-1.5659057437408","1.03350515463918","-1.31774668630339","-1.04565537555228","359.375"
"2203","1.99447717231222","1.05633284241532","-1.5659057437408","1.03350515463918","-0.317746686303387","-1.04565537555228","359.375"
"2203","0.994477172312224","1.05633284241532","1.4340942562592","1.03350515463918","-0.317746686303387","-1.04565537555228","359.375"
"2208","0.994477172312224","1.05633284241532","1.4340942562592","1.03350515463918","-0.317746686303387","-1.04565537555228","359.375"
"2209","0.994477172312224","1.05633284241532","1.4340942562592","1.03350515463918","-0.317746686303387","-1.04565537555228","359.375"
"2214","0.994477172312224","1.05633284241532","1.4340942562592","0.0335051546391753","-0.317746686303387","-1.04565537555228","359.375"
"2214","1.99447717231222","1.05633284241532","-0.565905743740796","0.0335051546391753","-0.317746686303387","-1.04565537555228","359.375"
"2221","1.99447717231222","1.05633284241532","-0.565905743740796","-0.966494845360825","-2.31774668630339","-1.04565537555228","359.375"
"2221","1.99447717231222","1.05633284241532","-0.565905743740796","-0.966494845360825","-2.31774668630339","-1.04565537555228","359.375"
"2227","1.99447717231222","1.05633284241532","-0.565905743740796","1.03350515463918","0.682253313696613","-1.04565537555228","359.375"
"2227","1.99447717231222","1.05633284241532","-1.5659057437408","1.03350515463918","0.682253313696613","-1.04565537555228","359.375"
"2233","1.99447717231222","1.05633284241532","-1.5659057437408","0.0335051546391753","-0.317746686303387","-1.04565537555228","359.375"
"2234","0.994477172312224","1.05633284241532","-0.565905743740796","0.0335051546391753","-0.317746686303387","-1.04565537555228","359.375"
"2239","0.994477172312224","1.05633284241532","-0.565905743740796","1.03350515463918","-2.31774668630339","-1.04565537555228","359.375"
"2239","0.994477172312224","1.05633284241532","-0.565905743740796","1.03350515463918","-2.31774668630339","-1.04565537555228","359.375"
"2244","0.994477172312224","1.05633284241532","-0.565905743740796","0.0335051546391753","0.682253313696613","-1.04565537555228","359.375"
"2244","1.99447717231222","1.05633284241532","0.434094256259204","0.0335051546391753","0.682253313696613","-1.04565537555228","359.375"
"2250","1.99447717231222","1.05633284241532","0.434094256259204","-0.966494845360825","-0.317746686303387","-1.04565537555228","359.375"
"2250","1.99447717231222","1.05633284241532","-2.5659057437408","-0.966494845360825","-0.317746686303387","-1.04565537555228","359.375"
"2256","1.99447717231222","1.05633284241532","-2.5659057437408","0.0335051546391753","-0.317746686303387","-1.04565537555228","359.375"
"2256","1.99447717231222","1.05633284241532","0.434094256259204","0.0335051546391753","-0.317746686303387","-1.04565537555228","359.375"
"2261","1.99447717231222","1.05633284241532","0.434094256259204","1.03350515463918","0.682253313696613","-1.04565537555228","359.375"
"2261","1.99447717231222","1.05633284241532","0.434094256259204","1.03350515463918","0.682253313696613","-1.04565537555228","359.375"
"2267","1.99447717231222","1.05633284241532","0.434094256259204","3.03350515463918","-1.31774668630339","-1.04565537555228","359.375"
"2267","1.99447717231222","1.05633284241532","0.434094256259204","3.03350515463918","-1.31774668630339","-1.04565537555228","359.375"
"2273","1.99447717231222","1.05633284241532","0.434094256259204","-0.966494845360825","-1.31774668630339","-1.04565537555228","359.375"
"2273","1.99447717231222","1.05633284241532","-0.565905743740796","-0.966494845360825","-1.31774668630339","-1.04565537555228","359.375"
"2278","1.99447717231222","1.05633284241532","-0.565905743740796","0.0335051546391753","-0.317746686303387","-1.04565537555228","359.375"
"2278","-0.00552282768777612","1.05633284241532","-0.565905743740796","0.0335051546391753","-0.317746686303387","-1.04565537555228","359.375"
"2284","-0.00552282768777612","1.05633284241532","-0.565905743740796","0.0335051546391753","-0.317746686303387","-1.04565537555228","359.375"
"2284","0.994477172312224","1.05633284241532","-2.5659057437408","0.0335051546391753","-0.317746686303387","-1.04565537555228","359.375"
"2290","0.994477172312224","1.05633284241532","-2.5659057437408","2.03350515463918","-0.317746686303387","-1.04565537555228","359.375"
"2290","1.99447717231222","0.0563328424153167","1.4340942562592","2.03350515463918","-0.317746686303387","-1.04565537555228","359.375"
"2295","1.99447717231222","0.0563328424153167","1.4340942562592","3.03350515463918","-2.31774668630339","-1.04565537555228","359.375"
"2295","1.99447717231222","0.0563328424153167","1.4340942562592","3.03350515463918","-2.31774668630339","-1.04565537555228","359.375"
"2301","1.99447717231222","0.0563328424153167","1.4340942562592","-0.966494845360825","-0.317746686303387","-1.04565537555228","359.375"
"2301","0.994477172312224","1.05633284241532","-1.5659057437408","-0.966494845360825","-0.317746686303387","-1.04565537555228","359.375"
"2307","0.994477172312224","1.05633284241532","-1.5659057437408","1.03350515463918","2.68225331369661","-1.04565537555228","359.375"
"2308","0.994477172312224","1.05633284241532","1.4340942562592","1.03350515463918","2.68225331369661","-1.04565537555228","359.375"
"2314","0.994477172312224","1.05633284241532","1.4340942562592","-3.96649484536082","-1.31774668630339","-1.04565537555228","359.375"
"2314","0.994477172312224","0.0563328424153167","-1.5659057437408","-3.96649484536082","-1.31774668630339","-1.04565537555228","359.375"
"2321","0.994477172312224","0.0563328424153167","-1.5659057437408","2.03350515463918","1.68225331369661","-1.04565537555228","359.375"
"2321","1.99447717231222","1.05633284241532","-1.5659057437408","2.03350515463918","1.68225331369661","-1.04565537555228","359.375"
"2327","1.99447717231222","1.05633284241532","-1.5659057437408","0.0335051546391753","-2.31774668630339","-1.04565537555228","359.375"
"2328","2.99447717231222","1.05633284241532","0.434094256259204","0.0335051546391753","-2.31774668630339","-1.04565537555228","359.375"
"2336","2.99447717231222","1.05633284241532","0.434094256259204","-2.96649484536082","0.682253313696613","-1.04565537555228","359.375"
"2336","1.99447717231222","1.05633284241532","-0.565905743740796","-2.96649484536082","0.682253313696613","-1.04565537555228","359.375"
"2342","1.99447717231222","1.05633284241532","-0.565905743740796","-0.966494845360825","-1.31774668630339","-1.04565537555228","359.375"
"2342","1.99447717231222","1.05633284241532","-1.5659057437408","-0.966494845360825","-1.31774668630339","-1.04565537555228","359.375"
"2351","1.99447717231222","1.05633284241532","-1.5659057437408","1.03350515463918","0.682253313696613","-1.04565537555228","359.375"
"2352","2.99447717231222","1.05633284241532","-1.5659057437408","1.03350515463918","0.682253313696613","-1.04565537555228","359.375"
"2360","2.99447717231222","1.05633284241532","-1.5659057437408","1.03350515463918","-0.317746686303387","-1.04565537555228","359.375"
"2360","2.99447717231222","-0.943667157584683","-1.5659057437408","1.03350515463918","-0.317746686303387","-1.04565537555228","359.375"
"2368","2.99447717231222","-0.943667157584683","-1.5659057437408","0.0335051546391753","0.682253313696613","-1.04565537555228","359.375"
"2369","1.99447717231222","1.05633284241532","-1.5659057437408","0.0335051546391753","0.682253313696613","-1.04565537555228","359.375"
"2376","1.99447717231222","1.05633284241532","-1.5659057437408","0.0335051546391753","-0.317746686303387","-1.04565537555228","359.375"
"2376","1.99447717231222","0.0563328424153167","1.4340942562592","0.0335051546391753","-0.317746686303387","-1.04565537555228","359.375"
"2383","1.99447717231222","0.0563328424153167","1.4340942562592","1.03350515463918","1.68225331369661","-1.04565537555228","359.375"
"2383","1.99447717231222","0.0563328424153167","0.434094256259204","1.03350515463918","1.68225331369661","-1.04565537555228","359.375"
"2389","1.99447717231222","0.0563328424153167","0.434094256259204","0.0335051546391753","0.682253313696613","-1.04565537555228","359.375"
"2389","1.99447717231222","1.05633284241532","-1.5659057437408","0.0335051546391753","0.682253313696613","-1.04565537555228","359.375"
"2394","1.99447717231222","1.05633284241532","-1.5659057437408","3.03350515463918","-3.31774668630339","-1.04565537555228","359.375"
"2395","1.99447717231222","-0.943667157584683","-0.565905743740796","3.03350515463918","-3.31774668630339","-1.04565537555228","359.375"
"2401","1.99447717231222","-0.943667157584683","-0.565905743740796","-0.966494845360825","-2.31774668630339","-1.04565537555228","359.375"
"2401","0.994477172312224","1.05633284241532","-0.565905743740796","-0.966494845360825","-2.31774668630339","-1.04565537555228","359.375"
"2406","0.994477172312224","1.05633284241532","-0.565905743740796","2.03350515463918","0.682253313696613","-1.04565537555228","359.375"
"2406","1.99447717231222","1.05633284241532","-0.565905743740796","2.03350515463918","0.682253313696613","-1.04565537555228","359.375"
"2412","1.99447717231222","1.05633284241532","-0.565905743740796","-0.966494845360825","-1.31774668630339","-1.04565537555228","359.375"
"2412","2.99447717231222","1.05633284241532","0.434094256259204","-0.966494845360825","-1.31774668630339","-1.04565537555228","359.375"
"2418","2.99447717231222","1.05633284241532","0.434094256259204","-3.96649484536082","-1.31774668630339","-1.04565537555228","359.375"
"2418","0.994477172312224","-0.943667157584683","-2.5659057437408","-3.96649484536082","-1.31774668630339","-1.04565537555228","359.375"
"2424","0.994477172312224","-0.943667157584683","-2.5659057437408","-1.96649484536082","-4.31774668630339","-1.04565537555228","359.375"
"2424","-0.00552282768777612","1.05633284241532","-0.565905743740796","-1.96649484536082","-4.31774668630339","-1.04565537555228","359.375"
"2429","-0.00552282768777612","1.05633284241532","-0.565905743740796","1.03350515463918","2.68225331369661","-1.04565537555228","359.375"
"2429","-0.00552282768777612","1.05633284241532","-0.565905743740796","1.03350515463918","2.68225331369661","-1.04565537555228","359.375"
"2435","-0.00552282768777612","1.05633284241532","-0.565905743740796","1.03350515463918","-0.317746686303387","-1.04565537555228","359.375"
"2435","1.99447717231222","2.05633284241532","-1.5659057437408","1.03350515463918","-0.317746686303387","-1.04565537555228","359.375"
"2441","1.99447717231222","2.05633284241532","-1.5659057437408","0.0335051546391753","1.68225331369661","-1.04565537555228","359.375"
"2441","0.994477172312224","-1.94366715758468","-0.565905743740796","0.0335051546391753","1.68225331369661","-1.04565537555228","359.375"
"2446","0.994477172312224","-1.94366715758468","-0.565905743740796","-2.96649484536082","-1.31774668630339","-1.04565537555228","359.375"
"2446","1.99447717231222","1.05633284241532","0.434094256259204","-2.96649484536082","-1.31774668630339","-1.04565537555228","359.375"
"2453","1.99447717231222","1.05633284241532","0.434094256259204","2.03350515463918","-2.31774668630339","-1.04565537555228","359.375"
"2453","-0.00552282768777612","1.05633284241532","-4.5659057437408","2.03350515463918","-2.31774668630339","-1.04565537555228","359.375"
"2458","-0.00552282768777612","1.05633284241532","-4.5659057437408","2.03350515463918","-3.31774668630339","-1.04565537555228","359.375"
"2458","-0.00552282768777612","0.0563328424153167","0.434094256259204","2.03350515463918","-3.31774668630339","-1.04565537555228","359.375"
"2464","-0.00552282768777612","0.0563328424153167","0.434094256259204","0.0335051546391753","-0.317746686303387","-1.04565537555228","359.375"
"2464","2.99447717231222","0.0563328424153167","0.434094256259204","0.0335051546391753","-0.317746686303387","-1.04565537555228","359.375"
"2469","2.99447717231222","0.0563328424153167","0.434094256259204","2.03350515463918","-2.31774668630339","-1.04565537555228","359.375"
"2470","1.99447717231222","1.05633284241532","-2.5659057437408","2.03350515463918","-2.31774668630339","-1.04565537555228","359.375"
"2475","1.99447717231222","1.05633284241532","-2.5659057437408","0.0335051546391753","-0.317746686303387","-1.04565537555228","359.375"
"2475","2.99447717231222","1.05633284241532","1.4340942562592","0.0335051546391753","-0.317746686303387","-1.04565537555228","359.375"
"2481","2.99447717231222","1.05633284241532","1.4340942562592","1.03350515463918","0.682253313696613","-1.04565537555228","359.375"
"2482","2.99447717231222","2.05633284241532","-0.565905743740796","1.03350515463918","0.682253313696613","-1.04565537555228","359.375"
"2488","2.99447717231222","2.05633284241532","-0.565905743740796","0.0335051546391753","1.68225331369661","-1.04565537555228","359.375"
"2488","1.99447717231222","-2.94366715758468","-3.5659057437408","0.0335051546391753","1.68225331369661","-1.04565537555228","359.375"
"2494","1.99447717231222","-2.94366715758468","-3.5659057437408","-4.96649484536082","-2.31774668630339","-1.04565537555228","359.375"
"2494","-0.00552282768777612","1.05633284241532","-0.565905743740796","-4.96649484536082","-2.31774668630339","-1.04565537555228","359.375"
"2500","-0.00552282768777612","1.05633284241532","-0.565905743740796","0.0335051546391753","-2.31774668630339","-1.04565537555228","359.375"
"2500","1.99447717231222","1.05633284241532","-2.5659057437408","0.0335051546391753","-2.31774668630339","-1.04565537555228","359.375"
"2506","1.99447717231222","1.05633284241532","-2.5659057437408","1.03350515463918","-3.31774668630339","-1.04565537555228","359.375"
"2506","1.99447717231222","1.05633284241532","-2.5659057437408","1.03350515463918","-3.31774668630339","-1.04565537555228","359.375"
"2514","1.99447717231222","1.05633284241532","-2.5659057437408","-1.96649484536082","-1.31774668630339","-1.04565537555228","359.375"
"2514","1.99447717231222","1.05633284241532","-2.5659057437408","-1.96649484536082","-1.31774668630339","-1.04565537555228","359.375"
"2520","1.99447717231222","1.05633284241532","-2.5659057437408","0.0335051546391753","-0.317746686303387","-1.04565537555228","359.375"
"2521","0.994477172312224","1.05633284241532","1.4340942562592","0.0335051546391753","-0.317746686303387","-1.04565537555228","359.375"
"2527","0.994477172312224","1.05633284241532","1.4340942562592","-0.966494845360825","-0.317746686303387","-1.04565537555228","359.375"
"2527","1.99447717231222","1.05633284241532","1.4340942562592","-0.966494845360825","-0.317746686303387","-1.04565537555228","359.375"
"2533","1.99447717231222","1.05633284241532","1.4340942562592","2.03350515463918","-0.317746686303387","-1.04565537555228","359.375"
"2533","1.99447717231222","1.05633284241532","-0.565905743740796","2.03350515463918","-0.317746686303387","-1.04565537555228","359.375"
"2540","1.99447717231222","1.05633284241532","-0.565905743740796","1.03350515463918","1.68225331369661","-1.04565537555228","359.375"
"2540","0.994477172312224","1.05633284241532","-1.5659057437408","1.03350515463918","1.68225331369661","-1.04565537555228","359.375"
"2547","0.994477172312224","1.05633284241532","-1.5659057437408","0.0335051546391753","2.68225331369661","-1.04565537555228","359.375"
"2548","0.994477172312224","0.0563328424153167","-0.565905743740796","0.0335051546391753","2.68225331369661","-1.04565537555228","359.375"
"2554","0.994477172312224","0.0563328424153167","-0.565905743740796","1.03350515463918","1.68225331369661","-1.04565537555228","359.375"
"2554","1.99447717231222","1.05633284241532","1.4340942562592","1.03350515463918","1.68225331369661","-1.04565537555228","359.375"
"2561","1.99447717231222","1.05633284241532","1.4340942562592","1.03350515463918","-0.317746686303387","-1.04565537555228","359.375"
"2561","1.99447717231222","1.05633284241532","0.434094256259204","1.03350515463918","-0.317746686303387","-1.04565537555228","359.375"
"2567","1.99447717231222","1.05633284241532","0.434094256259204","-3.96649484536082","-1.31774668630339","-1.04565537555228","359.375"
"2567","1.99447717231222","1.05633284241532","-0.565905743740796","-3.96649484536082","-1.31774668630339","-1.04565537555228","359.375"
"2573","1.99447717231222","1.05633284241532","-0.565905743740796","-2.96649484536082","-1.31774668630339","-1.04565537555228","359.375"
"2573","1.99447717231222","-0.943667157584683","-2.5659057437408","-2.96649484536082","-1.31774668630339","-1.04565537555228","359.375"
"2581","1.99447717231222","-0.943667157584683","-2.5659057437408","-1.96649484536082","-0.317746686303387","-1.04565537555228","359.375"
"2581","1.99447717231222","0.0563328424153167","3.4340942562592","-1.96649484536082","-0.317746686303387","-1.04565537555228","359.375"
"2588","1.99447717231222","0.0563328424153167","3.4340942562592","-0.966494845360825","0.682253313696613","-1.04565537555228","359.375"
"2588","-0.00552282768777612","1.05633284241532","1.4340942562592","-0.966494845360825","0.682253313696613","-1.04565537555228","359.375"
"2594","-0.00552282768777612","1.05633284241532","1.4340942562592","1.03350515463918","0.682253313696613","-1.04565537555228","359.375"
"2594","1.99447717231222","1.05633284241532","0.434094256259204","1.03350515463918","0.682253313696613","-1.04565537555228","359.375"
"2601","1.99447717231222","1.05633284241532","0.434094256259204","2.03350515463918","-0.317746686303387","-1.04565537555228","359.375"
"2601","1.99447717231222","1.05633284241532","-0.565905743740796","2.03350515463918","-0.317746686303387","-1.04565537555228","359.375"
"2607","1.99447717231222","1.05633284241532","-0.565905743740796","-0.966494845360825","-2.31774668630339","-1.04565537555228","359.375"
"2607","1.99447717231222","1.05633284241532","-1.5659057437408","-0.966494845360825","-2.31774668630339","-1.04565537555228","359.375"
"2614","1.99447717231222","1.05633284241532","-1.5659057437408","0.0335051546391753","-1.31774668630339","-1.04565537555228","359.375"
"2614","0.994477172312224","1.05633284241532","-2.5659057437408","0.0335051546391753","-1.31774668630339","-1.04565537555228","359.375"
"2620","0.994477172312224","1.05633284241532","-2.5659057437408","1.03350515463918","-1.31774668630339","-1.04565537555228","359.375"
"2620","1.99447717231222","2.05633284241532","0.434094256259204","1.03350515463918","-1.31774668630339","-1.04565537555228","359.375"
"2626","1.99447717231222","2.05633284241532","0.434094256259204","1.03350515463918","1.68225331369661","-1.04565537555228","359.375"
"2626","-0.00552282768777612","1.05633284241532","0.434094256259204","1.03350515463918","1.68225331369661","-1.04565537555228","359.375"
"2632","-0.00552282768777612","1.05633284241532","0.434094256259204","0.0335051546391753","1.68225331369661","-1.04565537555228","359.375"
"2632","1.99447717231222","2.05633284241532","-2.5659057437408","0.0335051546391753","1.68225331369661","-1.04565537555228","359.375"
"2638","1.99447717231222","2.05633284241532","-2.5659057437408","-0.966494845360825","0.682253313696613","-1.04565537555228","359.375"
"2638","0.994477172312224","1.05633284241532","-2.5659057437408","-0.966494845360825","0.682253313696613","-1.04565537555228","359.375"
"2643","0.994477172312224","1.05633284241532","-2.5659057437408","-0.966494845360825","2.68225331369661","-1.04565537555228","359.375"
"2643","1.99447717231222","0.0563328424153167","1.4340942562592","-0.966494845360825","2.68225331369661","-1.04565537555228","359.375"
"2649","1.99447717231222","0.0563328424153167","1.4340942562592","-0.966494845360825","-1.31774668630339","-1.04565537555228","359.375"
"2649","1.99447717231222","1.05633284241532","-0.565905743740796","-0.966494845360825","-1.31774668630339","-1.04565537555228","359.375"
"2655","1.99447717231222","1.05633284241532","-0.565905743740796","-2.96649484536082","-0.317746686303387","-1.04565537555228","359.375"
"2655","1.99447717231222","0.0563328424153167","-0.565905743740796","-2.96649484536082","-0.317746686303387","-1.04565537555228","359.375"
"2661","1.99447717231222","0.0563328424153167","-0.565905743740796","3.03350515463918","-0.317746686303387","-1.04565537555228","359.375"
"2661","1.99447717231222","0.0563328424153167","0.434094256259204","3.03350515463918","-0.317746686303387","-1.04565537555228","359.375"
"2667","1.99447717231222","0.0563328424153167","0.434094256259204","0.0335051546391753","-0.317746686303387","-1.04565537555228","359.375"
"2667","1.99447717231222","1.05633284241532","-1.5659057437408","0.0335051546391753","-0.317746686303387","-1.04565537555228","359.375"
"2673","1.99447717231222","1.05633284241532","-1.5659057437408","-0.966494845360825","1.68225331369661","-1.04565537555228","359.375"
"2673","1.99447717231222","1.05633284241532","2.4340942562592","-0.966494845360825","1.68225331369661","-1.04565537555228","359.375"
"2678","1.99447717231222","1.05633284241532","2.4340942562592","4.03350515463918","1.68225331369661","-1.04565537555228","359.375"
"2678","2.99447717231222","-0.943667157584683","-0.565905743740796","4.03350515463918","1.68225331369661","-1.04565537555228","359.375"
"2684","2.99447717231222","-0.943667157584683","-0.565905743740796","-0.966494845360825","2.68225331369661","-1.04565537555228","359.375"
"2684","2.99447717231222","1.05633284241532","-0.565905743740796","-0.966494845360825","2.68225331369661","-1.04565537555228","359.375"
"2690","2.99447717231222","1.05633284241532","-0.565905743740796","1.03350515463918","-0.317746686303387","-1.04565537555228","359.375"
"2690","1.99447717231222","1.05633284241532","-4.5659057437408","1.03350515463918","-0.317746686303387","-1.04565537555228","359.375"
"2695","1.99447717231222","1.05633284241532","-4.5659057437408","1.03350515463918","-0.317746686303387","-1.04565537555228","359.375"
"2695","1.99447717231222","1.05633284241532","-0.565905743740796","1.03350515463918","-0.317746686303387","-1.04565537555228","359.375"
"2701","1.99447717231222","1.05633284241532","-0.565905743740796","1.03350515463918","-1.31774668630339","-1.04565537555228","359.375"
"2701","2.99447717231222","1.05633284241532","0.434094256259204","1.03350515463918","-1.31774668630339","-1.04565537555228","359.375"
"2707","2.99447717231222","1.05633284241532","0.434094256259204","2.03350515463918","0.682253313696613","-1.04565537555228","359.375"
"2707","0.994477172312224","0.0563328424153167","-0.565905743740796","2.03350515463918","0.682253313696613","-1.04565537555228","359.375"
"2713","0.994477172312224","0.0563328424153167","-0.565905743740796","0.0335051546391753","1.68225331369661","-1.04565537555228","359.375"
"2713","1.99447717231222","1.05633284241532","-0.565905743740796","0.0335051546391753","1.68225331369661","-1.04565537555228","359.375"
"2719","1.99447717231222","1.05633284241532","-0.565905743740796","1.03350515463918","0.682253313696613","-1.04565537555228","359.375"
"2719","1.99447717231222","1.05633284241532","-0.565905743740796","1.03350515463918","0.682253313696613","-1.04565537555228","359.375"
"2725","1.99447717231222","1.05633284241532","-0.565905743740796","-1.96649484536082","-1.31774668630339","-1.04565537555228","359.375"
"2725","1.99447717231222","1.05633284241532","-4.5659057437408","-1.96649484536082","-1.31774668630339","-1.04565537555228","359.375"
"2731","1.99447717231222","1.05633284241532","-4.5659057437408","-3.96649484536082","-0.317746686303387","-1.04565537555228","359.375"
"2732","1.99447717231222","0.0563328424153167","-0.565905743740796","-3.96649484536082","-0.317746686303387","-1.04565537555228","359.375"
"2738","1.99447717231222","0.0563328424153167","-0.565905743740796","-2.96649484536082","-2.31774668630339","-1.04565537555228","359.375"
"2738","1.99447717231222","1.05633284241532","1.4340942562592","-2.96649484536082","-2.31774668630339","-1.04565537555228","359.375"
"2744","1.99447717231222","1.05633284241532","1.4340942562592","-1.96649484536082","1.68225331369661","-1.04565537555228","359.375"
"2744","1.99447717231222","1.05633284241532","1.4340942562592","-1.96649484536082","1.68225331369661","-1.04565537555228","359.375"
"2752","1.99447717231222","1.05633284241532","1.4340942562592","2.03350515463918","-3.31774668630339","-1.04565537555228","359.375"
"2752","1.99447717231222","1.05633284241532","1.4340942562592","2.03350515463918","-3.31774668630339","-1.04565537555228","359.375"
"2759","1.99447717231222","1.05633284241532","1.4340942562592","0.0335051546391753","0.682253313696613","-1.04565537555228","359.375"
"2759","0.994477172312224","1.05633284241532","-1.5659057437408","0.0335051546391753","0.682253313696613","-1.04565537555228","359.375"
"2766","0.994477172312224","1.05633284241532","-1.5659057437408","0.0335051546391753","-2.31774668630339","-1.04565537555228","359.375"
"2766","0.994477172312224","1.05633284241532","0.434094256259204","0.0335051546391753","-2.31774668630339","-1.04565537555228","359.375"
"2773","0.994477172312224","1.05633284241532","0.434094256259204","-0.966494845360825","-1.31774668630339","-1.04565537555228","359.375"
"2773","1.99447717231222","1.05633284241532","-0.565905743740796","-0.966494845360825","-1.31774668630339","-1.04565537555228","359.375"
"2779","1.99447717231222","1.05633284241532","-0.565905743740796","-0.966494845360825","-0.317746686303387","-1.04565537555228","359.375"
"2780","2.99447717231222","1.05633284241532","-0.565905743740796","-0.966494845360825","-0.317746686303387","-1.04565537555228","359.375"
"2787","2.99447717231222","1.05633284241532","-0.565905743740796","2.03350515463918","0.682253313696613","-1.04565537555228","359.375"
"2788","2.99447717231222","0.0563328424153167","-1.5659057437408","2.03350515463918","0.682253313696613","-1.04565537555228","359.375"
"2795","2.99447717231222","0.0563328424153167","-1.5659057437408","-0.966494845360825","-0.317746686303387","-1.04565537555228","359.375"
"2795","0.994477172312224","1.05633284241532","-1.5659057437408","-0.966494845360825","-0.317746686303387","-1.04565537555228","359.375"
"2802","0.994477172312224","1.05633284241532","-1.5659057437408","-0.966494845360825","-1.31774668630339","-1.04565537555228","359.375"
"2802","1.99447717231222","1.05633284241532","-0.565905743740796","-0.966494845360825","-1.31774668630339","-1.04565537555228","359.375"
"2809","1.99447717231222","1.05633284241532","-0.565905743740796","-0.966494845360825","-0.317746686303387","-1.04565537555228","359.375"
"2809","0.994477172312224","0.0563328424153167","1.4340942562592","-0.966494845360825","-0.317746686303387","-1.04565537555228","359.375"
"2816","0.994477172312224","0.0563328424153167","1.4340942562592","-3.96649484536082","-1.31774668630339","-1.04565537555228","359.375"
