Timer,AX,AY,AZ,GX,GY,GZ
"0","0,311947872550992","5,45135964465723","-23,7954075149591","-0,278958913353979","-0,238606614608747","0,21945403035693"
"0","0,643851567500296","5,60514358283277","-23,6834563374115","-0,304684460069097","-0,310543367003321","0,244466638682431"
"0","0,853050542854837","5,67181116094862","-23,5807236363188","-0,15191471420574","-0,243536522257192","0,23040168825314"
"0","0,857891216556282","5,68277395876959","-23,9096519493902","-0,0528089654922655","-0,204818571188738","0,213421821054003"
"0","0,923440023065889","5,70065144287029","-24,0894058322","-0,176234555870723","-0,177234834729986","0,197751183144213"
"0","1,07297044919999","6,03788080857955","-24,0230210654064","-0,238172641932525","-0,154135655660616","0,180593834483468"
"0","1,19864839672247","6,27010849982859","-24,0248440695707","-0,0407573305118904","-0,355676648736232","0,230845019255825"
"0","1,50051267239282","5,4185842945693","-23,6473114647368","0,0848598931173155","-0,50898944220701","0,279411725601536"
"0","1,73625308406589","4,91254589064201","-23,4099552311954","0,0178933522122994","-0,547111840407202","0,279904572927073"
"0","1,41696190999569","5,86446380537846","-23,8821355490349","0,000283215403386694","-0,598173863222654","0,28038187192551"
"0","1,2909523220681","6,37877612386308","-24,1236158399329","0,0303929083079916","-0,622693192568801","0,280825452672045"
"0","1,27441487260408","6,04895384822157","-24,1375943615941","0,0530514460307448","-0,656368646974493","0,281227761063841"
"0","1,23892612249069","5,94089040627145","-24,2037021880083","0,316934873370699","-0,470981043541559","0,259173815587973"
"0","1,56133862319346","5,70839056153075","-23,9586544310748","0,504253013788663","-0,336096391912028","0,237373662511199"
"0","1,75256640357717","5,54666739412077","-23,8281336268115","0,289290064075216","-0,412819090552307","0,238373737357466"
"0","1,62933462710213","5,64868744453741","-23,7932947095548","0,18853958319244","-0,455992847654544","0,239243893711414"
"0","1,60564030040064","5,67264638890741","-23,7385890794761","0,534710857518339","-0,42180215041001","0,194532485207946"
"0","1,13107585269655","5,74887922002339","-24,359743894733","0,758408782410745","-0,396004616460866","0,150468931369363"
"0","0,829820583415788","5,79738833545247","-24,7431125904214","0,706715676351368","-0,246319639650144","0,152482970615217"
"0","0,887278839843458","5,94529593563539","-24,5395722687438","0,722603214808371","-0,126021106402699","0,15421828955828"
"0","0,833708555690927","6,05654681742769","-24,5125351373388","0,895224845452264","-0,240531992479278","0,110163959462685"
"0","0,758790315767997","5,66494576102826","-24,4510543911713","1,02906271287502","-0,310973019031103","0,066671834912698"
"0","0,6797674085839","5,43525221629659","-24,4223260539585","1,0137391805698","-0,331580432382587","0,0919667737201061"
"0","0,419182727383845","5,77312827937873","-24,4720726858707","1,03919079626413","-0,35182858787951","0,11652974131158"
"0","0,223688349082189","5,94429548086138","-24,498331942472","1,04062440321046","-0,467417289332217","0,117698310975539"
"0","0,293790747139639","5,97040259201467","-24,4122741491225","1,05574201392582","-0,561956864190492","0,118705546025352"
"0","0,274960629330851","6,02244300137439","-24,3625827142093","1,21342056103515","-0,520580505110575","0,0968172075307143"
"0","0,0944130166091853","5,55102736192965","-24,6068764118188","1,32858824166895","-0,50367641348462","0,0751890621352248"
"0","-0,0372287446139263","5,25668045258036","-24,7530301676306","1,18939256047538","-0,496770336680067","0,0993007673514703"
"0","0,382850495372176","5,53346369416759","-24,5922004551561","1,12330715284984","-0,493948895700821","0,122845394388732"
"0","0,609011608270095","5,64437425149749","-24,5267755876395","1,11118811067948","-0,492796210982036","0,123143548925562"
"0","0,834041722852623","5,7163303641041","-24,3024676125942","1,09326055975179","-0,492325287765603","0,123400474393736"
"0","1,03885437531336","5,77913820271674","-24,1447276126205","1,17802739878634","-0,523962000869091","0,169139353152696"
"0","0,878234623158657","5,55737288239381","-24,35891097912","1,22979969804647","-0,548716118169416","0,214086555356615"
"0","0,847351542583767","5,42877685128133","-24,4513540892313","1,06445175243631","-0,538829281247785","0,212833179366769"
"0","0,769104493596474","5,56918284094777","-24,5539723560433","0,962007872577268","-0,534790066562623","0,211752713485159"
"0","0,721750561842871","5,63276273049898","-24,6387316691739","0,945587056265062","-0,501310760586549","0,142543379271262"
"0","1,25880875228812","5,39587563176931","-24,2902336795849","0,911787655026751","-0,475803861759764","0,0746045924558081"
"0","1,58823448418882","5,24842522878875","-24,0905701207275","0,908158837703672","-0,549041366351181","0,0532794768861797"
"0","1,51619268903227","5,29849408189679","-24,1369738740092","0,892463954300497","-0,602620372226159","0,0321371812311479"
"0","1,56695893074551","5,29494943304423","-24,115154865548","0,97781791609855","-0,39353515266843","-0,0343658245954362"
"0","1,0267113506941","4,96108607785187","-24,5084799311522","1,0297446105544","-0,237139859621654","-0,0999716850629817"
"0","0,71282689078465","4,72964887832945","-24,7491591985276","0,96865911491047","-0,102270756053892","-0,0510082569457296"
"0","1,12940197849447","4,69878145042048","-24,3492613500692","0,937854895528397","0,0238039371935196","-0,00328141633027162"
"0","1,30642580157587","4,61501692023371","-24,1545739041621","0,915013718742612","-0,0128598105667399","0,0206202506560099"
"0","0,714299823067775","4,69534520167713","-24,3967744459191","0,894266576793471","-0,0160094836000631","0,0439836481414877"
"0","0,374285960423424","4,71420993286066","-24,5109045220473","1,01303256653217","-0,00546715949924916","0,0896422155619629"
"0","0,588909969141164","4,36560931854579","-24,3475447988928","1,08848621106999","0,0106689572707247","0,134520133565517"
"0","0,63017669048532","4,1307111408133","-24,2657959490946","0,839884497046965","-0,0663969305331747","0,155965922745192"
"0","0,601956717950488","4,66388037480411","-24,3443860576605","0,686066208878869","-0,121540002025384","0,177212252757893"
"0","0,580376226941686","4,95742674363002","-24,3767145298349","0,869838587499088","-0,104068410850348","0,175527463209707"
"0","0,415454297865901","4,80636477190968","-24,6140583944008","0,962386909263134","-0,0969304851207405","0,174075105402161"
"0","0,302971467206359","4,77088855559643","-24,7745413932383","0,787761801135049","0,0333021016289795","0,241100636582665"
"0","0,417498398800007","4,9390725829827","-24,4535603459452","0,682878313392111","0,133824358006974","0,307156934679382"
"0","0,455673516154764","5,05508529139049","-24,2912701145432","0,735297187903141","0,126721297950705","0,326859367929158"
"0","0,117623025093198","4,59399634618293","-24,3771211660093","0,749081736710507","0,135648486791801","0,346602852948175"
"0","-0,092766052121003","4,31737770501524","-24,3951858585837","0,648484799514738","0,246612067477481","0,320863378693791"
"0","-0,314763606621","5,17847689760302","-24,971652932512","0,57780905595052","0,339262073824522","0,295915714693336"
"0","-0,518993175145173","5,68676394371938","-25,3456184782662","0,688704745658025","0,328942847851657","0,22613227726623"
"0","0,075592812104599","4,38234320181625","-24,746391735614","0,747348127533751","0,336556089198402","0,157698549821108"
"0","0,383770651181415","3,63221628867666","-24,4623868428341","0,75751014624393","0,25600822593135","0,158705848029484"
"0","0,709188530757007","4,00074930720087","-24,065752517333","0,774923060303599","0,19944261186707","0,15957418073099"
"0","0,997921230289021","4,07199451771304","-23,7454188189974","0,58579903884316","0,0253583931474499","0,251359412752417"
"0","0,484201080247244","4,28524158631479","-24,2643474815434","0,462362167388173","-0,116737427004072","0,3415187698893"
"0","0,256189719576106","4,41183714479191","-24,4998728925229","0,738345771244881","0,00886829333977341","0,316480689132555"
"0","0,372348951992213","4,20035517112523","-24,5683900142535","0,899364652717796","0,0838420554729583","0,292137655272353"
"0","0,39468340890738","4,08947722821232","-24,6617654184264","0,578523343214458","0,169959506421113","0,336671300486144"
"0","1,01360442932145","3,82571022862475","-24,0087474584438","0,390967651099929","0,240629652216476","0,380579490057301"
"0","1,4072338256561","3,62603793014064","-23,6186741516401","0,412165050724956","0,0821851396121051","0,401189337703625"
"0","1,14291871621638","3,54732725356858","-23,7134288358606","0,388258081143562","-0,0298629491541519","0,421715051583608"
"0","1,09209766393306","3,43702386319625","-23,6702005421175","0,421971284791961","0,0998477184529718","0,419409065390607"
"0","0,937708031159607","3,99005979786086","-23,920062587483","0,430836818542523","0,188327641257714","0,417421209973161"
"0","0,843404802621026","4,31887795300162","-24,0515964095138","0,572130645793718","0,164475643532636","0,438466769722814"
"0","1,01373622838906","3,81837158022171","-23,9792736250811","0,668249033706769","0,154731036612823","0,459368085445903"
"0","1,09495014676601","3,56310211775524","-23,9640555369554","0,544043975495772","0,341724566925388","0,457385883567138"
"0","0,942101980591098","3,89497179299776","-24,068228221916","0,481900639806787","0,489094417727448","0,455677143612221"
"0","0,864249646997352","4,06472842164178","-24,1375229942032","0,401337008563442","0,492959799703605","0,499722485718272"
"0","0,836971608943867","4,40823208567835","-24,0563123110761","0,335929407176065","0,518197193531222","0,543209737830046"
"0","0,799417717660848","4,67253944995248","-24,0234324202177","0,517691688472958","0,552166009228758","0,517938373430218"
"0","0,651424511229034","4,24748919374759","-24,0723054863549","0,624452032840724","0,589702000932017","0,493394239422831"
"0","0,542196642044842","4,04054643883642","-24,0983809281176","0,503045481265443","0,692353555998354","0,514995354652061"
"0","0,621194909444795","4,30846233027485","-24,1912425564283","0,441638066590932","0,781607728449152","0,536375582162643"
"0","0,636384260845609","4,44789661290245","-24,2581572674632","0,326527343635985","0,738072046302567","0,466528702174536"
"0","0,277759683164582","4,34533902831535","-24,3911954939766","0,23729430536973","0,720285774712481","0,398040284598403"
"0","0,0472602237396742","4,30595075543796","-24,498147364629","0,293828765853961","0,744848394252582","0,353482091062976"
"0","0,239095568486475","3,96366968832991","-24,2774855906828","0,308695586958237","0,766712428219691","0,309552739819885"
"0","0,292135121382298","3,73025562748772","-24,1678876805827","0,173642637765983","0,819303075672429","0,311683823203384"
"0","0,101560723027322","4,05195485324511","-24,2606178176719","0,0791654084815123","0,864446917781883","0,313520905169513"
"0","-0,0158544230234862","4,2040199070762","-24,295921620537","0,134320808317837","0,906548407141054","0,315104545761126"
"0","0,133878660398828","4,49276260320359","-24,7128496510128","0,148824978964873","0,947406959451318","0,316469709411792"
"0","0,194977532807735","4,71360342136704","-24,9900786706199","0,152639128926303","0,796783078748984","0,385924056774087"
"0","1,07058804330864","4,45955760891863","-24,4862883446332","0,153642132840301","0,687930067587055","0,454074095001259"
"0","1,64280836182465","4,35398683330447","-24,2381567073661","0,0496840431768435","0,627971429484316","0,430063071685491"
"0","1,795149384134","4,00086001568544","-24,1511953761216","-0,0218755799187838","0,567988327667642","0,406605403789348"
"0","2,06675832983058","3,74959578865886","-24,0381473398301","-0,0501747883425012","0,635311656454843","0,383624751138186"
"0","2,2166814134299","3,23982879884169","-24,1343598848501","-0,087097840695826","0,6746453509522","0,361055305345897"
"0","2,42320741022289","2,82935361207797","-24,1546048325578","-0,265251163324653","0,766202241660928","0,361599510151944"
"0","1,73675394705395","2,58340901743086","-24,3020312340871","-0,400543695290764","0,839094641665004","0,362068637189776"
"0","1,37860331561169","2,296103683278","-24,3962190302086","-0,142418381100987","0,840703550613679","0,407991390665058"
"0","0,902804391759721","1,64605405720955","-24,3718295522326","-0,000836295803250753","0,853189968095884","0,453097048981166"
"0","0,504384702745019","1,1108155856637","-24,3824891625755","-0,133085802480408","0,93377854644791","0,497498337494968"
"0","0,771624250869154","2,26178527062441","-24,6868567267773","-0,197344580241443","1,00218990072484","0,541292430123654"
"0","0,806853087858445","2,86875326428018","-24,8930260255239","0,0689416550574974","0,938309889692107","0,539044748223542"
"0","1,95441651201479","2,04175056840445","-23,6826593648482","0,242151043668281","0,900382944365365","0,537107153516423"
"0","2,67585349917246","1,61798638458216","-22,9542266212252","0,495105938375222","0,650255242149501","0,62647355994137"
"0","0,856850547319079","1,50073947580545","-24,1167829294333","0,709031443977658","0,453434048352552","0,714547789445461"
"0","-0,0906141925750264","1,33547675358099","-24,6772392668121","0,495806027714195","0,564852901826018","0,755989762453864"
"0","-1,12358594088221","1,61787791988299","-25,2183771890729","0,410253080852326","0,622201588608015","0,797232802791889"
"0","-2,03299850543469","1,74541091230995","-25,6954501497032","0,323533443193655","1,07123857777357","0,86106352823357"
"0","-1,11092827901108","2,82506036870839","-25,4432102258605","0,256507001804808","1,42029774142572","0,924365771909535"
"0","-0,836710637051944","3,56831004193567","-25,4375090126858","0,368362345538052","1,31473311409813","0,827898229438729"
"0","-1,69938480577195","-1,69836153956821","-25,0899764094269","0,427258086852614","1,28343435286047","0,733702527133573"
"0","-2,22065426506567","-5,01643576616112","-24,8905159861976","0,0900803056953596","1,12333098515588","0,823538631267167"
"0","-2,67628030872454","-1,55763747660773","-25,4022535425428","-0,131252607611272","1,01060517995368","0,912017759611336"
"0","-3,11928479826527","-0,0873215299485247","-25,6836406680091","-0,252640657690153","1,10820986383126","1,22691885161883"
"0","-2,90908130055806","7,34117096347591","-26,703973324787","-0,387746288353133","1,17174395131514","1,53700503558596"
"0","-2,93328257168084","12,5289140929036","-27,4397941628317","1,97486515086355","0,998554933727944","1,88845891637235"
"0","0,576742614504522","3,2810095601775","-24,4292114521273","3,55429921700446","0,86865394952298","2,23557346177444"
"0","2,7863093825112","-1,47704110431329","-22,6903142454244","2,70438232537155","0,724608955040391","2,51066980084079"
"0","1,81731584449094","-1,12081455767546","-23,6528339906071","2,49562098772508","0,594785500320893","2,78368346913182"
"0","1,85716625171206","-1,8635232919578","-23,8237831949223","0,162583131456937","0,279797542411295","2,872828402818"
"0","1,04251081468655","1,40736204381893","-25,6535435338878","-1,40907399362285","0,00916161069727437","2,96347088695508"
"0","0,643555704142885","3,20082167411501","-26,8123492563933","0,0334784703378915","0,711518652027967","2,96436762832889"
"0","4,48229783902612","6,97731861341954","-27,7225985182063","0,648675179016542","1,21138680196033","2,96789982974895"
"0","6,83584104119312","9,89952283649945","-28,6405467776078","1,91481822402728","0,864630640603296","2,9281855600901"
"0","21,9917510876852","3,30108426609734","-20,7553765424769","2,85214009780622","0,651990615875028","2,89119104474351"
"0","32,3692296617005","-0,253233919381282","-15,9378628988124","1,79225824112593","0,303168388379949","2,7199860303056"
"0","36,5855337864921","-5,10493048165593","-10,3341776953903","1,30717334341172","0,0187096456238657","2,55308601798293"
"0","42,5172012498595","-9,12131044909994","-5,36506705692508","-0,520604164664313","0,779077663520567","2,48093378858741"
"0","26,7244380715969","-3,62150407877804","-13,0923415707634","-1,84146845671788","1,32630410221769","2,41045806452909"
"0","18,9546211191332","-1,16686467171549","-16,4711767779721","0,0628846548174459","5,19216705345076","2,45522342381334"
"0","6,7619178525359","-4,01677069924676","-24,2679690997072","1,03537056448794","8,27384131647168","2,49933136049523"
"0","-2,98119361467546","-5,51242507189768","-30,0143835485737","2,457616439051","10,3348991199603","2,52011339843042"
"0","-5,56472667819132","-4,43064178144812","-33,7545282534117","3,59813532587334","12,4189894925164","2,54078754745654"
"0","-10,471655471327","-4,02355899021253","-37,9525156808712","4,69930931206955","14,576147911331","2,60688703836043"
"0","1,56500543912254","0,84977838868408","-26,9638201946136","5,7701368017402","16,7231578921569","2,67214505164554"
"0","7,23948638119372","4,15199532381505","-21,3195580452254","5,82550622628564","12,1182512509893","2,62288180999771"
"0","-3,42190285345364","-2,94083608391602","-26,9646862934606","6,19384146913368","8,99488495394567","2,57489651279587"
"0","-8,86426315897286","-6,79489726905794","-29,3053168028991","6,54025522995505","7,5271545987854","2,30042112364587"
"0","-4,51759136104131","-3,00424525702021","-25,7250416818499","6,94090431647263","6,07582550954524","2,03070191313856"
"0","-3,14873842943529","-1,31826715498545","-23,8188955068107","5,02819433290887","6,92289272257515","1,76508272522063"
"0","4,29998578983333","7,03996534541764","-25,1999307105317","3,84714219572277","7,26895753109888","1,50299792625153"
"0","9,23771414678106","12,9051464142651","-25,6326513395237","6,29781453744976","5,05498660481696","1,0846457036327"
"0","14,8857408985092","5,96997619968374","-23,1098738252279","7,72351851237115","3,27512668324453","0,67158450242413"
"0","20,0103399102735","2,94870176280866","-21,5052033410654","8,7754655405081","1,60896229319538","0,263084380378608"
"0","11,5486648003713","11,2256967004813","-24,7466306166313","9,78912600825814","0,0292476083660443","-0,141483902893539"
"0","7,93469579271842","16,2760387627292","-26,4077689466284","7,31865666411612","1,2858128439384","-0,656458645060814"
"0","6,69899740260971","24,240137556973","-27,5216347339965","5,93196853635414","1,94112516885045","-1,16660831851005"
"0","5,12057977732105","30,808518854161","-28,6403439790962","10,3192988432772","4,16505787022163","-1,39948850381514"
"0","3,58472951736402","23,8457661970338","-29,4737394200659","13,0650180830035","5,88984209066413","-1,63335092924649"
"0","1,99706387577281","21,1852883344156","-30,4070994151","10,9322453136292","6,26485402560666","-1,84530091297964"
"0","-1,11905397203628","19,7823017575498","-32,3636592106933","10,0765794674178","6,80842366606897","-2,05836146620556"
"0","-3,68905418491108","18,5346312841171","-33,9755196872166","6,08269176411169","6,56147079180854","-2,27237937624029"
"0","-5,97327735803372","21,1714730154269","-34,1547673185711","3,26354841079416","6,53155414503628","-2,48722256741711"
"0","-8,30255289721519","22,5405747528621","-34,7925659847234","0,57962354267389","6,87676845219186","-2,72553635834039"
"0","-11,5443536131083","25,2711988039931","-36,1711016612688","-1,96874303034284","7,19524051710907","-2,96408277641584"
"0","-14,4616096399512","27,381570171844","-37,3455024803214","1,3549615833597","6,99352148057267","-3,15731138213519"
"0","-12,0379055072952","24,6862700016503","-35,8283695694087","2,86283998233921","6,89928113386022","-3,35147416036581"
"0","-11,5072709956518","23,5023797497004","-35,2248868170571","1,98247814368514","5,70310280861015","-3,61471975378124"
"0","-9,71367251475712","22,9558619644375","-35,636860678349","1,57408271166487","4,7767335779848","-3,87751758946381"
"0","-8,57723828357441","22,3990282011876","-35,8025059069072","0,838171890421052","3,73778967522135","-4,20820695933788"
"0","-8,65179527922512","30,7714538143172","-36,5247764496932","0,276134613582216","2,79285398838358","-4,53742163802057"
"0","-8,35919499273631","36,1808753394294","-37,0241715356139","1,67055461576687","2,96851447215337","-5,00192011167019"
"0","-7,92369070739657","33,6220120869738","-36,7250453711803","2,47946259778312","2,92198856651798","-5,46303880861463"
"0","-7,50070962887429","33,311833432003","-36,6778951621326","2,96069587863488","2,78468959220124","-6,08055821135384"
"0","-4,00700307277546","25,7277649939914","-33,2119783461314","3,45576080976005","2,61030576304759","-6,69290148740108"
"0","-1,62287434832447","20,8554566565321","-30,9666880724586","0,341438947422635","2,13430915699175","-7,46009694130131"
"0","-8,85226179659885","30,3175921619909","-37,2818966481915","-1,64204042512947","1,71509025371863","-8,22078137341449"
"0","-12,7300831428681","35,3861065430211","-40,7583968488532","-0,548893766661698","1,98747881109977","-8,9530938623219"
"0","-6,88870176228974","36,0690053557779","-38,3046274922302","-0,246689262480718","2,12241992129283","-9,68094856341536"
"0","-4,19856565565619","37,6219623188752","-37,5830167334852","2,03618065104818","2,74230241411802","-10,2911646007054"
"0","-7,82674623855463","31,7890839006705","-37,5838012578855","3,57990453675596","3,22030513181359","-10,8999712471352"
"0","-9,50977792664305","28,5216756689252","-37,5365914768499","2,01104402650107","2,55815400778082","-11,5530812869625"
"0","-14,9404212751352","23,667964785169","-37,6224492617964","1,30366972854242","2,11019909054732","-12,2043826832046"
"0","-18,8116347360764","19,6817179456052","-37,656306991182","0,058546201567713","2,38633502097278","-12,7858474340495"
"0","-32,506272482503","28,8554255045671","-44,1575061333546","-0,887988802907057","2,55829441935252","-13,3671101098241"
"0","-42,4897041017888","33,7796884402252","-48,3995568015124","-0,956970052373225","3,64256623759604","-13,6978476823615"
"0","-48,1802689497156","35,9761371910185","-55,8169849381099","-1,2551817044407","4,49955844689881","-14,0326222603096"
"0","-55,0254250380183","38,5119711995141","-61,8625728327437","1,06135356311519","3,60858325313001","-14,5074319435246"
"0","-42,4245259928552","35,5496199040039","-55,3071822067868","2,52548670202319","3,04348526562687","-14,9829576759112"
"0","-36,9646466573221","34,4560448216339","-52,9803062556934","-0,16022529138439","-1,01699543702474","-15,4363414989935"
"0","-23,2968580140733","41,6386295390228","-47,3555706074253","-1,67721868491771","-4,22549617330295","-15,890638081007"
"0","-13,350897812837","46,3248327062149","-43,3769026127818","-1,11510366916807","-7,08592502178561","-16,3457214989486"
"0","-10,7006711333754","48,4124958415902","-41,3552214292748","-1,02624720559251","-9,80415095018166","-16,8014832019845"
"0","-5,81322787988304","51,0299036809601","-38,845327457589","-1,06184315866651","-12,4642806312501","-17,257829614809"
"0","-10,8358148853656","47,770194172973","-45,6459002874526","-1,13016626255216","-15,1006753991994","-17,7146800716406"
"0","-12,0438478828998","46,5302704129226","-49,1455722503033","-1,24183621493807","-12,348254433025","-18,1719650352412"
"0","2,99184543234177","51,8721188926904","-41,4279356789012","-1,34490505282792","-10,774261435124","-18,6296245616374"
"0","12,5707929042125","55,2996666179083","-37,2299642400521","-2,83533671312795","-8,63134841415849","-18,9282927636265"
"0","9,74803114737199","54,9944620581372","-42,326794396148","-3,89060204674565","-6,91600614104076","-19,2299038719789"
"0","10,8207371008307","55,6726376184719","-44,5994274280905","-1,07944548894011","-7,92167412730688","-19,5568110605519"
"0","5,99001222807506","41,7191541889068","-40,4079700462994","0,588460889790633","-8,43899639545286","-19,8855245159029"
"0","3,70420821699117","32,7494922596436","-38,1363452104996","-2,38684933426943","-5,57389698745063","-20,0792400081485"
"0","0,750783233244566","37,3769461709641","-38,9530611200547","-4,08318245287622","-3,32692717802446","-20,276581675979"
"0","-1,69100823106024","38,1576208333676","-38,919622607233","-5,44318400202297","-1,33249093132338","-20,4770492570538"
"0","4,02803016196893","33,5514043385837","-37,4903803706606","-6,71474071182651","0,558774070302968","-20,6802115045565"
"0","6,85618793577799","30,2201009806275","-36,4474345074811","-5,01008677184132","-0,0747812819104601","-20,9312150124827"
"0","3,27147245970491","20,6218302323346","-39,2438928373841","-4,22278113729559","-0,179838572657193","-21,1834596644399"
"0","1,69372506423307","13,2717907242688","-40,7482347660562","-8,71409919876368","-1,75592342175382","-21,7326434866059"
"0","12,3967002988005","22,3361290619908","-35,8961154580155","-11,6935326414216","-2,87298876269661","-22,2778011476431"
"0","18,8809451867794","26,255309306468","-33,1064759199861","-9,2727382734299","-4,66190999242527","-23,1836348639799"
"0","28,205641392893","23,6707089390849","-26,9927012212093","-8,31185038910131","-6,18531437523992","-24,0803862487366"
"0","36,0564839213003","22,5587253050022","-22,2794653192339","-4,33029253198955","-6,86817381675418","-24,8782715950939"
"0","42,286225109712","19,1448471771962","-20,7242589899341","-1,51439154830012","-7,6676330892001","-25,6709303296664"
"0","48,9442698683164","16,6903796074569","-18,2335620917561","0,99497759520355","-8,51472860295554","-26,4590835088355"
"0","48,6345369788897","13,9669819645707","-17,657725779232","3,42373830994056","-9,3812856499565","-27,243352713007"
"0","50,8850782111365","11,4604273183735","-16,3048125202029","-0,0746032728966732","-8,31421811980123","-27,8649595571647"
"0","60,1357066826834","15,9595062004995","-14,179929966272","-1,73159012748555","-7,67717854403133","-28,4863447232485"
"0","67,1322733426691","18,1638262219525","-12,2326104036957","-0,298811206749082","-7,78874851689334","-29,0847796203809"
"0","69,2122821521095","14,6043750963092","-8,31832275085533","0,446480907576419","-7,84615894269847","-29,6834304370146"
"0","72,8269623191345","12,6513285576985","-5,1101476354004","0,628838396542585","-7,56315171054969","-30,259508211895"
"0","63,9380240089391","9,38099045219","-11,6427061644164","0,883161424811031","-7,34106865324115","-30,8361270917145"
"0","59,7249588604844","6,76129241947618","-14,8649001461216","-0,511140408161329","-5,58424963603786","-31,2538982133387"
"0","56,4470993394299","5,45939625047149","-17,4263221433242","-1,37897978036544","-4,18042239808705","-31,6747360013354"
"0","53,3290560013643","3,80697984955495","-19,8287051589661","-2,07363513107575","-3,07995360713824","-32,120976555796"
"0","62,6427382517679","8,53271103101356","-14,896132879179","-2,7427484204731","-2,00342029764939","-32,5691153449864"
"0","67,4867241720702","11,0963211341712","-12,5001466260576","-1,1470048777206","-2,1461717405965","-33,0644088375557"
"0","66,4819791062217","3,09078599506125","-15,1476503881153","-0,255673775416529","-2,02705548980813","-33,5603516336042"
"0","67,1126722857754","-1,6968647856677","-16,3364002860082","-3,05838368230684","-1,19620156498284","-33,9885766362256"
"0","62,3454058977041","5,74469451777501","-16,7171179721429","-4,81251254968887","-0,454570995641147","-34,4184261017589"
"0","59,7002495986434","9,55822813312102","-17,2078103266563","-3,78957254284107","-1,27718925553509","-34,872435094759"
"0","61,1870354851341","12,837464252553","-19,9765154985596","-3,47634899222544","-1,77887306211284","-35,3272705990834"
"0","61,4082884389395","15,8112230375849","-21,9645578541516","-0,744212781342014","-0,844447445727727","-35,4869493375829"
"0","61,3862116963283","18,7132418613907","-23,7883339189991","1,12402292494739","-0,143306956152027","-35,652190743467"
"0","61,3173488609741","21,5984128819156","-25,5775452348779","2,76507941799791","0,462526134555101","-35,8222273985726"
"0","69,9527272224423","13,0061226797599","-19,5211186997449","4,3463947780668","1,029421893923","-35,9963977567216"
"0","75,4417091016513","8,218402963308","-16,1938208775684","2,5074196672583","-0,520311001062036","-36,3789640973596"
"0","75,1556242439283","10,8552411493418","-16,3756964322746","1,72901355242746","-1,61478128490715","-36,7611763890708"
"0","76,6191413873947","11,5357029567227","-15,6559687469594","2,61912905459519","-1,12277577189426","-36,9154917430869"
"0","79,2506160950959","7,87337866242299","-15,9992333062013","3,14801432967784","-0,862624002690728","-37,0733505165593"
"0","81,6466592452236","5,39117082370196","-15,8661716327282","2,74813239536995","-0,538049317032284","-37,1659863442066"
"0","83,2020356878373","2,62125850493946","-12,0537198728146","2,58401330320718","-0,287154991202947","-37,2623972965247"
"0","85,0357733698597","0,103780098881771","-9,4670545227652","1,1964897722317","0,251928677970008","-37,3393033890677"
"0","85,6576249580652","-5,81411827540463","-8,24785814453396","0,227248570755427","0,708750571912698","-37,4193954862398"
"0","86,7464617683195","-10,5705897980153","-6,69640322268493","-0,736219115433042","1,10013574844741","-37,3429198380779"
"0","78,0187521160522","-12,2300582278022","-12,6986498409394","-1,63816854500083","1,48478710181924","-37,2714763216205"
"0","72,8835710208131","-14,7622095810767","-16,0303387990342","-2,10705317349813","3,45814270157427","-37,0450564976788"
"0","72,1630560689039","-13,898391258256","-16,3304699021923","-2,70205510339128","5,08055497873138","-36,825040690651"
"0","70,2313687884779","-14,2770449179577","-17,3727036268624","-1,59319118436476","4,14057914901253","-36,3829536780315"
"0","70,1637655631189","-20,5959820348628","-14,7413865089523","-1,03626304849408","3,67375327489446","-35,9494321067511"
"0","69,2945781446498","-25,1099676771502","-13,4770844887723","-2,08358289975048","3,59120493847968","-35,3412209136545"
"0","65,9573778804023","-20,4802051925754","-17,7260049352604","-2,71277053973663","3,54565114802256","-34,7424200456563"
"0","63,4256417103676","-18,6430750894779","-20,2150121512557","-2,32874626929439","2,87862915710449","-34,0606945737202"
"0","63,9411365560151","-16,0849614359184","-21,5104929225413","-2,19827848662898","2,35770963540274","-33,3874846654534"
"0","63,442536184388","-14,1375280779807","-23,0148330504126","-1,5091571546596","1,96013771366523","-32,6305788319113"
"0","69,9436987128728","-16,4639718606058","-20,5544597202536","-1,03312715308175","1,57295879841748","-31,8815236511627"
"0","73,8107370676451","-17,4541162318578","-19,4998353408479","0,950194126419104","0,648931083964297","-31,0254401911908"
"0","79,5574982222491","-15,6945234873918","-15,0902620169692","2,42988656766771","-0,154423354561566","-30,1770939304529"
"0","84,3456821153825","-14,6691675001263","-12,0147436842709","2,52647795738554","-0,749331836066193","-29,3126582819879"
"0","77,5970398398936","-14,8753364041449","-15,9487604237925","2,97935638820852","-1,35908082952256","-28,4543529162381"
"0","74,9101602220827","-14,7707233220739","-17,5977165380341","2,76163377475454","0,571435667210476","-27,1916669883941"
"0","67,0749142587703","-10,1096319415287","-22,7387222913366","2,80756374996572","1,93976413085618","-25,9403883007223"
"0","61,5297687934089","-6,91847237702948","-26,3945216447939","2,95756684829954","3,17390097992394","-24,6761839523152"
"0","57,7988226175619","-5,41403706739653","-29,0935561904972","3,11493797119706","4,29321455795716","-23,4208371500647"
"0","53,6567006808597","-3,54572126980877","-31,9512692401579","2,85735926237437","5,04732663597561","-22,1048483988674"
"0","59,9203281061504","-2,8981641653012","-29,8673360879625","2,73066153370795","5,85223758186298","-20,7965837810081"
"0","62,3847156601146","-1,79729668207153","-29,5235866734961","2,77734393502092","4,95913039609363","-19,6315327250988"
"0","52,9468626483759","-2,88467223875816","-32,6240843009802","2,78961996813583","4,45230692599344","-18,4699376794052"
"0","47,4005124282847","-3,18594671087638","-34,7293169538398","2,06329524507205","5,12182901619154","-17,2202851642197"
"0","43,2893346088392","-2,13760691738864","-37,519917442941","1,56274128172653","5,63194083388744","-15,974723470426"
"0","39,0741038276216","-1,43231635806075","-39,9547323481802","1,57318608289656","6,58619213236392","-14,5961331940375"
"0","49,372979434625","-2,00789444542316","-34,1541938552608","1,45800781366828","7,40189425553279","-13,2228667806393"
"0","54,4225474131882","-2,20427870300404","-31,1807805187847","1,0666102339272","5,45551881549806","-12,2183365298201"
"0","60,4874600299007","-2,17039865181124","-28,8738312763115","0,742575486699828","4,0807112648417","-11,2116720930649"
"0","65,6275975168462","-2,16244207603554","-26,6671187433995","1,02684556522513","2,93941473804909","-10,2942045929691"
"0","53,9950041373269","-7,35012789548251","-33,3220280487627","1,13108106915421","1,89351789916619","-9,37362853928041"
"0","48,3174425215781","-10,8179866770596","-36,9015909778664","0,771085632242672","2,60536783499655","-8,40485443732367"
"0","53,5465993539168","-0,431474216863346","-31,6377616209061","0,529011762293427","2,95533587487736","-7,4345316254659"
"0","55,4728398893576","5,5886742541693","-29,0931144843894","3,47934371080113","2,13892758823377","-6,6677063212533"
"0","55,4986060270458","-1,94919530317607","-30,4492556132762","5,44918002158158","1,48600245157368","-5,89630428031712"
"0","55,8589594233435","-5,57110366840988","-30,7661967161715","4,83355490218894","2,39583548229066","-5,09819772985468"
"0","59,0313881919677","-7,10836437120789","-25,6746854926094","4,87803309279236","3,00412505771059","-4,29707078833435"
"0","61,2245073124398","-8,81605506133322","-22,3451331278876","1,89996141794311","2,3752019370499","-3,69817270446921"
"0","62,7954760489933","-8,97513136059727","-20,4958706066233","-0,0329477373305094","1,94082214401872","-3,09360425514875"
"0","64,4868211391491","-9,67052262059996","-18,3380891969618","-1,65627073841078","1,49043467483395","-2,55242523628356"
"0","53,7280054968037","-4,91397662078611","-26,0296682793423","-3,21818212025332","1,09350735462227","-2,00589052670931"
"0","47,4753415766834","-2,03706797673513","-30,2537399672736","-0,525588954508724","2,05524335798762","-1,29542477734367"
"0","48,4522894738397","-2,28461852835113","-29,0952716149952","0,845807812694982","2,73205404219211","-0,583643695494217"
"0","47,2993072801006","-1,74593409723181","-29,4042145589702","-0,978959896250981","2,27392860036794","-0,052802128981828"
"0","49,4968629344929","-1,12851523310153","-26,4785583475533","-2,00422037862691","1,99213103536493","0,482062096071263"
"0","50,2586415374637","-0,432605945835702","-24,8522810098322","-0,734798119983303","1,5913966497353","0,838320632757196"
"0","47,815841513512","-2,43660155125604","-27,4364958734903","-0,0619450067846749","1,26207125807518","1,20061368330197"
"0","46,3768827754783","-3,53465752876964","-28,7066783042955","-0,622930300815797","1,21655248167856","1,52259038765613"
"0","45,8540273114023","-3,21965261331282","-28,053948823805","-0,888377077538268","1,12698138978459","1,84981273509466"
"0","45,1073151350916","-3,25279678043502","-27,9166021379125","-1,04136571440978","1,05124206477155","1,86292861766433"
"0","48,5837932329069","-4,10906708671916","-25,2391219083641","-1,18478132568657","0,961153634614966","1,885271743746"
"0","50,5122830775298","-4,73864481930952","-23,5071493134898","-0,561385968434221","0,38776635958814","1,61969988239767"
"0","47,9492110853397","-1,64346336334854","-25,732249587231","-0,176342954296587","-0,0830700902349874","1,36593340075341"
"0","46,8425263415885","0,246460830198652","-26,6899931850193","1,25772045837744","0,092743073958342","0,826474391645446"
"0","46,7028034046972","1,85333584288603","-27,4168524757732","2,32764391227582","0,15274150162809","0,300736614599141"
"0","46,3690025539347","3,39373804409666","-28,0751293210523","2,88492238215556","0,260911752979869","-0,41800545283167"
"0","47,1186752892595","4,70671086183683","-26,7146443988908","3,54739101742948","0,328762346909344","-1,12312519651707"
"0","47,4566723533858","6,08627292429489","-26,0493736402509","3,26478416961811","0,475627877902863","-1,81650193404737"
"0","44,8231538691637","6,10465261657766","-26,3535964111668","3,29365159047895","0,594774541544373","-2,49975571486805"
"0","43,2182887549157","6,58336482632867","-26,4018190430643","2,77909605378382","0,638938596666635","-3,26531978172089"
"0","40,6181086024385","8,54700458316873","-26,4319660011443","2,4816370238079","0,692468905539878","-4,02183871747639"
"0","38,4865547607936","10,0793728139596","-26,4383094939783","2,03282398810424","1,09994591670187","-4,63400533660918"
"0","37,8912862127961","8,40378687750801","-26,8333521049593","1,66420951258324","1,43202597219257","-5,24173429192731"
"0","36,7914061327377","7,73482750984773","-27,0901843964779","1,03875985712337","1,5104992581398","-5,6863235845842"
"0","36,7152919463869","7,47878526423672","-27,4611010903385","0,505770463232625","1,62536284606973","-6,13027974455548"
"0","36,216021822868","7,21971472483637","-27,7760233102892","-0,280829660953603","1,05485316031161","-6,55093094469236"
"0","36,3223253029126","5,37129390696425","-28,7234123881822","-0,974121592669847","0,644337865697804","-6,97149230612807"
"0","36,1650651374031","4,04962141208519","-29,443884511152","-1,01754525215999","0,235529216805311","-7,46025374275541"
"0","35,5594287942583","1,22771117419795","-29,3649849757794","-1,2500735805233","-0,132582191046943","-7,94780646328719"
"0","35,0875811512203","-1,02652306744846","-29,5378824537926","-1,11544321474688","-0,165775894528983","-8,50259474044718"
"0","32,9783501907368","-4,27714009960762","-27,8668069502526","-1,12426142571637","-0,262140749660838","-9,05534284664101"
"0","31,4742921915716","-7,12175309385097","-26,8677244921298","-1,7266520524701","-0,256997417980207","-9,87944232059261"
"0","30,4119841057671","-7,29389224122447","-27,5848734182046","-2,16513393475742","-0,290383455997171","-10,697457890016"
"0","29,2546132582863","-8,29841307272835","-27,7831500394265","-1,48355376365578","-0,148535825570692","-11,5329880555428"
"0","29,7420717382271","-7,23901712563423","-28,373328747497","-1,12743178511855","-0,0550974111025607","-12,3636165268867"
"0","29,6257889346038","-6,97491971955447","-28,765971101583","0,49798875138943","-0,267898281094547","-13,1900195352306"
"0","30,2249758205396","-7,3212316477043","-27,6138000149159","1,6771956975958","-0,425811583381077","-14,0127800198065"
"0","30,5017292745664","-7,57089542896543","-26,9765708256946","3,26017146272124","-0,465813542713809","-14,6958454585976"
"0","28,6918344319532","-7,93907419716211","-26,3761119567287","4,6493259858456","-0,517643449469835","-15,3784879935472"
"0","27,6007303569006","-8,25508567047318","-25,8233902618559","4,70210869285243","-0,860767557820765","-15,9469701014618"
"0","25,527041590942","-4,21656569235383","-27,1776692333451","5,14346679000459","-1,14289836428061","-16,5170412023855"
"0","23,8844268568267","-1,61540382789795","-27,8732173819558","5,51330516023317","-1,01816140600186","-16,9746862145225"
"0","27,4224826058101","-5,31802136077149","-24,7436191924177","5,96433604602673","-0,967200784555824","-17,4354152909282"
"0","29,1366491183526","-7,12105278566474","-22,8691375277171","4,97761217859897","-1,55113411281142","-17,4208603191564"
"0","26,7400591967766","-8,08964105981088","-24,7663349856123","4,45280311278278","-2,01444999035783","-17,4165908517166"
"0","25,633075687391","-9,0822641590034","-25,4971654005312","3,49361354655636","-2,17385539913606","-17,1253186614174"
"0","25,6056043259787","-7,39749680727519","-26,9847353850976","2,74019529334022","-2,36909980089525","-16,8466382605911"
"0","25,3256956098836","-6,60395649760002","-28,0715377547198","2,70096026397512","-2,54715692650546","-16,5560533294907"
"0","27,5642198580519","-8,94987335877129","-25,7095987266031","2,46953341626994","-2,7381922817791","-16,2752062012136"
"0","28,8669745144636","-10,3730774433963","-24,5019789752512","2,36126912368269","-2,83904250497159","-15,8889575950451"
"0","30,098268082661","-10,6970093569491","-23,8235828938335","2,18539278806894","-2,96304807170085","-15,5118485581037"
"0","31,2558215067249","-11,2627822058215","-23,0965455289039","2,61706766120014","-3,35114648123175","-15,1426182076254"
"0","32,2545785413692","-9,55534628770437","-22,7529809331887","2,84850978168336","-3,68713861828603","-14,7801796105484"
"0","33,3028030815745","-8,63405763997901","-22,2701062948843","2,85359377670393","-3,84269748321019","-14,4463549589326"
"0","31,2512510800769","-6,0263282736841","-25,3728717923051","2,89915255952775","-4,02454129363749","-14,1171967110785"
"0","30,3236911317525","-4,08254598255242","-27,2101241087901","2,85113311560221","-3,61237065953055","-13,8375794427324"
"0","30,8776540382799","-4,27166173831138","-25,6314258482687","2,83850548147864","-3,3375185807331","-13,5606685465269"
"0","31,0164759928768","-3,84167888986098","-25,0939466762867","3,63421897683583","-2,73681799261673","-13,1950539618222"
"0","31,6177945872418","-1,00690572530246","-25,3124340852145","4,18250128173478","-2,2429937275942","-12,8329731310131"
"0","32,008039486124","1,11262149661872","-25,3899912276793","4,24882941252137","-1,88832053526841","-12,3601426756893"
"0","28,8868673148822","1,54614354988451","-26,0821431233791","4,42841844602789","-1,53049677423678","-11,8918414661344"
"0","27,0105392250567","2,44371496522793","-26,5436174337188","3,66505435168121","-1,04406943997846","-11,1543345741892"
"0","26,8920523236214","-2,79838085612419","-24,7374723592922","3,21372264003639","-0,585101799284511","-10,424761256252"
"0","26,2715534363042","-5,9423495757305","-23,6941770768973","1,69800549369237","-0,45564373328454","-9,42891692758638"
"0","24,3614316134789","-3,43933140372152","-24,4578144045701","0,562387775057856","-0,26080505299461","-8,44353598120774"
"0","22,8633482012835","-2,53014406945694","-24,681664688822","-0,125869343514206","-0,198401001577786","-7,42165655629336"
"0","22,2037339785698","-1,74813901376263","-25,6867240210545","-0,896484408845398","-0,0901024140224969","-6,40831393419561"
"0","21,2853359897935","-1,13600213716322","-26,3561645815542","-0,0212074958744452","-0,249515814143265","-5,56164460201907"
"0","20,3171804849486","-0,563758029059279","-26,9549845750372","0,326888292324043","-0,338301524193526","-4,71865453529073"
"0","19,3394578791876","-0,000882556015260008","-27,5389446592845","1,54382956041149","-0,398232666784735","-3,90159532075181"
"0","17,9621961513128","-4,94748946879832","-27,5829036368744","2,40925041787028","-0,446375429175235","-3,08688957266684"
"0","16,7281132433805","-8,06797323667433","-27,8132361204963","1,30623896060522","-0,839822280570359","-2,50180434283224"
"0","19,2454745248629","-4,96989336485148","-27,8322437915526","0,765590458107593","-1,15434128256426","-1,9146614912254"
"0","20,424142816347","-3,69141213372362","-27,9467847064408","0,407566700819355","-1,40478562483098","-1,66713248392568"
"0","20,5138608632522","-3,75813572663351","-26,363429873125","0,0775676242831188","-1,64905260536227","-1,41236464855193"
"0","20,8542015596497","-3,62077454810631","-25,3828055108898","1,24878467453945","-1,95445407014547","-1,19687499073429"
"0","23,0143015995709","-2,55290771378321","-22,5962596150959","1,95477530899057","-2,24483170359792","-0,975244745556022"
"0","24,5442949351736","-1,76651586254299","-20,5097135124328","2,53842573116199","-2,49724232431659","-0,975912793133384"
"0","24,9769630503568","1,91923251899789","-19,9663338460767","3,08990444718741","-2,75414172374156","-0,968211157893645"
"0","25,7386435208421","4,60588158167517","-18,9676657212428","3,21603560065841","-2,66275482076183","-0,88501699023437"
"0","27,2866748783036","7,2344121732263","-21,380775009317","3,4703134514628","-2,64907739974636","-0,796745139102283"
"0","28,5859014497835","9,74929390643153","-22,5517870958267","4,41836164405173","-2,34885671182463","-0,453745208753977"
"0","27,9934091860267","9,55445080250881","-22,1729400102109","5,16885005930168","-2,1315702949143","-0,111159144789895"
"0","28,0571876521776","10,2432411572483","-22,1879731042809","4,58198353883616","-1,75719159602231","0,16279262937803"
"0","25,3909439274867","13,2930373611426","-23,1806765716628","4,3834338783547","-1,43863368012335","0,437578808703895"
"0","23,7797865843896","15,6773050396747","-23,8791004633293","2,58470938993836","-0,792760879390071","0,622047586612448"
"0","21,6845597402515","17,6934578276729","-24,1934777607192","1,34518822815305","-0,233165321826211","0,808659031177637"
"0","19,8762586807447","19,743160509559","-24,6070443570014","0,634867089359139","0,386669445365732","1,01987671625772"
"0","18,1231261295124","21,800742231281","-25,0414822665703","-0,156290749691498","0,971114621536907","1,23230599777473"
"0","16,3806010749507","23,8601743096371","-25,4803118970525","-0,100190743519099","1,54110156835869","1,37750220563684"
"0","17,0624677577364","20,6951834597263","-26,0632321089027","-0,321288030710128","2,10518168241157","1,52474072489073"
"0","16,8704831200287","19,26326067053","-26,5964717170888","-1,72697938513883","1,80746272173758","1,55994393454186"
"0","13,0034916735837","19,8269801226536","-27,4413821618622","-2,80418247821269","1,69766032872946","1,59856807627157"
"0","10,3698901753551","19,959367069519","-28,1718740730378","-3,30863465262481","2,01475041993428","1,32151277681996"
"0","11,5888891220833","20,8024286355261","-26,2655018935486","-3,9424709836713","2,28624516703521","1,05232875027911"
"0","11,5486448460344","21,3523889003247","-25,2642834035644","-4,12396273350975","1,6160680964481","0,471301660311668"
"0","9,42240020186816","23,5633671206285","-27,6747722459391","-4,46650179663805","1,14117600883803","-0,0985470405415447"
"0","7,91507090538743","25,1844278456066","-29,0031491404701","-4,71242887574195","0,873382988392773","-0,658759507913165"
"0","4,39362713596483","28,0084665926254","-32,3587011762502","-5,01294997996403","0,610199191302384","-1,21066514370441"
"0","1,66492053790205","30,3550192512791","-34,8808093822292","-4,77197777038179","0,34889846791997","-1,93748333361386"
"0","-0,0798091909680315","35,2018652139976","-37,7644194686635","-4,70860950436711","0,0883670642941964","-2,65508337528404"
"0","-2,0953452713145","39,1558936760005","-40,4240964200219","-5,24779546317738","-0,108191825271107","-3,3192186455575"
"0","4,00796881099627","3,43139221354666","-28,9705469406728","-5,62543461654138","-0,318615084170302","-3,97726507288995"
"0","7,1523306497953","-19,2514313557961","-22,4073064400905","-5,89111070530923","-1,01213915170063","-4,81213605222959"
"0","-7,26485835318045","-27,4332747455285","-30,3665205990836","-6,16734395801955","-1,60303148737413","-5,63943710454378"
"0","-15,6586855490988","-38,6896289592132","-33,8415351748383","-12,8038861955644","-3,29784200050576","-6,2326208339696"
"0","-9,3364325972199","6,87602037672498","-46,9315168372161","-17,4529937151609","-4,72365241875873","-6,82398575369167"
"0","-7,68465287261123","33,1860585507136","-56,1446702786898","-19,8771769461432","-4,70274181392556","-7,91448459661498"
"0","-6,93088599552412","54,9740041090314","-64,5420653948076","-22,6962736460776","-4,93078102306202","-8,99525751332501"
"0","-6,34978407872521","75,6999568044528","-72,7678094581913","-8,83950276509785","-7,64771032684215","-10,3635155323632"
"0","-8,00730635361868","71,2172199353096","-68,9314505721237","-0,257492545835329","-9,8814624526963","-11,71959759297"
"0","-8,87525894832949","74,9543370904356","-69,2769960208269","8,70918958060696","-8,86222090715688","-13,4520894200135"
"0","-16,0269002606658","88,4591357544841","-78,3766499973016","16,7570285656962","-8,43398608374879","-15,1690620248393"
"0","-20,8267346026305","99,8178299512281","-84,9183347540136","2,15554262779351","-9,23390621073926","-17,2368031912337"
"0","-16,8226845975813","88,1138461005072","-88,3447775431824","-5,50201786850443","-9,91558251623517","-19,2869213569201"
"0","-15,7458722391264","83,7736973086227","-92,5557142264012","-5,67081948689456","-9,27578668557133","-21,0032193415001"
"0","-12,9903133646796","65,6295515906329","-93,6746859156474","-7,13030827241587","-8,89611043605176","-22,7117505313176"
"0","-11,1519743637372","53,0436000405004","-95,9630494164931","-2,64115646930302","-8,90916661564902","-23,4577011448872"
"0","-9,48999334416594","41,7629650856987","-98,4974751753391","-0,207695487551671","-8,9026715421612","-24,2138675129102"
"0","-7,86192146513086","30,7888777905487","-101,083677108955","-11,4120301804916","-10,1931822656449","-24,7284893773725"
"0","-11,7358550058349","30,1599813145606","-101,676443015891","-18,6626849128497","-11,1935778151245","-25,2548898953848"
"0","-13,6276838204504","26,1406058035304","-102,969752103445","-20,3573635266771","-11,2478915886445","-24,7900404749398"
"0","-9,20906478406544","29,0916717591147","-100,043891152955","-23,190991618286","-11,4356886801246","-24,3506926336592"
"0","-6,85710761938859","29,2797141585538","-98,6702366535867","-12,8100286018968","-12,1554562660357","-23,8195323412983"
"0","-4,86636229729041","8,6255049718497","-101,846607041803","-6,73403530687689","-12,7925575705273","-23,3092259209857"
"0","-2,96506879720856","-5,48341211059207","-103,620389126159","-5,40314049031954","-12,5683292417308","-23,1355248264248"
"0","-2,09330088722326","-8,80578728499812","-102,844167921914","-3,2400603623122","-12,5122092684052","-22,9719914364363"
"0","-0,859484482742967","-14,8349922005791","-102,791377570461","-15,1712750397221","-12,9067183457433","-23,7048307863292"
"0","0,443944610572371","-21,4998837573939","-102,890810817104","-22,568854961769","-13,2453295270635","-24,4303804900818"
"0","1,76075844797732","-28,3140634277891","-103,022274801346","-27,1761602905144","-12,4789143064544","-25,6503480298871"
"0","-3,02996640106531","-20,0182766695148","-100,082399344952","-31,9697093782855","-11,9410464215053","-26,8565241814149"
"0","-5,615015122717","-16,7539830871549","-98,2162557085079","-24,6182785278315","-11,4965503360276","-28,3921991855003"
"0","-5,64285249233367","-20,4610197030725","-103,483828302178","-21,0930921783404","-11,0902008030412","-29,9119158205146"
"0","-6,35900335906089","-22,5252414774299","-106,392470345885","-12,9113697833051","-10,1901701408657","-31,053728909125"
"0","-7,64135347381545","-24,3801711208228","-108,267874277982","-6,76512189069257","-9,40844867680727","-32,1897735198752"
"0","-8,79256925897293","-26,0859494601104","-110,225865277756","-6,99056460497938","-9,78908052677512","-33,4574005039977"
"0","-11,7624512805269","-24,3323004623677","-109,69582076876","-5,53156561721774","-9,94458564638185","-34,718456933"
"0","-14,0620164211493","-23,7062207043826","-110,042246310948","-9,39655266427669","-9,43519252357591","-35,4503882862551"
"0","-16,232696726832","-23,3449454488295","-110,573097806631","-11,3415839898765","-9,01415875713644","-36,1861919525274"
"0","-18,3785957668924","-23,0458583250877","-111,1427560274","-11,2183983887498","-8,59739462991318","-36,6977419797996"
"0","-21,6405198193672","-19,8312192434338","-107,282419045615","-11,4513354641091","-8,20237484110262","-37,2159761006008"
"0","-24,4970270094675","-17,5918760582026","-104,969926894229","-9,45030054055377","-7,94355501132422","-36,9661602945052"
"0","-23,3347412633997","-22,9599227044178","-111,966827317099","-8,20179981692965","-7,66037895103466","-36,73425370364"
"0","-23,5797441639866","-25,934530218111","-115,90260083512","-6,94274870238702","-8,41761278947472","-36,1991571705517"
"0","-17,6236754345818","-29,2649298156505","-114,684510969842","-5,80092316012327","-8,93990056324793","-35,6826983747368"
"0","-14,0552988337563","-32,1588855642539","-114,901950314756","-6,98280500460085","-9,71632253990878","-34,7498817863714"
"0","-12,1391133520164","-32,6203404523368","-107,833628852175","-7,4557502911184","-10,3765696946769","-33,838147570439"
"0","-9,88060207143386","-33,8305335878606","-103,472244871317","-8,92344806036037","-10,8938669244766","-32,9673464042843"
"0","-7,55627027322072","-35,2165644919884","-99,6804519739714","-9,9727350811319","-11,412762722074","-32,1118312190292"
"0","-5,21928286869392","-36,6438900955298","-96,0085118639938","-9,00125907316476","-12,0914571374554","-31,2467340078757"
"0","-0,746746009540483","-40,7992515824381","-91,2880424591561","-8,5983846546517","-12,7354364289543","-30,3933766943194"
"0","2,95640252715664","-44,055279876528","-86,9469425664754","-6,92066966701859","-12,4421889589185","-29,7777313906523"
"0","-1,04467532278771","-15,0448971870261","-101,297311606647","-5,72771089152147","-12,3460424759299","-29,1670036654722"
"0","-2,34707935506034","3,38310522152296","-109,180720886488","-5,80866839962387","-11,8211548532977","-28,7881068291039"
"0","9,70425387535256","11,0649604930691","-100,635086944521","-5,56462663697849","-11,441107316417","-28,4090578017544"
"0","17,2231700980627","20,9031320338605","-97,0524701232104","0,14967544030218","-9,65609453795393","-28,3712651788159"
"0","5,2148908761729","-21,7422350397877","-85,530469801861","4,20248742454809","-8,21709067610147","-28,3276496825091"
"0","-0,227969847849661","-46,693122213344","-77,3578723275535","6,56771652457243","-7,68334546916593","-27,8238311628965"
"0","-4,40846809305197","-67,4885413406583","-69,8900528577787","9,20916332573929","-7,03943887510466","-27,3232986144384"
"0","-8,34624623923077","-87,3080677160615","-62,5705320723835","-2,45936826145038","-3,54956507900417","-26,3931744164609"
"0","-3,81335461580551","-80,8447289232778","-62,9058311994341","-9,61098322970616","-0,656986506129695","-25,4727244591804"
"0","-2,31176930117099","-82,9689789046906","-60,591849893322","-16,4433037140328","-1,76426426380995","-24,128189804789"
"0","3,34321398758276","-92,4054486709071","-56,2529532239972","-22,691659587545","-2,14566206989177","-22,7980766117037"
"0","7,17678974440835","-100,559159962979","-52,3079758847126","-7,80311853970288","-1,46660692836702","-21,2072852349214"
"0","0,609201453097009","-87,8652222736119","-50,3428425155713","0,563775104728414","-0,834309370400258","-19,6317784885099"
"0","-2,3982653280147","-81,915309134795","-47,7343059388391","0,719181193296031","-1,81256968877637","-18,1377252451425"
"0","-2,55194095462492","-65,5108454082527","-42,4491800841598","2,45521907621741","-2,44881486894323","-16,6538882883265"
"0","-3,35690534873687","-53,4711780729914","-38,0208489847212","-2,58439314945626","-2,53155320022746","-15,7023191784497"
"0","-4,28709595702516","-42,4565632984569","-33,7728037826407","-5,26579257477512","-2,64815924976514","-14,7495869542317"
"0","-5,24136437150239","-31,6826774510154","-29,5626941591657","4,3457923666688","-1,60092484322159","-13,7048153842193"
"0","-0,451695205011624","-30,0735231882441","-28,2238964990055","10,4700534113771","-0,81820960305534","-12,6607020936331"
"0","2,26238661777134","-25,4566644135295","-25,8892774367358","11,9947504027584","-1,76684668297736","-12,5275231986632"
"0","-2,97890669385325","-29,4887790569701","-30,8255672002532","14,4299037750307","-2,4028185527743","-12,3796074067109"
"0","-5,56981568464254","-30,2520657311722","-33,1117943428779","4,04200740681887","-2,21081237431088","-12,2872653202672"
"0","-8,3019045720849","-15,4909909780366","-30,1516957388154","-2,19795592497849","-2,12054016414951","-12,1828300651429"
"0","-10,7011387518428","-5,44409062200928","-28,707670506714","-4,1162633665525","-2,4537801014909","-11,9769333055838"
"0","-9,49323145924457","-6,17733960974454","-28,1553218399173","-6,75810847269642","-2,72004367612875","-11,7635725352323"
"0","-9,55176288765425","-3,96225759168897","-27,4705988661421","3,43750940822516","-2,51333692576528","-10,6106513742194"
"0","-9,8537981724662","-1,054773459896","-26,7580218227955","9,50898449246604","-2,39340066251166","-9,4677903191883"
"0","-10,2026530365434","2,01531815598423","-26,0395837539268","13,2452749134381","-3,00915435884695","-8,10600975846848"
"0","-7,41506772000126","0,392983197861025","-29,6506984289594","17,0874837222942","-3,48547027867721","-6,75551153468157"
"0","-5,76442497423899","0,348653222212307","-31,75283327168","10,8827670873957","-4,12762337986336","-5,39197997840418"
"0","-5,56164062722398","3,39324854367107","-26,0570015125366","7,83601863790239","-4,69752838022497","-4,03721315077971"
"0","-4,95724251222404","5,62326390809426","-22,900329403022","1,93721319050709","-5,39706233433016","-3,05414865416545"
"0","-3,19098900836986","5,47318723278253","-19,239987754212","-2,59159536656382","-6,04955550863223","-2,07150693141123"
"0","-1,80134035473487","6,00415677786965","-16,0536644635813","-1,20163835337522","-5,8552736590156","-0,679564538006644"
"0","2,29979408302375","3,41187945910496","-17,190494797997","-1,45522837083816","-5,83504637318392","0,705211952176764"
"0","5,38227806108116","1,94612183368295","-16,876998803897","1,05511608158788","-6,58616849263461","1,65138684509495"
"0","8,26890154376001","0,744922229495759","-16,2583265911062","2,45229013415209","-7,21242131262216","2,59946903132168"
"0","11,1178660500112","-0,394147127867243","-15,5754395029296","1,95866632373522","-7,43753927478451","3,52643620993093"
"0","15,2249975544043","-2,18938420966586","-19,1024515399233","1,8878209367345","-7,71877572243406","4,45520137917295"
"0","18,8740424739224","-3,7587192941898","-21,1553063495599","0,503787981212374","-7,99110997283179","4,90757385160252"
"0","14,6979438377206","2,06804061625566","-16,8491866934773","-0,405572841425636","-8,27980727784903","5,36927612741413"
"0","13,2972697324407","5,47173976380208","-14,5850179762666","-0,703740891570781","-7,65214553972648","5,54315182664311"
"0","8,95940597381172","7,21199830004123","-15,4348860347724","-1,12118407530614","-7,23011018410925","5,72890911938106"
"0","5,97679557903589","9,18160538192073","-15,4400066039668","0,653406496855947","-6,09635473732891","5,60628041081701"
"0","8,13562471358435","4,42688044307445","-17,7369980266503","1,72443440342137","-5,17182982942182","5,4978102218182"
"0","8,5830215001493","1,93297674326885","-19,1362426271491","3,09681563556865","-4,96936707193033","5,19671270233852"
"0","8,70135350861434","-0,0299833814701701","-20,3465842372315","4,26844350670798","-4,66189896891496","4,90956246162302"
"0","8,75641475541972","-1,86825382485071","-21,5171770685865","2,57328951248617","-4,15238595858447","4,54339865856696"
"0","5,87079531915843","-2,26511782205464","-22,9299473413024","1,74426022216608","-3,66032857504763","4,18912189870237"
"0","4,03975801079947","-3,12347407771695","-24,2536763495479","0,13551716935909","-4,13027578350873","3,82233308813806"
"0","3,78536133019575","5,58283725976719","-21,5142163284121","-1,09826657756876","-4,39324485588767","3,4647583726778"
"0","3,07411241872636","11,0553672360958","-20,1797841265796","0,337358022700384","-3,93507198504193","3,52479170726046"
"0","7,37280842299585","10,8966318167584","-19,0694132364171","0,994954765484394","-3,58228040547789","3,58482044304862"
"0","9,81478901980723","12,1754193569133","-18,0461891038539","3,28920681712152","-4,06826944949153","3,78140025421692"
"0","14,3944318195198","6,69588131744399","-17,1486771649336","4,95384878453168","-4,39693785994356","3,97569273678002"
"0","18,0050925243684","3,64918128447177","-16,217617460345","3,25678600390124","-5,4252323123093","4,23629096740293"
"0","21,429442693247","1,17382218125633","-15,2794986683835","2,51569845914567","-6,25935526624936","4,49404749363957"
"0","24,8179700992516","-1,16736010577012","-14,3398945103016","-1,83020546027874","-6,91866316750201","4,90866856625139"
"0","23,1741327779363","-1,35884611510307","-17,3370559984564","-4,90406501060394","-7,56655130795558","5,31851336192469"
"0","23,3427001062909","-2,24548574061922","-18,9625877851909","-6,08008835570359","-7,47770452135573","5,79251832931239"
"0","24,9443819176579","-7,49644686355669","-14,4296769456914","-7,65703925708238","-7,54786859535631","6,26183201681543"
"0","26,221615082194","-11,3923490205602","-11,8809127546072","-7,18550354366598","-7,26921732980947","6,70434245385264"
"0","27,3280015186133","-15,4995681144605","-12,0045227786193","-7,41527897082094","-7,10805941091357","7,14374738106056"
"0","28,461538487893","-19,3564140289209","-11,4304511180719","-8,55903055987244","-6,54929528649138","7,30736515096537"
"0","26,2379263592655","-20,5773352950783","-16,0067337276487","-9,52312971704619","-6,10809125970169","7,47324299145443"
"0","25,2288201073952","-22,6392216582506","-18,7067487429409","-9,57147041372824","-5,84223221120343","7,2086448137266"
"0","24,4532323508993","-24,8986048457648","-21,0119614034679","-9,87899485267569","-5,56800942179371","6,95295851432243"
"0","23,7225442434915","-27,2043692633249","-23,2341001464989","-8,55238643272243","-5,09939503279366","6,50012206281423"
"0","21,9881629062779","-27,4028406383166","-25,8324663782634","-7,77605142360906","-4,67136298878816","6,05733403087762"
"0","20,6207969674028","-28,3064238362099","-28,2899980227504","-6,3801278081338","-3,49601209542826","5,46389393894929"
"0","17,3355006628267","-23,5505893114951","-24,0248624615898","-5,26127148064303","-2,49534805745623","4,88058554401871"
"0","14,781435279564","-20,7656663004602","-22,085149975913","-3,41624113854988","-1,88434246876829","4,1922152242571"
"0","12,440275967643","-13,8895041393147","-22,2095819713173","-1,84024940630287","-1,23252976886991","3,51327718249618"
"0","10,1000530615372","-8,6325330900972","-21,8883491885145","0,18610270540919","-1,04148213475339","2,93350684741455"
"0","7,25384705896179","-2,3790011506324","-25,6251679830808","2,03088571991245","-0,738677619732288","2,35922317464455"
"0","4,59035341568103","3,3285685768284","-27,8958779408182","4,14058720292152","-0,453873637461656","2,06277931104373"
"0","1,96199069769699","8,90792156442184","-29,8580907402157","6,13995408018325","-0,136423677190453","1,76584484761476"
"0","-0,659617239619952","14,4571634343944","-31,7553898754206","6,72068170539134","-0,919655095926316","1,94643010591358"
"0","-2,48452717957263","9,33780034695652","-34,5696120611215","7,72835092000988","-1,45256404297687","2,1186571028936"
"0","-4,59625242015685","7,75296395661213","-37,056772280063","7,0765211878595","-2,01052149957135","2,89817661191326"
"0","-14,6809626692303","9,25759289681541","-43,5911487416396","7,00829436704798","-2,49871239163091","3,66120736909573"
"0","-21,9186745269875","10,2077687043779","-48,6771364060657","3,44577242174184","-4,07241924432966","4,95624429954695"
"0","-20,5103709326187","13,7460717292318","-47,7316963517722","1,06435852882625","-5,38960787425875","6,22989254213643"
"0","-21,919659145747","16,3521846480068","-48,7171292959785","-0,589572944785345","-6,88845930395605","7,55338037154095"
"0","-0,00872161932960353","0,311163433821171","-35,5058736663267","-2,29219895812258","-8,28152810513299","8,85983198492797"
"0","13,1861003663622","-9,66905233601226","-27,4673649945711","-1,64526822913471","-12,5914868597","9,83296924986688"
"0","24,7050357009215","-18,2259155404864","-20,5173005755452","-1,74047647408761","-16,2331255042183","10,7987757687036"
"0","35,9017407880362","-26,4485108751344","-13,796265509964","-5,43542479528404","-17,5328336109959","11,6672261882255"
"0","38,0340161685785","-8,22119590451186","-25,6634817111526","-8,11699383731201","-19,1757584417215","12,5317516258678"
"0","43,4034329701592","1,27776008184585","-31,0820191937205","-5,84209215887313","-15,8344165298953","13,3928935668885"
"0","35,3673195056508","-35,2960538465719","-23,5829388890183","-4,96379140527525","-13,6767789270547","14,2511187939627"
"0","32,5136645756445","-57,7498480323187","-19,8257463406754","4,26714102057944","-10,0611619462393","14,6744054005689"
"0","28,7041206526807","-75,5107993150867","-17,9654582985329","10,6745582056012","-7,06989523833117","15,1027569378944"
"0","25,7907836632097","-92,9496578073647","-15,8843150095663","1,956862750968","-2,7104190962557","15,3989196151304"
"0","13,3242011471551","-98,9099758635253","-13,3272001404574","-2,4582712759939","1,18803173941209","15,7011300308669"
"0","4,40077324072158","-108,634610957028","-10,9099318064516","-14,2186745908392","4,16606369159555","16,0768313670432"
"0","-1,20211718015467","-99,4382446871105","-12,7812926159268","-23,0306573977389","7,22806340008576","16,455884914428"
"0","-7,62655295679989","-97,0183673893176","-13,1750624899291","-12,6895104582792","9,33766539449348","17,2247341523448"
"0","1,69903356150295","-114,159191021915","-17,8750381285685","-7,89168056319947","11,6781703639043","17,9896033879289"
"0","5,25294754928599","-125,713756213308","-20,901121286818","-1,94602602422306","12,1077758210158","18,7510416969866"
"0","0,646986659948186","-139,769147876454","-17,5262018867312","2,80147102804044","13,0166934369979","19,5095224055591"
"0","-1,62790999183816","-152,251847250888","-16,1843899162097","-2,77140790329928","12,7209508120304","19,6509558614693"
"0","-7,03389897550913","-141,029863814202","-6,53722711207112","-5,29822771534994","12,8130506472506","19,8004690795821"
"0","-11,061917133524","-137,460943540486","-0,0224606738605667","-1,53501046815363","14,4004239223695","19,6155597873675"
"0","-9,25719207924351","-109,706235291944","-9,23508195574088","0,722292709962149","15,7586832153974","19,4423644677042"
"0","-9,41097931139431","-90,9916048490214","-13,3370444665116","17,4873112663835","16,9596809960037","19,415822116315"
"0","-10,7728922258693","-99,8182210810584","-19,5132898152502","29,487411939334","18,136430421406","19,3957006855627"
"0","-11,9070968871021","-100,712773706686","-24,3660036887201","30,2291885473478","17,3935269332838","19,7680202997166"
"0","-18,3845410869552","-114,924846460468","-27,3295984918278","33,770372830366","17,0663594484775","20,1386403163556"
"0","-22,9093539322487","-123,664478185195","-30,7956867453993","19,73941030315","17,2591588676745","20,3484809966633"
"0","-21,8886306190831","-118,974668726005","-25,0258963600461","11,6275146174988","17,4443880023707","20,5597232431472"
"0","-22,6616421815155","-118,01101614547","-22,5327016084499","9,76213432168854","16,1623854486346","21,4777080695536"
"0","-22,0802812169138","-92,1864811647898","-21,9458799188321","6,8393950987823","15,2009531855357","22,3849342134635"
"0","-22,1785089683965","-75,1034811374682","-21,0801953464479","18,3338837375661","15,0707285493325","24,6256771523677"
"0","-25,5890011936591","-74,8300828569149","-27,1709902365337","25,159659064212","14,8400893720164","26,8359666902391"
"0","-27,8763573740508","-70,144343016912","-30,805560592883","25,7550579056022","13,6772113916675","29,3841509102279"
"0","-19,752191257843","-81,5796871024918","-24,3669321049752","27,5920597087044","12,6934722023055","31,9036143132725"
"0","-15,2661550249172","-87,0809943529564","-21,1487111688233","16,1719838744834","10,8598751318977","34,3528008383427"
"0","-17,73436862406","-82,398250396172","-17,319626857376","9,08570511356167","9,25907314037808","36,7814057896639"
"0","-18,0797070476442","-80,3038283786612","-14,0820052841111","3,86863438662133","8,51727689199818","38,7598442811804"
"0","-18,4145703468863","-78,6760496204236","-15,2996247250062","-1,27689222351209","7,64642287517637","40,7302206764563"
"0","-18,5274195469611","-77,2378599071228","-15,0347115339861","2,10784604886201","7,45491243734154","43,035034810849"
"0","-17,3321732412903","-86,6469401806205","-17,0706335630634","2,83578114126587","7,08094420863439","45,3281481005365"
"0","-16,5854135422689","-92,4834524257618","-18,1306950430315","2,34394961779517","6,75975024418084","47,3608238722532"
"0","-7,5731945094236","-106,518554644411","-16,4084202830674","1,83135705916374","6,38011692494288","49,3889917381448"
"0","-1,59173851679834","-117,359058392322","-15,5406891081336","-4,52311854408365","5,78563388017124","50,8215350973768"
"0","0,0830645095008131","-115,163849546502","-10,9156919460753","-9,05382938142567","5,22337512175556","52,2606255113873"
"0","2,98980804259995","-116,867262946202","-7,70009462457564","-9,45718157366536","3,91038287354384","52,4991235729517"
"0","3,49414305781169","-104,870770334211","-2,3472316537995","-10,8751656190376","2,77068244751313","52,7626613995333"
"0","4,99655620577851","-97,9369171674284","2,0953526220098","-4,84754976756145","3,57969674513459","52,9112294988619"
"0","14,4279395077461","-90,5680596369756","7,02643774245986","-1,30197056537231","4,00484808753178","53,0806889409585"
"0","21,1038614847955","-84,0170433121749","11,680312723139","4,40489939459911","5,4826802981199","52,9495291580376"
"0","26,6353518728139","-106,253597025429","9,22490829092072","9,06012222775726","6,63057968340603","52,8392231768835"
"0","32,2867972632379","-119,050780499915","9,21357637935702","4,44097465913379","7,70734497875747","52,4965431286823"
"0","9,47155286791584","-108,131588396463","-3,9200834358674","2,56295344712364","8,71504881967639","52,1735470293712"
"0","-3,05710972510586","-103,822713462928","-12,1949303931325","-3,14525672612335","11,9544045163377","51,9585560008047"
"0","-17,4764576670798","-91,1460728353426","-17,9441427594064","-7,24068857610613","14,6854897195473","51,7566698076717"
"0","-30,1193361661001","-82,1243005307378","-24,0019136155049","-0,142418380461491","16,4131960566072","52,0440231634372"
"0","-34,1051075567428","-93,2716482190657","-10,7255530233109","3,69945054030627","18,2309772899095","52,3331212333507"
"0","-41,0263381123581","-98,2156219130563","-4,22092378629389","6,96291119576157","15,5021668389377","52,9651109183063"
"0","-26,4577313264214","-64,3873942219624","-13,1715105271135","9,91426830000262","13,7958705161827","53,5926873490501"
"0","-19,9571770728957","-42,5936915551768","-17,5341683904327","0,554854862798212","9,77001376664662","54,6033653181436"
"0","-15,9117662436252","-29,9454955991298","-20,6808974981658","-5,00191189356465","6,51651293101496","55,6042926490167"
"0","-11,8384168587104","-15,8650802570226","-23,7117720905865","-0,804064446150696","1,41417477255769","56,7333695664266"
"0","-5,01195282376392","-9,88575347469369","-27,6846424304061","0,918945966765107","-3,08349604932138","57,8529167245679"
"0","0,823864920351239","-1,02893045851159","-31,3157265753273","11,5795605854754","-5,42438686721238","58,8959713164362"
"0","6,14381606411598","-7,62985316429622","-26,8933611593401","19,0704897148448","-8,08413667571625","59,9330861543129"
"0","11,5445792215291","-8,72095707785004","-25,2363969236991","10,9978679331628","-9,79196501684588","60,7830072924176"
"0","4,27064737177673","7,54480129709859","-20,1526642092787","7,31251182342576","-11,7908909010404","61,6315597235598"
"0","1,57969503159653","18,7867397592911","-16,5878742913023","2,24480641291529","-12,922040844834","62,2968588864159"
"0","3,13230218188858","29,8373435366305","-22,8274780898658","-1,72641426920463","-14,3186655395836","62,9641861571303"
"0","3,64083755962779","40,2830132343283","-25,8301126299535","2,89371403283779","-14,8052171320959","64,0201676865564"
"0","8,86563796528552","30,0049148326264","-33,1624541232756","4,99310239145346","-15,5599631948655","65,0711852522389"
"0","12,2772558134796","26,5199338426245","-38,6058482328596","0,419487203415678","-17,1563481277233","66,2089603691401"
"0","7,42240717069389","4,57812983041012","-30,4088725341938","-2,44892230133739","-18,6365801484425","67,3415240813651"
"0","5,35812791750198","-10,3381750395292","-26,7417038329043","-17,7924245037006","-20,1011876204313","68,0599302281495"
"0","6,361219681434","1,21349959031972","-20,0548227840224","-28,9764916890153","-21,5394117660658","68,7813154340833"
"0","6,55408863655282","4,92105870397209","-14,9525368764868","-27,1159836357528","-21,1207689796198","68,9818077265091"
"0","16,750589794716","19,1425448699841","-13,2975508336797","-28,7051542387979","-21,1035130755607","69,1932687960835"
"0","23,2505342107832","28,833178937109","-10,6279421881706","-15,4639848662308","-22,3006021565844","69,391426231672"
"0","21,8449775340821","27,6808067944264","-18,6970733746086","-7,38289304911293","-23,3338054281708","69,5981153848514"
"0","22,8993946840267","29,5220040087147","-22,9058394797428","-6,73835047691044","-22,8359151342809","69,1976615524676"
"0","25,5475918590409","4,0708761511647","-19,6450701045466","-4,54939121284141","-22,6325047005274","68,8138253699244"
"0","27,8822322720293","-11,9297299947571","-18,5325685278139","-15,9547663008491","-22,6767188738753","67,3518739705951"
"0","29,7227295962754","-8,90665280038669","-10,7495709455194","-22,8750324396064","-22,7420987645644","65,9205426898848"
"0","31,7082158112374","-10,9359501833557","-5,54297425056653","-23,6132043831244","-21,6702779704796","64,1969787910849"
"0","23,5621623122908","-1,76038977347919","-10,3990721683071","-25,6056760429006","-20,8538598797746","62,5014982958888"
"0","19,088072204304","3,02658047628822","-12,0525522443688","-15,2824055596572","-19,1869120178806","60,8074676821541"
"0","20,7431835131292","-1,44270990870331","-16,9692188657353","-9,00047437923187","-17,7724847377272","59,134686926171"
"0","20,5767838849484","-3,42579096245742","-20,3725219434629","-5,48358110603449","-17,0023182061141","58,0719629314463"
"0","23,5671416680292","-10,226370005197","-21,882553296404","-1,71380760299506","-16,1553609796817","57,0151330819728"
"0","25,2244633654453","-15,0983165178536","-23,874204302409","-5,93735736440955","-16,1045880862579","55,6447558033043"
"0","24,5285146381206","-6,94943204589485","-21,9227441798081","-7,62290484515185","-15,8590920711195","54,2840876800069"
"0","24,5400920452419","-2,86266469760455","-21,4015785485599","-8,71051716236926","-15,5022138530924","53,1366218095695"
"0","15,8660081778904","11,3553035291207","-21,1455824368585","-9,60089095582718","-15,1198310279661","51,9929450939349"
"0","10,4018932378513","21,6725381574639","-20,9653830308337","-4,04712370279139","-14,7270284311421","51,2394407322721"
"0","11,7012401706466","18,0821657511005","-23,6644622886985","-0,47874591861478","-14,3299688919623","50,4822810677312"
"0","10,9010282707446","18,5856551502989","-25,3693964896383","0,899986030699922","-12,912638800611","50,5185414461134"
"0","12,5533310809836","3,14038874105122","-28,5831414378421","2,66290859526433","-11,7184825969414","50,5387626979684"
"0","13,0971899009184","-6,47037035933607","-31,1543688377651","-4,74888308852906","-12,5570783822703","50,4541208666163"
"0","15,3441122633109","-15,1698621649201","-28,2574469624846","-9,23334191807563","-13,0061441905539","50,3590827229639"
"0","16,8584902960074","-23,3953469950788","-27,1899225736638","-14,6502926040688","-13,2324113841362","50,1640458352171"
"0","11,4349708170259","-4,64386115244641","-25,6841309192362","-19,3324599153245","-13,4076553876459","49,9628058965555"
"0","8,43747064763017","5,22304343366676","-24,546119504149","-13,8508449726872","-13,4347377128671","49,8244961914641"
"0","9,37726508179816","11,0617745528293","-24,3802865389728","-11,4364684751114","-13,4812893717624","49,6804349489676"
"0","9,15410081915417","17,0545074724887","-23,9190183930399","-5,06921674945561","-12,5809219350378","49,5996931633503"
"0","11,0573724346268","13,8693002485836","-25,1493744491946","-0,402480639230879","-11,8936957337755","49,513535366909"
"0","12,0695034193877","13,7486955667004","-25,7556803817936","-3,30475407146319","-12,216591333768","48,9902844527817"
"0","12,9464453060717","2,69777879142764","-25,1211340914359","-4,09744378856747","-12,3721668278228","48,4702412037141"
"0","13,7773937781678","-4,32007201615288","-24,845488914634","-10,3107639885783","-12,5867010068689","47,4295021088827"
"0","11,7432925807441","-4,00091616180114","-20,6724935365281","-14,5095429790597","-12,7453224433586","46,3999016717412"
"0","10,7383154256138","-5,57869769634862","-17,8994216184306","-15,711975951104","-12,3081771129412","45,152311485066"
"0","10,2204486505435","-0,859075948972701","-18,9284989537172","-17,5464622470669","-11,9876344358398","43,9168051235613"
"0","9,6362407742976","1,51946228874861","-18,7976207405403","-13,4675512457681","-11,078147027497","42,4413646126718"
"0","11,3170113421852","3,52472317783618","-20,8922876156081","-11,3335989655061","-10,3280493788888","40,9790909471967"
"0","12,1732794802793","5,34232158103034","-22,0752514671583","-9,294223503483","-10,1841643763925","39,7785185529017"
"0","12,8348623257572","3,86796392675601","-23,1379589182534","-7,51971883044991","-9,94794432901932","38,5835434719362"
"0","13,4790121563165","3,46050537979191","-24,1353621375748","-8,31619138431781","-9,61034307717289","37,3023568132748"
"0","11,5166853252828","5,13936396571508","-23,9379006469688","-8,34875172903258","-9,27132307298396","36,0268522110345"
"0","10,4931995291984","6,26818463184581","-24,149016916517","-8,42361101509485","-8,04050846919542","34,9383191626084"
"0","12,0002720780973","5,04373666024339","-20,97431857459","-8,36959361936918","-7,00535592078379","33,8509633221467"
"0","12,6939064366066","4,52663426288008","-19,0271805009953","-7,69109515096528","-5,92282364021375","33,0149731897844"
"0","11,6041844227212","-0,237237628570696","-21,9554634087325","-7,18837740265682","-4,90093462184879","32,1756706881498"
"0","11,0715684757822","-3,49844400128774","-23,3296275339276","-7,73936243899037","-4,34942857393092","31,6521412133231"
"0","14,6230659393681","-7,88948604246771","-21,9787369985803","-7,98743883981512","-3,71009498894942","31,120821140264"
"0","16,7598342170488","-11,7058648465427","-21,3944431810342","-8,64222823073442","-2,93939261157757","30,7420994625194"
"0","14,2860449358464","-14,3634969650868","-25,1948670349872","-9,12397060595266","-2,17502021217529","30,3549239092781"
"0","13,3257630615723","-17,3290027000016","-27,5579188056412","-8,69169154160023","-1,60420852932095","29,8921832460475"
"0","4,05171661062717","-17,4719576855668","-35,4525542302772","-8,51905300249238","-0,992475048620458","29,4243023344788"
"0","-2,06085466592399","-18,5920494779755","-41,2511399671315","-6,8166235731196","0,145242515626297","28,8381944499249"
"0","-12,0848687031691","-19,9416174008256","-50,0446725365059","-5,63190627723638","1,17784808209884","28,250170027678"
"0","-20,360953393756","-21,3450767481656","-57,5483988295673","-4,30540639003609","2,07202338160826","27,5239384309875"
"0","-37,4842014665315","-23,0083138885766","-49,6050785105018","-3,1016220500833","2,96964373117559","26,7985665370536"
"0","-51,2285333470329","-24,5925586609907","-46,8914060587169","-1,99958935033258","2,37270354242756","25,8235848362586"
"0","-38,3642474920705","-15,9203560295436","-30,8183364287814","-0,884314196669577","2,10516858792395","24,8534291641846"
"0","-34,7438032911576","-10,6394734201965","-20,0141957766506","1,3808836509898","-0,987896492743472","24,0922662879515"
"0","-8,27949253324406","11,7789433775422","-13,3610255984112","3,28847573446504","-3,37531689143966","23,3312638405703"
"0","8,95711096611512","28,0620320567568","-5,88129848482063","10,4868240415789","-10,1214994221827","22,7752322490877"
"0","26,1548782705567","35,1375868278266","-8,49984301399917","15,9764782108068","-15,7284310592827","22,2158940079777"
"0","42,3851783655127","44,4507941800392","-7,50325578466328","3,12538109683794","-14,1539863725223","21,5171502584753"
"0","51,307020680211","12,5965535178688","-3,67006218080333","-4,24876846885374","-13,8656285508595","20,8182331983322"
"0","62,7636330186578","-5,30567488595887","-0,399992694411785","-11,085905614009","-13,9435491521941","20,3012401235608"
"0","70,4413847562825","-2,38570047654725","7,33291213190862","-17,2618250395909","-14,2711108568214","19,7810730441124"
"0","79,7525580074452","-4,5157265344377","13,4448823167634","-21,7352774635605","-12,154333605109","19,212651494856"
"0","64,3227209442753","11,5496747782854","14,1691586377518","-26,641033524425","-10,6389346621296","18,6426325979989"
"0","57,9958187954504","20,9081893700207","16,579761792563","-13,1089830370548","-5,00863807092332","18,7084935735612"
"0","54,9738227351873","15,7000846418798","2,70209687592513","-5,40835755383225","-0,437221912316091","18,7625092836086"
"0","51,7272758003045","14,4310756844373","-5,3029291534045","-1,29091352178682","4,97475852374104","19,3297748707872"
"0","56,6084727761992","12,3572939733993","-7,7414543536331","3,06426419759665","9,93014702854761","19,8794830675313"
"0","58,5324275494465","11,0745150450972","-11,4286820045004","-3,53081680374298","11,1023083164366","19,0029873240879"
"0","42,135915563023","8,81249751428805","-13,3743296611809","-6,66547843700415","12,988852229122","18,1370448312443"
"0","32,0368452142661","6,98051025589494","-16,073515793497","-8,09112222874071","14,5943294538422","17,2119221567767"
"0","26,5471361937444","21,2418138969522","-12,2382278075226","-9,52734698832698","16,4449783767975","16,2957837195024"
"0","20,0636897616592","30,2225536372413","-10,7679622986662","-7,28384889261213","19,0323730198324","15,8425735318279"
"0","19,4992852090271","38,8810573538708","-12,7302552959077","-6,19269706969252","21,5207612117004","15,3884266307132"
"0","16,6929614019887","46,9438854073993","-13,7748238284751","-0,888296695024593","21,5178596604287","15,0017497637591"
"0","15,8779259049956","36,1914865754563","-21,4624851072054","2,92405822542276","22,0371549234419","14,6132348551641"
"0","14,1057643478634","31,6004173702202","-26,7279793320984","-8,45545136179195","20,7327281179626","13,9045070526587"
"0","13,6319067877755","18,0771996068218","-29,2289315253095","-15,3099532057879","19,9632293527556","13,1997424994189"
"0","12,587679963718","8,3363074202529","-32,408171543093","-15,7981656198253","18,6483740450209","12,3845985644265"
"0","14,0007559089131","24,2311440048308","-25,8158574793732","-17,5922400790194","17,5907162198898","11,5743030397684"
"0","14,4663084854171","32,1264147786086","-22,7074227573609","-18,7569787630599","17,0519134411692","11,0185379514039"
"0","15,0389125734879","54,2765365536374","-23,0522255665743","-20,3162215300334","16,4650861344366","10,4621886202862"
"0","15,4720999361126","70,6343451877374","-22,6036551709445","-10,0284347206559","15,8268095557085","10,1556865539389"
"0","27,4840788076352","72,499105579207","-17,4068166225436","-3,50524417663403","15,1875136503108","9,84456315740389"
"0","35,3023638857862","78,4002395739167","-13,7708522279782","-14,6822628736547","15,0888961111968","9,14255003731687"
"0","35,300333650493","54,9945484989099","-15,8320684090407","-20,8938912024102","14,8711698454348","8,4435738178769"
"0","37,6746562939322","41,8462829825162","-16,0920796413167","-27,6062869091218","15,3050226805339","7,65617883917265"
"0","33,9619246157523","45,5105883095382","-17,9774138434899","-33,410369006031","15,5650746947643","6,87256323514242"
"0","32,6988076857184","44,9632493559405","-19,0847468829954","-25,6699365830438","17,0591146647384","6,43359320763158"
"0","32,123616238138","56,8419995183369","-15,8049625390942","-22,0277141900659","18,2372938565549","5,99172191320321"
"0","31,5606953103356","64,0389601369218","-13,9620453335071","-19,3589729075587","18,9681387431454","5,5245904334779"
"0","26,589283440652","73,3490050820737","-15,3921767338399","-17,0062271611155","19,7162275764937","5,05568362988236"
"0","23,2102312331807","81,3352982610048","-15,8510197554864","-20,5035208034053","19,7074627819095","4,33489551755294"
"0","20,5350487768283","72,2417461133396","-19,8278137215277","-22,2191945469701","19,8694894595934","3,61697530543643"
"0","17,7752025163448","68,6370700507492","-22,4648514145439","-26,0719033741157","20,0058047668345","2,87876816856122"
"0","20,6391811643751","69,1456788317127","-17,912196277509","-28,986586579526","20,1916158303127","2,14307286397233"
"0","21,4644778661241","69,020273831485","-15,70669315014","-27,5552052309538","19,5064331461091","1,27298782291118"
"0","21,3193158769738","71,0759775908533","-8,98424861203643","-27,3409428204898","19,0254105947966","0,407053273934023"
"0","21,3075594401072","72,3239048124005","-4,11135376997485","-26,7519328622696","18,9779167499507","-0,159434126553025"
"0","34,4093861958575","72,711370661594","7,49489304265378","-26,4643758461303","18,8875387543374","-0,727785707221801"
"0","42,7926204430914","73,2767610749437","16,53796505737","-28,0973443269593","17,3155017778884","-1,79844610061158"
"0","61,4764879083362","73,2837837142117","6,5016372502557","-29,1753518361097","16,0581408984325","-2,86211745379002"
"0","75,9409043495116","73,4996762238376","2,81064117294857","-29,8294967796881","16,2661617300021","-3,82872727225621"
"0","69,0221116773465","63,2089966462267","-11,6069524602997","-30,532178929049","16,2328564724957","-4,7916660357062"
"0","69,3718734255559","56,4308964475768","-21,5416260466444","-30,6917750077497","19,6021604146324","-5,97903193087222"
"0","41,5809578824621","43,9819407701611","-29,3876762317677","-31,0285561840427","22,1615822636393","-7,1598632904018"
"0","24,7193080270513","33,8812105014648","-37,434240365151","-36,8662083345716","29,5464463047841","-8,24402491694991"
"0","10,0675406644195","26,0971048318921","-32,7095964980907","-41,0104200523308","35,6627191108737","-9,32485323776909"
"0","-4,21932267383189","17,8570479024434","-32,4576477886241","-29,1107724146421","34,6402616027834","-10,4028081112658"
"0","-12,5789936181495","45,7308843175802","-34,0058380097019","-21,9720841278235","34,8613137604228","-11,478285954395"
"0","-23,0390166808765","61,5659041676724","-35,4528116680935","-16,0159002177503","35,8450280341686","-12,688183534689"
"0","-32,7820940537856","58,4401501450102","-47,6875566660013","-10,4106785221127","36,9803238626233","-13,8939564847361"
"0","-43,00732106141","60,0015447017286","-56,1522537434968","-5,14093338846776","36,0131683026305","-14,9823779665737"
"0","-28,197868523403","43,9883595950182","-54,124132091007","0,180591746452435","35,5470674004246","-16,0696376320246"
"0","-22,4748857987127","34,4278644667724","-55,3081219926784","-12,9315338091226","30,2248418173398","-17,7931526158042"
"0","-27,9353265769427","41,4571740829402","-43,2450610379816","-20,2711414980195","26,0986723015834","-19,505145983962"
"0","-30,3260543809622","43,8425238143331","-36,1745688620028","-25,0852769856527","21,4426137352357","-21,6168723623945"
"0","-33,608889615206","49,126509998693","-33,48322868229","-29,8152911020298","17,2100718131272","-23,7131851188774"
"0","-36,2432543486519","52,8312277573058","-29,8533452954499","-23,163002372008","15,7287129741979","-24,4761786453747"
"0","-18,3617909710068","53,4820265959654","-29,1040539000634","-20,0575187176392","13,7513353639702","-25,2497958821085"
"0","-7,81565725166455","54,9356264799605","-27,2408937968274","-18,0236979750886","11,0938753263826","-26,055330369492"
"0","-2,51229837104106","40,0559139209029","-31,8363874840114","-16,191691557069","8,45857122709076","-26,8683788462533"
"0","3,90300866285684","30,7003972958531","-34,0509046563521","-18,7205925044081","5,76866060608978","-28,1886065048008"
"0","6,08511019834663","21,5125140219487","-29,1429694341178","-19,9162777156776","3,09644078082643","-29,5060435825906"
"0","9,91327431491001","13,0039986773704","-26,4363348868796","-25,1734265342193","2,9141187260738","-30,9121117575711"
"0","13,8048526994145","17,9289920345858","-18,8957360769459","-28,958615135111","2,18903117401583","-32,3145836019472"
"0","17,8486240298061","18,4887837511995","-13,2979793309181","-18,564698898279","2,96097140149481","-33,6001593942435"
"0","21,4878040579839","31,7916332474687","-11,5092373692231","-12,382114991575","3,26451437301941","-34,8849659576815"
"0","25,2891915007633","40,2871318475128","-8,62198449723507","-11,1284495122716","4,42705664198609","-36,3284236270667"
"0","21,0593115066555","28,2016428050274","-19,1401912601548","-8,97093770402283","5,28053850915538","-37,7686451077129"
"0","19,7452236797964","22,3028025144964","-24,8591614614524","-4,9776738135165","6,73982483599769","-39,2060768598965"
"0","20,3656396876818","4,33578464322614","-22,9110397824794","-1,42166369062438","7,98660935556271","-40,6411037508303"
"0","20,5980114295253","-8,80538978965462","-23,069616281446","-10,17459414356","8,63731169051355","-42,0512983786718"
"0","11,6086810671043","-11,3873115502106","-21,8819011106805","-15,1443966910835","9,3644878165523","-43,460086569272"
"0","5,90625265601173","-16,8294408941604","-21,4109005903038","-4,84095988561431","10,0274195847111","-44,3669605404869"
"0","4,487417168694","4,87555878381825","-21,1622936913335","1,25886825354521","10,724104661856","-45,2811637076792"
"0","1,87220731670627","17,1959381188866","-20,9204826362414","6,63542361864699","10,8298264546803","-45,8830565187214"
"0","5,28169546878192","15,9447867725013","-23,0065568531733","11,6017805304619","11,0741133381054","-46,4957248932342"
"0","6,38957934369281","17,9464232331723","-24,2824623659277","4,16208973167138","10,4201370645217","-47,3225148084695"
"0","1,5955923882441","5,70814840299085","-29,718679003501","0,539990654020148","9,99918015155969","-48,1538863426445"
"0","-1,31317375812896","-1,37430476329118","-33,6103041561698","-3,18989915327708","9,86439669778885","-48,716097342267"
"0","2,39527023317685","-6,50457177275198","-30,6270514575097","-6,3081346011026","9,72652789002977","-49,2862808352001"
"0","3,91603491431961","-11,5963767510714","-29,857193822168","-2,35214116315088","9,42825304588928","-49,7040227338949"
"0","6,5346541069011","2,13739843568044","-24,112750333416","-0,515843507298575","9,16444516799126","-50,1303536770954"
"0","8,52436271334003","9,63227541630368","-20,3615594537852","3,68125123834114","8,40545288549554","-50,4275336919619"
"0","7,86233214187056","7,54226461468839","-24,0807359309252","6,8191628750725","7,76415564593735","-50,7333802680767"
"0","8,0904397782097","7,8012865548776","-25,4318196522121","3,32100921487974","8,18947349172726","-50,9556610850707"
"0","14,9613556162229","4,19908175811388","-23,7791982619221","1,73777485946781","8,41055126258756","-51,185904763464"
"0","19,5295139987161","2,19008544132256","-22,8945402396064","-0,175669513721084","8,1344094545242","-51,696122836995"
"0","15,1947554738076","2,67343234587837","-23,7463075809868","-1,69594894678464","7,91513122974253","-52,2076904120373"
"0","13,82819316067","2,54209470898697","-24,0834518145279","-0,993660523227861","9,37419784634914","-52,1514419809516"
"0","10,1761329445301","4,52579903353512","-23,5248939281876","-0,926905237628519","10,4789433290923","-52,1057126815831"
"0","7,6646297897397","5,72621133349978","-23,2178632956492","0,0496835195804189","11,0888126263851","-52,1600880017232"
"0","4,79395449581193","5,57766906280703","-25,7555051336483","0,645530445015349","11,7165028879103","-52,2207576417616"
"0","2,17421956280222","5,77233095262936","-27,3317201140524","-1,08214544025553","11,1737968772721","-52,1275390327121"
"0","5,31514667773044","0,0460672977284889","-25,1980538585539","-2,1408362297564","10,8929316891888","-52,0416623918897"
"0","6,40370213727111","-3,67069876494001","-24,2437580956785","-3,09308578511213","10,1461162646656","-52,2352249106256"
"0","5,86838553971132","-1,30235198908436","-23,5376242949062","-3,97734457567412","9,56893934712891","-52,4296755356791"
"0","5,70083977413213","-0,684944167013296","-22,883708486546","-1,85603089153768","9,60216214693143","-52,3517816656263"
"0","4,59168067006074","-0,196311658238049","-25,2114847926377","-0,664344257618852","9,54476050755674","-52,279115583276"
"0","3,86147334363227","0,10207855448965","-26,5066657778681","-0,342451985920989","8,62277797183193","-52,0744010302876"
"0","5,9880260649478","-3,13921478430365","-22,5021590519806","0,110711169590234","7,86757550533156","-51,8758552373099"
"0","7,12386086118913","-5,23178668992711","-20,2224973267512","-0,86071136034127","7,05319372471059","-51,6143496505851"
"0","6,15301683290002","-12,208837890785","-23,6029355191852","-1,3667560296155","6,29463454978763","-51,3585701191711"
"0","5,83711221268119","-17,4129868163842","-25,2143662877884","-1,64619881249325","6,51375459220984","-50,9711716443936"
"0","11,323393840016","-21,0710788004437","-26,7756888592841","-1,92605228155969","6,53230028343973","-50,5903121998922"
"0","14,7852878561753","-25,0060863505717","-28,14646771395","0,364791854977354","5,99146579513686","-50,3971630560916"
"0","14,4594198183523","-11,4251869154174","-29,7276938895871","1,85165025057605","5,52209950706155","-50,2058279506081"
"0","15,2852617717203","-3,69075647006898","-31,2132021804869","5,59366892424599","6,38692452992648","-49,9477791012726"
"0","8,92087357367885","0,517168796115219","-36,6514394250544","8,5087252625259","6,97682632291337","-49,6922202470859"
"0","5,27398755616561","5,11691037621963","-40,7014059514207","5,57833615338073","7,51806790385216","-49,2567344853346"
"0","10,5736087653755","-9,53742566417405","-31,2879377937666","4,35077500797087","7,99942961374163","-48,8261442918807"
"0","12,9334150691348","-17,7534941750103","-26,4015071457565","1,24338385800225","7,27865078811982","-48,2859784142176"
"0","14,0771887833493","4,45566670555283","-28,4806433658788","-1,01834465973907","6,8067438349528","-47,7513537673924"
"0","15,3471504542701","17,4300541906504","-28,6654672150952","7,46871676479491","7,6460182014389","-46,4249348255013"
"0","2,36034330349232","25,446752993985","-47,6360000436982","12,7223787404002","8,26096872838289","-45,1159564719916"
"0","-5,46767677005237","33,879161181455","-59,8394030085163","8,61430530777553","9,93012076886843","-43,3213108142361"
"0","2,37493745843365","7,00019649729091","-58,0918062750036","6,94438392705667","11,3099612356292","-41,5479998648838"
"0","5,11061487072479","-8,11148334241959","-60,40865410739","-5,6530038064558","9,57966900594282","-40,8172431140408"
"0","-1,70426030537011","2,62855164003529","-44,1458886714603","-14,4639784814283","8,45874859053147","-40,0852111768891"
"0","-5,61546308853141","6,35974415244423","-34,8336195531654","-2,19916699354278","9,81482123128186","-39,3293208031403"
"0","-16,1269567779665","40,2530269604739","-42,338471896193","4,04792684446045","10,782856222256","-38,5728634708426"
"0","-23,9475180206863","63,2097393543971","-44,8019661544395","18,5094001511897","12,0061388751201","-37,6566031838206"
"0","-18,3073669381235","69,5827208291613","-55,7610254045789","29,491002147539","13,0737016038499","-36,7425861442793"
"0","-17,2390642878961","80,001088598909","-63,16771296215","17,2192889582339","10,3536403501956","-36,2629271692741"
"0","-11,192780793708","57,8315604204748","-61,3800917029345","11,6926703822772","8,42616544617097","-35,7777028003391"
"0","-7,42935858250679","47,0089132426957","-62,3778131579655","-0,919053294682599","8,73224386030512","-35,6973459509811"
"0","-13,4327359981842","51,4189298240472","-56,5527583157717","-10,2939412990173","8,75082861335341","-35,6060016389299"
"0","-16,1540198094908","52,2862681389347","-53,4320616939161","-19,8598597463271","8,65195935892148","-35,5051856798641"
"0","-17,7742321209563","76,5748481464137","-49,6277067313994","-28,8760133138954","8,50510489389028","-35,3962047695556"
"0","-19,4427364737671","92,6238001346688","-46,3794970630988","-12,0047990076341","7,57474777531946","-33,9829124563275"
"0","-15,5888860867367","88,7331365575532","-46,5053483488729","-3,14600462111108","6,80429481121928","-32,5852497993221"
"0","-13,7332277706954","90,3597450447149","-45,521166173454","-11,7148415575406","5,68539145803535","-31,0417463390218"
"0","-9,18863744086142","79,5844604282582","-50,8174866974342","-16,046608532223","4,68413055007492","-29,5125220778681"
"0","-5,82703408536687","73,6566476789614","-53,7953443317844","-19,9242283732936","4,36751396357342","-28,4507905423878"
"0","-10,429954136677","73,7390681939589","-53,0998991422587","-23,3024215119142","3,9306051763681","-27,3920570605183"
"0","-12,2842488465412","72,4729646280708","-53,4115212383112","-20,6781166683416","4,3994248382358","-26,1310754651909"
"0","-17,0085769896959","77,3859350753291","-53,4339667481642","-19,8553398111389","4,63827504488375","-24,8757476360209"
"0","-20,4047393411836","80,0700329228824","-53,6755640093335","-19,9231966988032","5,03780530291983","-23,5342568938262"
"0","-17,9054256972875","84,6313003795844","-49,9904051478593","-19,9852628181637","5,3429805420883","-22,1984901590108"
"0","-17,3925624260865","88,2734125727373","-47,698982181771","-19,2815125861194","4,30461418218288","-21,5049146072398"
"0","-13,5738828379169","85,6275336755052","-51,1053623457225","-18,8163762508463","3,53735104162643","-20,8049344005945"
"0","-11,1595791106665","84,9449486982594","-52,6906685581655","-20,5331656099911","3,0399912120835","-20,2132289831499"
"0","-14,0769324669236","86,41798273039","-54,6802018461743","-21,603734194831","2,55289894597478","-19,614860909597"
"0","-15,2194274579969","87,4372540729085","-56,3147921920247","-21,1147419776111","2,77024177652784","-19,2838594305362"
"0","-17,5391518962547","89,9386004110957","-57,6599460784478","-21,0156333243826","2,83537782241698","-18,9433390076792"
"0","-19,2452275234841","91,8880053145196","-59,0641970339217","-21,2969769650542","3,28393808320123","-18,4580578220679"
"0","-19,8209878530524","93,1076367369027","-60,1587585560581","-21,5183678360995","3,60914426944445","-17,9679868751931"
"0","-20,7394173877189","94,4958841797293","-61,3681555366866","-21,7587335923273","3,27920178470402","-17,5875828225641"
"0","-19,4821538331405","102,384195990306","-59,1657205638237","-21,9840891586828","3,06160179192765","-17,2017161659192"
"0","-19,046560004234","108,139018324573","-58,1653713161503","-21,892831961251","2,6352658770009","-16,5152712660619"
"0","-17,8289350346178","108,379761438772","-60,9613341230919","-21,8983153627702","2,28365201031327","-15,8297154959813"
"0","-16,9809454279838","110,165548152285","-62,5761131240302","-24,7084878619247","2,18536918332418","-15,0994078459438"
"0","-16,9994264968085","109,030993852833","-60,041062031739","-26,6562071725375","2,05058340638949","-14,3705222255388"
"0","-16,7445077709442","109,070610762027","-58,81280783256","-28,3423872531744","1,83722633067102","-13,8932133596312"
"0","-20,2332448152294","108,291580611184","-56,6784050728615","-29,9797905751672","1,63176936836644","-13,4127740551699"
"0","-22,3417913551913","107,940294925375","-55,0133314373509","-31,8822920426998","1,74783101822599","-12,8613586634113"
"0","-21,0395200816372","91,9089813783127","-51,4784744700375","-33,6945061540085","1,7952473885184","-12,3087589505651"
"0","-20,8214355600362","81,1352846750613","-48,6501795599993","-36,8031208906362","1,49632803181779","-11,8234158238524"
"0","-13,9424555444493","78,4098119245985","-44,2167693549457","-39,4926490455755","1,25591505430041","-11,3360506544762"
"0","-9,5827552595176","73,7144279280095","-40,4256123913423","-35,6102157180917","0,657455271719763","-11,3931625596664"
"0","-18,6146083515656","90,0206986050228","-52,0168278164146","-33,7195590233641","0,152717369610046","-11,4396362094052"
"0","-23,0813155099171","99,0991122671432","-58,3247866886494","-29,8860944555709","1,50052810174359","-11,8410860158229"
"0","-25,8748623467981","77,0726217672596","-56,3627239976641","-26,9617312811321","2,46518773385651","-12,2285399424408"
"0","-28,7867031398738","64,4012861373448","-56,6604916224269","-35,3934309648597","1,42722485584015","-13,3322223873764"
"0","-16,1386949275564","62,3291017081154","-35,2787577323879","-40,4114252645649","0,731101193351644","-14,4133234208186"
"0","-9,11892471759975","57,9860796832302","-21,7152447686967","-35,2559756931265","-1,13035923170755","-15,7480684236003"
"0","-19,2700781453684","88,3422466601389","-22,4670675156188","-32,7652238591173","-2,64791179845425","-17,0614650124716"
"0","-23,8227621205032","106,887360197874","-19,1511089167566","-19,962430067226","-1,25583039078044","-17,0591855086578"
"0","-14,2472250510726","89,6150083808088","-33,1613547657511","-10,7878869865912","-0,415033484804846","-17,0627388287227"
"0","-9,17519151688019","82,6510878926316","-40,6573632639508","-25,6004906272569","-2,34578943492728","-16,798210204612"
"0","-3,70365895965176","49,3360363608817","-34,4345435538238","-33,4609747368105","-3,80884857623117","-16,5425838633008"
"0","1,14468706760451","26,1325416732904","-32,2250217028268","-47,1709418201576","-4,60339607744187","-16,4539458707635"
"0","-4,10543460337465","22,8846394205516","-23,1647756910793","-57,9991426847956","-5,42482670059847","-16,3692587374284"
"0","-5,77723397852022","14,3632171985946","-16,9630071381175","-44,8975367831076","-4,06103194697528","-15,9238306354205"
"0","-11,3887905783296","35,9524776774014","-20,4179964090463","-38,8431290538673","-3,18447497807111","-15,4874289069815"
"0","-15,1978619805378","46,8530949024948","-20,8449510243016","-27,7285346616076","-4,51221011261287","-14,74017985963"
"0","-9,00710722943519","39,6748697668928","-24,4644529447584","-19,2632670971092","-5,48049707229349","-14,0049675743235"
"0","-6,23364102669165","37,0709108110772","-26,615727483168","-11,4946908542884","-6,30193339026107","-13,2801314754464"
"0","2,13749804301556","9,02857606006438","-27,6706434419685","-3,90932296183596","-7,0633746589288","-12,5642400781769"
"0","8,12492679604768","-9,96784543224254","-28,9348647225603","-20,8990083015545","-7,19555224968198","-13,6085157266435"
"0","3,3138389390682","-2,2336209142577","-29,4915038009472","-30,2311754072864","-7,45064750876338","-14,63012812605"
"0","2,14647183198091","-2,16182587832896","-30,319254138479","-20,1793430383095","-5,94170107002948","-15,7004813878337"
"0","-4,35810394503564","7,12504688782944","-27,8754307804142","-15,0301160889731","-4,85206476986335","-16,7528512877182"
"0","-8,54888878530405","12,3360387051166","-26,603206150194","-11,6564919281098","-4,25202646138348","-17,3572944938111"
"0","-5,93159685537977","12,2475482382406","-25,470133295211","-8,46979658875429","-3,6520108106576","-17,9556063745487"
"0","-5,52528545161527","13,3744984840724","-24,4263406179067","-10,9254969878395","-4,92992168721868","-18,503114452811"
"0","-2,10941072284273","12,7746132575841","-25,4414565241571","-11,6449736063214","-5,79504946710266","-19,0468275533353"
"0","-0,0148737472754348","12,9091885822473","-25,749805919868","-10,3792897534301","-6,14141673729872","-19,5872692261819"
"0","-2,65755558168129","8,13260351166391","-31,5645141652768","-9,47156986555427","-6,49584715798236","-20,1248907931439"
"0","-3,73108373633529","5,08265478147338","-35,3778649447597","-10,9161235275462","-5,93052765379924","-19,7724735540106"
"0","-5,87677506022521","6,53335729725218","-30,5380194929431","-11,6792526522677","-5,5694492054112","-19,432806073758"
"0","-7,46861600830984","6,72101726787015","-28,4773771256071","-10,2829729935468","-5,86473626807946","-19,0586110661022"
"0","-3,96464324537993","7,88296872502618","-25,8204084391494","-9,45883536290089","-6,06817797232897","-18,6946519026097"
"0","-2,24087551127916","8,55372810210379","-23,6979613637269","-9,72315009524264","-5,94763478693811","-18,0664063804282"
"0","-0,859395787261989","2,71927377453868","-23,012277730756","-9,73369426043758","-5,87472929655739","-17,4503350926284"
"0","0,456270684938881","-1,02290037504146","-21,8889164275253","-10,4765387599706","-6,6806718029122","-17,0723502309798"
"0","-0,771532769233808","-2,64976986190395","-21,0313756252901","-10,9519556829769","-7,30566298808892","-16,6996057101126"
"0","-1,08838060071537","-4,69986967915077","-20,0297685075983","-10,4190507545501","-7,47477819721054","-16,4224152727656"
"0","-1,15776588595408","-12,6390701456064","-19,71367949876","-10,1609882487379","-7,69764769886373","-16,147596405196"
"0","-1,21957043686614","-18,6812990880083","-19,1418365262728","-10,1489039126329","-7,30589610545656","-16,1934503548437"
"0","-2,79840683622283","-13,4046808595434","-19,8404679984687","-10,1015042558062","-7,06304432979124","-16,235737528128"
"0","-3,82892975720399","-11,6298829047227","-20,066431435443","-5,63275949248184","-7,16748673993237","-16,7073742852339"
"0","-2,11474673715772","-7,71201184970795","-21,9109342941792","-2,54133720158292","-7,23381434414517","-17,1691281310057"
"0","-1,33282678815963","-4,97084983395859","-23,1360086028186","-1,20173293182565","-7,41188677206425","-17,2809748993639"
"0","1,54757690174645","-6,10694786641648","-22,2979958963187","0,477197177349084","-7,55561195389065","-17,3911873033817"
"0","3,57146547807632","-6,11360276905464","-22,105870478954","0,508328713483703","-7,39884279431951","-17,3179174314724"
"0","2,06829859695075","-6,20804400525816","-22,013860400446","1,10613999872283","-7,29930826841312","-17,2464782533689"
"0","1,74696893432752","-6,12310146223151","-21,9629164916298","1,85297059680572","-7,22315664794261","-17,1766172089986"
"0","-0,335621645882524","-1,33602343611672","-20,1310326873067","2,63898868241665","-7,15655798922994","-17,1081165811395"
"0","-1,65685776689036","1,91532970062005","-18,9244052874627","3,4700524860211","-6,7119128669059","-16,6311235693533"
"0","-0,409352662868454","-2,64292737370942","-20,8200481728732","4,29296192545877","-6,35281887083218","-16,1619932373547"
"0","-0,00794415553270468","-4,8152358510146","-21,7084676757914","3,34195558900026","-6,41062560813747","-15,062384008263"
"0","2,36389766645726","-4,52084824594776","-24,3892789574316","2,94446406335953","-6,39875492463235","-13,9792759086697"
"0","3,93460354475147","-4,72716829615179","-26,3272435284302","3,66526713279279","-6,51756343252987","-12,9103924647879"
"0","1,15734823149788","-6,74562563023295","-26,5698593776623","4,12014722258571","-6,58976022963886","-11,8537712621135"
"0","-0,135909092801834","-8,2296551552501","-27,3157416407363","3,70606358861482","-5,71986997785181","-10,6484064052072"
"0","-2,33693030194749","-11,2474220219891","-29,0623112193511","3,52346927077697","-5,04509506853833","-9,45481836994862"
"0","-4,05249134708835","-13,6853801207302","-30,5194444242645","3,54071197522374","-4,51369170810136","-8,31690078832905"
"0","-8,53091709713955","-7,97337110060216","-31,8082998563901","3,53050565892934","-4,00086203207394","-7,18697343891649"
"0","-11,9605712431671","-4,88737940725593","-33,1217464474988","5,80596176928748","-4,60963925594726","-6,47359911914054"
"0","-8,31921641983097","-2,48870210965035","-33,6529518466411","7,36247666946614","-4,97664301849708","-5,75931072936996"
"0","-7,11828696873489","-0,211437468723513","-34,4595588348088","6,61075459218332","-5,78596632499789","-5,0214752001919"
"0","-4,97656315655995","2,17852632676097","-38,4379864869374","6,47203731380956","-6,43599693067061","-4,28334106351005"
"0","-3,43394859049059","4,51495700560381","-41,3438254778533","6,56400264148363","-6,47985454313193","-3,61322703468239"
"0","-8,18894869959782","12,1695824249881","-45,4556362314296","6,67663038649761","-6,61606340045185","-2,94174915047523"
"0","-10,7348194446886","18,0531616668521","-49,0212063598035","7,55898526837096","-6,18524884875943","-2,1325405268241"
"0","-12,8559309728459","23,5208187770311","-52,471837080944","8,20375466954421","-5,90277989650719","-1,32460231259309"
"0","-14,8953721401323","28,8907984681675","-55,8982823667184","8,78604641004311","-5,68091675058993","-0,517759243795309"
"0","-24,1861667396889","31,2723794135449","-63,936757552034","9,35190845091625","-5,48381378478839","0,288139764370554"
"0","-30,851211606237","34,6321485188712","-70,3656914662287","7,62056931372062","-6,21987054114668","1,34357585942211"
"0","16,8949829862306","43,0581641346255","-30,8574234845924","6,60513705062691","-6,75716474313361","2,39412323812789"
"0","45,2830707758305","49,9339646780713","-7,16309532313779","8,27929060698991","-5,94009130852477","4,07771319334421"
"0","14,849614883191","48,5378118732483","-37,1193382594977","9,22072235934121","-5,36969817316546","5,74701201669094"
"0","3,58627680789","49,6790284846037","-50,2446808255886","-4,51736612673336","-0,221206339878098","7,85917475940432"
"0","18,6054322194328","1,7093825463311","-53,2070324397701","-13,7757161137052","3,85764338819089","9,9531045066461"
"0","26,1780406040658","-29,6337258729319","-57,7308976400235","-22,0644766077042","4,3165858902022","10,0740277553075"
"0","30,7642240327791","-61,7321756713135","-62,1180439112758","-29,9782649411281","5,29663453138473","10,2141378468362"
"0","35,6361941327625","-91,3680139537113","-66,7364219219265","-39,3220342659278","6,13945814744872","10,3707877900158"
"0","46,4924533986231","-96,6665388533744","-51,1811902075708","-48,1618445292843","7,14621920872153","10,5416957690027"
"0","55,2193387986545","-109,709556506464","-42,6810476671645","-29,8061890196328","10,4479934817357","10,2697112984491"
"0","36,6016897974219","-60,2844042134214","-63,0818108387212","-19,8789639888123","13,2873832065861","10,0159352291782"
"0","27,6263844502643","-32,6088866096132","-74,2438737484854","-14,0788903621214","13,7098307417465","8,84472944963818"
"0","30,0860010050126","-44,814716381126","-83,2829804691432","-8,26413038430804","14,5448493890667","7,70266133736257"
"0","29,4442613113961","-46,6864990144891","-91,9753768670969","-25,7217212444807","12,5246566751354","6,38087853909439"
"0","27,9169738517102","-62,6885274303088","-89,4994166376475","-35,8992232813202","11,237982532308","5,08417425289088"
"0","26,3794181488877","-72,6289797368605","-90,8734219521388","-43,3632521058339","11,4923186487099","4,4008271862233"
"0","27,3707038419661","-82,7698406794231","-92,6996169747168","-50,5737210860798","11,5962263175103","3,72621939626847"
"0","27,4482212191497","-92,0377666777453","-94,8209613044069","-58,6555082793375","11,2567279680554","3,15018191723713"
"0","20,0468331921149","-95,4168902188452","-98,1855341154029","-66,4264253145851","10,976078446125","2,57911612068223"
"0","15,2474424592362","-100,633055313029","-101,151705822753","-55,7725476906153","10,8467877250782","3,08201726448972"
"0","27,1094155024644","-98,7610828577345","-88,6794414050355","-50,8335167966677","10,6993338378039","3,57072230392963"
"0","33,2349437316667","-99,4844935693635","-81,5386366646922","-56,8120215075685","7,32971975110115","5,04859333929535"
"0","29,8696535958594","-93,7214968996517","-92,2343588699909","-60,241501679217","4,66370923765049","6,49916635089345"
"0","29,3195212201891","-90,4551969873321","-97,3432252752019","-61,8194859875184","4,00392396424231","7,78965229789327"
"0","37,1923550941291","-93,564941874659","-99,2363887207051","-63,5905839341224","3,08377135146723","9,06213657791863"
"0","42,3247104894056","-94,8920718547344","-101,592907158542","-66,5936457700876","2,75748738398261","10,2508251570372"
"0","46,930141788891","-95,8005628396167","-104,046924291461","-69,2406761483045","2,23382529568225","11,4272783782308"
"0","51,4342590277527","-96,6107383624308","-106,521457002499","-71,7940812235733","1,62952542500032","12,5931842151375"
"0","48,8326121496481","-102,587379331626","-100,732442370476","-74,3228657290545","0,992281416839803","13,7499977708066"
"0","48,78470811558","-106,837341189351","-97,824620353145","-74,4828138774757","2,5696156960528","14,489308285021"
"0","57,1456614222719","-114,141503242224","-95,1651398109172","-75,3798310552275","3,65170416618695","15,2287139197736"
"0","62,7434234670778","-120,20293030596","-92,7579150340477","-79,1457021285011","3,0991528101369","14,8530020612244"
"0","60,1812926658162","-125,195838712138","-95,8798875173177","-82,1259933779595","2,77877803966117","14,4960128294275"
"0","60,2702226471359","-130,377810376272","-97,1053081701952","-83,3016329918496","3,92190934950842","13,4041105572804"
"0","62,1704463513224","-129,249626295932","-100,401280056761","-84,9227048325313","4,80294829132347","12,338682866299"
"0","63,6989356283149","-130,239530867475","-102,752935267611","-81,3108567192954","5,57691078895156","11,318836531913"
"0","66,3490486967807","-130,067613636243","-104,011097806962","-79,4029119007662","6,30712777431692","10,3182832110437"
"0","68,5548214052479","-130,562847844097","-105,53916870963","-78,0820036112188","7,08313097567539","9,37987961189069"
"0","63,4081022395163","-125,248537141809","-106,121868101898","-76,835467840367","7,8378398922675","8,45505164185153"
"0","60,8676864646753","-121,949881266698","-107,065643364383","-75,0526398900847","9,09311484247405","7,88331402459271"
"0","64,9385085706111","-129,856732431639","-101,929237218189","-73,448783621447","10,2328933856796","7,31595488662297"
"0","66,900503053747","-134,315145909222","-98,9534453677079","-78,2842647826853","8,9383035144801","7,0254802582496"
"0","60,466877021909","-139,975985685875","-102,230530254505","-81,1330932719083","8,14916536393699","6,73369152232846"
"0","56,838987355855","-144,779209804534","-103,583339224292","-82,8689028468965","8,55322912258361","6,57732501111286"
"0","61,704561466126","-152,134667892679","-97,265545124273","-84,6520227430256","8,82476918049212","6,41769805534884"
"0","63,8032119735733","-158,529506508911","-93,3937103811954","-83,7030751111077","7,76900313345995","6,18698294174618"
"0","65,369853662527","-164,698748015611","-90,0365519650565","-83,6156779028362","6,97097323062862","5,9549868976168"
"0","66,8342036284037","-170,815009068221","-86,78769122801","-83,7548419089276","6,27824005988713","5,72188663842538"
"0","74,6420793085911","-165,374717127501","-72,3946329533046","-83,9535845333388","5,62852530948858","5,48783450020712"
"0","80,1496531462956","-163,760421330232","-61,8966237540943","-79,58223315193","5,85577137570736","5,34399849607534"
"0","38,9371645129544","-179,990127014767","-105,046637953809","-76,6490878658424","5,90129512333931","5,19793252866179"
"0","14,3415997983636","-190,810415208277","-129,965215698998","-81,8065632774581","4,40843829446624","4,02578144273924"
"0","42,3642611226914","-189,345761922596","-106,021694871054","-84,6516226353089","3,20708425609723","2,86910257084449"
"0","53,1640649071975","-191,236046060623","-96,9566600233589","-70,1088701690384","-0,994430281815426","1,1795412280701"
"0","41,7435437222214","-140,712463759001","-94,2077955239734","-60,6536589657447","-4,46164444880619","-0,489386831605393"
"0","36,5106209351572","-108,019723550522","-91,0079732860472","-51,4593552474639","-4,54144079210569","-0,4563493250107"
"0","31,0573895611948","-79,2673537911191","-83,4540581956865","-42,953662158368","-5,1773255844523","-0,436147148567326"
"0","26,3417984665302","-51,5803620922152","-77,3639592324902","-34,1426838188328","-5,75393540104443","-0,472527903847166"
"0","17,9356586928625","-42,1481460183412","-86,4711889009113","-25,531424865223","-6,48632874128242","-0,517685485160384"
"0","10,9399205622666","-26,8029808908322","-90,4562252937995","-42,6460013740379","-9,66954958334285","-0,297298973847302"
"0","27,0650171594779","-74,3208123177614","-74,3581046911053","-51,7456799162327","-12,3540429774468","-0,0880024782728294"
"0","34,9956604113112","-100,201732286876","-64,6541062354184","-58,7376872572137","-11,3972404445986","1,31797014961425"
"0","28,8051042887025","-95,1594594552132","-60,01788105662","-65,1754420161998","-11,1128058108318","2,69552706884973"
"0","26,8394017893584","-97,4950155794194","-54,3680116733521","-49,9977445742172","-9,06600070724919","4,1623843390905"
"0","27,8914559813188","-75,1918122267291","-56,8800913585609","-41,4958492428879","-7,57918851355255","5,6062222031791"
"0","28,3037477953818","-62,0423083846558","-56,4296002215288","-31,3449037706595","-7,530664486038","6,39295953556566"
"0","28,5930296259257","-51,042509198274","-55,3557278885829","-22,7203089237534","-7,30974544567831","7,17324904799734"
"0","28,8586597748952","-40,5475583632438","-54,150684306497","-14,4970972596831","-7,01839533893689","7,94798027310357"
"0","30,674386249403","-27,805861764421","-52,130624161971","-6,37943700483068","-6,69827099429959","8,71792002478028"
"0","31,9281567009326","-15,8765271518117","-50,3790690457234","-14,8260668591304","-6,01627091858619","8,48232570360763"
"0","19,6605540454019","-23,9430061348925","-58,7056660780999","-18,1085946146895","-5,4064284359683","8,25991944731066"
"0","12,2131363014611","-25,4854109052616","-63,5528978280822","-16,0032111539371","-2,43888258348156","7,29782912955167"
"0","17,7319690537635","-30,8970394805346","-55,7493955612237","-14,800973061646","-0,00810954819443332","6,35810057554707"
"0","19,0838809788192","-34,1573376508349","-51,9439384673613","-14,2183811514205","0,675570703574342","5,46040795952363"
"0","10,9213633673039","-26,5332968998794","-50,7693270468969","-13,5787370938465","1,60548548277948","4,57895205961958"
"0","5,74946369000737","-22,233118706788","-49,1482955475724","-11,0828374175679","1,20368828701827","3,75701122674145"
"0","-0,438214906547076","-17,3720170426631","-45,5721645428901","-9,15879971059597","1,15782724067193","2,94637484172913"
"0","-5,94120187451217","-13,1391850551024","-42,624643451385","-6,48188805787851","1,67116039835929","2,25927922449558"
"0","-1,94852195705918","-8,91268697651802","-50,1889636186075","-4,12699375582471","2,15294937651727","1,57868085571588"
"0","-1,31006755296508","-4,76767638762012","-54,1651749331831","-5,71298849976131","0,202839070396121","1,42714436930681"
"0","-7,06511227021242","3,3474465244992","-54,0935509275126","-6,11531563170895","-1,22081076507677","1,27168109457787"
"0","-10,8694637562169","10,1349322408539","-55,0101854532996","-1,89853823765893","-1,56999210331654","1,8183671379452"
"0","-7,24861720273449","7,07879382139085","-50,0144013400473","1,05292131770953","-2,02020504679374","2,3503349172567"
"0","-6,10009449945249","7,11092508905243","-47,1945319970758","-0,740416995428818","-3,02095961620024","3,68894518295081"
"0","-5,89694523129871","7,65650388633049","-44,7967248486503","-1,24149094596154","-3,92663504127303","5,002914614937"
"0","-5,61556715615676","8,44266349834795","-42,5077276060034","-6,19694423203434","-5,39821940652382","5,79494081737657"
"0","-5,31914767722055","9,28532241940605","-40,2416260351435","-9,56376203003217","-6,7210028620145","6,57703038112391"
"0","-5,01983612007412","10,1412499459659","-37,9803421486922","-9,8377901932774","-7,63287432746699","7,14572159198522"
"0","0,594744515819146","4,46922169899635","-37,0801535530296","-10,8385099810787","-8,59686988299726","7,71045460171534"
"0","4,2913157913073","0,964132758672374","-35,7063652701475","-12,8641020647999","-9,00923654547976","8,04418374557068"
"0","-0,696434556712409","1,6394611187024","-39,8522069472782","-14,6792039828356","-9,5562381550925","8,37877800836455"
"0","-2,75395839671664","1,21654144938443","-42,0194836522714","-10,8457142549104","-8,1211813549109","8,3272120935388"
"0","-1,50033165722091","8,16117089822668","-36,1110260191068","-8,7468189748259","-7,15636512417029","8,28276014345231"
"0","-1,13005513604829","12,5160357149631","-32,7832804256987","-6,51347810979722","-6,60646692315907","8,06236733872274"
"0","-1,90579610223715","17,4277081031698","-32,8618952809931","-4,58478219861607","-6,0860812782976","7,8503062446746"
"0","-2,36188699380959","21,8101442145383","-32,0572731025207","-2,77093913949789","-5,00482891836092","7,57714990976433"
"0","-2,75651733101235","26,0682915957645","-31,0668010688308","-0,967298841497646","-4,05443744245546","7,31132695182406"
"0","-3,13933037160424","30,2972503345705","-30,0372226940753","-0,729669287099915","-3,41214133556773","7,25665822755794"
"0","-2,72447202217184","23,8931238461219","-36,7304055132097","-0,00385230459372998","-2,73571595445723","7,2040131809004"
"0","-2,59624181479587","21,011865701682","-40,7286040358209","-3,77015903396992","-1,85437260204147","7,15311262799133"
"0","-9,32017081252123","25,5949182674303","-38,6836087984896","-6,05775588322719","-1,00931110139381","7,10371590080311"
"0","-13,6015952116795","28,1709302204305","-38,4270107610059","-4,27399227386421","-1,03845822807069","7,30596643972145"
"0","-5,84394501208909","27,4513505386753","-29,4914456279454","-3,53958631519973","-0,88475864385047","7,50514732400785"
"0","-2,17148791052965","27,5578161654564","-23,7896608998224","-2,4557979919635","-1,22928192060916","7,97479211857782"
"0","-1,59839787505293","25,9519078552261","-19,2694076967766","-1,64013287240538","-1,41735149963834","8,43758798359321"
"0","-0,341237054687936","25,0238563218752","-14,7177711781264","-1,06867897501428","-1,15955347649069","8,93999813480516"
"0","2,45747902497713","24,0078747290883","-14,4187337886503","-0,461445104143563","-0,95959861383755","9,43655743819781"
"0","4,77259685252781","23,1112431621654","-12,6345240640472","-1,47761116707247","-1,0697372235523","10,0191097620761"
