Timer,AX,AY,AZ,GX,GY,GZ
"0","6,21812587646735","1,27982755748134","-24,9832570114141","1,29394763914455","-0,489653050517795","-0,263728400131358"
"0","6,19399841910644","1,26902463431912","-25,0972156519993","1,38925607183812","-0,507126348557346","-0,239701406183579"
"0","6,19307608119921","1,20242142989415","-24,7452800425792","1,47286873153665","-0,538394555590725","-0,216145525438861"
"0","6,17814641383681","1,14063960497107","-24,5365792465073","1,44789384308779","-0,413209263069592","-0,166217807676145"
"0","6,36749912864767","1,42690456149575","-24,7832401688069","1,45727896955568","-0,327975246320452","-0,118434435227872"
"0","6,49133125987114","1,60585907119116","-24,9055801687389","1,51005373486572","-0,354921156024943","-0,0964050087439065"
"0","6,45902577367108","1,721560449968","-24,8566606366284","1,55306865671199","-0,365374344607687","-0,0745823904912414"
"0","6,46507463459416","1,84041559574419","-24,844232633406","1,62906007104536","-0,240466268120038","-0,0518998647550014"
"0","6,65468110573111","1,61337680601379","-24,9109133035686","1,69283414563146","-0,143043761392341","-0,0296527495920081"
"0","6,79324683761478","1,49421587681393","-24,957691525548","1,40092611168434","-0,217488561981962","0,0145897625442913"
"0","6,57154361249221","1,47313289898085","-24,8946565271357","1,22507485814784","-0,258610951829654","0,0582864190703027"
"0","6,45374792996118","1,43817108085984","-24,8637234894664","1,32357285386633","-0,286805588502528","0,0791826693737707"
"0","6,6063255147937","1,5382064548029","-25,0155409607258","1,34681900172038","-0,309984777523874","0,0999521674134037"
"0","6,69101819911895","1,59419571201418","-25,1137861831624","1,35230523914187","-0,266736564007627","0,143156699498956"
"0","6,58427675838338","1,60378075250946","-25,1984213803634","1,35360002575486","-0,237717193384012","0,185956970309573"
"0","6,52647519950197","1,62100693008731","-25,2795989518162","1,28334585568982","-0,31094045703642","0,183494228169568"
"0","6,51639260810418","1,50157462435881","-25,2900601103252","1,23620568085273","-0,363829745411426","0,181328530220291"
"0","6,49903782120173","1,42574598266743","-25,3225557701685","1,22980042851794","-0,376589464828203","0,134751138053337"
"0","6,41041233250385","1,53489727093636","-25,1511352829389","1,21300887465899","-0,393780527532653","0,0889462412228595"
"0","6,34277722129036","1,59331437508686","-25,0479099159701","1,0879264663714","-0,348209162154044","0,0884486924814048"
"0","6,31540626774127","1,49952586156388","-24,8572525083493","0,997286733846639","-0,318288502162419","0,0880154507512052"
"0","6,27877474033542","1,44520033444137","-24,7043829982719","1,12645493350662","-0,197717269358545","0,0876911486093092"
"0","6,41300077132969","1,50540517214834","-24,8055465122995","1,18749919068217","-0,101977264860194","0,0874026664149223"
"0","6,49279865172777","1,53611295072975","-24,8312470943937","1,09134627228999","-0,112593193213364","0,020090624767891"
"0","6,41941716377317","1,55896475983253","-24,8726953267877","1,03809382959956","-0,104470940491335","-0,0463639982056672"
"0","6,38517902790843","1,57972428386423","-24,8981442483946","1,06552591745738","-0,121319833523511","-0,0450259220537444"
"0","6,32671585663943","1,59992656835591","-25,0941235550082","1,07200006310508","-0,127856525504272","-0,043845159696128"
"0","6,28179128163984","1,61998044290611","-25,233426091361","1,14408775015371","-0,130392498756032","-0,0428151480869922"
"0","6,27514329375466","1,57064801537928","-25,323410897363","1,19166064655618","-0,131376354252446","-0,0419048108014486"
"0","6,25870459880333","1,54283589233325","-25,4208665381836","0,986488780306507","-0,0672764397389231","-0,108110624230605"
"0","6,27432000067533","1,2433681810363","-25,4154631388245","0,861667556939547","-0,0179266434266817","-0,173591122007974"
"0","6,27848500659695","1,03155027371083","-25,443928409097","0,826369339635965","-0,0387809098054631","-0,193755659311271"
"0","6,21026488345827","1,18981007117753","-25,3064030034504","0,772199116055585","-0,0468715253457553","-0,213901095793733"
"0","6,16273789305834","1,24663288610279","-25,2267076807704","0,819414601838307","-0,050010358361115","-0,144686165210577"
"0","6,3633888712623","1,345786704493","-24,9172710737635","0,830557754097393","-0,0512280991682569","-0,0765474973749586"
"0","6,4902349251566","1,41621456446833","-24,6894687131048","0,833187608269404","-0,0517005335622253","-0,0540320652392806"
"0","6,632060933558","1,23627810679204","-24,6570005343002","0,833808270430814","-0,051883819081849","-0,0318103087829704"
"0","6,75788245867675","1,12966196997767","-24,5741569877043","0,76339500274598","0,0447674897560229","0,0124895927174138"
"0","6,87943520043718","1,11192005423718","-24,6531105917706","0,71621727986777","0,118986721613416","0,0562872154982731"
"0","6,9998493542758","1,07784806319059","-24,673168748137","0,639243418091441","0,184503210956504","-0,0120378969373867"
"0","6,80797017916665","1,17812042531298","-24,8528595295929","0,575237479720528","0,24664338666906","-0,0793907666710984"
"0","6,71279480873616","1,23417279972844","-24,9731049658122","0,761251170549333","0,242992077833643","-0,0788780035087935"
"0","6,99006784093268","1,10508109833033","-24,9036533086088","0,866271069823257","0,253816322458869","-0,0784251208285389"
"0","7,16668188370049","1,02667986398695","-24,8860091210309","0,98745579769394","0,205774888061368","-0,122696401009732"
"0","6,9697925802644","0,85775888823665","-24,9164456183934","1,09245552700556","0,174895940761675","-0,166468877520709"
"0","6,87328088725184","0,724729735373538","-24,9390970096566","1,01723612497011","0,150675347311575","-0,120458501566107"
"0","6,83820784987709","0,843973389152175","-25,0296085987984","0,9994838719577","0,12903792701894","-0,0751500039594091"
"0","6,79952199015206","0,890405011088248","-25,0973600654127","0,995294228348623","0,108402673885363","-0,119803514330575"
"0","6,7945380187472","1,12548488874296","-25,0545723197167","0,994305446048212","0,0881562212515855","-0,163913610013602"
"0","6,77854315729763","1,29080756968236","-25,0437020965788","0,994072087192703","0,100301412967306","-0,162872648490226"
"0","6,34362523813678","1,22951144660627","-25,1107785207375","0,994017013031867","0,10501325825835","-0,161953253317287"
"0","6,03697039216644","1,22785980130501","-25,1576572839813","0,817604645514862","0,0746004590694245","-0,205812336473327"
"0","5,59119883689331","1,06872636568332","-25,3739998417407","0,699570845129166","0,0505607123142194","-0,249220768144227"
"0","5,20832148550985","0,967650710231128","-25,5333946620159","0,736434250299627","-0,00324735215642877","-0,292231174456976"
"0","4,80755402619956","0,743344066316067","-25,3989699007776","0,729854372348153","-0,0486043251114332","-0,334890035822572"
"0","4,42201484176399","0,566217239206983","-25,3499002999626","0,818861227543681","-0,0906826148892402","-0,287896309407406"
"0","4,14453395375931","0,956430048798509","-25,6018671840315","0,870427154275766","-0,131488907628968","-0,241719283170613"
"0","3,835874830843","1,177742764688","-25,7703123613617","0,877876911954708","-0,365246549218977","-0,196263582626045"
"0","3,44956868635999","1,38874560513137","-25,3239158271787","0,894914975658732","-0,553861543888395","-0,151444978068393"
"0","3,08255220042867","1,57700261025304","-25,0613188087241","0,914215940022846","-0,660481398650311","-0,151860121618047"
"0","2,58201867146596","1,1350807196745","-25,4390390705877","0,934050963206531","-0,77529044112496","-0,152226786117742"
"0","2,12587291302483","0,885322905195041","-25,6394318828009","0,88345227977082","-1,05448058571241","-0,130215107695181"
"0","1,54290438595095","0,478703936650041","-25,7598556698741","0,856230797606667","-1,29744397818728","-0,1084383454555"
"0","1,0061091545321","0,15030804270118","-25,8799633329439","0,763966734429448","-1,39738962806571","-0,0868690667694503"
"0","0,620291521700797","-0,399968368682897","-26,0349096864465","0,696352212148876","-1,5218501532329","-0,065483042489539"
"0","0,194743271451144","-0,869338351580466","-26,1787068062767","0,846234380495359","-1,72030307360802","-0,0219233490395306"
"0","2,49717363178849","-0,693039493057575","-25,516534424938","0,927447138781291","-1,90746206360263","0,0212206569595993"
"0","3,94722196573258","-0,704779264083797","-25,1096055606976","1,16885285311549","-2,31592510131317","0,0863330423144809"
"0","6,17521931752079","-1,35604707202002","-24,3135742679484","1,34806511482472","-2,67024519748162","0,150848422723223"
"0","8,03071451615294","-1,8376407662525","-23,6786915364854","1,01868109461903","-2,81011518022579","0,259507561268626"
"0","8,53889580776691","-1,3725369642567","-24,237075639644","0,849265146035795","-2,98678715500487","0,36715551861929"
"0","9,40771584521555","-1,17529864931819","-24,4386090801734","0,752882544619142","-2,91981037735112","0,429239329236678"
"0","9,54075459845826","-2,33231646589103","-24,9335936591539","0,653736273486436","-2,91830769564487","0,491079800377875"
"0","9,95754266082166","-3,11001413160121","-25,2831294747825","0,871456624282661","-2,52307585611578","0,597376395940836"
"0","10,4153480214619","-3,71734045766988","-25,5607950428011","0,983959495166153","-2,235092959077","0,702937699053454"
"0","10,9040936890897","-4,31929168249338","-25,8402019805557","0,648271890367733","-1,79527350026387","0,718507479093093"
"0","11,2970953393826","-4,81579118942068","-26,6089173370689","0,446808508219932","-1,41654757003797","0,734594603342582"
"0","11,7245597411033","-5,3442056769657","-27,2219414555564","0,700381375878997","-1,15824588486681","0,639461039172758"
"0","16,2170815130063","-5,70775316055265","-25,211406101861","0,821345666732042","-0,886663957215355","0,546094714985553"
"0","19,4538525509439","-6,12739151592398","-24,0143556884411","0,946293371518016","-0,48096660863414","0,454289259256091"
"0","21,8703672331177","-3,47603705629404","-21,8018059947707","1,0521811871009","-0,103237877646149","0,363862399678004"
"0","24,3480996766395","-1,78678323520404","-20,0312687957271","0,871331757222614","-0,0265270926855508","0,274653149044221"
"0","22,7862950603471","-2,01808887843844","-21,9347630074918","0,782810530018586","0,11340085140206","0,186519319620396"
"0","22,4870480629581","-1,80089827767115","-22,7316445852258","1,66863593682663","0,729225783214913","0,03232875634082"
"0","22,3858937024856","-1,67229973068853","-23,4219863263896","2,24441329088115","1,24967958158841","-0,120204687010331"
"0","22,4175754465559","-1,44729595861613","-23,9852616311766","1,08886327527519","2,63587577240308","-0,315945570224451"
"0","19,780777584245","-1,57802379285053","-24,6908507272048","0,464709087317144","3,79794514748383","-0,509848293054108"
"0","17,9922315739571","-1,58349383951481","-25,3325946297372","0,847964512581987","3,90583818140576","-0,568114365947933"
"0","18,0592141102443","-1,55560390436114","-24,7010346047934","0,96897495659363","4,20475324731505","-0,626582920244869"
"0","17,6811110552401","-1,51882918520734","-24,4659918258784","2,33344926755765","4,02968347703783","-0,908585549126936"
"0","17,7042756252844","0,184634447042814","-24,5062792279794","3,25138888907438","4,01072667799342","-1,1880187948175"
"0","17,5344679905902","1,37198833885826","-24,5165142390406","1,41795296421158","3,82664978712817","-1,5545247953751"
"0","16,1345624658696","5,78520504788238","-25,8111175059592","0,435175067599881","3,71851295012839","-1,91793552615037"
"0","15,0865600379677","9,11756773909975","-26,692014418529","0,95851316316852","3,57535618504811","-2,25627691713954"
"0","14,1324186899214","12,1620659303817","-27,4678092671277","1,09730412642432","3,45861309814756","-2,59247647035236"
"0","13,2033123654124","15,1298969964479","-28,2169029453555","2,45069487807271","3,25539503844653","-2,81510668235169"
"0","13,9794937501462","15,754192266061","-27,9814811456801","3,35073883579413","3,07862817170149","-3,03742974821233"
"0","14,2305166730799","17,0943322390174","-28,0559432729705","1,88587816080932","2,68643766472715","-3,19247496383302"
"0","15,7974187668501","14,3256234518665","-27,1964803358657","1,14288508575274","2,35067146059192","-3,34809878030053"
"0","16,8752977092216","12,9426025058556","-26,6797538159554","0,1468988272395","2,26248125160515","-3,3255494402606"
"0","16,0894665541958","13,4889350943748","-27,4024265099436","-0,66879541726677","2,13034055869198","-3,30563332625888"
"0","15,8065387726803","13,6491135688938","-27,7799684683158","-0,595222635623045","2,14235287499361","-3,10935874963759"
"0","17,113699155594","12,3888586428362","-26,9524219381083","-0,791777230472377","2,1102907537365","-2,9173201799023"
"0","18,0049745676973","11,5102988358121","-26,4587227803519","-0,417045858069213","2,4480191905663","-2,70668742848512"
"0","18,7853233843574","10,7333961191612","-26,0498375190395","-0,26748739639561","2,68921147223101","-2,49963185309662"
"0","19,5360853911054","9,98356779646454","-25,6624992208714","-0,876668639662915","2,79622919702605","-2,42974886765938"
"0","19,6549765990472","10,0384381370097","-26,1186909678649","-1,26491723587621","2,91119259705107","-2,36101997961666"
"0","19,9653325595262","9,84762435599589","-26,3091814507519","-0,683747612502294","3,44836906945455","-2,24863937023292"
"0","20,8120740249714","7,33760715631627","-25,2449244920909","-0,393789178751548","3,8893472111498","-2,1377045212546"
"0","21,5218824971304","5,50991511677481","-24,5418990531229","-0,4900772867517","3,84163299871923","-2,2067307928398"
"0","21,5365228276439","7,46997949741524","-25,2575665158077","-0,497522013241012","3,88432583284218","-2,27470301081083"
"0","21,7457449761462","8,35883932111231","-25,5736527889299","-0,730958259220469","4,22001940358075","-2,38641531117165"
"0","22,2495254176084","6,84732792455439","-24,810493447136","-0,877729928296695","4,50938546079871","-2,49675989370911"
"0","22,6918716907089","5,9165242187721","-24,3331518490942","-0,157331236543201","4,7485375029965","-2,69523857057657"
"0","23,117831983025","5,14038074116104","-23,9284222244296","0,287725126419274","4,98820852951706","-2,89155937794574"
"0","23,5394217373582","4,40542801503809","-23,5421396653966","-0,390597253791405","5,16359929022936","-3,15298087505391"
"0","23,0585423589896","6,8020505650731","-23,6494096057372","-0,7340440984078","5,35405189641558","-3,41190085132543"
"0","22,8569526029697","8,23270743984573","-23,6020665163695","-0,32814060105793","5,51810708668268","-3,6909469486541"
"0","20,3032700656391","7,56840853282119","-25,7502601093922","-0,125385699608254","5,69192114261402","-3,96776891528435"
"0","18,5222274102232","7,40615879378917","-27,1762296089674","0,62918270956901","5,8372804400145","-4,28729752436513"
"0","19,1311940062867","10,636918581801","-27,0917960743743","1,17398258482767","5,99160043699636","-4,60454565686299"
"0","19,1176339614573","12,8913406356576","-27,3836447780148","0,751999041570066","5,73026635419602","-4,78576647523337"
"0","20,9486308844453","18,214379320668","-26,9330319111091","0,621848517596371","5,56767522709642","-4,96684473108462"
"0","22,1116158303295","22,4346845166667","-26,7737967456497","1,58368876976469","4,86305789293582","-4,99144840559233"
"0","23,096425801073","26,3612980400189","-26,6885860603444","2,22324572827094","4,30815621817836","-5,01785000434558"
"0","24,0337121901227","30,2096924837462","-26,6221812878968","1,86946507574482","3,65013416305964","-4,97883300114264"
"0","25,8249607776047","24,5020730973824","-24,4304950517547","1,80125048568921","3,05210555308456","-4,94203673113695"
"0","27,3439817684144","21,7493948064338","-22,9188812413664","-0,633880015025774","2,76751923256612","-4,90720186556461"
"0","22,2732761413768","25,01938933834","-24,6179929213119","-2,2476175900872","2,42453589783493","-4,874099359087"
"0","19,2049308064278","26,8734059415559","-25,3927891377198","-1,23318995577411","2,02665606786156","-5,02121110395896"
"0","17,7799599610018","22,6638686629211","-27,64379417334","-0,978498765879601","1,62747860845129","-5,16749236635379"
"0","16,1533168983903","20,1194214359729","-29,2898299333388","-0,938390039664165","2,45294832676304","-5,44705326976529"
"0","18,0434310723477","26,0626646551759","-27,1156781211155","-0,928924127459145","2,99353183270407","-5,72432992538494"
"0","18,8115495855652","29,6264395702744","-26,0710079826047","-2,65540393525747","2,35964438217259","-6,20060879333924"
"0","19,2804046786463","32,5564892623653","-25,3132825667861","-3,81157787519974","1,93010949722803","-6,67265115328202"
"0","19,6694389687016","35,3177585350728","-24,628455433248","-0,2114925502081","0,483667794286505","-7,23029382375742"
"0","21,5278002858835","35,6416126463821","-24,6954471379832","1,89109994153697","-0,677292802548435","-7,78354072655769"
"0","22,918066711813","36,6963085133664","-24,5334383543387","0,147567166033416","-0,534588426446817","-8,5562604208773"
"0","22,9008568164372","38,8818313797967","-25,8846070930945","-0,523675415903077","-0,62611454026993","-9,32282371010646"
"0","23,2482388937282","40,828528080386","-26,720198452115","-2,77640419771455","-0,679549429920588","-9,90526532523027"
"0","22,1329182815701","35,6382469159894","-28,1231874560499","-4,36237369131174","-0,798206458550345","-10,4850862940212"
"0","21,5274594319801","32,6271701489421","-29,2703237831911","-1,45155929626224","-0,619758996438447","-11,062592645576"
"0","24,9058652908309","22,9150707216424","-26,6161275767923","0,060524441180311","-0,526046956507076","-11,6380546720788"
"0","27,1268643661495","15,618283903289","-25,1362031650719","-2,60300733198089","-0,497449653444803","-12,1893755782034"
"0","29,0391550171409","8,9647687431867","-23,954602402448","-4,07201068588964","-0,474114246075546","-12,7393744720327"
"0","30,8691056537084","2,48257651030165","-22,8487907373851","-6,03525502989745","-1,12987715600449","-13,4892254474972"
"0","32,4344356050916","8,6671260417563","-22,7050463322246","-7,67514336292827","-1,62910286532059","-14,2355905397509"
"0","34,0691848099906","10,9452165174376","-22,2657150322335","-3,45281831404474","-1,42278233639592","-14,9565412931383"
"0","36,9704083711814","11,7321433620162","-22,5195079444666","-1,12697395561655","-1,3427382798331","-15,6750454973478"
"0","39,4894313202316","12,3819277008378","-22,5093890035878","-0,836305321273514","-1,15048038224809","-16,6147440892623"
"0","43,1544706680903","13,9660416572605","-20,1624881678921","-0,125950986180505","-1,01468803326978","-17,5498068308271"
"0","46,4051803487679","15,2389961820806","-18,5219280914963","-0,76302301157356","-1,12648768113677","-18,8604789839093"
"0","43,8255682050421","13,5511882258603","-20,4828759921261","-0,898096151302234","-1,19434305309132","-20,1628983121487"
"0","42,9908680064158","12,7348386192496","-21,3987866865699","-0,667735272218925","-0,632574512812423","-21,5920416919084"
"0","42,6215780894861","12,1505850384594","-22,0492057680808","-0,491129661248055","-0,206537249945481","-23,0131107711506"
"0","42,3764243680345","11,6281457316683","-22,6321767280123","-1,13864773286076","0,392527381160908","-24,538726055029"
"0","43,8283255232973","12,5437783649563","-21,5568194180969","-1,52066418827933","0,918719663221169","-26,0566790359882"
"0","44,7728723209059","13,0224135620337","-21,0001639529313","-1,13442311006257","0,642861078560062","-27,835890774404"
"0","43,8141541288311","12,4484814938087","-21,9720447154613","-0,966868411334003","0,535839056713581","-29,6058524677294"
"0","43,3677890623798","12,1342185534373","-22,5322499760237","-0,145327597943521","1,07465331951333","-31,3899798248151"
"0","46,9752842423473","14,2815772187966","-21,241919025039","0,430558060791604","1,50402605251465","-33,1666186334049"
"0","49,4040421442206","15,7045410453431","-20,4814595076391","-0,956645637828531","1,72973585217063","-35,0036499491246"
"0","50,4437712800737","23,834580568086","-21,1126978441881","-1,72715079876693","1,9764326353255","-36,83402136503"
"0","51,7330127984319","29,7709195905825","-21,377496901612","-0,799796764486079","1,4897329984238","-38,6585105988534"
"0","53,0888053129907","35,1230090408814","-21,5492020914864","-0,351737257981923","1,17850508488409","-40,4778045494128"
"0","54,4623485902603","40,3194949516021","-21,6972567922648","0,865202567159146","1,61241004731929","-42,225503330642"
"0","54,5926678660321","29,3860868535294","-21,5948700763463","1,763602993998","1,91539655865419","-43,9699675537054"
"0","55,111389186747","23,4367943933161","-21,5688587399161","-2,07011724425103","2,16759198313212","-45,8679236047174"
"0","55,3870515853525","31,2279973436707","-21,3527365518647","-4,3806477875365","2,40008251129918","-47,7614472926688"
"0","55,7978842819632","35,5187146919592","-21,2083167182039","-3,54458592090416","2,2702794736854","-49,8297404025862"
"0","55,6554564068124","30,0354316708316","-20,628165839332","-3,54590841154912","2,21992112234279","-51,8923940270784"
"0","55,7054605358792","27,0490332591352","-20,1973175256575","-1,91030544426781","2,74847780200288","-54,1734219619616"
"0","56,5694322837822","25,3517526093008","-20,1885085347125","-0,928377750849252","3,16163020041264","-56,4473232870678"
"0","57,2105089118703","23,6378034674801","-20,0669185976437","-3,84038817934682","3,59449199592729","-59,1839762209383"
"0","57,7921340124512","21,9194149961743","-19,9166766708492","-5,55139254935863","3,99500024380859","-61,9093423933477"
"0","58,3579019505877","20,1998441955796","-19,7591557085132","-3,76848339128533","4,1572709802165","-64,9151016389534"
"0","55,8342095152571","27,5990595443272","-20,961626574471","-2,98098861732535","4,36711515615004","-67,9085107227"
"0","54,2664831642071","32,166886686761","-21,7296032481954","-0,840823585421441","4,91782396493482","-70,868676325628"
"0","54,7910084478847","31,8198219490308","-22,8760627334365","0,71858015367211","5,40077452442862","-73,8194804948012"
"0","54,8135879218803","32,5637711040084","-23,838675744602","-1,59874607002188","5,40606633608617","-76,8066874704332"
"0","54,2863001034799","32,0726615732083","-24,0562025405583","-2,71100500120721","5,50604578920722","-79,7860462714458"
"0","53,8523493590973","32,1326181206066","-24,4844402472083","-1,03398940615035","4,80449929335075","-82,7361378539582"
"0","54,8299144952898","22,6307917921485","-23,8488009880268","-0,11868744120757","4,31199300725477","-85,6803799322664"
"0","55,3839651071207","16,1823700856808","-23,5828838765841","-0,547390534105375","4,41643879096772","-88,5301134939146"
"0","55,82505413677","10,5471634666618","-23,4108946451818","-0,633287292348897","4,43247793812405","-91,3763748834903"
"0","56,236013576252","5,12854091045943","-23,2627677836775","-3,81346824881779","4,60766370296525","-94,0632209012901"
"0","58,4762090484918","9,51082334135537","-22,4572421227357","-5,92391978033451","4,72459194653187","-96,749267467208"
"0","60,1443060791375","10,8833866858115","-21,8647043529717","-2,80744620007984","4,39978814754502","-99,4122724143708"
"0","61,9371347222358","4,62371230488538","-21,0120051233804","-1,27738534646016","4,16361010487992","-102,07492645525"
"0","63,603232307673","0,271339465138865","-20,273211897151","-1,32124360973673","4,80007622738498","-104,737270567345"
"0","64,4035552770503","4,78322589491662","-18,9697334522892","-1,05655670551829","5,25509314403615","-107,399340942958"
"0","65,4529551851935","6,8359358215599","-17,8627967758863","-3,11808262439518","5,18834380011236","-110,105840595631"
"0","64,8701796840872","12,7412322305894","-19,1453646334691","-4,36860943238877","5,19917015894726","-112,811581243622"
"0","64,8320634661439","17,0725903120922","-19,6949859137274","-0,947191348661567","5,62698243138309","-115,561322568245"
"0","64,93922107197","20,9847604532086","-20,0584021786469","1,03683517828022","5,97656844600606","-118,309926338084"
"0","65,0851267254747","24,7852880183153","-20,3745130753308","1,62323201947284","6,65045468236019","-120,945847773359"
"0","64,3400640175087","19,2636137693466","-19,8405500062406","2,47977944512007","7,23015634496822","-123,582245487887"
"0","63,8773584661549","16,6191519104918","-19,5706257187844","-0,198463029680648","7,19298368840515","-126,152057292135"
"0","61,2020403813904","18,9711330901716","-19,9614034902932","-1,6709382019026","7,27648863792795","-128,723058835074"
"0","59,2565649392003","20,2138199461483","-20,1800325634251","-1,72988872450302","7,21336680637059","-131,317446707373"
"0","58,337728581571","13,1168417661275","-21,4374163274234","-2,09523851989311","7,21335968850859","-133,912489942568"
"0","57,2127217354468","8,4387555866307","-22,3386956318747","-2,74457971859602","7,3668017595417","-136,21775020023"
"0","57,6620034570518","15,6390720737352","-24,4415096920403","-3,34094467856975","7,49977593636891","-138,527067232677"
"0","57,5911860727027","19,5229706795346","-26,1095735542239","-2,44305220706681","6,56086281587638","-140,68361863847"
"0","57,381645658752","22,5236057185149","-27,6671891657595","-2,03250556295108","5,86610058961235","-142,845243805595"
"0","57,1351044526032","25,2890006410828","-29,1967454086559","0,415096703952401","5,07261424571904","-144,765659477524"
"0","59,8945940919679","24,0736510799146","-28,658952070516","2,12345693804934","4,36082691986907","-146,693033180326"
"0","61,7158649710842","24,058107448777","-28,7759487479691","0,305763369034027","3,55177230129681","-148,269184000555"
"0","65,2628245674159","26,0264314750588","-28,7799427592597","-0,444101123364847","2,78498189016453","-149,855126408611"
"0","68,1300671449348","27,5631201664412","-28,9152284528678","-1,43586945788288","2,22803312198915","-151,047677551425"
"0","68,4587576716165","22,0848469509239","-26,9887286846097","-2,20472862393862","1,63249446082359","-152,252776162503"
"0","69,4703548765408","18,7182747161796","-25,7384324959442","-0,451388645818638","1,40887414017139","-153,044582043735"
"0","67,648199981144","7,17641930035925","-26,4757138577607","0,49720622855771","1,08954315824842","-153,851357945859"
"0","66,8102147603417","-1,50276419675604","-26,6779391264384","-1,35483448520106","1,82926767811793","-154,336322869572"
"0","66,2347314306959","-9,41953056188022","-26,7442334403748","-2,3878428510649","2,29986308383903","-154,837056675138"
"0","65,7292637138449","-17,1332419141839","-26,7759945068745","-3,86259215100615","2,56932481503401","-155,150698218228"
"0","64,4104984836192","-11,2702521891387","-26,2751973791787","-5,08159509582458","2,82075478029486","-155,47909542061"
"0","63,3548071065665","-9,59137150933293","-25,9391038877547","-0,87769945087858","3,12967075734969","-155,239801553305"
"0","63,9292320982812","-20,4690651400877","-25,2607443222526","1,56603444352254","3,42088899198203","-155,019109417065"
"0","64,0384486108614","-28,0909587509161","-24,7154320898777","2,78292196945817","3,86644524231798","-154,435142867669"
"0","63,5729310514165","-30,0608056445626","-24,9721385587128","4,17026601922943","4,2718784274561","-153,870323707354"
"0","63,2141179935294","-33,285339540294","-24,9925978100577","1,36425401103855","3,88796614917135","-152,920376548217"
"0","63,091758704159","-30,6721719179363","-24,4990914537697","-0,0314164589008057","3,6778196185263","-151,990275170985"
"0","62,9124673623275","-30,0642457429971","-24,1350121787808","2,01039147017767","3,18043834076639","-150,541649489189"
"0","62,7179908630743","-29,9903767274903","-23,8038138427365","3,10346596895422","2,7916215482533","-149,115050796027"
"0","62,5194641145158","-30,0587434761146","-23,4809689064213","4,71351075061329","2,86405387442123","-146,993170101464"
"0","62,2158605197044","-31,4479073166655","-25,6394952719327","6,02556377766231","2,85543228383973","-144,897199789257"
"0","61,9442303847849","-32,448839840239","-27,0084138046397","5,00937694053657","2,49295698352442","-142,265726048174"
"0","62,8944213904188","-35,8775318067516","-25,4530504015926","4,7237108198223","2,19320069374811","-139,661282928879"
"0","63,4705016896672","-38,4928104042908","-24,7147734226474","5,13965030189143","1,85329524350053","-136,321306088478"
"0","63,6694734772493","-36,487931856598","-24,4983481953062","5,42117312866278","1,53781353582254","-133,011688353232"
"0","63,9278612903005","-35,7925640806428","-24,2344993608677","5,14177466850883","1,36077047835305","-129,103489835553"
"0","62,0875003478588","-33,5389227561493","-26,9616367100727","5,02999524897357","1,15743604215127","-125,226610519186"
"0","60,9073522756153","-31,9702655012687","-28,7286338436521","6,89816804592782","0,943901609772048","-121,020024685995"
"0","59,9032989677876","-30,5840404651841","-30,2517074374961","8,13362204624803","0,726409989636356","-116,842234207145"
"0","58,9462143990657","-29,2464027115359","-31,7128122769135","8,26719382612626","0,862031999550664","-112,533527804107"
"0","58,3136471707281","-34,232261851112","-31,3773048724049","8,68071445646282","0,914647877812142","-108,249193339842"
"0","57,5876365776569","-37,2622617173933","-31,6053682808477","7,21991171376815","0,61265266557425","-103,584345323433"
"0","56,1087265491935","-32,4899449316892","-31,4528217805286","6,41675684057618","0,373082630638524","-98,9434186781034"
"0","54,8490000042869","-29,8396324644597","-31,5035813654117","8,34424180710379","-0,261399419772528","-94,1002647190667"
"0","55,5890038745154","-30,7017126609082","-31,4313958353228","9,45617498790474","-0,789091428828003","-89,2784987817229"
"0","55,7423842847115","-30,7992505057061","-31,427976109281","9,59947558005073","-0,888463537387089","-84,0512483018075"
"0","55,7046324931422","-30,5198003867344","-32,5594343845693","9,95417277567199","-1,06166477327053","-78,8458642196894"
"0","55,6359011136833","-30,2399468368791","-33,3392083191202","8,91228607093731","-1,65039840236337","-73,3694312510783"
"0","55,5589067277345","-29,9599858410341","-34,0296368769581","8,36079676260196","-2,16034186626563","-67,9136014524987"
"0","55,4797083978052","-29,6799962290341","-34,6973672494767","8,38368269208561","-1,8336977836839","-62,3419557213196"
"0","55,4692532537357","-33,8728660456222","-35,4291691533725","8,28212479816606","-1,68249142298313","-56,7880186010008"
"0","55,4371335824595","-36,6769952011031","-36,1372484243398","7,33976027704165","-1,40590300090574","-51,0263669092299"
"0","53,7699562260575","-35,9213085274262","-34,5346468496445","6,6589600920228","-1,20067138823021","-45,2812567624649"
"0","52,6066693800269","-36,0575339652459","-33,6650170035566","8,15668317506362","-1,05536414943096","-39,3944078353555"
"0","51,0231340897099","-32,4438632734092","-34,8672246547749","8,96855148129804","-0,913305154502755","-33,5223718427794"
"0","49,6475083598798","-30,1314804924377","-35,5157824451452","9,83023298064479","-0,772506347387658","-27,7304255581219"
"0","51,20457493673","-36,5219570067382","-33,6142744177554","10,5836707075546","-0,632196442395475","-21,9492164103583"
"0","51,88386158859","-40,4102712657931","-32,444922387267","8,87725092045705","-0,685521044215502","-16,1998260813593"
"0","50,9077369348872","-41,6211266450425","-30,9377894995935","7,97028925478219","-0,693968036892955","-10,4585388906694"
"0","50,3100739879718","-43,2788927922262","-29,6448434140156","7,71064310614079","-0,588281908234717","-4,81375067993755"
"0","46,3468043902848","-42,4551808539305","-30,3617755629119","7,34376749975681","-0,498316724712186","0,825807334145762"
"0","43,4858459757984","-42,4705753662664","-30,4693171055321","8,78613850999001","0,06916144638253","6,39373934256632"
"0","43,4148177742413","-39,7275382371004","-29,1300399534672","9,6155031260071","0,521895426901154","11,9584095574381"
"0","42,6479315392515","-37,9698463515981","-28,1631986356484","10,1590748732788","0,156333952390679","17,3861857356738"
"0","42,0420982669221","-34,082118285931","-29,7353047293253","10,7151977020824","-0,0466932053885793","22,8130538414351"
"0","41,2792217208219","-31,0070964046832","-30,5524301959393","10,6392449344365","0,0390220442524942","28,0827712492342"
"0","42,6237198938794","-26,7269141424552","-31,3174289055973","10,7741183418532","0,0967577201308232","33,3536894189835"
"0","43,2903059501896","-22,9457607919052","-31,9891848171047","10,2178707028846","0,111397642731759","38,7596812731898"
"0","47,2426279795302","-20,1990221988029","-29,2151902362274","9,91851414061114","0,129318148554675","44,1649734214852"
"0","50,071335381258","-17,2077799095242","-27,5258030371995","10,6323420879114","-0,689749552176795","49,2792857632149"
"0","49,6191132076807","-14,1167454159618","-29,0800753961158","11,0452879658982","-1,31353497099977","54,3965978118318"
"0","50,0117876444122","-11,0191332046778","-29,7583991885568","10,5757866784985","-0,82985295537468","59,1145198442511"
"0","49,0698682726802","-7,36499493813584","-30,2491073242437","10,3580222977198","-0,556518173607216","63,8396911052661"
"0","48,6719804051785","-3,88263675293834","-30,6721517183639","8,08287697766734","-0,429271258584212","68,2585677241094"
"0","47,587226544346","-2,17969825921397","-30,1002740968689","6,52217678761381","-0,318700552806018","72,6869176224008"
"0","46,7992688855559","0,049326319011833","-29,8356366223231","7,84664044450266","0,140049314887844","76,6769240702724"
"0","44,0105430298327","-6,07651633590529","-32,1981406056132","8,31202095538384","0,513878676006952","80,6797751461901"
"0","41,8881638325987","-9,52751580059772","-33,7680696517769","8,25713356332813","1,08044793826803","84,358938046133"
"0","40,2901705852147","-10,5671266601823","-32,4129629695872","8,25945966676371","1,58179252041282","88,0522118423454"
"0","38,632043772537","-11,9445109438154","-31,8747512105539","6,40545519729056","1,70318369377116","91,3559092893698"
"0","37,7551847391171","-14,139995774074","-29,1695794207326","5,1733450115634","1,89716824548767","94,6755236293469"
"0","36,6267087465985","-16,133365814427","-27,2738916202565","5,71087999774428","2,18379771545091","97,4508080526731"
"0","34,5298170119671","-12,5945111998706","-28,0980212811513","5,74606239913707","2,46636968282365","100,245327333633"
"0","32,69462534157","-10,7422558692327","-28,1731203356986","8,02643797758009","2,61840428093821","102,61012482244"
"0","34,8117731591505","-5,31708053303036","-28,3372802423801","9,49669329798032","2,79979563660415","104,995381793148"
"0","35,7431056532852","-1,26032726514937","-28,3640660509361","9,43511992155838","2,4122417345538","107,04134068429"
"0","36,5661455706882","-0,411244483561424","-27,6575719474218","9,77202531707837","2,16395998429977","109,107623433192"
"0","37,2403012347717","1,22353749025592","-27,164788144905","7,34530442589634","2,29211827449207","111,169521173341"
"0","37,1467700355664","1,78465984657396","-24,7708333303908","5,88635031102896","2,36632014089583","113,247545969356"
"0","37,2684781547111","2,79983379191282","-23,013886182734","5,22027323845377","1,80701378488583","115,295143517445"
"0","34,9516786939128","5,66960496895186","-23,3043968706961","4,42132014561807","1,38193175036148","117,35586699572"
"0","33,4244701950608","8,03331214094456","-23,0350640468417","4,7552433142488","1,39581301222794","119,271834941321"
"0","37,2036955177125","5,09590417280458","-23,0774500488659","4,69653242146837","1,33999435576071","121,199951353971"
"0","39,4582752750714","3,72664702450331","-22,9390281919683","2,60476434894949","0,966967689125024","122,781429200859"
"0","41,7915123473371","0,382572655287447","-23,4879711498506","1,13318196700028","0,650877088713873","124,37674761333"
"0","43,8657292307567","-2,10745597083725","-23,7915390801924","0,407725174125858","0,679283443274159","125,314224628288"
"0","42,0229869294298","-3,78057848536776","-23,2296324664478","-0,481641276657797","0,641340743250164","126,27068045838"
"0","41,355496735416","-5,57613390440331","-22,907852118733","0,00150351745995664","1,38367741728693","126,730181782032"
"0","41,8334471190907","-3,41685733428413","-20,237664710463","0,00856961675343012","1,92873106610871","127,210761053578"
"0","42,1369142501438","-2,50428798444541","-18,3508646891306","2,23174982280776","1,94587557008148","127,173904298897"
"0","40,0019218982202","3,76268071178758","-18,3042772468323","3,65794692693631","2,03821258509249","127,160035726189"
"0","38,5965333368689","8,17568980284847","-17,7851956529913","4,29629313849918","2,32092529339982","126,585747243836"
"0","39,7083373212079","4,70950107780375","-20,8474911414797","5,08870157333946","2,57749610415492","126,036482554215"
"0","40,1515375299032","3,40484086460365","-22,6996351717049","1,86028416161521","2,50151685728253","125,129615569208"
"0","39,376439449887","4,5828981777254","-23,8602313085668","-0,0170734944543693","2,49652158005466","124,246905722742"
"0","38,8763917061745","5,32217914123967","-25,0651397622126","0,541219903988691","2,61578764071736","123,340860988556"
"0","38,2417134562177","8,78781835064208","-22,5449725732877","0,474342303987238","2,72326209639788","122,454206325956"
"0","37,6911259891729","11,3395701896575","-21,2184502356758","1,2477568778396","2,92288430043925","121,383657721868"
"0","39,7282157216725","10,6660144896272","-17,8206811543307","1,6594857013528","3,09825611999575","120,330689610317"
"0","40,9755016430183","10,8534606949703","-15,2567120147285","0,221860711285582","3,10301573988655","119,226242436894"
"0","40,4868450726966","11,0275043391697","-15,9774418294699","-0,652223435857391","3,14158469696969","118,136327730357"
"0","40,4151705911703","11,3379784712074","-15,7726491328845","-1,00522977862202","3,38671514783671","116,858228730209"
"0","39,3454188353587","8,46016313451898","-19,5928457298807","-1,45525847503269","3,59198313992811","115,593920881452"
"0","38,6494556946776","6,59320874811255","-21,9955905129756","-2,28098379780265","4,07195335201671","114,096102943951"
"0","36,0772566452309","1,80552587138111","-23,0954187377272","-2,99537589252985","4,47849696302975","112,612043336416"
"0","34,1446200319974","-1,92003637894112","-24,404241122166","-4,5302096180758","4,56638676104638","110,581747318007"
"0","34,5664976920212","0,462405776611055","-22,2742582841147","-5,77867274000194","4,71065171201371","108,569002296143"
"0","34,3563813406867","1,1115964152455","-21,2706472731359","-3,18460408349496","4,42541667628288","105,968699589188"
"0","30,8231349628681","8,02580640495914","-22,3340600157355","-1,82367370656642","4,25355294195294","103,389451945569"
"0","28,2235293128329","12,7285827624454","-22,9025999663042","0,55158359905762","4,83497042611361","100,627780920818"
"0","28,2995343485611","8,76348727174996","-23,0660655126724","2,42622845348204","5,26863068793112","97,8849892225242"
"0","27,6891895638693","7,14987226410389","-23,2866219412671","-0,86229635859949","4,64550212996011","94,9801880043044"
"0","29,5996888701089","0,996193656641507","-22,264598242089","-2,50936175709236","4,23238206747433","92,0922961207925"
"0","30,6225583562699","-3,38664281701285","-21,6468971676288","-5,88582482334743","3,9007368440601","89,0853258213766"
"0","33,2112822776137","-0,917946452184858","-21,2715902282647","-8,47043664014306","3,60070057716162","86,0931826298896"
"0","35,1776575055584","-0,304477230109099","-20,8778634982093","-4,94114774993229","3,53861295036807","83,359825855153"
"0","33,442154675877","10,702332059424","-21,1079992526647","-3,32893975498913","3,42883981359096","80,6350354051501"
"0","32,7592712998909","18,1972058534021","-21,1366272180009","-0,793259851895831","3,91314192210987","77,9401464609272"
"0","31,2131850159425","19,4863887833121","-23,1393642458525","1,18036524246078","4,24792130201269","75,2516672385356"
"0","30,0968616076026","22,1628063370393","-24,4836235123482","-1,81200086975673","4,10556141422195","72,3231584730669"
"0","27,9858698704016","21,4986344072769","-27,6858986589606","-3,23637220896253","4,03809070527025","69,402649900276"
"0","26,2495759966487","22,0847612733633","-30,2002025811489","-6,37219946024434","3,83846995480877","66,533878335773"
"0","20,6960198617579","13,2259855574133","-35,1586526007348","-8,73194109463212","3,68758031000838","63,6708021287991"
"0","16,3843074186045","7,49174326232813","-39,2380377275119","-12,2491568409921","3,55559637177162","60,6564075304636"
"0","5,67871475133547","3,17910742615895","-38,6244642746348","-15,2795437737085","3,43094708633663","57,6483649261298"
"0","-2,85228064676884","-1,09491110771139","-39,3786450956105","-14,1731304093386","1,69710308017655","54,444912839763"
"0","22,2676435575464","15,5147348941546","-16,5258686006081","-14,3704060992761","0,338956325678044","51,2488704463496"
"0","37,2830831255425","25,6463398186492","-1,39574661669866","-4,64419718286268","-5,51611100419102","47,2776291365087"
"0","64,7869076981188","39,6350596364614","13,6929807425645","1,62401665155872","-10,2358024234297","43,3217136869257"
"0","86,8616870499549","51,4310471811507","27,6711918009733","1,53718164220492","-7,93788940744428","39,5133475449302"
"0","77,329410006561","27,622921158237","19,7174952284626","3,09051504780716","-6,99742847402076","35,7153004644055"
"0","76,7667654240965","14,532330178048","18,5919993964006","-10,4569261189943","-3,68193179601199","32,2837358057614"
"0","68,0235568414842","8,69966701881978","11,7285410132527","-18,7882452699129","-1,24501689331598","28,8558571477223"
"0","63,1983936872166","2,26001213668333","7,68735373431084","-20,5259859082875","-2,46975929591051","25,0068591006183"
"0","54,5650959758084","6,06071317952933","-0,70009105957608","-23,7476004562596","-3,05507727567095","21,1659183826379"
"0","47,7160765358885","6,58873436824267","-7,29170220374663","-15,9945790675514","-3,4890467456416","18,002159804144"
"0","44,7748533701263","21,1546975983441","-2,84662444483326","-12,0714744211331","-3,80429908871533","14,836504614311"
"0","40,8959341268494","30,8593943662704","-1,65767681317768","-9,12281401495715","-4,20245718901912","11,7585163874626"
"0","45,9186047322368","18,8814349820585","2,96416944638299","-6,36412859171326","-4,55277938446019","8,67795770958955"
"0","48,0355449680485","12,8887207579904","6,01814330902139","-13,4228035415161","-6,43210183501245","5,48345112907704"
"0","52,9480046324342","3,49709260362898","5,56600817109536","-17,2584374213321","-7,94461481072747","2,2883030479615"
"0","56,5460970425838","-3,91977033984202","6,00314634117333","-20,3686931667023","-9,2825796764455","-1,15310238376814"
"0","67,5933568681545","-3,91068866943398","10,1930234917704","-23,2877551000519","-10,572826904649","-4,59200817071485"
"0","76,1274900800601","-5,90385070853236","13,3162836596965","-19,4232381672951","-9,71666845387053","-7,91702859278055"
"0","82,9513460836012","-11,169469168466","19,9049030571807","-17,7777538630618","-9,34779103677965","-11,2414627490805"
"0","89,9190297286692","-15,72664291304","25,2338966708189","-18,596368312782","-9,65157111883227","-14,7887343396867"
"0","86,2480968995071","-6,81522855304015","23,1892441164876","-18,8965256004407","-9,9163152222039","-18,332821257821"
"0","85,8995873639452","-1,97671703127284","23,3113173832627","-13,1473049090096","-8,55387466721018","-21,7177467306715"
"0","87,2692209710736","3,09464457399844","23,9140091563248","-9,33039288334189","-7,56015199253994","-25,102097025564"
"0","88,6171249718915","7,46802128190476","24,6788020198402","-8,79190779744255","-6,45155056362725","-28,4412682619515"
"0","86,5620126362488","2,15499494511229","19,4787083575854","-7,427152134306","-5,45838080430956","-31,780536278197"
"0","85,5592334144815","-0,257816934128778","16,2032357831588","-11,4768913621319","-4,60671630052587","-34,8741990107091"
"0","81,5092474311981","0,736964532337382","14,8833111034141","-13,6244855135245","-3,74995013738203","-37,9709373089984"
"0","78,5664975939863","1,11929238183484","13,2201931992115","-13,2063690010329","-3,02016795750481","-40,7800302105625"
"0","79,0736363720874","3,83498902641871","17,5457933830276","-13,3827285993667","-2,25965044940864","-43,5950678491741"
"0","78,6809440084416","5,73213318407702","19,9128268853682","-10,9828380141435","-2,06754336912566","-45,8122968779739"
"0","75,3443346701599","3,83991280374937","23,1790467579999","-9,5149361466688","-1,7359566445819","-48,0415271093303"
"0","72,7825113660361","2,99846868938417","25,8737048511684","-11,1246592798268","-1,70490629454067","-49,9016531836004"
"0","68,0700872068433","-2,55608942047187","21,7187093949759","-11,8407213123925","-1,57045195501397","-51,775777678311"
"0","64,1440457069098","-6,4858940123679","19,6635600398718","-14,2157070106654","-2,87895808070157","-53,5952593397869"
"0","67,5341821984675","-5,57945674970221","17,5133343765552","-15,9222091507735","-3,82727475794944","-55,4264791499558"
"0","68,7757205756763","-5,92498028831546","15,6989545852614","-14,0135173119975","-5,24842773710626","-57,3350729439814"
"0","65,8042966586257","-0,362729462172883","11,7699993013899","-13,2116169064767","-6,47302215998277","-59,2520052827505"
"0","63,8091736496783","3,17294245990343","8,56383629431966","-9,46045772771001","-6,97654367030518","-61,1316313751322"
"0","60,6878331191762","7,83319702813457","11,5473668973565","-6,83325488833249","-7,60031792862499","-63,0183077024781"
"0","58,0661030959949","11,8329623681611","12,663388633131","-8,21097946666786","-8,46419024298948","-64,9558820128415"
"0","62,9960516250455","4,38796812039563","19,2412001912868","-8,41389215992667","-9,30121093419668","-66,898410633639"
"0","65,6602157436832","0,394884175645669","23,806578987108","-11,1266518838437","-10,7403895797945","-68,6889663526368"
"0","69,175991930541","-1,04920118895605","23,1117151791964","-12,8517513273677","-12,0331812624091","-70,4852959864341"
"0","72,0789136840731","-2,75441023027827","23,8004871872947","-12,1916844092308","-12,4954013685753","-71,8846858505133"
"0","79,1862272750138","-4,9452451531125","23,7582827032396","-12,1887031952726","-13,1153931507294","-73,293489059217"
"0","84,8949540094123","-7,02541710873198","24,1503737038148","-10,5062449047765","-13,5709083517105","-74,42024454837"
"0","89,0173507077274","-2,03741836903978","28,249454611177","-9,46741943793442","-14,1026132627738","-75,5578887763263"
"0","93,4166347607134","0,77305051846476","31,2302959875957","-7,45153940862438","-12,8261508046098","-76,3477818165416"
"0","102,430953915401","1,33925394894886","34,69526674433","-5,84506834388337","-11,9881922232446","-77,1505327281172"
"0","110,056214718894","2,2677408119186","37,8432305287645","-6,27561344176364","-9,86951924366825","-78,0986531607254"
"0","82,6107989460682","-9,84849920684418","16,9562235465992","-6,08690719398934","-8,15398065277573","-79,0551674154204"
"0","65,8311842347146","-17,8589491732409","3,68313429496988","-13,6900253603559","-2,08112921241746","-79,5053782457965"
"0","39,0701562633437","-36,2527930309773","-15,4774961906433","-18,6320632028304","2,88218414175199","-79,9684098372084"
"0","17,0468436018366","-50,7920524220975","-31,653856023659","-19,6297611654663","0,870157901487664","-80,8001334111198"
"0","28,4914583202447","-32,7519349508948","-24,9683340705902","-21,5765700540199","0,211980799979719","-81,6374945221823"
"0","30,2827799440828","-24,2349324663843","-25,1347530033169","-9,60014565627543","-2,43574017826335","-83,0158874119349"
"0","33,2778756689526","-16,6939244584473","-19,3597265566004","-2,35775044035556","-4,29532406047243","-84,3921324500817"
"0","34,414047104854","-10,3128536458299","-16,4752764189335","1,89755073006834","-2,04472744949361","-85,1187502638036"
"0","39,4915843959778","-6,39045965834045","-6,22396854909212","6,50787887714247","-0,559546326760987","-85,8516018459033"
"0","43,0603794299923","-1,88288654685105","1,25888889810943","2,0292284058244","-0,241817335841691","-86,9249920979383"
"0","46,1920908431394","-16,5672128228079","-2,85630678120496","0,605521689815744","0,162987241979727","-87,9991542111637"
"0","49,227221467391","-25,2029291930433","-3,67798686625584","-4,18966441994391","-0,107724078152572","-88,8953138600185"
"0","44,5061816876882","-17,9422798036666","-10,7515069429428","-7,46054091814573","-0,200508363232693","-89,7942574942708"
"0","42,1763833882625","-14,6879417710566","-15,3533064352844","-3,24513620522405","1,06536809256448","-90,1372719152376"
"0","38,5431182422889","-5,53125606427154","-15,8701843551908","-1,30292193804345","2,0583502016831","-90,4892764188816"
"0","35,6821869152581","1,17740544468457","-17,3292882986769","2,8899150960459","3,00994190474634","-90,223826510662"
"0","23,0782527620322","3,31599035606867","-18,8880886761041","6,03391328952353","3,90547579707829","-89,9730261648788"
"0","13,6156237562409","6,49742402153684","-20,5522169240551","3,99119655474775","2,71584996990998","-89,4224673279669"
"0","7,27878094963491","9,78323328229937","-25,2112188537774","3,5243824033749","1,99726614229407","-88,8871546547238"
"0","0,455661036365605","13,1968409580651","-28,9310681864415","3,21781195150355","1,91279891712071","-88,0302748989461"
"0","6,81439721199612","1,07613405762923","-26,8951236120513","3,06906002278204","1,794343397413","-87,1893794396657"
"0","9,00905370260201","-6,20183617684339","-26,5569200874072","-3,07530418233737","-0,142783314961542","-86,4742793107172"
"0","5,967852926537","-7,68249700764237","-32,6560958253273","-7,21467067695563","-1,66548121103612","-85,7702846125857"
"0","3,91012219247151","-10,2191569419596","-36,9506872148271","-6,47086083205395","-2,44706291826962","-85,0314274477239"
"0","5,33859968695637","-5,755650275301","-31,638045657054","-7,07459059079747","-3,30112138945678","-84,3017789222034"
"0","5,8369333602927","-3,62778503213116","-29,1246873899654","-3,8333230658136","-4,02209389930811","-83,5579281623792"
"0","10,0737094347237","-6,90690011432606","-23,2369636037229","-2,04461194561784","-4,79143441561811","-82,8215336510762"
"0","13,0076186515384","-8,8660595150685","-18,8319825456792","-2,85662522463049","-5,77298460310037","-82,1810667712691"
"0","12,508790834732","-8,21990410718041","-23,6032805817024","-3,00242585505711","-6,71686359717799","-81,5453254595453"
"0","12,8743689019621","-8,17987364104656","-25,6658115374593","-3,48491433613535","-7,03355238241412","-80,9807644535207"
"0","16,2090806850645","-4,97262754833634","-29,5543485709871","-3,76686327221897","-7,4869166239715","-80,4190715882255"
"0","18,7557323497064","-2,84185501494897","-32,4667822925402","-2,66084840214272","-7,79986060609637","-79,8599119331102"
"0","21,5081754786812","-2,93949005846554","-31,3599848665221","-1,98726532503129","-8,17832718237529","-79,302989669539"
"0","24,0755081759549","-2,51061823075771","-31,3921021109072","-2,65053446449126","-7,09913683755938","-78,3906751423473"
"0","21,74029525997","-3,12041670317195","-27,4883613231986","-2,92930915367076","-6,37443430813725","-77,4844697063722"
"0","20,8974546775549","-3,32684486064685","-25,004716138756","-3,01150110719138","-5,17468347279278","-76,2039560602897"
"0","22,2899382695942","-1,86554070051719","-22,0088710782509","-3,10729829597241","-4,17063302525023","-74,9328444911159"
"0","23,2186369638557","-0,860068390272686","-19,3829016829996","-3,24158627996665","-3,91956336086398","-73,3796752504765"
"0","24,9942674273622","-6,35590143954018","-22,4728584440495","-3,36495833425104","-3,54061991732358","-71,8373859588723"
"0","26,4357951084384","-9,90323105116595","-23,7949457566811","-5,10862836126195","-3,04758498620477","-70,2376995258405"
"0","25,1189647871537","-15,4280985064447","-26,0646660553668","-6,3146989230946","-2,55028715244289","-68,6473185709282"
"0","24,6064135726148","-20,0396448037207","-27,7751324331843","-6,68829514381158","-1,59996420834583","-67,0874919596646"
"0","21,9857935354107","-14,1792962729634","-28,1213553403783","-7,26542217267225","-0,753885765050304","-65,5346516721815"
"0","20,1429004807357","-11,4299617011816","-28,8209923104353","-4,11563724428184","-0,141694822549831","-63,9433108245613"
"0","15,3528841354586","-2,2624472575071","-27,3755979835872","-2,22627760205767","0,499757188441745","-62,3579653655661"
"0","11,5967986222066","4,43442488746657","-26,6652586390534","-0,457986902566051","0,926875677756142","-60,7779151765491"
"0","15,8468974742705","4,2667529355251","-23,068787799574","1,18173076330427","1,4108413920081","-59,2025418960521"
"0","17,7724396254883","5,85084283006033","-20,4990955004238","-1,08968174989088","0,17585804796936","-57,6536348963317"
"0","15,1607629408728","2,90851263991254","-26,6057356135755","-2,08414563845458","-0,646008307505739","-56,1081035459303"
"0","13,5989000904541","1,64065826915521","-30,0965972346789","-4,717634668935","-0,308136940106662","-54,2305207920948"
"0","18,7994994268758","-6,28927648734083","-29,7802103995858","-6,63794396420941","-0,140334039613901","-52,3596623329164"
"0","22,0638112315278","-11,8935271155231","-30,2965924195257","-8,31937859870723","-0,199714882578715","-50,4277363594215"
"0","18,8491995749674","-8,34872344846671","-30,3959972651646","-9,98443730755809","-0,247233869170094","-48,5018741033225"
"0","17,3465020962875","-7,28724665424244","-30,7494690953031","-7,69428531417267","0,483628396734544","-46,3803477524286"
"0","15,8844274088758","-4,35599847519531","-29,6659695476565","-6,71067866409669","1,03647124269565","-44,266006214435"
"0","14,6731878038765","-2,38677295987678","-29,077407544273","-5,11814822834341","0,681988781941496","-42,2026815218961"
"0","16,8914069997442","-0,118989310823426","-25,5067932296159","-3,90190794092818","0,495500640753524","-40,1444161219259"
"0","18,0843459274935","1,90830950536012","-22,9585887800964","-4,89126693641311","0,180742697841374","-38,2022968287037"
"0","17,4092040575959","-1,32944834608836","-25,1397596882023","-5,2011612652628","-0,0637787626326173","-36,2627605422904"
"0","17,1557997895832","-2,96945190305324","-25,9624280017874","-6,86773222904658","0,331524006454809","-34,3478411528086"
"0","19,7187933685569","-5,0854326864296","-25,0082897772496","-7,99448743024317","0,595052810480208","-32,4346639928017"
"0","21,4729884732104","-6,80818077048144","-24,4227540035299","-8,21768548229838","0,485050568555381","-30,5900321828047"
"0","17,6036370075886","-4,126698843444","-26,6545437842456","-8,66763835174545","0,430133323136522","-28,7459412579362"
"0","15,3543494559333","-2,75223569150858","-28,0420748813249","-7,44239296466002","1,49277422208975","-26,9023280556914"
"0","15,6864341561894","-6,85753305684127","-26,6660350072111","-6,80179022972052","2,3089826762765","-25,0591367894418"
"0","15,467033363037","-9,46225833295717","-26,0479101640133","-7,60452218142022","2,28804674139152","-23,1939826632902"
"0","13,9219105017211","-9,89899255582609","-26,6000656175077","-8,00789021696865","2,40233249588786","-21,3294304163583"
"0","12,7031854526684","-10,778324418963","-26,8895306803762","-7,32916938084619","2,82700526370261","-19,4430742396644"
"0","11,5021875751772","-6,85191248380461","-28,2995053300593","-6,95506875025586","3,21209569320092","-17,5574603130738"
"0","10,3459179637359","-4,4855839155737","-29,3141453445248","-5,55918431634909","3,06597688283347","-15,8065151023601"
"0","0,535199576228098","-0,80108388854491","-39,0977770627814","-4,54215246422832","3,03377027953469","-14,0545125078438"
"0","-6,58386993129443","2,23448553505791","-46,0291703740747","-4,53180893171155","3,75505474434301","-12,0335497209507"
"0","-14,4756286530988","0,13893039945234","-48,3599435721039","-4,23905018810097","4,32866340000857","-10,0150348884626"
"0","-21,713482304732","-0,463200222767248","-51,7419296234818","-5,50251387546318","3,0072538801955","-7,97634662376957"
"0","-13,1774416365212","1,17010336606305","-41,8773225490428","-6,21325586590453","2,09065362189335","-5,93984070344275"
"0","-9,43412127177993","2,33877149136261","-36,3874196229129","-5,24123759881277","-1,63505104285044","-4,19562409126558"
"0","3,84650534916646","-12,1153114543733","-26,7710596554916","-4,75207730396509","-4,6105750928585","-2,44956435517824"
"0","13,4309625649993","-21,7902110789474","-19,1063736293365","-6,7759059616592","-4,45786839827515","-0,612534632894768"
"0","13,5018450445909","-23,6736709972749","-24,7527838283931","-8,0328158523293","-4,85153415064763","1,2248419471065"
"0","15,9552267005046","-27,2420320975705","-26,4408768860301","-7,45057400496831","-1,71723698178317","3,91127478522103"
"0","24,3132369605017","-5,60082683372538","-35,5039202222886","-7,37428075466815","0,46576772719293","6,58761432572795"
"0","31,2061546934276","7,95445738569252","-41,6405690466406","1,75537266029988","2,40867249254078","8,62964455854646"
"0","23,8420905404645","-15,1784810367823","-40,6086712808471","7,821676140365","4,1784281487395","10,6714377085097"
"0","20,675343980352","-28,1626158376167","-41,4356048663802","0,781773975828611","7,71873483194472","12,1769688895966"
"0","13,6362894518033","-48,7764832917917","-38,7190892013452","-2,33127533345536","10,8059440124037","13,6888607318814"
"0","8,44439659151684","-65,4623820274453","-37,4023605569915","-12,1380153863388","12,4922190026368","15,0276862710264"
"0","9,53432758804293","-63,5574081744438","-34,0667555694178","-19,2045086471932","14,3949879435801","16,3736555306932"
"0","8,95977316797145","-66,8211160555806","-31,5782552193623","-8,05490917355109","15,092115602536","17,3238948656696"
"0","18,3755803506868","-71,2880351083742","-24,8004105096218","-2,56619699268738","16,1215029960281","18,2846161092043"
"0","24,4360589633054","-76,1754061153998","-19,5128582318283","1,76290947435862","16,8929041212538","18,7855492237447"
"0","14,55675642255","-75,0028932828365","-17,5371107625814","5,71834168357655","17,8042169636646","19,3003865156369"
"0","9,10592814858599","-75,7764479465203","-14,7227270219518","4,75224168365786","19,8659973020446","19,1351030696252"
"0","1,12707106572397","-61,812009222676","-22,6947733465745","5,36462906038548","21,6941126987971","18,9891207948651"
"0","-5,38607253537215","-52,7223918654011","-27,1071113075731","13,5466436901645","23,979669200053","18,9495278693727"
"0","-8,66570257251743","-39,5567134739269","-33,1292737860185","19,4351380654543","26,1026944284098","18,9239005501833"
"0","-12,7228762187288","-28,4054552983325","-38,1204120455617","19,3845264920525","25,8413260783972","18,7542593202563"
"0","-22,5339220677933","-39,5655865230893","-38,1704724613875","20,9922484786681","26,094909041035","18,5974215755307"
"0","-30,6796650058982","-44,1079234914392","-39,6452524732326","15,7236936081393","26,4193091539106","18,6305763643252"
"0","-37,3759313690193","-39,5716544748945","-40,3645743220159","12,9522940559438","26,8511834692263","18,6715370822672"
"0","-44,2655872198045","-36,8374748720012","-41,5319720890273","14,1923866708039","26,583214922539","19,7244907545351"
"0","-48,7802386426522","-22,1355005390506","-42,7782845030674","14,439216722812","26,503735528515","20,7712606986589"
"0","-54,0614188562842","-11,4261362454384","-44,0646451764419","19,249693404101","23,9503587075327","22,125266360322"
"0","-43,1502620093923","-17,5565177151029","-39,5995448246928","22,4172194560301","22,0172093103258","23,4706299227076"
"0","-37,3802166513472","-19,0718387911558","-36,9732862909741","18,5291026299385","18,7771245167724","24,875367148708"
"0","-39,8798678522734","-22,9640604102114","-37,7473815075529","16,7558096106519","15,9900014205627","26,2725446080437"
"0","-40,6052474372967","-25,4093233789177","-37,7053363038341","12,0242006946938","15,3452983520465","27,8193937682025"
"0","-33,5082965081945","-22,4762491112423","-34,94178257303","8,55441057990651","14,3117679776475","29,3584365380701"
"0","-28,5649405554307","-20,9907590561168","-32,9268298334729","10,8860779894829","12,5470537694601","30,6002227085239"
"0","-28,5985210232029","-12,9908007651916","-34,0352552553304","11,4669259432583","10,8586696790046","31,8394647729768"
"0","-27,4195709876295","-7,23584023515822","-34,2571746322022","11,9168084609562","10,9731428980712","32,7860980127911"
"0","-25,5705545409047","-16,1561868291043","-34,3237152275154","12,1757823102226","10,687052151013","33,7342921719452"
"0","-23,7428151517155","-20,8650167862482","-34,3107818566508","8,26195526015179","10,1488362998276","34,2594900196649"
"0","-20,2221406070949","-26,7059612062145","-31,7634900084217","5,70332089533374","9,57280606148042","34,7910874539835"
"0","-17,2299192495843","-31,5484223512344","-30,0123446055793","3,74675953791852","9,17555019620095","34,9709687744518"
"0","-20,6877729879741","-27,9767106694949","-30,5935192434057","1,77229120530982","8,72765158831318","35,1602060491394"
"0","-22,2260179906781","-26,8640472836016","-30,5472195882671","4,69749919044958","9,54973785222189","35,089680439523"
"0","-22,7669396283318","-24,8806746364285","-31,8430272161055","5,99906167081075","10,0645271032828","35,0297260657806"
"0","-23,3218509669705","-23,54540546858","-32,619797084501","6,21183609901372","9,87976299097564","34,7780887448831"
"0","-22,4938730756382","-28,1385284951147","-33,0551914442078","6,56764968392674","9,78360034514407","34,5371524812685"
"0","-22,0970451297899","-30,990563776535","-33,5238593851029","4,02899187495795","9,81853391650563","34,3056676462281"
"0","-14,8821122074464","-34,3150755883301","-27,2965321483272","2,46722057225067","9,84432754080942","34,0825305379341"
"0","-9,8486255370704","-37,225422358322","-23,2080879088378","1,98271761705626","8,93159187675455","33,5093979595515"
"0","-1,27178707122653","-38,2917949046979","-14,4251764556908","1,27245678224311","8,23474464399255","32,9471410489253"
"0","5,8701491469195","-39,8670606882455","-7,44963600805684","1,84955087429158","8,62111839640411","32,4168253108198"
"0","-3,10878188185226","-39,5321304223296","-16,4372947687304","1,97046884369076","8,80773826905957","31,8947207767739"
"0","-7,30753869131876","-39,8684564949216","-20,6004029242174","2,4423647338567","12,3021462489326","31,6478948594812"
"0","-22,2255756303076","-22,4920904716533","-33,9436969199977","2,7370936256501","14,9798428076586","31,4042015706286"
"0","-33,0827042264293","-10,7182925207767","-43,6592163440567","5,14208229903546","14,4390157373182","31,0962685223424"
"0","-32,2143769280784","-14,7914125160293","-38,8346892816528","6,82510558252137","14,4495311109097","30,7915973890366"
"0","-34,3585865241","-14,8050516886423","-38,1162646518115","3,89247636758039","10,4826404461665","29,5517152563103"
"0","-43,0607882623594","-37,4887976639335","-27,3716714523422","2,39052406907121","7,57267641124015","28,3258325024062"
"0","-50,1921653552002","-52,5102868040955","-20,419930984496","-6,39423222879733","5,55636942676216","27,5366892857491"
"0","-42,3450489340602","-24,0910572249158","-18,9363156494803","-12,5777761763663","3,58676538971589","26,7532848267441"
"0","-38,9028054778224","-7,98223493019575","-16,2618770372084","-1,74227623387354","-0,04124166595117","26,4439949753288"
"0","-33,5502174537322","21,7338891446535","-19,9544391995248","3,80982534317094","-3,27264230789047","26,1334544335574"
"0","-29,4680942602836","45,3340540778197","-21,4445373645645","14,6065084067922","-5,15726583262358","25,710131633191"
"0","-28,5327415705898","35,8565890367792","-25,0638628708901","22,9609457595264","-7,25939407145848","25,2871968567947"
"0","-26,8167087965514","35,7095389317945","-27,6841184013266","7,87763942127304","-8,124032358385","24,9539468876829"
"0","-36,9213836306903","41,618822804767","-34,5201925085114","0,222877836323941","-9,32857437848466","24,6199086756752"
"0","-43,2389275097258","47,0810937447111","-39,8672949648769","-4,02054628746476","-9,98792844524506","24,664878173696"
"0","-37,8000420084914","54,1926542488261","-45,5694233364737","-8,39887326766446","-10,8557715411782","24,7045963050292"
"0","-35,4254320227158","60,7234710334536","-50,9417460114979","-4,69466716758988","-12,6750017305896","25,454413066479"
"0","-26,0337320261961","37,7659317598329","-39,7834317725498","-3,68293231376987","-14,3233317993025","26,1914058448247"
"0","-19,2904041531166","23,874740900727","-33,8455106381518","-14,9842759175914","-17,130510109129","26,4256906519499"
"0","-14,5014198351412","5,98361928483229","-26,1958767771983","-22,5715836507026","-19,627274868946","26,6559718098918"
"0","-9,51370628218489","-9,27280629266111","-19,8513824443295","-24,2373335350639","-19,8434777092531","26,6593616113626"
"0","-5,58228332623205","5,50615454319682","-24,9077822387999","-27,3655584416402","-20,5149143644806","26,6623555647297"
"0","-1,29259865838338","11,3644578876681","-26,5205782121133","-20,9605719705065","-20,8148697153218","26,2629604668863"
"0","10,9963806318823","8,57103393784364","-21,3572156400966","-17,9056875233415","-21,3107052798514","25,868165778511"
"0","20,8589655599847","7,09339025980462","-17,8523705686624","-18,0051998241515","-22,2371833386113","24,2489804712692"
"0","21,8933106683095","-6,7936276460741","-19,5876939623729","-17,5091696406589","-23,1107333428833","22,6483842178616"
"0","25,2929503756274","-16,6256416455581","-19,8942817068804","-22,623207128149","-20,7396688521786","20,8408510211991"
"0","19,2011409043466","-8,45707068219177","-20,3267653057196","-25,8012559480484","-19,1098246001285","19,0505461892808"
"0","16,4177320315451","-5,25439311098682","-20,511232735594","-21,7133835700575","-17,2516910646572","17,1861157640201"
"0","21,0685361750932","2,52019104688696","-18,4327945712687","-19,7707079899307","-15,6249904805742","15,3362158498591"
"0","23,9222250045125","8,1124138327723","-17,0394654341025","-15,9000010745468","-15,4744311944278","13,4544785814212"
"0","19,0861524143692","-2,34092403759647","-21,6516614721467","-12,9542666110419","-15,0365552867245","11,5846218036687"
"0","16,3590341892246","-8,14768571765702","-24,4495606677805","-17,1416867675603","-13,1330982729433","10,1049620630742"
"0","20,3648869454311","-19,6169261781387","-23,1549617278955","-19,0925763769676","-11,5010548098944","8,62993363592025"
"0","22,6065861510164","-28,6142580142056","-22,9006639863863","-21,1506684104912","-11,6508307559986","7,47169302852889"
"0","16,1966812023179","-14,9356435713304","-25,5994178070239","-22,8740608918375","-11,4518808778444","6,3132469659703"
"0","12,1991838631376","-7,91773073236251","-27,5083941246862","-15,9454528032914","-9,53783995806231","5,69067201217018"
"0","12,3810166540184","-3,12452059708039","-26,6676404104471","-11,8349180439136","-7,9384127819442","5,06139118020997"
"0","11,6375780239529","1,33618313053623","-26,5883180165682","-10,7884977809238","-7,71843447977058","4,51552965227378"
"0","15,0845330843156","-1,64242802579349","-26,4929231743083","-9,10522785317887","-7,25362678939702","3,96334603978638"
"0","17,089167643268","-2,36235638467661","-26,5134451279107","-12,1402799931178","-7,4998552911588","3,56192727843285"
"0","17,7731314681346","-1,89128080137848","-24,0143286088397","-13,5288858821289","-7,52193720158585","3,15366762316931"
"0","18,6448404184183","-1,44300442260861","-22,3350981510893","-12,659086759362","-6,87672476367117","2,47133964170233"
"0","18,6306566213774","3,57608704421966","-21,7720537215921","-12,3162898183637","-6,33262899097105","1,78694798922474"
"0","18,9201837701849","7,17252643957879","-20,9725762571945","-10,0163561520455","-5,73103999610279","1,0113915581009"
"0","18,6667387049159","8,37901355094317","-19,2749769594676","-8,43452588209078","-5,16714594632221","0,235316223929486"
"0","18,6284697980677","10,108983234637","-17,8292098867279","-9,24480459792957","-4,16650474145657","-0,206184560484473"
"0","17,3996350248724","12,5331465540709","-21,9646230392496","-9,35963611264649","-3,27642322850581","-0,652181136648957"
"0","16,573247496771","14,8221948815804","-24,3579345510864","-8,781139595268","-2,42923442370836","-1,01280640785242"
"0","17,032829925945","14,1973667494357","-25,1912572352819","-8,33901329204582","-1,59868626235755","-1,37802970990425"
"0","17,1554116919907","14,4564841491455","-26,2682648911164","-9,02274731089074","-1,29044688713978","-1,83665619755177"
"0","15,4894969561612","12,2118256426831","-27,3722616914639","-9,35219146240253","-0,864842287232003","-2,29777860255895"
"0","14,3265468816209","10,8803349948709","-28,5031150816687","-8,08098639287702","0,0576665692621455","-2,53775022301449"
"0","12,8817634786266","12,3578796023024","-27,6154892871096","-7,29201801778081","0,892954266658873","-2,78239620516296"
"0","11,6018083002566","13,1035562569206","-27,3750690281406","-9,01589196974602","1,01734675310857","-3,16518383776421"
"0","10,4698133485842","10,8804430412365","-27,2292332767665","-9,97281255014959","1,28594052591665","-3,54998146506744"
"0","9,31728297332237","9,46665023575716","-27,1474267114646","-10,6428876787106","0,933421677084318","-3,95888989136644"
"0","10,2045407207514","7,6096098496668","-24,9169086494548","-11,3052654725577","0,759936143658924","-4,36909354939384"
"0","10,4558593690466","6,01451906913083","-23,3805106153141","-12,2833455122959","0,107814634807104","-4,89211880601654"
"0","10,9535438422638","1,78466922166257","-21,2522356773429","-13,1559332720369","-0,389998357532628","-5,41479078469422"
"0","11,276940048557","-1,58689759105497","-19,4135944625294","-12,0985109963336","-0,666741832504443","-5,75846654932834"
"0","9,47391841925161","4,21585673241749","-20,6864878190182","-11,6655941867926","-0,957719237348679","-6,1040485959886"
"0","8,30372964626896","7,30201351598858","-21,0098662674652","-9,47495141131105","-1,18973722294829","-6,36197222104545"
"0","12,1901704176509","-3,92731084512163","-21,6507245620045","-7,94947422835649","-1,4388813282146","-6,62247384107806"
"0","14,6053367721704","-11,1292859001812","-22,0522385843149","-9,33281048480976","-2,40396739731381","-7,01926555056632"
"0","18,7773405661649","-10,5666907140175","-18,9010470438172","-9,8426450481482","-3,20681011693838","-7,41643191199999"
"0","22,1779354600699","-11,7961528705847","-16,8472909586673","-8,20593463960308","-3,36637445317971","-7,90327127022759"
"0","22,2875460308086","-7,74711233054595","-17,9356963973106","-7,16262608733138","-3,63637268190118","-8,38931195425286"
"0","23,2993713670514","-5,61224499601581","-18,1823677025756","-4,53065029079721","-3,04647226210235","-8,80764065875022"
"0","24,5518392350525","-3,88316039738453","-17,93584450951","-2,50373901073745","-2,68296579534742","-9,22616453077033"
"0","25,8684922952109","-2,32214815859791","-17,7240252962871","0,756288312928052","-2,31056864910545","-9,55551868411764"
"0","31,7781131537255","-11,9360562752744","-16,4734525749077","3,5273387956108","-1,99472227725587","-9,88611601888644"
"0","36,2727897767213","-18,106187644071","-15,5589846135428","2,97251913368787","-1,21720324734231","-10,2848179325424"
"0","28,2224705399538","-13,7892807989917","-25,694470574366","3,4527731536108","-0,560573817953789","-10,6836714317771"
"0","23,8460970375988","-12,1993547658382","-32,3571963849014","6,08242427926435","0,887416255466037","-10,9039746244529"
"0","12,6845783706693","-9,77540471140128","-36,8107457110617","8,13934667021029","2,12242239016961","-11,1265779352617"
"0","4,19329713591205","-8,02932853829741","-41,463053940141","10,2727807132736","2,98463208493563","-11,2842061937127"
"0","-13,9507562462559","-16,5884202146233","-43,7564457336017","12,3042719885142","3,88221177375748","-11,4444469389265"
"0","-28,6894377733546","-22,0520934355934","-46,8305550081632","10,501477743144","3,47164057397504","-11,6293306184691"
"0","-42,242500016042","-30,2973943499768","-50,66170951943","9,95376794617712","3,37355950948894","-11,8159795243359"
"0","-55,6393288770435","-37,2035278391384","-54,3651913083921","9,70226599023363","3,39671203331978","-12,0041875201204"
"0","-43,8619877354658","-21,1112777097721","-37,6435408551052","9,52067095186476","3,46689830726327","-12,1937725412409"
"0","-39,8700856756238","-11,9538542539422","-27,4128873010046","16,2351498037372","-1,60319708388002","-12,563257974475"
"0","-24,8511839220986","-1,93886308973465","-35,7320677816429","20,6771455618742","-5,46751475863937","-12,9316357349465"
"0","-14,4511142499754","6,74452459746851","-39,0838320137214","18,2677235515885","-5,18858741982181","-12,9863378389968"
"0","-1,50445777792778","-10,9664488454225","-26,0187778306126","17,8213237612692","-5,58224786686895","-13,043994134975"
"0","9,94143507807963","-20,687048345723","-17,4630323319443","9,08880085289365","-5,33410273773136","-13,3946214532463"
"0","1,53968370082821","-10,2494050015874","-23,1824209618221","3,36070065856267","-5,39696289095604","-13,7440077537699"
"0","-0,935915150822575","-4,84300472969785","-25,0084061972452","10,2309806782034","-1,64710230899116","-13,7796006244066"
"0","-1,83086557831499","-0,77657844799118","-25,8452726329988","13,3345578399763","1,14194037751928","-13,8180436666422"
"0","-2,30421878400099","2,93297175585881","-26,4308535222168","15,5491693845551","3,55822441334595","-13,859004048294"
"0","4,57997095186901","6,4781281635153","-22,4480441193484","17,5539794400404","5,82989310393712","-13,9021878040535"
"0","9,24659560753028","10,0195014726644","-19,884635553145","20,144312752458","8,14217928056803","-13,2772695821941"
"0","4,8633561468382","2,04830241620181","-21,5229158361986","22,5128332442526","10,4102234060901","-12,6622677868253"
"0","2,94629871697206","-2,34904695510368","-22,0286348123711","18,3727875823777","12,0485280945942","-12,1677020345283"
"0","-8,08864361416616","1,00141325227295","-23,4338727434141","16,356679282655","13,8225192415461","-11,6795082629406"
"0","-15,9155467054423","2,4953522395944","-24,3876333880779","18,4403807294843","16,2939673784515","-11,1522713287885"
"0","-21,7428260118458","0,790318552229747","-26,518699329949","19,4516631189168","18,6360007404188","-10,6305505438785"
"0","-27,6967572191555","-0,206699449514639","-28,2088595819747","18,8339327675926","19,1223412782081","-10,4710701344161"
"0","-24,7754320593359","-1,53525202809579","-26,0157555965984","18,6117451412594","20,0087477301559","-10,31152904915"
"0","-24,6268610464773","-2,65210240971061","-24,9961086635354","18,2712288476555","19,2448785427684","-10,3529540879394"
"0","-25,7724989761821","-0,487944935498399","-26,8236655190978","18,0227862427121","18,9607688649767","-10,3918771923081"
"0","-26,9433337797028","0,690045332173221","-27,9145542538666","17,3727151214596","18,2179704484288","-10,8082944335493"
"0","-29,3341822441255","5,55815532542609","-28,3294264915701","16,8678571387647","17,697219272933","-11,2181234842546"
"0","-31,350437903558","9,12905712220286","-28,8525567959599","20,630855244124","17,9074295932371","-11,3764429262122"
"0","-25,9870223224066","13,1866339922723","-26,2604798991304","23,0010942879311","18,0012235376236","-11,5326230935177"
"0","-22,8552696681128","16,8938273270042","-24,676984879026","23,1022403478575","17,2760732864084","-11,6645782786974"
"0","-17,8575039684174","10,5217670648466","-25,7242121147323","23,7678661607665","16,7132056667075","-11,7951373828899"
"0","-13,7820273902167","7,22529313665241","-26,0797741147318","19,9097693942441","16,8258724756521","-11,7681147683826"
"0","-9,95254766076587","4,74794196458316","-26,2596186207029","17,6240455845002","16,8206194387067","-11,7419122280479"
"0","-6,18868124950841","2,48874824827852","-26,3948221123311","15,7094117037275","16,7696182502638","-11,7164339967477"
"0","-6,29018772581757","8,05449544666891","-26,8678745751702","13,882357385291","16,7008686213472","-11,6915954924319"
"0","-5,20268277981231","11,2242638600647","-27,2267575402761","16,1684377719032","18,043828750432","-11,6226509625821"
"0","-8,40855325521805","15,7322929192503","-25,3218196448626","17,1052438753153","19,0544754151644","-11,5547509408579"
"0","-10,0995709513302","19,456741740251","-24,1217582532778","16,1712982899057","20,7099771681121","-11,3314247868468"
"0","-12,4958372155191","11,9463617867076","-22,6468236550419","15,6758435139858","22,1356567265595","-11,1108225722504"
"0","-14,4402103556204","7,80380313579759","-21,3620575421443","11,40308920036","22,4404687554177","-11,071310396351"
"0","-20,1812559109933","9,48181944953101","-24,8047499457032","8,43886838630402","22,9504293208491","-11,0317412542112"
"0","-24,674965964001","9,87003299057712","-26,7684527814061","8,78225901060752","23,7334240894848","-11,1037994172262"
"0","-28,8359814250802","9,91473258426484","-28,3564184437749","8,20626678330057","24,5023451337013","-11,1744494738946"
"0","-32,9082591798338","9,86794390197073","-29,848928109365","7,41329440784829","25,2658061396012","-11,2438558575118"
"0","-34,8076064746352","11,8425189832291","-31,2473491837123","6,56911334973819","26,0271488705134","-11,3121637994797"
"0","-37,3673805821972","13,175445090062","-32,6618670594941","6,77124293774345","25,4335559686963","-11,6921989050946"
"0","-31,3675965986867","16,4872304950487","-21,6842287196092","6,62030843346384","25,1543026055066","-12,0675588635718"
"0","-28,1247711393286","19,0860466858037","-14,6583641520452","6,35076870399511","24,3844250218061","-12,7514869542508"
"0","-17,3669005970667","23,8180943523164","-7,1698493018817","6,07323739377494","23,8042049982992","-13,4279497660058"
"0","-9,36458549883774","27,7782868394049","-0,403798186957385","4,62958418031579","23,2330828596903","-14,120154589493"
"0","7,43577299317989","29,8339146616101","-1,29395528796243","3,57071884725154","22,7054903340442","-14,8062631325443"
"0","21,0827827679637","32,3622986323616","0,150828567999503","2,60266587940203","23,839066621316","-15,3976452002924"
"0","33,8887180582172","35,0165920321856","2,18880397455795","1,65604520216269","24,5971095116671","-15,9853625897049"
"0","46,4703184106119","37,7044189659004","4,37747964385714","0,714482680601948","25,2094605669835","-16,5698432479588"
"0","34,2062395813354","25,0755394168814","-12,6010102379229","-0,225886084335465","25,7652890574101","-17,15146514819"
"0","29,6152162925636","17,2073522280971","-23,4489168901183","-6,06987559195269","30,2648081346362","-17,4848713632632"
"0","10,3966697955889","12,930200090753","-13,8481694721265","-10,2911505039381","33,8343203445927","-17,8190475754241"
"0","-3,10339145459292","8,26945047613918","-9,87244323494339","-5,27420618553487","34,0123916332161","-18,4666012008104"
"0","-10,641008183392","22,6462472821503","-18,8141047103477","-3,09698389729843","34,7547204198622","-19,1109372187774"
"0","-19,1482965336787","31,0533252640517","-24,4574274303428","2,50251146843427","33,5558244300709","-19,8641089883579"
"0","-11,7947550614125","20,0136896331444","-19,4854869928489","6,58968485214195","32,9438114013881","-20,61340708504"
"0","-9,51074608825784","14,0947990822264","-17,4167398572703","-0,616820203968857","29,2709231753546","-21,6719811950542"
"0","-8,57890422881204","9,53971964498607","-16,0855487319651","-4,2887045595576","26,4505386361554","-22,723715243613"
"0","-8,00771809131225","5,34786484102402","-14,9417336480456","-7,12639614997416","23,9608911965778","-23,7694079870389"
"0","-12,3512342325536","-5,7166031129324","-21,0388357834833","-9,76721298962529","21,5995564326585","-24,8097649059337"
"0","-15,225620517373","-14,5914582561666","-24,8554923197615","-14,2666793395443","19,1590385980096","-26,4261327168533"
"0","-12,2656683419538","-0,206756762424117","-22,7851135866693","-18,1247986895511","16,7678009206707","-28,031247061884"
"0","-10,8895567775645","7,29267642469714","-22,2591340464413","-10,3655970765492","15,5885917600988","-29,3807313158991"
"0","-1,40817704270384","9,3869930047132","-22,0556709857734","-6,36463448857381","14,1396008548672","-30,7244369872186"
"0","5,31507404219228","12,1017616313855","-21,9741432091787","-7,76646386338989","11,6187213346069","-32,2863941149078"
"0","12,4812929364481","5,23855360088355","-19,6887769717072","-7,88338619695695","9,28199219735709","-33,8411161252235"
"0","19,0856620751994","1,44443729286455","-18,1235257615682","-10,8722510236298","8,5642646526767","-35,2330992408813"
"0","16,6311347779006","-1,01218515304584","-20,5124718971613","-12,7389123814512","7,51464452768133","-36,621347490118"
"0","16,9003803729803","-3,41259205509963","-21,7459815305512","-14,1290474034134","8,14174855016863","-37,8052773020378"
"0","19,9413875923272","-4,82717217402987","-17,4131833612291","-15,5267192064143","8,299354019123","-38,9887482054904"
"0","22,5416907755585","-6,53919645352984","-14,6862651702697","-16,0441728889077","9,20979631328608","-39,9037875042318"
"0","25,9604164373618","-6,38872948790939","-14,1132707360407","-16,8538895466639","9,83230897840861","-40,8217416185895"
"0","29,057435198349","-6,86222410999839","-13,0874804481562","-15,5452299249275","10,4398389588126","-41,9432898818687"
"0","25,1702093414926","-10,8652174310712","-17,2194266704012","-14,9766201484252","10,9815562609081","-43,0646573448596"
"0","23,4001162699569","-13,8682242611537","-19,6416954123155","-16,5936196143838","12,7551323052387","-44,0965230254555"
"0","18,5548346613032","-9,91294020737594","-22,258162767206","-17,58643663816","14,2266199338152","-45,1293386008874"
"0","14,9893257813826","-7,96445036198509","-24,5639662631287","-15,0803546474687","14,9683341195298","-46,4533549557003"
"0","11,7651632873699","-6,55043122378822","-26,7908456322269","-13,6485104346794","15,8069255978582","-47,7745667720777"
"0","8,63204614270435","-5,2787579901463","-28,9976743336495","-12,4701931087405","16,6831015644102","-49,0933015533356"
"0","8,81643697550366","-10,5982661557758","-24,913988857042","-11,3517097261597","17,5738587988415","-50,4098485581999"
"0","7,98568754386661","-13,8932076234299","-22,8321987910311","-12,2935802195115","17,2451223723257","-51,6574566954079"
"0","6,12153427243229","-11,1705497245761","-28,0332764145664","-12,5617072146554","17,203271515154","-52,9041763833326"
"0","4,42174716541267","-10,0052209710897","-31,2045659523092","-11,1890717921903","16,4667005705014","-54,0607692764215"
"0","4,63773833560214","-10,7456123078415","-33,022131959286","-10,2692060969172","15,9606062087296","-55,2177600384776"
"0","4,28471397705283","-11,1335552211759","-34,9757846189474","-9,31507741548003","15,3504826471988","-56,1740824935082"
"0","7,66245713591781","-4,21556563346403","-32,3896208572155","-8,43286245333757","14,819999945484","-57,1331699220513"
"0","9,79528635978487","0,488217346627914","-31,2701171215564","-6,89730197750589","13,9335250252357","-57,7596665837483"
"0","11,5960668823965","4,60228935062555","-30,5232182401949","-5,58754784219705","13,148939460231","-58,3924111614953"
"0","13,30828197337","8,55930327606387","-29,8709795902285","-4,33108542658145","12,4038828619113","-59,0306740474544"
"0","17,3194640604559","16,6352943871688","-27,4270012750912","-3,08720019272829","11,6741619108086","-59,6738108346124"
"0","20,6038363318813","23,408295166798","-25,5678316511216","-1,66988388338116","11,6274474869188","-59,829870843336"
"0","18,5291890031225","7,53928127485265","-26,5110767550554","-0,311636747025725","11,4257120904771","-59,9957330445089"
"0","18,0051613387292","-1,49999398780917","-26,6462750811463","-6,41138370781354","11,8086509077356","-59,8128843943313"
"0","18,6920283562375","-1,30019582946068","-28,4967342863692","-10,0512642856582","12,0184197747043","-59,6420460177653"
"0","19,2418703161729","-2,91974969609446","-29,6829553713662","-5,56070787001473","12,4834137287537","-59,4148088293497"
"0","17,6059024099433","6,90379278592075","-28,1513396939219","-3,43131707515363","12,8474247385126","-59,197758867506"
"0","16,6269260668673","12,8949819934402","-27,3892578192188","0,786814295036376","13,3657032650116","-59,1907262210891"
"0","15,8231852875907","17,8654982509001","-26,8226759413454","3,99790160700639","13,823831375554","-59,1891858679709"
"0","15,0661840778035","22,5641780683541","-26,3057608209611","6,97132017351451","14,2586235470009","-59,1924964390604"
"0","14,4603115055521","24,902015916474","-25,8713015394909","9,88864741799122","14,6843623138321","-59,2000914619059"
"0","13,8147486016284","27,9310893045164","-25,4177901568509","8,66499150667811","15,3322743621486","-59,1891350907324"
"0","11,7026476716609","23,412094348749","-28,102148743347","8,80403746865241","15,9263806966208","-59,18179368667"
"0","10,0393855270908","21,342817816124","-29,7836829273707","6,54813936938428","16,1772045267839","-59,0883030123535"
"0","6,5892362031641","20,4460770826772","-31,6993156815639","5,26701937556169","16,4948485694815","-58,9987232514158"
"0","3,76248078582394","19,5616185130805","-33,3944211575048","6,29746572104476","15,7744695851266","-58,532893797368"
"0","3,87524086763624","19,963346414972","-32,2050625588206","6,69345629314867","15,3113794681281","-58,074751656216"
"0","3,17204093516482","19,9676251325508","-31,9029061084557","7,46890941256038","14,5612174055224","-57,5117215137466"
"0","2,25120470238183","19,8660509700856","-31,8261432880598","8,03391808501098","13,9396829885924","-56,9560517912295"
"0","1,27231959663429","19,7362849464824","-31,8066417000976","8,54926054147986","13,3680509182668","-56,4068829668589"
"0","1,17925485474158","26,9150954322048","-32,1159583387233","9,05288145791494","12,8157789488242","-55,8634558905116"
"0","0,802459860575712","31,8204034906207","-32,328811219716","11,1766102179621","11,7874058376882","-55,101744824535"
"0","0,211325073294872","25,3367846186128","-36,9518707083682","12,7626946411615","10,8743246564734","-54,3472401417822"
"0","-0,356979328631905","22,0399459948013","-40,1553428088437","8,61239165648085","10,0704537120137","-53,3980805938999"
"0","0,814081463831251","27,4627035414827","-39,1919976683755","6,28826508524915","9,26895194144876","-52,4569972345867"
"0","1,44907308522117","30,6677563749515","-39,3500729639005","8,91095152206576","8,72629575824939","-51,4113693382098"
"0","11,5087643662135","46,1806669098384","-32,8790826869818","10,1411170101322","8,12406123907013","-50,3734052175915"
"0","18,5622513351773","57,5315365808578","-28,683978867838","13,6180695739384","6,62821097864231","-49,1858612594582"
"0","24,8139107966683","67,7739274080651","-25,0670638088172","16,1652780498393","5,32567379708877","-48,006204827477"
"0","30,8517034397373","77,7210963988301","-21,5970375548994","18,4930610605192","4,09813430529684","-46,833514846388"
"0","37,5604284485636","73,3042029310878","-21,8657425705206","20,7690582782977","2,89969089692738","-45,6669778005916"
"0","44,0281073709231","73,3017200788974","-20,9642719456931","14,1070256173334","3,22785345161045","-44,550546221379"
"0","46,8609453614339","80,5774461433053","-15,8196711062841","10,3955615657142","3,20827764255721","-43,4383689832169"
"0","50,7842832308842","86,2715819611911","-11,8571033984365","3,14686543225197","4,63359281724928","-41,6822190896142"
"0","43,6628602469955","110,476161737813","-26,8415780192644","-2,53663976883453","5,63946750694843","-39,9372972143462"
"0","40,1355320130108","128,690639174969","-35,9595471246656","9,43638818347451","3,96783335740754","-38,5149895256647"
"0","43,9106252524429","86,4343562602627","-30,7718573779623","15,7764692547816","2,81743360323878","-37,0976223677151"
"0","45,9734511809397","62,0328594104433","-29,2898162223019","21,845535573907","4,51299784788244","-35,6176122326806"
"0","47,5795739424027","42,3866384603722","-28,749194774548","27,2506407032246","5,67268151527081","-34,1422743288146"
"0","49,0638829067752","24,0068929976329","-28,4477409231432","11,3311224464394","5,14138804994875","-33,2741221938687"
"0","46,3558393145796","19,5564168020861","-19,6518921604485","2,37885865458687","4,8740635538681","-32,402250986552"
"0","44,9295937467466","10,9757312591225","-13,5980430963876","1,7388070067466","5,86981738251504","-31,8844633870725"
"0","41,1066590316003","45,6076344228971","-15,1896801615519","-0,719510180565213","6,63559473618251","-31,3594108604305"
"0","38,2244692673251","66,1883722988954","-14,7436523245382","16,0792201586336","7,9247257817016","-31,0512970153369"
"0","43,7742606388556","44,7474345474938","-20,7288372333363","26,2627350974416","9,03689698387047","-30,7347885788915"
"0","46,8530656220453","34,1948386797842","-24,3678711906601","27,6526433475471","9,01646831448271","-30,3661947918593"
"0","44,3849609894085","26,0567140158555","-24,6173455625205","31,067204990193","9,21663650545381","-29,9915979830857"
"0","43,25736120282","18,8416369182349","-25,6057026113321","15,3087078145149","8,69636725934668","-29,5223570673083"
"0","42,4873065289044","11,8723956335125","-26,7817727410856","6,16524790376755","8,39659730013059","-29,0495242228384"
"0","41,812617797136","4,96862794853661","-28,0055313630123","6,87374885863853","8,76270668201136","-28,2608215679622"
"0","32,8436417396038","17,880802425625","-24,4924210098763","5,20737467786751","9,02715043284981","-27,4731351759735"
"0","26,4623783448238","24,6505686840785","-22,4959094983916","14,3406344020972","9,54231926169936","-25,9269385617204"
"0","32,1762752144569","23,1271331783848","-29,8937922339575","19,5826758014665","9,9747593239576","-24,3908076597522"
"0","34,5362443003042","23,2349642643218","-34,5183200252345","20,4842173770133","8,79530449109069","-22,9305736059859"
"0","37,0762705881851","11,5028722153036","-33,5845359923471","22,3013736345741","7,97049935095588","-21,4773734555835"
"0","39,0443224932643","3,69744632437206","-34,0186633154891","11,7749856081493","7,02535756632811","-20,1420634351975"
"0","32,1241050567116","7,72123545349757","-30,400514186408","5,45544332538158","6,19353000967088","-18,8108767844943"
"0","27,8731708916147","8,67550652586211","-28,2728845709069","1,32825886895792","5,59910864270655","-17,7290227540766"
"0","24,3341992314369","8,81227101001477","-26,5239213104659","-2,96151532131338","4,97679131684361","-16,647385230269"
"0","20,9851252167547","8,73130847337412","-24,8711582051708","-0,657045414115061","5,47207967176488","-15,6999520731676"
"0","21,9852254323728","12,9958788424537","-23,1380777359432","-0,556292334276443","5,70095402413325","-14,7510514080204"
"0","21,6653557626085","15,8777976010934","-21,4445926472716","4,03411178213897","4,79476469896352","-14,3145716526619"
"0","27,1292144043243","9,44573982574104","-24,4403129906532","6,84410184289827","4,08821637665088","-13,8706742450863"
"0","30,5957334824377","5,6930850842891","-25,9473255733548","4,64751935263604","2,55637817221667","-13,8892713906623"
"0","28,1563588080099","14,7550497690736","-26,0285620253958","3,8693541822987","1,26436072847186","-13,8963547371398"
"0","27,2417392149146","20,2499397446221","-26,3475801732752","2,40282809612956","1,96759160149516","-14,11662406031"
"0","28,7790741528029","22,0209375310487","-21,6637514928585","1,35384449486427","2,26489847149582","-14,3251843138517"
"0","29,7904047563048","24,4001488734464","-18,6089500032071","4,10779031496646","2,95281686716142","-14,4117252192211"
"0","30,6614372627433","26,9413460976182","-15,9680027321689","5,65925144959636","3,4522768046085","-14,4904957311194"
"0","31,4950488683397","29,5256851190034","-13,4321950900057","5,58628340933177","3,36276956300459","-14,4953966750416"
"0","30,5507381200963","29,4516632463859","-12,599210243606","5,88993984449352","3,36476677401473","-14,4950542577626"
"0","30,1522124145541","30,2096385197357","-11,2388273829636","3,42481224122091","3,88587610888846","-14,4230742075747"
"0","33,0884882309203","22,7982402006852","-6,3573159360959","1,92623415234316","4,30838004284328","-14,3478220943772"
"0","35,0742363900442","18,0510877046422","-2,52126207277846","0,444088597732982","4,2734985817776","-14,4036931601385"
"0","35,7664903323638","7,66827539822363","-0,696756704677608","-0,914178775210501","4,32117000664702","-14,455375339475"
"0","36,7137380355396","-0,555485571375232","1,6167149401005","-4,21888305671714","4,65879507010417","-14,5480288422255"
"0","26,3240441346238","-7,12935007378273","-5,75783105454336","-6,8629587176614","4,94891046871449","-14,6368691933038"
"0","19,49051330007","-13,8837966588317","-9,97361710264021","-6,4934520713787","6,67143027418579","-14,7223416780377"
"0","13,6054972940856","-20,6863377784435","-13,3869204562332","-7,03272100501373","8,04966530567551","-14,8048395830304"
"0","7,97347316817705","-27,5016879443405","-16,5963531498597","-6,65751073793903","9,10088687695199","-14,9740523636494"
"0","-2,13225443258393","-26,6576308067494","-18,7762604718904","-6,70647761524084","10,1452403947074","-15,1398537870208"
"0","-10,8112271138806","-28,1936391202776","-21,2546169612403","-1,56357188230332","9,70385233528782","-15,5259974566391"
"0","-15,8164257212834","-31,6464470507474","-27,6848036257443","1,80464851269047","9,60605637569003","-15,9067526442831"
"0","-21,7417397955884","-34,8697573748033","-32,8989524085619","6,90610429146649","7,61038957314132","-17,1538340252902"
"0","-15,3982198379718","-58,0038169422895","-15,7004387896493","11,1966145459542","6,13842531200305","-18,3860753266832"
"0","-13,0023046635527","-74,9207183180807","-5,46799020274158","2,63026180290477","7,02977050975393","-19,4041898020626"
"0","-14,7792077049341","-38,8305126130159","-10,0998954828395","-1,79039164849823","7,49798460556701","-20,4131823665495"
"0","-15,8691024401019","-18,2428922326391","-11,0080885926895","-8,90174082449143","4,80364597019664","-21,2130985277818"
"0","-16,775755419019","-1,7840847156805","-10,9702729438796","-14,5681111518069","2,74236423315281","-22,0083534317483"
"0","-17,6335333829907","13,5750935907889","-10,6921238507688","-1,68904241294176","2,79664979299614","-22,0177480686556"
"0","-11,7531651794819","14,8760719592974","-18,6636404734124","5,24686684339795","2,51169026878056","-22,0330522071062"
"0","-7,95557017909827","20,3729214922159","-23,9709839662085","5,38233228838188","0,45083623751328","-21,7408784245549"
"0","-1,90559448200664","-9,10773697820839","-18,7892550227911","6,97285012850537","-1,27899334607989","-21,4571328214161"
"0","3,12514570494181","-27,0839761695163","-16,5627781232461","-6,89861401669944","-2,23558266628581","-20,9351404249933"
"0","-1,75298223049421","-5,13842503533279","-11,560263580311","-15,4592033722779","-3,29218590317852","-20,4227227883113"
"0","-3,71404531064334","6,17952050109815","-7,87249691128542","-17,8272104506547","-3,03347668478274","-19,9187618073982"
"0","0,545429406090414","3,57152529875033","-7,20750495887435","-21,5337290777777","-3,10447920221072","-19,4222699462053"
"0","3,32407222954852","3,65462593279152","-5,77044866492276","-9,57436197556147","-2,5618580709405","-19,2897433704846"
"0","5,7077413177816","4,45444773773829","-4,1372494909758","-2,97774709411418","-2,24117567499306","-19,158679600562"
"0","7,98606134362212","5,4451543227357","-2,45422023512643","-5,549467301039","-2,42572704110237","-19,2745985775566"
"0","9,36964433391169","-8,94295828702712","-8,37087402379021","-5,80497237977899","-2,54628876080226","-19,3886585970539"
"0","11,0145792841499","-18,5269210524663","-11,8582266405188","-14,0162857064125","-2,25513540964552","-20,2828200746916"
"0","5,48413038226801","-11,9218348703991","-3,62417295863868","-19,2852199275622","-2,04425319102622","-21,165985733637"
"0","2,21983280207597","-9,60510955582366","1,2277029918076","-17,1918379596113","-0,929529582289714","-22,1734527666267"
"0","-1,23733418671948","8,80216786056777","-1,97297737346389","-17,1409029639901","-0,0441519124598712","-23,1707057326705"
"0","-4,28594411854761","21,5548516853781","-3,09940898265168","-9,45762732331436","-0,279457004228089","-24,1142663439628"
"0","7,33393454486579","11,9281646352706","-5,02579993754326","-4,57307118131251","-0,309541876883179","-25,0504045891741"
"0","14,466254422489","8,38116629460546","-6,39542049585428","0,850485231516528","-0,421213595936247","-25,5779477952029"
"0","20,4016336725406","6,45337510057994","-7,6235935824901","5,72124910575253","-0,464537725837129","-26,1046101343641"
"0","26,0177598644556","4,95682831873241","-8,81583195103353","0,512626007182331","-2,28683084666612","-26,3848037089273"
"0","21,3917374759016","-6,02939335131889","-13,3860842732894","-1,43479595058196","-3,67929229575361","-26,6673102024093"
"0","19,8938859716141","-14,003005835706","-16,8745207518343","-8,1867739642239","-2,90606643020751","-26,371135901657"
"0","19,1263968672806","1,15539355603419","-11,0441005650942","-12,9126574917122","-2,53264110019995","-26,0838569455946"
"0","18,613713106138","9,59455556836773","-8,02622563883563","-8,55208070955081","-2,24984066693187","-25,4023951410115"
"0","21,3928850483727","0,745174623669654","-8,62115473751735","-6,92704201943582","-2,04219904407601","-24,7327816594941"
"0","23,1900746433124","-3,76867435366532","-8,47391639002064","-2,17266105112552","-2,05716084544355","-23,9396197560922"
"0","22,8187424048983","-9,41628210431043","-14,248955765316","1,18026442008784","-2,03848381102719","-23,1573369449108"
"0","22,9690128667459","-14,0458445102092","-18,0285492900274","-3,73553407489297","-2,23244190087388","-22,3176562355427"
"0","23,2584074032178","-18,4042702878039","-21,3011999669089","-6,10280354631723","-2,3688938559819","-21,4872803359065"
"0","23,5849097003095","-22,6904840842845","-24,4450618566177","-7,09244687744682","-2,32183171955611","-20,8438068563154"
"0","23,1586681938491","-18,5665057283039","-25,7054978753731","-8,19696175584705","-2,3035735058453","-20,2054100440782"
"0","22,9716516817269","-17,0426358435469","-27,5474497125517","-4,88332292784437","-2,0063228054801","-19,6161681129562"
"0","22,0164698969434","-17,0780891096681","-25,2420983835029","-3,04697197608946","-1,78083425549926","-19,0303409431666"
"0","21,336399827142","-17,028837847398","-24,3431250394616","-2,37070737542107","-1,38974169748284","-18,4698652957068"
"0","22,2896569154382","-16,7143134613028","-26,2806910236753","-1,5082304660058","-1,05440145332817","-17,9117807163645"
"0","22,7785619198872","-16,4691387247642","-27,5188795818497","-1,27212388270831","-1,15982133213711","-17,2888014138559"
"0","21,9996509626345","-22,7957042510474","-29,1380953920447","-0,803844644587872","-1,17623838896324","-16,6685055467649"
"0","21,5425827788626","-27,0925253098044","-30,5341111430567","-0,527730314005488","-1,60949721084022","-16,229263944276"
"0","21,1713578585794","-30,8487633050624","-31,8734229381058","-0,15696811287919","-1,92447385107185","-15,7899337790145"
"0","20,8230294159976","-34,4610274882385","-33,1983290979878","-2,05706022339128","-1,7744312977577","-15,261183297728"
"0","24,9526595248588","-29,3666000435249","-28,4785882118292","-3,19308826537376","-1,70398002396879","-14,7334546643151"
"0","27,6966696462505","-26,9533141866082","-25,6832052601397","-0,585525103750614","-2,30922306970023","-14,2066285512734"
"0","27,0898670164673","-31,7726953205955","-22,4688112328315","0,885549178980599","-2,7766083007622","-13,6805995657117"
"0","27,3093214612508","-34,758356999629","-19,6679674775669","2,86456214917782","-2,19104528355754","-12,9095838601111"
"0","27,2985069795643","-30,3903122536859","-21,1275473369483","4,52345185131763","-1,81698074892635","-12,14219005047"
"0","27,4862741975243","-28,0237504575","-21,2894874515769","1,97904519412737","-1,07359783257471","-11,4003307093932"
"0","24,1217943474759","-19,9143615926884","-22,9026313870935","0,782634101408886","-0,466934256803507","-10,661024018904"
"0","21,8898441604739","-13,8954821444212","-23,8644535293013","3,15010686064383","0,280132553074893","-10,0579850331033"
"0","19,9599670671822","-8,43336932503234","-24,6608074255744","4,51867867324382","0,961670163658649","-9,45530092848871"
"0","18,1106601849154","-3,11954049641588","-25,4151241281072","7,45077713665717","1,069691391801","-8,85293026338714"
"0","15,0002192541011","-4,01706729331589","-29,4411474458085","9,73187774507288","1,29521135942843","-8,25083643552614"
"0","12,2934033248577","-3,00886816571845","-32,4183475495256","8,15495199323482","1,59855691163934","-7,47030292635597"
"0","11,6701783467706","-1,31974896777637","-32,440331073759","7,76750770199822","1,91209565658246","-6,69216724217343"
"0","10,4626975449105","0,450720081594776","-33,2515420784981","6,28487344973747","1,13340156578339","-6,02782699320447"
"0","12,3579400246832","8,44939153492137","-36,5679103700143","5,32376746334109","0,610965119632775","-5,36399358197785"
"0","13,2007539590424","14,5268238763736","-39,2007136561702","6,8847768625322","-0,0377393179435966","-4,61126572663697"
"0","14,0748493479744","23,5252368613109","-40,891639273527","7,68102139042489","-0,595430651300206","-3,86002418176171"
"0","14,7772882585524","31,3215963759415","-42,7832809496089","8,64957532746847","-1,1178125653756","-2,8420690958504"
"0","15,4339422284233","38,7978122676362","-44,7259145232588","9,45879537119317","-1,62649584670282","-1,82854626029882"
"0","16,0783842455868","46,1887641158933","-46,6815025841285","9,84233299849256","-2,35555024806622","-0,930615712887198"
"0","20,9834274520799","53,1062534964423","-43,0533414579291","10,3454068923026","-3,03009976951739","-0,0347790265038734"
"0","24,5648761977131","60,1576453335123","-41,2066293278867","8,75989966246996","-3,94143003581163","0,859208311966408"
"0","27,793290240013","23,6255774083075","-35,0984289323778","7,88147412246026","-4,78462169579261","1,75156226232867"
"0","30,9275413755894","0,645900459839804","-30,6075978071717","3,00689919404931","-4,73087657436325","2,8881643274325"
"0","58,8918516340122","-11,8590292367216","-11,2331364583388","-0,450792179036814","-4,86915610196581","4,02049214279276"
"0","79,1389401038865","-25,5342132044947","3,16250987699883","-10,0303070318394","-5,9524352065832","4,65766331499765"
"0","67,931301404938","3,16186891299411","-14,2608378117787","-17,3946108136738","-6,86233609134362","5,2975003507562"
"0","65,2939250613798","18,5227157834657","-22,2677982134462","-15,2397429665103","-9,96182958774898","5,33663279756647"
"0","64,9424452802456","30,3319814388407","-27,8825262294547","-15,9382906125087","-12,5107968411746","5,38520864920933"
"0","65,2006694821892","41,1953523354226","-32,8895078123031","0,647193531304767","-7,8821681131996","5,39745409320103"
"0","74,3918919396116","14,1168297739143","-27,6504999718375","11,1318181243149","-4,78892119083222","5,41761165616258"
"0","80,9057614103424","-1,32678006763207","-25,5884993938999","6,06465183422726","-3,80665843263364","5,0203824384191"
"0","79,8070783927471","6,47358180448857","-16,5815988601335","5,32716486779816","-2,70337251944712","4,63450727837231"
"0","80,6579432322961","8,84452462799962","-10,2503470860311","-2,82038035701431","-2,00450577158477","3,87895638749114"
"0","73,5010828822164","29,0478507334667","-15,7030861941497","-7,93674603878129","-1,18253737364919","3,13689908950744"
"0","69,128368257816","42,8804861920449","-17,7895471789532","4,73772474196067","2,16973152391959","2,56310832077284"
"0","56,0692325069237","32,6174031454373","-29,6361820137139","11,9309450692083","4,96365511852299","1,997934556938"
"0","46,1332178357113","28,8568929127278","-37,8823881810484","22,3463796028482","8,21802013416833","1,21701629880427"
"0","37,030215205908","26,8282168042648","-45,2139057530803","30,9622769998472","11,2310178789067","0,44554736663335"
"0","28,1493970650914","25,2607811185916","-52,3130467656358","20,8079378440774","12,3448897394301","-0,295240172048801"
"0","39,1911813207319","2,28401393372019","-48,7377760135762","16,6237045470275","13,8419772358946","-1,0289291735067"
"0","44,0868062085626","-13,9747133719774","-48,5306718648459","5,38128412007006","12,3603788417216","-1,42131572059503"
"0","31,7089540042884","18,3995260860052","-45,0588079522189","-2,72691295956482","11,6631702755713","-1,81225581389541"
"0","23,7438470546424","36,7062128006596","-43,1175321005479","11,3900296523343","12,7855912292152","-1,24149084055847"
"0","32,0352254168471","27,1682750925184","-40,412774958577","18,5722453236256","13,6739551588921","-0,681325055079078"
"0","35,9626021826578","24,1144618329098","-38,1740554600448","24,8586990777287","12,4725844533013","0,271518704068253"
"0","33,4915011677788","17,9679684035297","-42,8978571199697","30,5137473731003","11,70048086418","1,21118499885039"
"0","32,3337711423623","13,7777996064638","-45,4704866852525","16,6864090846585","9,96648743993816","2,58592311974041"
"0","31,5263489728205","10,1086599240745","-47,4966111637093","9,22110475869967","8,55931949558982","3,94492703609774"
"0","30,8123623937342","6,57828623882939","-49,3838960715569","3,85703840670016","7,08550184349166","5,20069203311963"
"0","34,0405006072531","7,24567674306289","-49,804229728286","-1,35112253866745","5,70582678881302","6,44527395856339"
"0","36,060098990646","6,63106030588094","-50,6718845450196","-0,101551769436639","4,36267527075041","7,59063663365536"
"0","38,9013125408429","10,1825466276969","-49,2786891480165","-0,967915610404504","3,0336934140686","8,72836650452008"
"0","41,3016707575098","12,2435936002953","-48,6711249474036","-0,181581046846032","3,38673069684782","9,56899309131561"
"0","43,2377870226323","1,87602533509194","-54,1295425722136","-0,22519924233074","3,35232366974901","10,407210983873"
"0","45,2500787142281","-4,86166349345982","-57,7690223614335","1,2287424284035","2,71623257726873","10,7295844124955"
"0","48,2879881882287","-8,55220107178585","-55,8133078977269","2,07611766716601","2,12671229762346","11,0563517288018"
"0","51,0194547677112","-12,6311890269224","-55,3761348121743","-0,782927862691281","2,16783492076526","11,0072959264033"
"0","53,6691856044461","-16,8136332042944","-55,3247470339821","-2,49671205670281","2,0736215937945","10,9663041975716"
"0","56,2971155387553","-21,0236309394905","-55,3713679801595","-4,11660672617278","3,28101719558398","10,5750664694094"
"0","54,0313929514587","-5,51180926735656","-52,3350968822869","-5,61434287603512","4,15338464510653","10,1944831356126"
"0","53,2804147006876","3,87253641632546","-50,2956173240569","0,431364302586738","5,2826643283018","9,51061268312549"
"0","52,8641244240922","-11,9182827025489","-51,4425687148533","3,99737165547579","6,27161561214175","8,83887182643162"
"0","52,5771035371523","-20,8340185884311","-51,719032615969","2,99152846465338","7,75421882016438","8,51287697482019"
"0","49,7939792923372","-31,5940885526588","-51,6695922395876","3,1666997276734","9,08833909509046","8,19225322678305"
"0","47,8050838203867","-40,7253611200411","-51,5973559093566","-3,1178580752002","10,010205111937","7,98805098439816"
"0","45,9586973691741","-47,0650447152292","-51,484409267289","-7,10695265537074","10,9921330783918","7,78667498769132"
"0","44,1903215257016","-54,0212427422767","-51,381120173978","-9,07254874073142","11,3847873597179","7,6771372937332"
"0","42,4427530009167","-61,1416374283609","-51,2802845801034","-11,4005864265564","11,9288271816431","7,56871337534592"
"0","40,7007342920288","-68,3057627092951","-51,180072297551","-9,15721925544416","12,692802523992","7,72929945588766"
"0","37,4349131691741","-71,2513814517714","-48,1119032219215","-8,47497172306243","13,442103991321","7,88748157235725"
"0","34,6426570323773","-75,5134828133978","-45,989724976623","-5,90324633391024","13,8633045319404","8,04354045052218"
"0","34,3686327213393","-43,1296988029106","-57,2723392652289","-4,16559226057472","14,3572151258311","8,19772403406415"
"0","33,3862818358258","-22,3259941245603","-64,4204399516322","0,338725135229466","13,6541836866234","8,21623816983268"
"0","7,77581463124291","-23,884822651152","-81,7620863609894","3,81599251430336","13,2467869401966","8,23492581916642"
"0","-10,3035677474866","-20,2794780815405","-95,2534021902233","9,90853940422288","14,0502719332059","8,47712195800125"
"0","-3,00966990010753","-47,0942529699997","-76,8283063504122","14,9983087436483","14,6435302781327","8,71672611628925"
"0","-2,42810361492323","-63,6708365500185","-68,014848853341","9,30273395418803","17,7989751934166","9,26673830911043"
"0","-3,63687874609257","-77,5206764877941","-61,6432272559274","7,0417499668243","20,3084453171034","9,81091026855311"
"0","-5,32318129935236","-90,644301153114","-55,8919538601666","-6,19212683573177","16,2481053745568","10,1042332328175"
"0","-9,21678291607076","-50,6282490169289","-52,812447995075","-15,3356755083392","13,5589436967743","10,3960003920629"
"0","-12,4991246590735","-26,9994748320838","-48,9717044428472","-3,43963269142076","11,9498376595105","10,7087289510924"
"0","-13,7118252322104","-33,7748486054745","-59,1496022168141","2,04188633632522","10,4197497162351","11,0199711174821"
"0","-15,4725023736874","-33,6277773712781","-64,7489346218064","10,6312008023227","10,5645986873716","11,8882885619757"
"0","-5,0730801182158","-60,6239995539205","-60,595008465635","17,3339745811799","10,3392557305168","12,7486281555261"
"0","1,46973519309818","-78,1293113798565","-58,883267805417","-1,63359699610887","6,77845347759841","13,4679083782651"
"0","11,0744308513243","-60,6526121952928","-48,6431857140024","-12,3595318858758","3,90362733889125","14,1826016062131"
"0","19,1358041641333","-52,579133001244","-41,4764792107399","-24,1038979781264","1,16596908614891","15,1612697769767"
"0","26,7855360244631","-47,0100190366877","-35,0905635130273","-34,4086202536619","-1,43847355067776","16,1330869022287"
"0","34,3254731384767","-42,1078941683152","-28,903007652746","-20,3127034912144","-2,18574879008947","17,2328661638816"
"0","23,5327331226002","-21,1215899421221","-29,5052124220516","-14,0980821107417","-3,33251786862572","18,3256646310611"
"0","18,4102240549176","-5,23157656424704","-27,9723552991179","-2,65224145810056","-2,08725084125652","19,1442712085286"
"0","33,6928089036101","-38,4787900318938","-32,5316962096126","6,00819991682679","-1,49397013362331","19,960704980753"
"0","43,5179265599529","-57,2527506467666","-34,8387595099208","-10,7904818703585","-3,08808218690984","19,9488052983545"
"0","35,6639442447697","-50,8132341356943","-35,9800088467654","-19,5376772008287","-4,33081454372462","19,9453017869967"
"0","32,4545177371173","-49,978597113508","-37,165083245811","-26,243551480676","-3,21261015510939","19,4801679736098"
"0","34,713099662945","-41,101529317366","-29,3871079589504","-32,5476611254744","-2,55845738570342","19,0273112864898"
"0","35,9901318862173","-35,5825161013346","-24,4720706652789","-18,0829456588721","-0,214371242950913","18,2279296684929"
"0","37,005361028338","-30,9578555791305","-20,2843625241387","-10,4366565534074","1,62534099395984","17,4424889811146"
"0","37,9507609472191","-26,571388547197","-16,2814322920487","-5,5637948877094","2,6245603586081","16,6246902079413"
"0","32,04842915705","-23,1845412062032","-17,6680521334409","-0,685479579599889","3,69770233600523","15,8183120029782"
"0","28,2596414516457","-19,523923178065","-17,3638867104637","-1,38009725901076","5,50882102931996","15,2453759539605"
"0","28,6051352506139","-27,3019564490526","-22,1124607038646","-0,22996225146211","7,16624496961533","14,6786215751108"
"0","27,9933420689793","-31,4864525928344","-25,0046827142392","-2,1018816272134","6,12029549127416","14,5193664232736"
"0","26,1209173108254","-27,848549013697","-21,663663379966","-2,72702488640242","5,66554599308246","14,3600242909051"
"0","24,4922515757034","-26,0873010166867","-20,0390896147163","-6,44478902087626","5,92377036037889","14,9376776212845"
"0","21,6806437165715","-23,9243557407657","-20,1425817628395","-8,97243117569951","6,15859987557013","15,506262891528"
"0","19,2735165392801","-22,1744261872143","-19,9450889085918","-7,33841090891057","5,67505541118821","16,5358850353545"
"0","16,9742741573245","-20,5344953591399","-19,6711308402109","-6,92221207832692","5,35281077211254","17,5527059227817"
"0","14,7038072635126","-18,9238605577085","-19,3777467907135","-5,13527270812895","4,12591980722372","18,9379243406927"
"0","16,115560137932","-30,2542019027144","-20,3365116338974","-3,96482993036433","3,14806249860684","20,3085202287238"
"0","16,3894502167037","-37,57112119969","-20,8933847962708","-8,58466406376263","2,1056161928144","21,7778787693109"
"0","19,8610617968904","-19,4784250265435","-19,8815593396978","-11,3710400461696","1,13811195715815","23,2344668360809"
"0","22,1655831579634","-8,65837069923937","-19,311206133027","-9,80864234143993","-0,574097103158136","24,3894139066769"
"0","20,4149376082473","-7,40338880061069","-17,3165728385238","-9,43990663482943","-2,09522164570187","25,5379444676651"
"0","19,7426808175872","-4,29587838857014","-15,8401013094118","-6,53049276912348","-1,89793201439204","26,5244591478643"
"0","23,7259113896969","-14,0442373184299","-12,8191566504883","-4,62146284316092","-2,05396688526733","27,5078775447057"
"0","26,4308732084902","-19,5165076538753","-10,3658387249116","-5,41812100806949","-2,34707743438625","28,2205349445389"
"0","27,8935863836922","-12,5810736500878","-9,48840539250696","-5,45333861724429","-2,69336782653828","28,9340497852513"
"0","29,5449617554166","-8,84108829513089","-8,19132540633818","-5,23829170779448","-2,70564099665976","29,3356246046982"
"0","28,9587338783585","-16,7355723616782","-12,1302414851168","-5,00418079445167","-2,80832893572102","29,7416865703665"
"0","29,0956830147503","-21,5086716591995","-14,3393619167789","-6,98820271383908","-2,97833496948305","29,9953630236799"
"0","26,9296038579476","-18,6891400189752","-11,0806916660059","-8,23571796335414","-3,15445771304614","30,2544489643264"
"0","25,5892512704992","-17,7474584194774","-9,31292965958364","-8,74493501340408","-2,52693335836772","30,607654788256"
"0","25,0931192401085","-9,365699901178","-9,70480185239949","-9,39990903464969","-2,08762629295538","30,9639895340066"
"0","24,462161281325","-3,58242122712432","-9,62532892899081","-4,37394304261056","-1,14100545871663","31,2784167703684"
"0","25,3551901814815","-7,5409515149893","-11,5910889250399","-1,24723939864763","-0,357567312023894","31,5958302966598"
"0","25,7547032915221","-8,87402363652374","-12,8364401695119","-1,46172330304447","-0,411216806535268","32,1169010996879"
"0","25,5372665684759","-10,4093639948401","-13,8638526304957","-0,82474852943196","-0,309622595777946","32,6378468584172"
"0","25,4352743809457","-11,4785745741805","-14,8558977621572","-3,65593102988411","0,335812002052408","33,4490439846904"
"0","25,0520844074105","-17,1738946832558","-18,9467489789278","-5,22562050792419","0,892234769266106","34,2565980293889"
"0","24,7738921730653","-21,3612893227343","-22,044851616827","-6,5681494289467","1,34964291993838","35,2172830844348"
"0","26,6729673432939","-31,4576338790411","-20,3861953426331","-7,81706702664713","1,80863738677465","36,173217093724"
"0","27,9127724689438","-39,4877126167714","-20,0990848732875","-9,22029113164923","2,10704325333649","37,0802838186452"
"0","23,2569242384967","-27,6197310425209","-17,5764093719987","-10,559932545018","2,44314720999772","37,9841897945287"
"0","20,3285624511606","-21,612287110702","-15,965788765374","-6,06338884333853","3,3419701995092","38,7959620263321"
"0","17,410311439875","-19,6274942370499","-16,8216917361798","-3,48946866715936","4,11910551271042","39,6063595417465"
"0","14,7547572174693","-17,2940564365127","-17,0242148110669","1,27669078310692","4,30093721592605","40,4155428749156"
"0","2,53225726829317","-16,7748001622579","-21,9494070184877","5,06023252044568","4,59181509172523","41,2236538134169"
"0","-6,68197884050791","-15,6387159438513","-25,274392915476","1,34421625346127","4,76379446406346","42,1648307303286"
"0","-19,8430137463895","-18,7418718424685","-30,951447671048","-0,0217429746650613","4,98964600517779","43,1035346875474"
"0","-31,3167554923542","-20,4340671083719","-35,6460453191586","-3,58490409527614","3,55987589684384","44,2410741822567"
"0","-50,3481893748511","-16,6881657355898","-36,4943926470425","-6,10661871218251","2,52779126146903","45,3742299577638"
"0","-66,7754428155314","-14,4139328178388","-38,4256004097352","-3,76088190434401","-0,058770112326003","46,4811784042805"
"0","-54,5676927178385","-25,3954771859814","-39,7589337306356","-2,88639587915681","-2,1884058608534","47,584979913861"
"0","-50,8422935682237","-32,4874406826965","-41,4403771006871","-3,73504939585092","-8,62224481984677","48,3286335927115"
"0","-35,8597918139242","-33,2384614075152","-48,8671360758377","-4,21037470593071","-13,9459412914786","49,0741961326817"
"0","-25,6747481210202","-35,3606950342806","-54,5134919895259","-5,33846955864716","-20,3542650385663","49,374734147863"
"0","-12,4707787705214","-28,6250034132766","-50,9079482269166","-6,20062213804185","-26,2433804898953","49,6822159071374"
"0","-0,941588821545836","-24,8501752392264","-49,9919601421199","0,444042735372182","-29,6419668470105","50,1745147370702"
"0","26,8496753900384","-23,5975850050828","-29,0872044357191","4,64036384552937","-33,4943282107739","50,6700484041282"
"0","49,3384287137736","-22,0167439168254","-14,9443040230924","6,81238556358446","-35,8784549272525","51,5258075374561"
"0","49,3362404884984","11,3429970360658","-14,2520369442724","9,32665986529454","-38,712965727335","52,3797263792214"
"0","55,4951733677333","34,8864314825465","-10,2569021145479","14,4265789833593","-34,6292302237797","53,3660329745764"
"0","58,8255749763898","23,8812927862412","-21,2409817891146","18,716726576233","-32,2614937566262","54,3492675859291"
"0","63,981538781394","22,0948118481669","-26,9705296285209","14,2074737451184","-28,1091945998411","55,0617626620431"
"0","46,0865391837077","-18,0470360878813","-45,3327647878058","12,5015069484968","-24,7845569849623","55,7751341345818"
"0","35,6232892970867","-44,8640919602579","-58,9043330812415","-8,54655519431217","-18,9115870361414","56,6679638518602"
"0","15,6333159098235","-16,3649796966066","-51,7041919097299","-22,8194737582577","-13,8299667647275","57,559295363624"
"0","-0,257665395077954","-2,99347913954447","-50,4269997235933","-11,9264599440553","-13,5690710577837","57,4665405765743"
"0","3,07471840956875","30,4817535400076","-47,9657690894815","-8,45412745965931","-12,3784223481858","57,3846173402483"
"0","1,07443932478844","55,3912252739879","-46,7437335888377","12,8119276151686","-6,99041107118198","58,4737080259936"
"0","-5,0174348199636","51,84096482108","-46,8491665555232","27,1974133808843","-2,35399214850578","59,5570660884467"
"0","-10,6606364754234","55,8110067963397","-46,7118427729013","18,8263969329983","-2,97424482577712","60,0323018184092"
"0","-5,92317370662059","39,7663340655738","-52,2046439374289","17,0647025211633","-2,55387439429322","60,5104294254982"
"0","-4,33693629135951","31,0911303423879","-55,867777863685","3,59761717148904","-3,27734276298728","60,7454204453102"
"0","-8,68703779427101","37,1384485056797","-52,8854216819101","-5,1120142223521","-3,4845745230287","60,9856674423869"
"0","-11,6805046789786","39,746824768232","-51,7547793060478","-2,25601381051754","-2,49206230029461","61,2975632151803"
"0","-24,5037858224215","45,7041322902987","-51,3739166780205","-2,59045139065339","-1,65409772670286","61,6127408925764"
"0","-34,0689165302687","50,0933626867369","-51,0235355308618","5,07155628827859","-1,48866672008901","62,2211790359025"
"0","-33,3013338510025","59,6127082376639","-49,5984091483342","9,66077545251212","-1,20415165410475","62,8286318049923"
"0","-35,2377662283746","67,2983604398396","-48,5202438305982","10,0673695130136","-2,00186495812489","63,4352142680957"
"0","-26,9757875201208","63,7122203277186","-54,129915264726","11,4468376846055","-2,51943928767655","64,0410280562309"
"0","-22,2936455454349","63,3440569964812","-57,6586310541884","7,76392918871563","-4,99174252293101","64,08777483686"
"0","-21,3049084684177","55,7193665663708","-59,3317581749994","5,88626788951483","-6,94240185541212","64,1407403256028"
"0","-19,7212919407046","50,8420409143238","-61,2934731530998","2,14146450210258","-6,98192167367205","64,4002180397834"
"0","-19,0883031517585","57,4451728492883","-58,7191956260964","-0,743996187323556","-7,33999632322746","64,6620922683314"
"0","-18,068869807218","60,9059019508167","-57,6325495907724","2,00645400245917","-6,88667406194647","64,9037476316087"
"0","-19,1302898188774","68,730721215384","-53,9208020618171","3,00701468469074","-6,69856247473467","65,1475452116867"
"0","-19,4867238238779","74,717831235002","-51,26214772272","5,64082310117251","-6,71006436509633","65,2815572295528"
"0","-23,814982850719","72,0672568710661","-57,880134059442","7,50008827782212","-6,73900824619379","65,4186040249828"
"0","-26,8026238179816","71,8162028357704","-61,6948501671659","4,48433313451057","-6,22662522527866","65,4913246367558"
"0","-25,6194827650396","66,4137586978835","-64,7275577093345","2,97804246687011","-5,84422916596399","65,5672308315772"
