Timer,AX,AY,AZ,GX,GY,GZ
"1003","12,5474077244041","2,58177359838656","-25,524187145862","-0,780282151651377","-0,236832631902827","0,263484698950758"
"1007","12,6122807180918","2,67662435656232","-25,669163400232","-0,789838647943812","-0,207144464421211","0,307370318603302"
"1015","12,6489091379318","2,75937165825268","-25,7067254884432","-0,87627921148846","-0,116310365654411","0,336651122258593"
"1015","12,5146706922791","2,73099323420145","-25,7513079259553","-0,943386889042337","-0,0428473607874559","0,362661207079234"
"1023","12,4135082910537","2,74203548750793","-25,7777293419826","-1,03992121714951","-0,0696392340486795","0,308419929684149"
"1023","12,58294605778","2,72408004609863","-25,7298557908914","-1,12436592136267","-0,0818222055782921","0,257377690716149"
"1035","12,6977793926167","2,72075545305678","-25,7025745622188","-1,10168973677267","-0,118258380489693","0,164358039890919"
"1036","12,6947138672804","2,7927335593271","-25,7154480677639","-1,11021766388067","-0,145742802263225","0,0732907320899518"
"1043","12,7057305835977","2,83865456059082","-25,7188109287382","-1,19638110899397","-0,0764719363110308","0,0977275702666381"
"1043","12,6578106244228","2,8434540405832","-25,6849138549819","-1,26341428106031","-0,0231433732377431","0,121541018053224"
"1056","12,6269366781235","2,86063954314508","-25,6612836139629","-1,29068125029464","0,146497588991466","0,0770112581598158"
"1056","12,7315441342264","2,77122789475262","-25,6403353100187","-1,32725839845154","0,289101751313406","0,0330418481203284"
"1064","12,8089173353204","2,72207893420757","-25,6200875908271","-1,40096194373648","0,326715807400255","-0,0101092530442976"
"1064","12,9401049088429","2,68038493123908","-25,5304718172426","-1,46464568613046","0,376522299820545","-0,0529235648222282"
"1072","13,0522514877673","2,64007127308708","-25,4627354838268","-1,31789394676882","0,184737141402949","-0,0511086959993496"
"1076","12,9315077946952","2,67260687795237","-25,3311635088858","-1,23457362685209","0,0429424905621765","-0,0494938381803242"
"1085","12,8600606659264","2,67863110452456","-25,2229161698776","-1,34142306025994","0,0165899869207429","-0,00380268398410187"
"1085","12,8722342565429","2,71604337867777","-25,1555373036106","-1,39939330713678","-0,0171955841338689","0,0412843001238465"
"1093","12,8769754871843","2,73926740002517","-25,0788342392238","-1,44422401035074","-0,0234728858117779","0,0418097921143544"
"1096","12,7177689020266","2,72356751268923","-25,3126752618873","-1,48552258424909","-0,0372242134236992","0,042263957692935"
"1105","12,5947097993701","2,72066055340997","-25,4476376704525","-1,38737700199374","-0,147057679103551","0,0646587549211144"
"1105","12,4213077460325","2,68382546614283","-25,3828930112688","-1,33174649602444","-0,240642438373115","0,0868032166998593"
"1113","12,2682986968736","2,66070831554797","-25,3659801905077","-1,39141574983252","-0,172363603722352","0,0424804408209374"
"1113","12,3487064849171","2,74902167202777","-25,3963376975331","-1,42207950938904","-0,13037968963125","-0,00139370589799737"
"1125","12,3800227892428","2,79796727507104","-25,4190433208549","-1,20258045033352","-0,131262186749013","0,0213037424836395"
"1125","12,1345344721842","2,80332678419107","-25,5788522200741","-1,05583343747057","-0,131664034493742","0,0437259115102254"
"1134","11,9412394616083","2,82061598060976","-25,6944757047779","-1,06713805328072","-0,0700611386568158","0,110044732055351"
"1134","11,9615358766745","2,87641089430579","-25,5899037341585","-1,04092959293978","-0,0202241943802311","0,175712282944383"
"1146","11,9450194338012","2,91933544847305","-25,5478115554594","-1,03926065485961","-0,00663785112107248","0,174605824922036"
"1146","12,0430080569497","2,88728327181565","-25,5220405611678","-1,0241883511978","0,0104416707890894","0,173614045749641"
"1154","12,105592801713","2,88134855582941","-25,50053304235","-1,00551299847179","-0,0944599346429005","0,150661721844907"
"1154","12,0577569622078","2,84395285527464","-25,4105881796091","-0,985869085835957","-0,17490601714489","0,128014006596811"
"1162","12,0269157782589","2,82073190266111","-25,3427658804012","-0,827470147421337","-0,1206444460959","0,083590879806165"
"1166","11,9704828490328","2,76383867702538","-25,6284778303753","-0,711771535074794","-0,0850433355882482","0,0396224456624511"
"1175","11,9240827399745","2,72071076164817","-25,8065412030726","-0,711422480748455","-0,119725200931269","0,0401754886074845"
"1175","12,0104326150939","2,78902212494272","-25,5391778659566","-0,682081318771936","-0,146410632937507","0,0406715693107074"
"1183","12,0684844335808","2,81796735893185","-25,3954586440421","-0,541075597385571","-0,200347803934853","0,0631715710524162"
"1187","12,1155150490862","2,76702995913247","-25,4926913503332","-0,430052572969193","-0,246694137107453","0,0854145775885002"
"1195","12,1582532526871","2,74130165296704","-25,5328663413652","-0,63870238594548","-0,135119263133837","0,151543882608335"
"1195","12,1671090677905","2,72024101142193","-25,3147077989911","-0,753285609497099","-0,0516344875194891","0,217042635889103"
"1203","12,1827687582984","2,7000446251858","-25,169066489665","-0,877205824136524","0,0190593764333034","0,259918264122994"
"1203","12,2977102314878","2,75260194388104","-25,1119194428945","-0,983635978297963","0,08392885988585","0,302498111057715"
"1215","12,3913188362588","2,77863019094193","-25,0378891693045","-0,808375190069351","0,115253254761281","0,30069911409301"
"1215","12,6054614760678","2,79974636893457","-24,8898975380721","-0,717391160525673","0,151302791600218","0,299085090482321"
"1223","12,7865483312906","2,81995303818662","-24,7625854686626","-0,78755679531695","0,158610996978858","0,297636411103059"
"1223","12,6004440783417","2,80369446405984","-25,0579817661376","-0,82104215780959","0,17283174972411","0,296336745036216"
"1236","12,4913304382553","2,80068405946812","-25,223799385363","-0,84466724901624","0,190200151921912","0,339284254854757"
"1236","12,4766234783897","2,76382981847685","-25,0775637660445","-0,865641734222976","0,20900184586452","0,381928668583397"
"1244","12,4586849510367","2,7407091214173","-25,0098125351224","-0,782032696666412","0,228456193559299","0,446358157325452"
"1244","12,6005409751554","2,7564281400687","-25,2059919862645","-0,730309857279404","0,248207729123727","0,510332117015621"
"1252","12,7046319509528","2,75933864166351","-25,331116310627","-0,652534896626368","0,113629894015795","0,485670152532861"
"1256","12,5685402247681","2,75987754423251","-25,4029038405875","-0,587756689618803","0,00877771092209802","0,461487626978298"
"1264","12,4789048907806","2,75997732633859","-25,4807585511453","-0,561095892744509","0,0101400114608748","0,503905585077758"
"1264","12,697258521986","2,65110528003257","-25,3515449607218","-0,524681693866364","-0,000132600062789177","0,54607488525353"
"1273","12,8555641677611","2,58205623111483","-25,2882402822616","-0,451021952075612","-0,0465961433702444","0,499794071297295"
"1277","12,7650086084297","2,6292712493388","-25,2421525546457","-0,387349984794214","-0,0895393374598095","0,454159162171548"
"1285","12,717529437299","2,63801348629948","-25,2005622976684","-0,395610228843616","-0,0382007121904582","0,453217275999858"
"1285","12,5257740190998","2,71222586232665","-25,4035756076777","-0,383207055570166","-0,00393057392721486","0,452372248337622"
"1293","12,3778275406801","2,7585605564445","-25,5304850959686","-0,36524920977847","0,0534603161163012","0,47367085269406"
"1293","12,6334708152265","2,58195243203575","-25,1854325713482","-0,345798175018907","0,101379310753393","0,494835911793298"
"1305","12,8062996041882","2,48406466776756","-24,9770925195237","-0,360569411231087","-0,00947944704260902","0,515881159124984"
"1305","12,528136577886","2,50964312739368","-25,1869958156911","-0,364540166821332","-0,0926381369790033","0,536818915850792"
"1314","12,3343264248707","2,49808234248547","-25,2861540661406","-0,330983907236497","-0,101397638398458","0,535603494035256"
"1314","12,2377903209417","2,58853545218441","-25,3911586496852","-0,307339757704522","-0,116279243206788","0,534513062498722"
"1326","12,1391393995092","2,63787724759153","-25,4776904323067","-0,28636014930087","-0,133948566400028","0,511478015509026"
"1326","12,1685073394687","2,60701327429956","-25,3507434962513","-0,266096814161605","-0,152887285632491","0,488755084934695"
"1334","12,1677345992817","2,60129856363724","-25,2880309209783","-0,142155029772752","-0,141511088995056","0,400141926321869"
"1334","11,2855360272483","2,4913499176496","-25,7637308410679","-0,0503427424664589","-0,136330903280758","0,312414522870564"
"1342","10,6000498177579","2,42210152771956","-26,0800767100965","-0,105662062539748","-0,0412932723284945","0,357822279997276"
"1346","10,6998107257587","1,99742070874693","-25,659284934918","-0,120532821917927","0,0346612194147751","0,402673917093255"
"1355","10,6654006871454","1,70692874249355","-25,4459355494294","-0,332272321990838","-0,0525385503518069","0,42496987380331"
"1355","10,6431565431355","2,34870392655202","-25,3563260362383","-0,47693343549063","-0,114031108968317","0,447029720299039"
"1363","10,5856506324119","2,66309580430794","-25,2590402746517","-0,11883144336096","-0,287389567713872","0,512991234642464"
"1367","9,9024094202826","3,57021318397918","-25,7857088690592","0,0944216886984248","-0,431686504074935","0,578339682246813"
"1375","9,35546398990602","4,22707841476431","-26,1153689490829","-0,112123294667143","-0,53185724867772","0,510797618746101"
"1375","10,4721329331601","2,33312546505885","-25,315524308098","-0,211517039615951","-0,631934997751539","0,444031161612476"
"1384","11,2367273482226","1,34686819744155","-24,8406265903632","-0,766838050087324","-0,917328036315053","0,355903801270599"
"1384","12,0252529539421","1,39980219439476","-24,6940413389027","-1,16471994255354","-1,16710495517268","0,268612237663713"
"1396","12,7230990056995","1,16515073705993","-24,4932189899851","-0,620064270005262","-1,30798514803165","0,248240764399824"
"1396","13,4178388524631","2,43801468580991","-24,6607594908558","-0,342038720248519","-1,45927888573955","0,227907492493006"
"1404","14,0913689300831","3,13000712794215","-24,7045249920907","-0,274182472013847","-1,3372780098144","0,207608493412214"
"1404","15,2720085349094","0,701808812028341","-24,194324589147","-0,18282325063117","-1,2708316009527","0,187340242627035"
"1416","16,3301513501441","-0,644117692826924","-23,83941532275","-1,19310332186238","-1,29146796594272","0,23326982290354"
"1416","17,501638664166","-1,28149717720069","-23,1773164191874","-1,85952247832286","-1,31175773667502","0,278589620484319"
"1424","18,6172700953689","-2,06768353312005","-22,6349723905664","-1,42941977427557","-1,20831792780103","0,301305595542729"
"1425","19,1957773519208","-0,558424869890006","-22,9237483695643","-1,28455363642393","-1,12853747880454","0,323742266759925"
"1433","19,8850916369545","0,0958537349279307","-22,9696323524822","-0,593137889957915","-0,812386877520401","0,301814860551638"
"1437","19,2647153532437","0,918497532420378","-23,5084757677671","-0,114800458496946","-0,548604408997111","0,280085663811159"
"1445","18,9742557875372","1,59231548732413","-23,8560917278032","-0,870946661021089","-0,370453807316683","0,258534293210624"
"1445","19,0699734389948","-0,737763776832859","-23,7364482183763","-1,27894273178244","-0,191295936462339","0,237142461545569"
"1453","19,1560949698603","-1,98403855424781","-23,7347455961885","-1,2471135668328","-0,227929977029137","0,215893762244808"
"1457","19,914902324115","-0,597749972998798","-23,2769944502191","-1,2970520150779","-0,222825520313504","0,194773475946516"
"1465","20,515699648165","-0,0640213025332679","-22,980112752968","-0,0878953555814388","-0,198715312005352","0,261995389809153"
"1465","20,1852700504767","1,90891009074391","-23,4903156208022","0,719727148337218","-0,165950776945755","0,328474620753579"
"1474","20,032156857244","3,26832133959575","-23,7713478722561","0,484571589397742","0,117898045818297","0,372230796155796"
"1474","20,3990516333191","0,376294616710079","-23,0535760357548","0,509099829227613","0,356078862103924","0,415600696208435"
"1486","20,6884731572982","-1,02291973355864","-22,6148931877808","-0,573769193877794","0,480785795198536","0,458624044460182"
"1486","21,2054063189832","-0,730151191427243","-22,9794010846443","-1,27432514103338","0,613822050703261","0,501336479408972"
"1494","21,6509481074864","-0,904098530488197","-23,1337212081177","-0,314044000361071","0,657972270839346","0,499656478175504"
"1494","22,7773190412534","1,52150416836934","-22,0855428160494","0,19269795484626","0,721647964620809","0,498149243917915"
"1502","23,7288515125486","2,94843427696825","-21,3832436591904","0,473649988464153","1,10314403431415","0,629137498930604"
"1506","19,6196423957451","2,41190700664725","-23,240359011578","0,753905911039355","1,42936057812395","0,758995750257239"
"1515","16,6394336091003","2,49182995249911","-24,3460533540183","0,0298884175298058","2,00844187474241","0,79961321174837"
"1515","13,3258798421419","0,762161018348901","-25,4988876589815","-0,384094583522366","2,52266590507898","0,840167175099047"
"1523","10,362498690263","-0,242568276088831","-26,5240360257824","-1,09559543929461","2,48217701544979","0,549812947292665"
"1527","10,9176148103908","-1,43974078323584","-26,1248085655483","-1,66707407538652","2,52909791178653","0,262580269656608"
"1535","10,7430749484334","-2,49254568512214","-26,1535007922373","-0,989084113838905","1,68903294339339","-0,198305855545382"
"1535","11,7338353400595","-0,143013599677157","-25,0072809841326","-0,675216074949197","1,04507626569746","-0,654987357526332"
"1543","12,2784435275267","0,976488297962991","-24,2941466458551","0,787221841026924","0,552203972627255","-1,08583988064872"
"1543","13,6156083367643","2,44898975151304","-25,0503901104384","1,83841456903885","0,0881284132840545","-1,51351961020092"
"1556","14,6614490213943","3,66685188649164","-25,4104694577572","0,736261460830376","-0,177476830548779","-1,73984209425443"
"1556","15,5294068645469","-0,534366884758118","-24,4151423191941","0,235252941058391","-0,472708013007187","-1,96551439042305"
"1564","16,3680849360064","-2,77897167963773","-23,7857512741524","-1,83534110737214","-0,596071821373813","-1,8597521393417"
"1564","16,5511468758922","-5,02426220707993","-24,121339598075","-3,32786602352179","-0,761175298594742","-1,7566392114376"
"1576","16,8788669540412","-7,06967970337185","-24,2090031249758","-2,27596338264409","-0,759927425600554","-1,50150591977554"
"1576","19,0667220550915","-3,41578198338805","-23,9189231046597","-1,92007601625578","-0,802930959697648","-1,24998564483313"
"1584","20,8590412395521","-1,82661062360689","-23,7101676261931","-1,02419223970404","-0,773405688862932","-1,17816081893006"
"1584","22,0785734475985","-7,47984267749404","-22,4446145372553","-0,403148387613001","-0,770854206267198","-1,1075520274967"
"1596","23,3350231445644","-10,6940634504113","-21,5230011710368","-3,00673963852626","-0,348084171125257","-1,10420446129837"
"1597","22,254475119967","-14,5818839022108","-22,1865807785456","-4,65716679117651","-0,0139663409197275","-1,10120115013771"
"1605","21,7237399898959","-17,974426703613","-22,4042499028499","-3,0044849420623","0,619605769687659","-1,09850669171829"
"1605","20,5696633327376","-13,144772609051","-23,6878048494659","-2,22387209343362","1,16953529700131","-1,0960893244241"
"1613","19,6928147571363","-11,2727132225768","-24,5697941270658","0,365110252629016","1,34155558844048","-1,27037453852305"
"1617","22,2738432230329","-16,5180042164743","-22,2518627234058","2,26021259488017","1,56149376075237","-1,44319069820264"
"1625","24,1216060337876","-19,4611293635275","-20,8780371222268","-1,15551406906843","1,61789385046905","-1,52646188441369"
"1625","20,6911374294642","-22,5950364441392","-22,5676521328256","-3,03888048247925","1,71982637723804","-1,60939667030714"
"1634","18,3049637085369","-25,4242683204137","-23,4375095515646","-1,91354791877813","2,42945808267836","-1,44940542021822"
"1637","16,5831950304031","-20,2480790657767","-24,6148600718842","-1,47942669912951","3,03580745609438","-1,29147001851131"
"1645","14,9601912184831","-17,9696222799804","-25,572534989272","1,85039153882401","2,76101754693023","-1,11332229886323"
"1645","16,1779779447656","-18,8047794393449","-24,0733138043374","4,17862161434664","2,62499818741456","-0,937040843701342"
"1654","16,7621632324869","-18,7964470383233","-23,3122938373687","1,39029490037743","2,33591784494298","-0,674206738418711"
"1654","14,4260984759219","-22,4794009241245","-24,0655795181862","0,0265520612548589","2,11714071868729","-0,413720833383236"
"1666","12,612688179589","-24,7258258880485","-24,4544372866707","-1,33509909908935","2,27019870696513","-0,0230011565621432"
"1666","10,1009377420973","-22,0239736363463","-25,6870373102615","-2,47618798115957","2,37257294475669","0,364559388258331"
"1674","7,87720578496072","-20,9859084169619","-26,6000425643241","0,562230124393948","1,9575811552917","0,749285678031008"
"1674","11,3058761672015","-21,3085150051471","-25,0648260222382","2,34416968050089","1,62700517289544","1,13146918020431"
"1682","13,4959794720248","-21,303060824004","-24,250076629971","0,429851245864942","0,284508251521279","1,29080390646721"
"1687","15,8157018100134","-27,806591722631","-22,3716109810172","-0,538083218526755","-0,838769944927123","1,45020704775819"
"1695","17,8059066844301","-31,895313089913","-20,9352777424139","-2,08258179154647","-1,49151095814069","1,58761482025274"
"1695","21,6970445028891","-28,2775451075364","-21,7009717464277","-3,30207044966017","-2,16999143487421","1,72528917071011"
"1703","25,0685359117998","-27,2328591959936","-21,841886819408","-0,383222177116594","-2,70572775847893","1,73086219574187"
"1707","29,3005921483601","-23,2889937646112","-20,1851450154626","1,30808034540884","-3,27646509811706","1,73791885351363"
"1715","33,2078113173972","-20,6683221366545","-18,9988131490657","0,522730778835392","-2,87456620192281","1,70219307467663"
"1715","31,2550246909972","-29,5809678104529","-19,3611601738599","0,311615667210763","-2,66977443962883","1,6680844942056"
"1724","30,5799501257629","-34,409099111227","-19,3080583822344","-2,82664180890821","-1,93687722553187","1,70159704820972"
"1727","29,6616597509902","-35,6497964537014","-18,9725539745679","-4,97176415810229","-1,36350558889629","1,73577675435764"
"1736","29,1086444684239","-37,7862518044542","-18,663279392067","-3,04131199021444","-0,955453226443809","1,68232801165001"
"1736","25,7989357284975","-34,5351472805807","-19,6475513293281","-2,21527715986671","-0,562679497942101","1,63026230281033"
"1744","23,2155815949617","-33,3464931033231","-20,2297279016705","-0,162686932477795","-0,207755881060324","1,57943740021765"
"1744","21,6559642027942","-35,9516210619975","-22,5847464663283","1,33962192032522","0,149932572458246","1,52972570257121"
"1756","20,035060071147","-37,3791980222204","-24,3228728646186","-0,595242263702513","-0,881302261905878","1,28250199695577"
"1756","27,0549459027242","-38,2983673044913","-20,7878494169509","-1,5540761043377","-1,64498753673359","1,03807790671669"
"1765","32,0601476407161","-39,2834008528268","-18,8153557761316","-1,10795569776654","-3,30631030054395","0,707938533858862"
"1765","38,6320692157049","-35,5983372594014","-16,9728272482074","-0,94416006814713","-4,71637502313386","0,380898616045052"
"1776","44,3541788881686","-33,6285679562586","-15,3242486504752","0,597935871741691","-5,23970515265039","0,586001370150778"
"1777","44,9459298224381","-34,9164431505234","-14,7696002681879","1,67054201019644","-5,85925799017661","0,788522622040162"
"1785","46,5195673966166","-35,1874971891742","-13,9007120689377","-0,118328118085122","-4,66904977737827","1,2975223215178"
"1785","42,7743375872638","-39,5533058752513","-16,5316168445132","-1,09641097299873","-3,8547613699448","1,8014830188099"
"1793","40,4975762297435","-42,3172910223401","-18,0167494812065","-2,82600325944695","-2,59379040412147","2,43326340105142"
"1797","36,1514655615771","-43,6957805559553","-20,2458455637351","-4,19761386267813","-1,52942117774213","3,05971882289392"
"1805","32,6394084254738","-45,4177345333727","-22,0692823157628","-1,80288448873875","-1,60493508423614","3,2843754218697"
"1806","36,7317910765272","-38,3468545872027","-21,0394843439717","-0,515699873796439","-1,51949823970757","3,50855314826736"
"1813","39,2658638373979","-34,527911355082","-20,8443546632519","3,00128572472327","-2,62738248931728","3,20293929129787"
"1817","41,1608132814817","-30,8755280387305","-19,0937077610923","5,65767915840938","-3,45864912597929","2,90201624523967"
"1826","42,8268442964291","-27,4939846183819","-17,9567233433945","3,47778354343254","-2,71198894879012","2,58324487104761"
"1826","35,481374530402","-35,7049846699397","-21,083554681913","2,65781246421088","-2,18681500115306","2,26846064455999"
"1834","30,1662086546495","-39,7024365459504","-22,9641945191185","-0,601105010634608","-1,11374375779855","2,39838850183745"
"1834","27,1234712210648","-36,6040661303697","-25,736443572535","-2,89565210886572","-0,211185815626032","2,52729540398555"
"1846","24,0457731895677","-35,6718476588649","-28,0416018273108","1,19742842957812","-1,82681382132258","2,58911609878495"
"1846","33,1944981524541","-24,215360469127","-23,8608227169049","3,46761021685429","-3,00910545185246","2,65074955804676"
"1854","39,5050303061962","-16,830221040471","-21,6457649199121","4,10518535085113","-4,08675486456302","2,55781779918736"
"1854","37,5594159781163","-25,5161908285843","-22,413262306245","4,9638884837466","-5,05675512535261","2,46621590891593"
"1862","36,838292281192","-28,7378545860941","-22,5398729331412","-1,11194583849488","-3,7225524549873","2,88311233559572"
"1867","29,3466776290589","-30,9114616871341","-27,5415210403041","-5,01189992500122","-2,79912397680367","3,29621442931715"
"1875","23,7181697064291","-32,9110127444888","-30,9166430702138","-1,92156292058096","-3,14399564799188","3,5735719002532"
"1875","32,408168722147","-24,4248458492112","-27,2943029052243","-0,652118641181893","-3,36639164691531","3,84914437383386"
"1883","38,2347758212479","-19,757164696543","-25,6240617924613","3,52095837495345","-5,13945081538439","3,61581020595954"
"1887","38,9198531988234","-24,5077483557681","-25,7852248612018","6,51458048263012","-6,57860917100501","3,38590403757426"
"1895","40,1024664696685","-26,2021988150324","-25,6647935784312","-1,05745952404452","-5,45607551795331","3,24730033488981"
"1895","35,1655710233767","-40,0346760579523","-29,6090915386049","-5,54972639477863","-4,72706762305443","3,11060978880603"
"1904","31,7653194125589","-49,1146057083768","-32,2351919392458","-6,96356045004693","-4,60975402716696","2,84329516605197"
"1908","41,8800045007822","-43,3765765058813","-25,8926163981126","-8,84986022615141","-4,49097728944433","2,57878950835734"
"1916","49,2383323393844","-42,5748841123355","-22,1672127290628","1,49748176595069","-5,08207190757156","2,03006622242807"
"1916","46,2786951828465","-34,0485457655112","-27,2977255904599","7,99343147797453","-5,53640860508254","1,48635351303093"
"1924","45,0405351982154","-28,8519276496396","-30,0416111816456","3,93255454569916","-4,29114638943172","1,16770358745466"
"1924","45,2781021521438","-44,5980645029284","-27,4325815346735","2,53382587163556","-3,33196664311639","0,850971571921522"
"1936","45,5904183316634","-53,0219193670719","-26,1452451066641","-3,72368287313829","-3,21359302062898","0,513903485329863"
"1937","46,6726914520883","-50,9431915295513","-25,0988392952309","-8,06731304542245","-3,01808302207149","0,178590636557112"
"1945","47,5948385830505","-51,9598267919329","-24,1753702014421","0,117951196487289","-1,86066056379923","0,0874767516941718"
"1945","47,7137772089892","-42,9872125939025","-22,518953357606","4,73119201260752","-0,865228343474959","-0,00455095823451239"
"1953","47,9798913860489","-37,985009237015","-21,1110734019067","3,91776032366282","-0,870347046766162","0,0569987195753906"
"1957","40,7338279789756","-50,595989966835","-24,2889362296465","4,22554821333751","-0,731069654079676","0,116332284332778"
"1965","35,2620076881808","-57,168192119629","-26,064702432442","-1,50139202825023","-0,896756330802538","0,107507390763674"
"1965","38,3728034075953","-55,2540076466459","-25,6658805195054","-5,1905682234585","-0,961309323402021","0,0975332781926323"
"1974","39,9262581085075","-55,8285010474998","-25,7390052799412","-0,714752990974516","-2,40088598942516","0,0424146329249567"
"1977","44,223082890313","-47,7895828466628","-25,6224337746399","1,5559486335556","-3,54658386422314","-0,0132059982207302"
"1986","47,5083640296628","-43,155822832895","-25,6363091636166","4,48033074873362","-4,12596198925522","-0,113390488717263"
"1986","50,6573657695834","-46,0126578697132","-24,3280145964857","6,86043312355615","-4,72746469502735","-0,213556006688961"
"1994","53,5932909699088","-46,4764362853967","-23,4543382825768","1,47701765569336","-5,03011250373815","-0,0931370212191854"
"1997","55,2544362844032","-51,143116788373","-21,8943572009412","-1,59336138319349","-5,39667582676849","0,0251821286698513"
"2006","57,1590949298288","-54,0279981128627","-20,615097246416","-1,51442994864508","-4,77287627942589","0,207787629231305"
"2006","55,5510039021281","-52,5903126528068","-22,1216597002024","-2,04891113385431","-4,35811198906931","0,388068438663044"
"2014","54,8148073654939","-52,5522694987303","-22,7959441878705","0,298594633654088","-3,42067375400973","0,808887852382071"
"2015","52,8720761133878","-51,2852108096981","-24,087430948134","1,66082674357117","-2,64523434967739","1,22550950331612"
"2026","51,4194375395089","-50,6105900982606","-25,0601453917522","1,06164120603742","-1,97445454449086","1,48396784111645"
"2026","52,6056824581295","-51,6790218268917","-26,0191401067938","0,915193767296059","-1,33133180586514","1,74052797126432"
"2035","53,2996894945981","-52,1701936081411","-26,9345509075291","0,0594819451824","-1,81294860827415","1,86304461131718"
"2035","57,2163120403477","-53,8974642106553","-24,3610233928684","-0,506892017511953","-2,08671897909125","1,98530244662508"
"2043","60,2680419639875","-55,1136083624935","-22,8761035082592","0,320212156695569","-2,94549050829654","1,88676060999573"
"2047","64,7867186434052","-49,7016820724584","-20,9104917239182","0,761906583371261","-3,63064409295597","1,79012556782217"
"2055","68,7567249433894","-46,6625157097817","-19,2593119615541","1,68859872527845","-3,12459440717427","1,8716552159027"
"2055","65,6521773957737","-49,47091400753","-22,3154149296033","2,40566637275257","-2,79612669179742","1,95302755893641"
"2063","64,0523136449585","-50,382035511311","-23,9411703523141","0,0887482424590998","-1,46726859386139","2,27688300396903"
"2067","64,165848922766","-56,3863871819888","-23,9761418975069","-1,32375605914353","-0,38287969476096","2,59828521681987"
"2076","64,2466992295929","-60,3337910146523","-24,2955634509417","-1,93916013948119","-0,985350488295387","2,82925948873187"
"2076","70,9502093572638","-58,6372926748192","-20,1336953446333","-2,66029033548655","-1,33593796970933","3,0591051949437"
"2084","76,113037178423","-58,795780861925","-17,4212094646036","1,64521363265261","-1,9425448899783","3,24382489782859"
"2088","76,6816996962391","-48,1909013706795","-17,2781946558372","4,38196101878926","-2,42573103984457","3,42805923869279"
"2096","77,9410793316057","-41,7130985622652","-16,5463858465633","3,82323616325853","-0,937354935504426","3,67802837551"
"2096","71,3846036614414","-49,6470689577198","-20,7727734293005","4,0386331971802","0,208778033417528","3,92697231211689"
"2104","66,8040981868396","-52,729494033721","-23,3543579894232","0,0302980140370005","0,395853130879619","4,26322347024862"
"2104","70,4982475259056","-54,986210504809","-21,1941155534179","-2,55344710174132","0,666218311727447","4,59780340136843"
"2117","72,7551146469157","-57,0500404462257","-20,2751968918062","-0,599398737485651","-0,940852346106486","4,57797599893062"
"2117","78,7040085893433","-42,9986555295928","-18,2547442591541","0,174484484827832","-2,16281911913659","4,56018759520675"
"2125","83,4508308510457","-34,8234101325277","-16,7665451644865","4,12810974060791","-2,09728185606419","4,7206824904516"
"2125","79,4513523309422","-32,7814396458947","-18,3385278232479","6,91650288944448","-2,16547571706778","4,88112649195125"
"2133","77,1854647592853","-29,0950938953926","-19,0299016000534","2,60542376758258","-1,24420451857578","5,35031930828937"
"2137","79,0412936450907","-25,1405757985573","-17,6133610049765","0,305887641734669","-0,552377397981485","5,81651001100439"
"2145","80,3624014481091","-21,1164034542785","-16,726183826111","4,84859500998786","-1,60235411396626","6,12561009228449"
"2145","84,5352619702123","-17,587489839098","-14,8644717483421","7,59061198061663","-2,38546650076616","6,43377434477487"
"2153","87,9187904784074","-13,8702773251665","-13,3881883394637","7,56341132476329","-2,42920261990825","6,76315575488467"
"2157","80,8163402075683","-4,89145472485997","-18,4112857673932","8,11179860934975","-2,53626150840116","7,09157240507653"
"2166","75,9499310244537","2,18159692162863","-21,4521736314328","4,27921343207539","-2,08518876729981","7,63969099076366"
"2166","81,5209463479827","-5,18139426170734","-16,8810534702188","1,88894951188717","-1,75996909234465","8,18491793392559"
"2174","85,2170102218995","-7,45733384028128","-14,4014986027818","0,994362977869252","-2,72777456213813","8,48492637338813"
"2178","81,1609223423801","1,58953114072781","-18,4844765527005","-0,138160434482386","-3,48436296145784","8,7849339449582"
"2186","78,4456151882558","7,01290363656659","-20,8217417145435","3,99739917218502","-2,63101900428359","9,28345147168938"
"2186","76,4457637286805","9,91421874713127","-22,7029858260419","6,46910769131761","-2,02458745554526","9,78006470393173"
"2194","74,6045597584491","13,368554830262","-24,4651065629636","2,60752210429985","-2,64273403414276","10,0323452441962"
"2194","72,1487207847497","6,7258749497314","-25,8135786361388","0,443441031093392","-3,09849598485794","10,2854196337066"
"2207","69,8735008097052","3,83365208329314","-27,2739959941263","0,259118857659334","-2,6462062429456","10,5392062350625"
"2207","72,2103249527656","9,5848643151189","-26,2598177941797","-0,27301097887832","-2,32043240297235","10,7936318062423"
"2215","73,5233952142716","12,5564774495741","-26,0392173000189","3,1869551512905","-2,45387617325156","10,9824603926436"
"2215","74,3733242815486","16,8645645257052","-24,600121079202","5,36006351200085","-2,53642607804995","11,1724378182856"
"2227","75,0828744211478","20,4001104047639","-23,6627252475296","4,86745739397496","-2,16330015751924","11,2972756949157"
"2227","72,8710053963724","22,957786790014","-25,4297746538474","4,99826259532724","-1,86268086499868","11,4236728050433"
"2235","71,3013354963277","25,7944028441859","-26,4232884719813","4,15407024588567","-1,68775650355369","11,5735255493342"
"2235","70,3038882465953","27,6300584244049","-28,153676042384","3,70778223162103","-1,510067710996","11,724421811121"
"2243","69,3293037206766","29,8603781945208","-29,5365522883446","7,97340503120155","-1,51647776161571","11,7218570403657"
"2247","69,2977317496765","30,0585564311503","-28,8116695980996","10,845668343198","-1,48671778000411","11,7216127721923"
"2256","69,0534335076436","31,0404674652742","-28,6961909275039","10,3311144283022","-1,10066533292665","11,9660746023275"
"2256","67,6633343146585","34,8171622365345","-30,026597529367","10,646127341555","-0,772374028826886","12,2100775894078"
"2264","66,4869816908833","37,6513334930948","-30,9947032150245","10,3531737426606","-0,532170315163102","12,5860094088655"
"2264","66,6500911665446","39,4761616748604","-30,6162482757118","10,3767885668749","-0,292077553527155","12,9603028412735"
"2276","66,5548789989833","41,574101941162","-30,6060401758872","10,727867939286","-0,453643524021605","13,266956129512"
"2276","65,8436886113782","43,6137205650502","-28,7445969929212","11,0269752645836","-0,538106018944817","13,5729252108199"
"2284","65,2125940818207","45,7025404719816","-27,5195678656836","10,065659687577","-0,247636880569157","13,8562236990658"
"2285","65,6434344999938","49,9419839832165","-27,469275410551","9,48552133274015","-0,00644148344879452","14,1391829793235"
"2297","65,8478651785927","53,3996325967534","-27,1458516767514","7,44978486437718","0,119638148191068","14,4438946830643"
"2297","64,5790593349101","48,5820333622468","-28,2116519926717","5,92275925383202","0,253299466150388","14,7481218473956"
"2305","63,5964742044441","46,7122060291973","-28,8003501544714","5,98667757550678","0,297734310374912","14,8092900708932"
"2305","63,1441012170391","47,9289610005206","-27,0735595625822","5,63826826135509","0,361539608600097","14,8723949055122"
"2317","62,6382291822567","48,317221287705","-26,001909098708","6,18310466538752","0,434165301926709","14,9151804469805"
"2317","60,0178300615337","52,3995442825689","-27,0836018848788","6,38806047296843","0,510807388970402","14,9597362787789"
"2325","57,8738891504019","55,0458524320073","-27,5877983413814","7,33261864998345","0,990886562887418","14,9838236006347"
"2326","56,4308837907263","56,0832878850929","-29,1582828482174","7,9959943261437","1,39467204047031","15,0095473410972"
"2334","54,9408707813713","57,5628277346151","-30,3073067574135","5,9523848860527","1,08407228883259","14,8602852295136"
"2338","59,1338311168986","49,2151892570122","-28,4250906230494","4,70109252703296","0,888175051852836","14,7140323576967"
"2346","62,0001308200833","44,5079703826999","-27,4310436228334","4,18214324165691","0,466471500605915","14,5925360114229"
"2346","61,8695194966718","44,721534563185","-26,3212518763432","3,56006003518426","0,121946357868917","14,4732502937246"
"2354","62,1117055921493","43,5062209483272","-25,3812248923452","5,47240392628133","0,893817510517961","14,4441748620854"
"2358","61,3717125389046","47,9790210766325","-26,8850561306492","6,58604425196153","1,47404310931152","14,4160327243307"
"2366","60,9491916003379","50,2250208027049","-27,6472803514872","8,07358199536208","2,05968114033578","14,4107846511347"
"2366","60,3926310322043","45,0897172926259","-27,4159422264648","9,32162962434466","2,58778373882619","14,4060762761938"
"2375","59,9438662443881","42,427706654256","-27,3850623557229","7,35454477108027","3,18236622088927","14,3577386019368"
"2378","56,8636023094008","40,4051301078768","-29,5974053753287","6,34317847962899","3,74722051998811","14,3102583525059"
"2387","54,4184522268062","38,4009498803639","-31,1357307315482","6,00420931997759","4,20585918297871","14,1753203597519"
"2387","52,2206590130788","36,4001758779206","-32,4979868941938","5,60599176646173","4,67613223324841","14,0419185514835"
"2395","50,1192035195022","34,4000325651989","-33,8142496613992","5,19184725275304","5,15170303712579","13,9098949504668"
"2395","52,3070715753516","40,9660604080252","-31,0845361920697","4,77342130549926","5,6296861892098","13,7791078254377"
"2407","53,5254962388813","44,3981831186398","-29,6179190065868","6,98524298976292","5,58358784473654","13,6053165240077"
"2407","53,4322449505131","38,3573123710292","-31,0198659605946","8,38411927233874","5,63884739797575","13,4329434842973"
"2415","53,4081371358585","35,4624413782855","-31,7111490257922","6,03284837398778","6,01829703092298","13,283899604145"
"2416","53,7008541910561","34,0937951711988","-30,478013457082","4,71347512936005","6,36536760196956","13,1357857732039"
"2424","53,9369645677671","32,4877416482489","-29,7421746872888","5,22955818225126","6,72858720798506","13,0546765922227"
"2428","54,8918728923659","35,774100588175","-28,684159570976","5,33904261667441","7,0791603261551","12,9736814765408"
"2436","55,666730408858","37,2463286915306","-27,8019844502573","8,10911974847176","7,51665364529171","12,8927886959782"
"2436","56,2104106534817","37,2574539524424","-27,5917024248895","9,99440874031323","7,93372634211324","12,8119877266565"
"2444","56,7640546220782","37,6180443760705","-27,196934606185","7,66013037326416","8,18703575042759","12,7753826233457"
"2448","55,1312563708221","37,063326364231","-27,7624652003511","6,49156165718426","8,46577504759776","12,7384283976521"
"2457","54,0069076464908","36,8791316999203","-27,9988482221747","6,08646285845354","9,12680919251988","12,6129339596166"
"2457","52,1786864062743","33,4968267339844","-27,9753725333688","5,62659755533225","9,72192245826677","12,4880045553581"
"2465","50,6363289604704","31,3223661545404","-27,984015665613","5,63674141125212","10,039874937614","12,4076955746668"
"2465","48,1101450826621","32,6019664027774","-29,3572947247479","5,49323159790024","10,391621410505","12,3274183687496"
"2477","45,8807917545064","32,7411135445254","-30,3070486364296","6,38175072592827","10,7278631418511","12,247169669971"
"2477","42,7363044587134","25,8452906732165","-29,1987380852549","6,92769651137445","11,0770447420115","12,1669465467306"
"2485","39,8754012668163","21,406887030389","-28,6728129136002","4,1961756518842","11,1849750370492","12,0205761243057"
"2485","39,0897935370713","17,2057131015378","-26,7688970399998","2,42361688769289","11,343050817069","11,8748608196238"
"2493","37,8924481142467","13,1684641451149","-25,3850177339501","0,562606537776881","10,7825299549358","11,6856197656723"
"2497","39,4014897980869","19,3609794086266","-28,1361703073798","-1,12218107921667","10,3747939277821","11,497329037775"
"2506","40,1845841342586","21,8276170557908","-29,6674900158437","2,43395269941341","9,75859248666253","11,001096432059"
"2506","44,0670608648321","21,6443493728046","-27,4373831767812","4,39893389140678","9,22746568570887","10,5085898936727"
"2518","47,0566495511799","22,0504305963535","-26,2047036621256","3,72027205887197","9,10579315129328","9,82091550970068"
"2518","46,1553172308784","17,2299989013114","-26,7626989137781","3,61095472212133","8,9305668615918","9,13814383590017"
"2526","45,9385935620994","14,3818366804513","-26,9084603371255","0,988664499965294","9,47238524780185","8,83473540965841"
"2526","45,0221845574757","13,0966516124359","-27,0508632287244","-0,769154905362964","9,86071210648747","8,53167749714356"
"2534","44,4332701221883","11,440864222284","-27,1323887932015","2,41422838005792","10,24093201004","8,38333128983314"
"2534","43,9719045207624","9,71645685823039","-27,198011774593","4,20588967315485","10,5774603869333","8,23378663666574"
"2547","43,5602151782511","7,97934395906001","-27,259480628976","5,62343279484709","10,8940936943717","8,08316678270931"
"2547","44,3596664517785","13,8622150518714","-24,6769239139089","6,94040668867115","11,201667721467","7,93158229882825"
"2555","44,8908189004771","16,9559869173673","-22,9236858189755","7,74561457803019","11,6286883345821","8,17615385266914"
"2555","41,9031507141703","8,06353320465923","-25,9774553564969","8,69325119752818","12,0300993136728","8,41614178335293"
"2567","39,6650125702319","3,27173428759714","-27,6469278278224","6,07831386704387","12,4507418072901","8,58584721421295"
"2567","39,1360604815506","10,4549280321223","-27,9115235437322","4,58569701506563","12,8601414294971","8,75249781550011"
"2575","38,392782601276","13,6753871169557","-28,4091325605783","9,52316743151269","12,9245992446786","8,80612399697472"
"2575","36,342027661738","22,4051708746062","-28,6894058527373","12,6491529566553","13,0519867596565","8,85834889723815"
"2588","34,5420515325243","28,7150500085761","-29,0729059654098","12,8991481192011","13,2389224439121","8,7549193830195"
"2588","30,7460549722998","34,0687087449442","-29,692024530912","13,7560289231562","13,4329735680317","8,65184255116068"
"2596","27,4726712362965","39,525315652955","-30,252692152521","14,2566957703788","13,908301182249","8,52702538452107"
"2596","25,6268326620171","37,7053192777084","-30,3460091061906","14,9616063423852","14,3317089011101","8,40270360282225"
"2608","23,5769780267435","38,5580018049804","-30,5772431239222","10,8394842587596","13,7120077437462","8,03620203175783"
"2608","23,7668308459952","44,8056256132856","-30,5315245217648","8,23977498430414","13,2773237892938","7,67242581362286"
"2616","23,3889792718417","49,3521658012062","-30,5934594113615","12,974048793797","12,9886738589349","7,57577565858306"
"2616","22,4034971439516","52,2770505368942","-29,5359233650754","15,6798200399999","12,7265209652852","7,47878101416362"
"2628","21,4213620275712","55,6216728398801","-28,8459553016223","12,7159933920918","12,2601830033322","7,27119356575914"
"2628","19,8929497726621","45,2512134763342","-29,1909439583589","11,1880839112304","11,8408687499516","7,06438639089716"
"2637","18,4917797546981","39,9412974234956","-29,2662875405024","8,24574241606867","11,5665386420454","7,12296022666981"
"2637","17,1401665857934","35,5683813006823","-29,2711935163133","5,96317791538935","11,2782275054283","7,17962397727766"
"2645","15,8078542508541","31,3689581834539","-29,2576995402863","3,85797251665141","10,9835500648954","7,23457407093194"
"2645","6,23713794104726","30,7950458970931","-36,7509139275334","1,80044421381787","10,6859737085255","7,28798673567542"
"2657","-1,42217758921165","28,9124258389089","-41,8850562840505","3,3912171548771","10,6033278965195","7,47236056591652"
"2657","-18,9665702303376","25,1904271196726","-37,187437878256","3,86271454925868","10,4785513611236","7,65422785458361"
"2665","-33,7608894845302","22,0078527802161","-35,2215333831401","5,27978388399354","7,02904597684328","7,23831416651496"
"2669","-34,9542069450321","53,9153114892613","-18,8418601973176","6,23103878682872","4,20561520644301","6,82609374911119"
"2678","-38,6303620078494","73,0399695091914","-7,39697317869503","20,2140677344837","-1,76184683851053","5,95399508377856"
"2678","-28,1345085583215","130,196173666052","-11,2557071403853","30,1002557201488","-6,94095307992197","5,08931085845389"
"2686","-21,5191035544304","172,134221728024","-11,052105185873","35,5958960762588","-12,8732249218755","3,96659761292776"
"2686","-16,4150111659024","211,254506889745","-9,78732598387046","41,8112837240736","-18,4284530091167","2,85239038334503"
"2694","-11,8995275047817","249,853060790955","-8,24534244086308","48,2201514937312","-23,8119930767083","1,7458144330566"
"2698","-8,83729233386483","259,244945840671","-25,9313667643227","54,6810299593368","-29,1173544827446","0,646084981064765"
"2707","-5,58105173993347","279,268983355079","-37,5401969028006","20,3345885413361","-32,8733629761287","0,76561910222782"
"2707","22,488510991933","273,131597189746","-20,8191377146338","-1,40154364751177","-36,9038689118201","0,87903088856326"
"2715","44,8620822273261","277,650214905377","-12,077648183558","31,6683291730285","-34,2320285257564","2,83971679394439"
"2719","47,4624510898541","342,543493178357","-15,0534313613802","49,7709736887763","-32,928254371777","4,77770793239045"
"2727","53,2617795672587","386,435621081542","-15,5500404920069","50,623936565538","-27,7679571484239","6,27625995915012"
"2727","34,5062883085002","275,008799674794","-1,28016542281501","54,4798962278041","-23,7515804243796","7,76056365432623"
"2735","22,2074671008649","218,263436803321","8,72706102782568","10,0121308324432","-18,7114444156693","9,21002753123558"
"2739","12,3911051633207","172,949468089988","17,5860083316962","-19,065860882352","-14,2051365051957","10,648234426554"
"2748","3,56158302910708","129,032113121193","26,1649982392667","-43,6605871283484","-9,20047830056125","12,1204554755131"
"2748","-9,58634788602591","91,9067836246781","14,3271706375026","-67,2501365586017","-4,44889477485474","13,5831927506488"
"2756","-21,4961631916696","52,4390517815205","8,85599230995184","-60,793125590538","0,49637981878128","15,1256485314992"
"2759","-17,2371950522414","163,713946514404","-2,46358303457796","-63,4590961552672","5,32985222888034","16,6596247734065"
"2768","-16,4209943279847","219,600040081359","-10,9908966008425","-65,9460783381958","8,69133997104495","16,2008861521763"
"2768","-29,0890503847991","94,2723364646744","2,63292154885398","-69,9049454475168","12,3025550208927","15,7543583032215"
"2776","-39,4688003289378","29,591453899512","9,72313389834697","-105,455402180571","11,1772927026229","14,5026858189399"
"2777","-55,3994528322801","37,7355521239669","11,768164400485","-131,478207103124","11,0352610193018","13,2686676883117"
"2785","-69,4920072863644","25,4237760073377","14,4152752878243","-93,5520613720237","9,2402265273377","10,9476509733222"
"2788","-82,8686803651294","9,32443170891917","17,219663667502","-73,8953670875847","8,05249218252027","8,6514197930712"
"2796","-95,9665401652797","-7,47621102790884","20,0651366103113","-59,1498072146803","7,14129380546102","6,37742526736059"
"2796","-91,3688074893971","68,0050513717607","12,3843556777549","-45,7244424926034","6,35601692179059","4,12338063623014"
"2809","-90,799198134822","109,653044058383","8,01387079548491","-29,8494514510944","3,21842951412152","1,22553185818538"
"2809","-98,5304375909699","23,8413864659757","9,44623825197847","-14,9359598438795","0,569710360020333","-1,64991391575146"
"2817","-105,314596567018","-18,7904413176045","9,55444659397867","-26,3179315858019","-1,26943530393767","-3,77738786189284"
"2817","-97,6860632094882","47,6958184340465","8,89944719326835","-29,7285641081658","-3,11993921863879","-5,8938094657695"
"2825","-93,1642395196055","78,6661618398521","8,2850800621735","11,2791279722462","-7,16901383155969","-7,66946409863157"
"2829","-84,5054171018858","57,4716184715448","15,9579035914941","39,8072093465726","-10,799214293986","-9,43939535319506"
"2833","-77,5553638033251","51,7383305266027","21,0355353385133","14,7416242782412","-13,4354627193343","-10,3880921234535"
"2838","-71,2708223296753","48,8678172602496","25,4352422341513","4,28916441811376","-16,139112063701","-11,3400080367834"
"2846","-65,2454767790616","46,5273695439414","29,6578592872372","-2,23504273669285","-18,873452621393","-12,2948120448491"
"2846","-59,7398180657616","-20,3233085540391","36,3032790828647","-7,70326979846657","-21,6217685163518","-13,2522071434678"
"2858","-54,1765610295548","-63,5185699985642","42,1615916767682","-35,116024768145","-24,067518731466","-13,3076001953902"
"2858","-49,8470857920884","13,6345631729944","28,4095467166063","-55,5878362293683","-26,5754947446812","-13,3737507549218"
"2866","-45,218129758308","49,1711608680812","20,6948172515702","-29,3561594833893","-25,0957233663102","-12,7657933536361"
"2866","-47,9131906899209","-19,5474706520366","29,3715524700032","-16,4698032089779","-24,4001190933012","-12,1730515082903"
"2879","-48,8407258625918","-54,3697888479952","33,8101220157656","-47,4728387533575","-23,1347995185897","-11,6601307351204"
"2879","-42,3478438710684","-80,6292334978827","45,4181600254966","-66,9940776040536","-22,2100583497237","-11,1588224417996"
"2887","-37,1449427931908","-106,563193858661","54,1390310474407","-59,2614989929591","-21,996473498932","-11,1972943877811"
"2887","-32,4444487065884","-132,436888208975","62,1057064586957","-58,1626379714126","-21,7467158389781","-11,2400369712806"
"2895","-27,939626340561","-158,299423827089","69,8753683194395","-58,8470312980083","-21,4804867804331","-11,2866110109967"
"2895","-22,1903761631292","-114,760334116374","69,4908667268769","-60,0107932481912","-21,2067574204783","-11,3366224898955"
"2907","-16,7764604949346","-96,6109802968312","71,6363067375053","-31,1462051512305","-19,4467516931896","-11,9411366156392"
"2908","-5,98512949916366","-144,939961128921","70,3043384449531","-11,6294938343314","-17,9699655048258","-12,5431297721828"
"2916","3,48053562743466","-171,537935500298","70,4439896915801","-45,2800704320333","-14,3669596316432","-13,1869747058699"
"2920","-3,12783824712078","-204,166465656595","52,6065816424736","-63,9629041348646","-11,2557731628021","-13,8283674883348"
"2928","-6,33654472565589","-232,371601284193","40,6331448318536","-57,3978512151877","-5,49549480756475","-13,8720280910527"
"2928","-17,9487976653021","-247,924940126204","41,284909227617","-56,3057436774598","-0,3889444105259","-13,9194257432685"
"2936","-26,7939676294606","-267,655697949749","38,8546717558751","-52,3568973394943","3,67849843273941","-13,7496086544887"
"2936","-34,5614458094871","-288,159938194659","35,6193432414464","-50,1401117852052","7,75278049325556","-13,5849146260933"
"2944","-41,909196936919","-308,807394875077","32,1737060981203","-48,3889331673049","11,8301768121332","-13,4248168158209"
"2948","-44,0364088148907","-355,433610239123","53,6071876935069","-46,7629174889829","15,9089912180208","-13,268842560504"
"2956","-47,2703848601382","-392,569999842208","67,1996775658388","-36,4107604175449","17,9804103052018","-14,1091214734398"
"2960","-75,1900144285387","-367,297251945774","45,4289573973027","-28,7728704487197","20,4377558329742","-14,943201459091"
"2969","-97,6639295906501","-363,888954797096","33,5805388533279","-34,8138716903465","16,2743875112384","-16,8745574090942"
"2969","-98,4328478028178","-418,030578003145","38,8602300698209","-37,051987897982","13,4962570159286","-18,7903483052096"
"2977","-102,908352404053","-453,34802767574","40,2541845538668","-47,2353542192242","7,27103079870498","-20,3613235942626"
"2981","-77,7119881339665","-378,249539210224","33,2259053655358","-54,3745367884312","2,11615906782028","-21,9229432202145"
"2985","-60,279364226659","-341,626659706659","28,2575415631958","-28,1491465450997","-4,2504351513959","-23,3658855542265"
"2989","-45,8704729927917","-312,127845879747","23,8272758857918","-11,7548005482688","-10,0687908884372","-24,8023550616288"
"2997","-32,6392305278429","-283,948109596623","19,5375740364115","1,99679616617289","-15,6375045663703","-26,2330173911453"
"2997","-20,8007534601611","-261,45713712261","33,8895002445891","15,0379776292485","-21,0925429739563","-27,6584697379093"
"3010","-8,92471470717913","-237,019484611257","42,4110561335515","19,1976476227671","-26,0015319742684","-29,057191134853"
"3010","-16,908004997091","-345,866355812609","51,8090944881285","25,9898186411836","-30,9818757173814","-30,4519305236231"
"3018","-20,2858793011056","-405,75191894967","60,0560905826661","17,424269371261","-33,8322053144873","-30,3652952742136"
"3018","-8,14836095071306","-303,326644688463","52,0752139421747","14,0103077726492","-37,1126264965003","-30,2896261176691"
"3026","1,5119148230601","-255,28822515277","49,0152370212516","49,4786085602984","-36,2020938204234","-29,8047171135978"
"3030","15,2966619250153","-249,660450232755","44,0413653912165","73,7391124346681","-36,2231975675848","-29,3326534279921"
"3034","27,5277608796782","-234,065344205651","40,4075396556381","32,4564335727377","-34,8149484387067","-27,9016171607616"
"3038","39,1537627488538","-216,624707377512","37,1237652804403","9,67464988341175","-33,9558391335211","-26,4902265684711"
"3047","50,5440983357354","-198,842355811398","33,9314325158705","9,62815678352607","-33,0687458631136","-24,8758938587897"
"3047","44,9964903131938","-269,669914589681","37,6137661987132","5,43329042273683","-32,3489100090912","-23,279489073452"
"3059","43,3120860146925","-308,044304550808","39,1519237052289","-18,4350126500214","-30,0061236711695","-21,3683173281487"
"3059","51,41040972659","-238,669687468293","43,7814030311207","-36,8718648788057","-28,0243218978038","-19,4747484417992"
"3067","58,1787982961733","-205,404482897163","47,1184079893238","-18,7056320463303","-27,0718978410452","-17,949880153183"
"3071","51,5449673300338","-247,861814664393","45,6317447858468","-10,9998771495222","-26,0282040561103","-16,4357962477603"
"3079","47,6913934032636","-266,299777595919","45,4650265282808","-53,6789897851603","-22,7804445780475","-15,1740119176971"
"3080","40,9265241391181","-261,996755281057","38,1315939312698","-82,4223983446058","-19,9290570878471","-13,9185813281167"
"3087","35,5077969118884","-263,563058286365","33,24604776385","-49,5981355148356","-18,2776257810806","-13,3084967746098"
"3088","30,6133496669759","-266,216113657306","28,9999468410152","-33,6234518648011","-16,5125981694431","-12,6973925422664"
"3096","25,9230929846644","-269,070389890915","24,9208839865644","-38,5898344779654","-14,8194158919892","-12,2177139814183"
"3096","22,0532065726228","-219,404098602448","18,6598213531925","-39,705526292869","-13,0789486058139","-11,7359456164002"
"3108","18,0428285772236","-188,973205611838","13,1087692932485","-11,8101665006338","-10,946234676632","-12,002231796067"
"3108","13,1724678022598","-253,390454009607","27,2174864066281","7,72384965950599","-8,87491004640992","-12,2596445284971"
"3116","8,46717078424073","-285,069591791051","35,261795496642","-13,110458678789","-10,9403001355647","-13,4354797604306"
"3120","13,6181921458025","-239,472606216461","30,1764626865378","-22,7764484788439","-12,2293558448203","-14,5952893007238"
"3128","16,5279394991616","-218,807330458082","28,3013600249228","8,29958775117853","-13,4738347268357","-15,7627779381988"
"3128","13,5721336162711","-194,954538769222","20,3097382818178","28,5277626710857","-14,4980154150858","-16,9171559743901"
"3137","11,4318792408371","-174,811553099115","14,7203385565353","14,9901651966686","-15,0511673806842","-17,7950906911752"
"3137","9,60925652549727","-155,355467583113","9,75845546240236","10,1957628043833","-15,6298349858352","-18,6650108035363"
"3145","7,91034135109351","-136,026567105715","4,96049440355502","19,6275947781648","-15,9420847620759","-19,461570268034"
"3145","7,5480315357411","-147,283155725462","5,76943870058642","26,0236767216692","-16,313020370204","-20,2523133036912"
"3157","6,90628746664093","-147,362891439154","4,84303794374356","4,25100275297506","-17,7301457443203","-20,3981923591797"
"3161","12,7266808757636","-121,417228963179","5,6889584644835","-9,29390439931558","-18,9636568080423","-20,5455235760287"
"3169","16,9838735749349","-103,852756571872","5,71785079597709","11,884571505745","-19,5574856316119","-19,9662849271184"
"3169","23,0158353173072","-88,1667998939279","3,89886624341831","23,6172741069782","-20,2200332029548","-19,3951949756348"
"3178","28,259013779067","-72,6486653733886","2,53717298681107","0,333796780639727","-20,6667285512365","-18,7652454860388"
"3178","28,8143404092407","-108,52163389228","4,98114128987372","-13,6026159425198","-21,1751349337121","-18,1424894207844"
"3186","30,2638962009963","-125,610074761737","6,29923748931807","-15,0547656465897","-19,6109217565852","-17,1512223073399"
"3186","32,0617261244294","-139,220410611157","7,3232295367206","-18,910936442661","-18,4629349637229","-16,169340867461"
"3194","33,9951978676634","-152,186747593204","8,27039469413246","-28,0875431530561","-17,5971569376071","-15,1517664063868"
"3198","32,1162223445552","-132,802248611382","7,56304087622621","-35,9943721106536","-16,7998835311407","-14,1421695019724"
"3206","31,1524185265348","-125,1877344922","7,36348796686967","-20,9506101973061","-15,7866603977211","-13,4926377341557"
"3210","36,4395904224759","-121,785149958119","10,113402616358","-12,7973452246894","-14,8351038998017","-12,8461429368544"
"3219","40,501320743091","-118,042437758725","12,0137872442579","-33,4335726870487","-13,8807345525651","-12,9964157310933"
"3219","39,6729239317474","-134,018526330468","11,1884164544232","-46,2488977025458","-12,9450843658429","-13,1415186013787"
"3227","39,6799764147841","-142,745708037536","11,0910145349159","-32,3444072724469","-12,4813520939697","-13,3702102021007"
"3231","33,6991268218115","-120,476178100941","6,21087408477862","-25,4771831139798","-11,9325090789136","-13,5938944847152"
"3235","29,3061777115246","-108,807359938184","2,9413703584148","-13,5769609125302","-10,2636577557695","-13,8792566334481"
"3239","25,5316658940004","-99,101348055394","0,0926026520398095","-4,32378457590903","-8,7848072455191","-14,1599538562929"
"3247","21,9980159499058","-89,7587654002708","-2,64625895576983","4,14857418572431","-7,33068830445665","-14,2600118965441"
"3247","21,553762633293","-61,5002269369044","-4,34792009633025","12,4510361109447","-5,92783095859009","-14,358007219886"
"3259","20,4527321303279","-40,1992484823253","-6,35864019222194","7,89707081114991","-5,50599685154095","-14,3879817061826"
"3259","21,2218090901083","-54,1603605085503","-5,9810309674508","7,28708263412193","-4,91087465789123","-14,4169304421422"
"3268","21,399234084949","-55,9305296506683","-6,39953420927975","17,6050461087897","-5,13274044455483","-13,7832564672671"
"3268","19,188117101179","-27,6400686585541","-11,0599623505912","25,1606259405176","-5,14662419110899","-13,155102184953"
"3280","17,3867381450698","-9,10364239296929","-14,5084805863086","20,4093266367947","-5,18937444044138","-12,2892757341108"
"3280","15,261779826893","-4,13342975333396","-15,9016429935143","19,0297321827129","-5,16526913954721","-11,4302187049834"
"3284","13,3107975249383","4,80489030130422","-17,7578983389445","25,7928544599356","-4,67821981166296","-10,312553969372"
"3288","11,4275734091239","14,4779370724046","-19,7351244016307","30,5648753178978","-4,26036751407243","-9,20287607401994"
"3296","9,57073897556978","24,2870243513405","-21,7439508477938","21,9216513384855","-4,52277601803785","-8,21064741396181"
"3296","1,0887929042248","14,3758193358024","-25,5693597057747","17,1121849520505","-4,67494334549454","-7,22378981403233"
"3309","-5,85342576619065","11,6932450175051","-28,8293024189997","15,4799640306609","-4,68423320053099","-5,88884295711574"
"3309","-3,04815038731733","45,3392636150115","-30,1679800166235","13,4618398829391","-4,68846336425631","-4,56160344085282"
"3317","-2,12653267037449","66,4318107550169","-32,0247781859751","5,1423424227635","-6,42039417817215","-3,30744890689329"
"3321","10,6236049734884","45,9630979212007","-27,3747950114271","-1,29106967984506","-7,81903873411756","-2,05886348494643"
"3329","20,180579078928","39,4189865310998","-24,8450882150582","2,37328478871828","-10,3634238265512","-0,352082749752724"
"3329","45,3722860568589","26,4878064622892","-12,8191185675478","3,21208796594214","-12,5895253545005","1,34577367939492"
"3337","66,1732297194304","17,3140097182385","-4,09250273968915","-6,33404326447692","-15,6901624880846","2,5944885910125"
"3338","85,26410917614","8,83592244572401","3,77224462700399","-13,1118187256933","-18,5290220676528","3,84025053549068"
"3346","103,688972412403","0,486651327152497","11,4118517738373","-16,8602519081313","-19,3951040895201","4,81868220991955"
"3346","91,0288712568435","8,27702876646528","13,9154193864843","-21,1143471695287","-20,5628758546658","5,79727516688822"
"3358","85,40215420582","10,1757907804881","17,9973332293996","-13,1783480647133","-14,7626469420189","7,39360177012346"
"3362","80,2599750029205","24,8490663421377","0,965493896235832","-9,0854475106919","-10,3895177430368","8,98413589136735"
"3370","76,7065080513883","34,2476449088829","-9,20175207531507","0,137376212017093","-6,72800861445596","10,2827354878629"
"3370","72,8698969369509","21,6899974252556","-8,91669813928364","7,17920916638393","-3,3505378477446","11,5794223500275"
"3378","69,4830100769752","16,6269796820182","-10,8812587613116","0,477762525942906","-1,80151646917498","12,1244637396994"
"3379","63,6300050846868","44,5299036825277","-9,29518309303877","-2,31810775619629","0,014914923335389","12,6751569305151"
"3387","58,4565246482441","61,1367345583626","-9,16159809931775","-7,45721291318422","2,13846991371393","13,4735449360853"
"3387","53,5476976527855","75,6520037544497","-9,40743767506149","-11,2662188343946","4,28187456781622","14,2741554631878"
"3395","48,7419448482773","89,7800036343311","-9,75239183132254","-0,348850769395935","5,07502850118985","15,120873449865"
"3395","36,5356808832883","98,6458493096993","-14,8527093566389","6,22721316843456","6,13334166509021","15,968957324392"
"3407","26,0671505942755","109,397365191075","-18,4752391250797","7,75841137736432","6,78721592385903","16,9726638598013"
"3411","33,0571506608988","92,5857575304865","-15,521691479547","10,1734652184617","7,59692769797328","17,9759892247091"
"3419","36,4266991667858","86,050617848849","-14,4103184563516","-2,13130910046067","5,48098545453627","18,6922348910998"
"3420","34,520920177405","108,640878563681","-14,7886549941606","-9,75301966454667","3,97283776232674","19,4109233916355"
"3427","32,9605670568475","121,623939311605","-14,9761385459331","-5,55562641333147","2,37073589570332","20,6170519719837"
"3431","36,3985514372775","146,729840354071","-11,4623359941246","-4,28106018402816","0,965851710207533","21,8204935568018"
"3436","38,7632310584544","166,420381904534","-9,08167085867136","10,5419985868049","0,299522918715462","23,3964891891539"
"3436","40,7098922352393","185,108226480874","-6,99700774504016","20,727118978338","-0,450502429440689","24,9667263757031"
"3444","42,4937483761334","203,610413720263","-4,98966728941858","15,5044048338414","-1,54756865119514","26,5538540483016"
"3448","46,4045198533033","168,395197797059","-5,74979233184224","14,319806811876","-2,60266098949683","28,1361352331102"
"3460","49,7836579547319","152,813776513257","-5,65284415341946","2,17168653140775","-3,57685451396911","29,9125790641828"
"3460","52,2148971094396","159,669472225532","-3,87143604999852","-5,96361208074485","-4,55421051769006","31,6832183578568"
"3468","54,7369594392676","160,319578989048","-2,49000757810241","-4,43352808588135","-5,03871953851802","33,6471607715264"
"3469","54,331016664396","170,419348946984","-0,239348260713008","-5,26522743078859","-5,61880918778588","35,6045275129845"
"3481","54,6247079976503","176,428799365752","1,67837450368857","-0,568801278469443","-5,50099122556431","37,4677678145296"
"3481","54,2889871959471","175,401541097758","-3,37642884383929","2,05367755802441","-5,54537891131466","39,3265613954557"
"3485","54,268130164978","176,53138012895","-6,29261925047288","1,34875142131479","-4,95308982992595","41,0710818039933"
"3489","54,3699026690994","178,060622918652","-8,65015388838637","1,34936312121071","-4,53088804758177","42,8130805972246"
"3497","54,5194355199939","179,663818497767","-10,8617545604305","1,40114054286782","-4,37149366908683","43,913171393731"
"3497","57,6187367693372","172,460574762876","-11,95719237928","1,54667216713833","-4,21176944067981","45,0173663493602"
"3510","60,0468800289352","168,486748595553","-13,3810623296083","0,713320200898792","-4,3608244062569","45,9487894174162"
"3510","53,1946522215255","166,526451614427","-10,4742339075433","0,196827937301354","-4,45048291628096","46,8852080113396"
"3518","48,3280117849287","164,158975611351","-8,97612568161033","-0,71921844574725","-3,58630689331426","47,7599381595879"
"3521","46,328386065048","162,006481891551","-6,76796666668996","-1,46267166534133","-2,8877994167804","48,6393237421418"
"3530","44,1453723992912","159,733793855058","-4,99432576219201","0,956400911755358","-1,46151319680315","49,6552264953962"
"3530","44,5644171098689","155,369930969389","-4,27313051862637","2,42561336923317","-0,223830714075863","50,6736073470942"
"3538","44,3368817138322","151,758870392278","-3,28685872123532","2,70464856477994","-0,338640024115576","51,4074737294077"
"3538","43,8575237035645","148,287197162954","-2,23134272209308","3,20374418666402","-0,249310582592451","52,1460843734784"
"3546","43,2800887057905","144,841332612087","-1,15773851632914","0,230381888524522","-0,530420028326561","52,6683839097129"
"3547","50,1373217511312","140,638013091442","4,19798115970501","-1,63643523355551","-0,680209947240605","53,1966172121975"
"3558","55,2501241519236","136,714444745699","8,21228964816429","-2,27095552735052","-1,17181133028768","53,6419470749785"
"3559","50,8900239484989","143,368758329769","3,18230718820234","-3,11421380289143","-1,55905760238834","54,0928990730759"
"3571","48,3005261379608","146,181651066216","0,78974419031207","2,91114869041605","-0,323245557620369","54,5488950406552"
"3571","35,8999571898631","154,417440172981","-0,566107779958797","6,78291143915303","0,631631024661743","55,0094162689587"
"3579","26,1982846275451","160,277321766965","-1,85114655865083","11,7030627842619","3,06501562940873","55,1210894206906"
"3579","4,18033625220638","157,16752760959","-11,98544787419","15,96503853594","5,13164335578436","55,2397891285326"
"3587","-14,3344141606492","157,0969264923","-19,3313837406082","13,7485786090763","7,52555425034743","55,4971332888541"
"3587","-31,4847791554307","157,589056190863","-25,9489332713486","13,4306067114406","9,7484945302497","55,7588640652499"
"3595","-48,1037589447545","158,185379985336","-32,3762112384495","16,8429810404184","10,1326852859174","56,333324824287"
"3595","-34,334421469413","163,991444350979","-33,8852113712998","19,3981348876509","10,819595857251","56,9083552245181"
"3608","-27,4697902425505","167,902133708628","-36,9094421886125","17,1871533814123","4,66254655424196","56,998648225114"
"3612","-22,3924273073181","139,085097473291","-19,3250655481304","16,3149548986924","-0,0909206782565524","57,0940529647879"
"3620","-18,5711491555898","122,04826198169","-8,43723815719563","2,88801659976009","-3,55651082556719","57,1499302691321"
"3620","-17,719294957202","147,409523923577","-15,9561859237669","-6,45384595014265","-6,85566222791899","57,2103450372202"
"3628","-16,4839379894607","158,461131547582","-18,7034142953244","-1,15971866789135","-7,48401834788961","58,0027033386392"
"3632","-13,8107935927039","145,085088265081","-25,8725695247221","0,24880771339246","-8,57621971873437","58,791733996148"
"3637","-11,3776762159878","139,186070711883","-30,9368355742002","12,5233603374482","-9,91052737353447","59,1366442520237"
"3637","-9,03804181385511","134,671484069557","-35,4512552908552","20,8388827319055","-11,3350788605623","59,4831062981029"
"3645","-6,7348160899432","130,413235845256","-39,8220422725411","6,86584477344518","-11,9048279136535","59,6765633148988"
"3649","8,8250087769466","101,085037036668","-27,0457473922669","-0,838731357486247","-12,665340080468","59,8727499433413"
"3661","21,307862041784","80,9549370524673","-19,630233287361","-8,79716525336347","-13,6980744461854","59,5861370168341"
"3661","10,8823676545547","111,165704766214","-28,0817018406371","-15,7038403664825","-14,7347660175324","59,3063743911621"
"3669","5,01479240767098","123,897485385943","-32,3579977372231","1,8741568397625","-12,4986079577628","59,07687109553"
"3670","8,39524924769329","81,9965659556241","-29,3883716654117","12,054043881827","-10,8921478713591","58,8524585906076"
"3681","10,7375237013317","58,2999666504432","-28,0659411361242","10,3774504824162","-8,58384861609477","57,8606271656566"
"3681","7,32849434401328","34,8162171865266","-28,8430221709579","11,2136366420514","-6,59596476220422","56,8802961948053"
"3686","4,999513051743","13,1118785672812","-29,2085447794689","-9,57234035070461","-6,39130881352486","55,2485805551343"
"3690","3,09117650937043","-8,26298795093186","-29,4665586917433","-23,2907167917718","-5,93865111121159","53,632466958905"
"3694","1,34666786627619","-29,5768500835172","-29,6964888155995","-14,681241433215","-4,72431333313189","51,7877267021768"
"3698","-2,74983214348601","22,7305759407502","-30,6841444952851","-11,8696657035048","-3,58314221759323","49,9578711585748"
"3710","-6,26235881188537","48,1095702801004","-31,4297358297945","8,28785871899928","-2,41350188578776","48,009029133551"
"3710","-12,7362985101078","19,8284876287121","-32,0425432266746","22,1882645517419","-1,27089800982929","46,0734368886811"
"3718","-18,3836154362391","8,43181401437542","-32,6606643503487","15,2943889813832","-0,758464050500269","43,9732778652893"
"3722","-18,5874987703706","0,596985400758566","-35,6796852357226","13,8506624371155","-0,132979877971028","41,8854756846523"
"3731","-19,8513359361963","-6,81833922059452","-37,9458773479906","2,13460470521428","0,0496950252996043","40,0293270830675"
"3731","-18,5968245344477","9,54584756868037","-34,9034097901138","-5,56282762677037","0,350735381992156","38,1810094064455"
"3739","-18,1814955768477","17,2530004348683","-33,4141960416626","0,942382925083127","-0,93165197071755","36,4058875873458"
"3739","-18,0930017859046","23,3572344676187","-32,3307285525412","3,68550166127355","-1,87505794338309","34,6364343533573"
"3747","-18,1318000122201","29,1646753019809","-31,3532514855653","7,73709269944484","-2,57142889674311","33,2249747330719"
"3747","-22,6008200293506","25,1896092329391","-29,1515424546914","10,8004229985107","-3,21531170325387","31,8146935904564"
"3760","-26,0752720874204","24,7632340373522","-27,3500353734993","5,49615461709764","-3,40279272356894","30,4054697339193"
"3760","-19,0804443084541","34,1044342296291","-29,8261342228979","2,62253562208847","-3,66244980340718","28,9971944348989"
"3771","-14,2681613298779","40,2341788593342","-31,0196438873813","2,2719937943852","-4,81997476931595","27,4794864051958"
"3772","-11,8520210975748","37,7113982839824","-33,0257037774551","1,51969734999242","-5,82634660601847","25,9635994234037"
"3780","-9,40910309754358","38,0265337002739","-34,584020809633","5,19510267515938","-7,38174919022848","24,2287787356701"
"3780","-7,56775795162205","25,5461913874833","-34,1822737413073","7,44074836348028","-8,78715459397395","22,4975389172777"
"3788","-5,58070651072273","18,0366643843015","-34,3285120415029","3,45065131186243","-9,10479133163607","20,8577387136988"
"3788","-3,53690705092232","11,447523456547","-34,6178969492237","1,16428221447461","-9,58710930116403","19,2199747117736"
"3796","-1,47100602269144","5,02879934677473","-34,9446751021352","-2,46452687399619","-9,55744952506064","17,4737537727968"
"3796","-0,427237259058549","7,09879312575312","-33,8206489119554","-5,41420630687093","-9,6746591264405","15,7302293272724"
"3808","0,858443137289497","6,08054068281583","-33,1576386615683","1,3748072670154","-9,14820854330309","13,9670673265975"
"3813","6,07140536523305","-6,90673310761289","-26,7032161675909","5,26174456392714","-8,78866533888246","12,2062872460826"
"3821","10,4339203392904","-15,8301666019496","-22,1359412087981","4,24833901711522","-8,4433380382099","10,0065091712238"
"3821","7,79761263956474","-35,2168714149371","-24,9819641889675","4,29763927357324","-8,14448399251512","7,81287851875879"
"3829","6,57548364682056","-50,3609343121183","-25,7845141486801","-5,44287392147854","-7,77411286707647","5,47036586628906"
"3833","3,16622930820255","-32,3789532795698","-29,809018545012","-11,9950528709501","-7,43117622201605","3,13428185309216"
"3837","0,605158440410942","-26,0834211758353","-32,5151728716104","-10,0037005302906","-5,64876380789972","1,06864635295773"
"3837","-1,62557164394784","-21,9517282403921","-34,8769432951818","-10,1557039451399","-4,15088172737446","-0,994352858738575"
"3845","-3,72764438357824","-18,2206873742604","-37,148752580671","-2,26258464454367","-3,18416960880445","-3,03293014287157"
"3846","-4,29792019683321","-15,289767243959","-40,9967363719887","2,81319833143421","-2,19932734678476","-5,06959698721932"
"3861","-5,1916092878477","-12,1069958454151","-44,3364538451491","3,28840730289655","-1,57694473941561","-7,34717408666345"
"3861","-5,50262383842627","-7,64349959719915","-38,5365375292209","4,7469049602643","-0,879609237407793","-9,62088685452507"
"3870","-6,02670498273787","-3,62286693479908","-35,5291348932444","1,65703762045891","-0,20992958545228","-11,5602814656526"
"3870","-4,92660552273541","4,34471530981344","-29,4258937136896","0,124493621802992","0,487156891128055","-13,4997383334038"
"3882","-4,25393880373794","10,8231067295043","-24,7139470277177","1,98821941375534","0,269934972166064","-15,3069105662676"
"3882","-2,00836972312138","-1,12265769497402","-24,9210336973885","3,04491938493844","0,236379946455025","-17,11540197348"
"3886","-0,230204646152326","-6,47980142732912","-23,7930870424723","2,9152146798531","0,348244077229665","-18,5280554269639"
"3890","1,36592127295136","-10,6170095226509","-22,3163984277782","3,02658453529092","0,486325262879533","-19,9455778766644"
"3894","2,89114866585987","-14,5283368110409","-20,7486102485489","-2,89100580041547","0,0184856798596319","-21,4115821040217"
"3898","-1,86009872727539","-28,6698463534662","-24,4776810904743","-6,9092815708732","-0,325261766736676","-22,8810823685889"
"3911","-5,17583563162223","-39,0455556818897","-26,5304155171846","-8,92817218624272","-0,272681150503312","-24,1552084131522"
"3911","-18,1110451395889","-34,2415576907925","-32,1096622476907","-11,269594598709","-0,259631346308664","-25,4340520164795"
"3919","-28,4727366592769","-34,6069158966671","-36,3301165535863","-6,28825461269257","-0,110117321448994","-26,717128037046"
"3923","-36,0283286409559","-33,7879080111934","-35,3965990828211","-3,61843349807324","0,00153610104341299","-28,0040012240246"
"3931","-43,6110331146136","-33,9296053036856","-35,8767435207657","-1,0506323774934","-2,03566322261523","-29,6692458060596"
"3932","-28,6568567002082","-22,1623369021956","-24,6938355544342","1,18974406069491","-3,67134917519806","-31,3339510488615"
"3939","-18,9252740467474","-14,8500285797302","-17,3842652482548","2,68425362445944","-7,31760347817309","-33,3951938842837"
"3940","-11,2277273936121","-8,36259162502474","-11,0865014203155","4,35826168525872","-10,4593761901786","-35,4521954133297"
"3944","-4,32237378477588","-2,02788617885822","-5,05304513259938","11,0317060657627","-16,9550126253468","-37,5053918009621"
"3948","27,6564212599589","26,165534684543","3,27610399781424","16,1890826283391","-22,6578411001868","-39,5551743580688"
"3960","53,6405330930789","46,3462709366013","10,8449418448061","18,9999895305863","-26,4550151000058","-41,9106886289418"
"3960","63,4393338685896","4,86323307445312","12,6510835018215","22,3001261041179","-30,3844435428073","-44,2604939559797"
"3972","75,5344650740418","-14,877344068083","16,1518739995171","2,49929647820003","-26,650859644577","-45,546453518571"
"3972","88,5561553830879","-29,5758197694469","19,3650602819166","-10,091459612836","-24,4278997868209","-46,8379704597812"
"3981","101,918711319331","-43,9007101999244","22,9231176099779","-9,62983071047865","-19,0002968360882","-47,7153950573829"
"3981","89,4522566632939","-52,0585591212987","40,8987824167981","-12,0795022020712","-14,6334499131621","-48,6013114954978"
"3989","83,0462147978577","-62,4345311516548","54,40066383773","12,0409155004438","-8,09282869899283","-49,2742790132393"
"3989","79,0005130923434","-73,221206355622","66,7338882994062","27,5038180082469","-2,28237275459817","-49,956196726043"
"3997","75,8740896378387","-84,083926525773","78,761832203082","9,7897498277832","6,53203765018432","-50,5358604780286"
"3997","25,3051226035462","-122,364841670048","89,423335002528","0,977156485613111","14,5543078483619","-51,12378580169"
"4009","-14,0612229145829","-150,622454155855","100,467891394844","-16,2451549251683","27,7766036545198","-50,0869237315788"
"4013","-25,5829511213335","-126,607860687667","83,4791051548121","-29,4881393462282","39,7667469256033","-49,0723631950872"
"4021","-40,840076699756","-120,69465164128","75,347353511083","-5,99903893167906","39,8581171032968","-48,4086619832615"
"4022","-32,0734144660965","-72,4716327438956","38,8572476444578","6,76426084623047","41,8713447892169","-47,7597386318752"
"4029","-29,7702425151051","-41,574615314004","12,5992757376111","14,1513819524162","39,8477187974794","-49,5723724742569"
"4033","-38,1014752552679","-114,863455666618","33,7702861555953","21,5332962249787","39,1658992144936","-51,3734233440086"
"4038","-45,5344741319424","-151,80313802137","41,590857149796","-9,03372620724842","39,9909704950754","-52,0833017422262"
"4038","-52,6176391715092","-182,012484044763","45,9239808100598","-27,8820581575069","40,9222091102455","-52,7942210197564"
"4046","-59,5645549350685","-210,975654650944","49,3461015796384","-23,60235511462","41,0985749243179","-53,3516768978649"
"4046","-73,0615848510652","-167,404779498239","58,6159651251062","-24,6454490616904","41,451207114141","-53,9114511550797"
"4058","-85,0096782045307","-150,243647626511","65,9133959892191","9,68555611767593","41,204458071168","-55,0026673321028"
"4062","-94,5829248875775","-216,845524820859","39,241519700019","32,2657113667138","41,1247789621541","-56,0906733183304"
"4071","-104,331243490059","-255,496790793197","22,9360651032416","25,7192925509524","35,0352666301024","-57,8154449392752"
"4071","-110,572367271439","-286,431999470954","13,0595444470185","26,3431629966189","30,1491584743769","-59,5314988662798"
"4083","-117,66754898403","-317,338518638278","2,72241184832257","-11,2689243523142","28,6531744755489","-60,9750506260078"
"4083","-99,1335923649904","-255,029439088971","22,1719139453543","-35,9594772934564","26,8608938150992","-62,414123635564"
"4087","-86,7378924953649","-226,820748444163","32,2023823805811","-20,994775359297","19,1876068753719","-63,3639300176118"
"4091","-76,7328505591436","-204,926016608827","39,7723787077807","-16,2700770161125","12,5563858523531","-64,3147846849285"
"4095","-67,6588946930992","-184,200364573704","46,6996421165358","19,563881457472","14,7716592387419","-63,8990614461599"
"4096","-84,1040688711387","-179,262521593405","38,6446321071845","44,2005298777056","15,5952107414242","-63,4972956337444"
"4111","-94,8681415319248","-168,66791729942","35,1959015205759","21,6819808077231","19,9864771876885","-63,0418816575048"
"4112","-79,84142336181","-245,807990633481","48,0430197464751","11,9873251916279","23,282313476796","-62,5983365556607"
"4120","-69,4100033772029","-290,272838836741","56,4669951956787","-19,569952405134","23,3607636636557","-62,0772127711086"
"4120","-94,1385192163506","-310,321407326211","29,8293987264248","-42,3842688089504","23,734167310321","-61,5664882946503"
"4132","-111,840724151032","-335,96910701195","13,5328988211663","-19,1186417683127","25,9100976289328","-60,2931075013685"
"4132","-117,948478996451","-248,136998418508","11,2397832650127","-8,72595447070252","27,826813945998","-59,0354999916132"
"4140","-125,040560219714","-202,393198809223","6,10467954383906","16,3144479896316","27,493883573841","-58,7845973507677"
"4140","-113,092996275655","-229,268542368204","19,318948917761","34,832401514158","27,5165697444413","-58,5368726574692"
"4144","-105,79008940499","-233,869899109839","26,346504134088","8,35205377652877","27,7938658062475","-58,4243395890241"
"4148","-119,751350332981","-281,714426617942","26,6807171331285","-5,24459069088297","28,127099255845","-58,3130953888773"
"4161","-129,914335783158","-311,465771871586","28,1864724425129","-17,4552999333569","29,9068791688454","-58,2912345059521"
"4161","-110,478133223817","-245,56415460513","29,3723024593638","-28,0934465843802","31,4253484104154","-58,2695649914072"
"4173","-96,9739779368514","-212,811628907479","30,8345604998109","-1,67702433889097","29,5501774868261","-58,689202129418"
"4173","-88,3248081747654","-196,214849736856","27,2918003738262","13,5402863844785","28,2497021998103","-59,1047630868155"
"4181","-79,9865025676731","-177,089435808242","25,3616123268","15,394612553618","31,5977136860149","-58,7887943568504"
"4182","-102,401577019297","-236,840718520419","14,5328233465437","19,6367447547729","34,2224277524563","-58,4765245579162"
"4190","-117,774125698173","-267,476650317739","6,7395114711774","-8,40634637843223","39,0201142168726","-58,0352328123248"
"4190","-128,277930582806","-300,815838274288","3,28624152141695","-26,1082460551982","43,1872702669775","-57,5981874029048"
"4198","-138,205512899275","-330,195555655549","-1,07330786962806","-23,3375674395157","48,6428522765021","-56,7679301798387"
"4198","-164,239463589608","-300,767200562305","-14,7460124592172","-25,2835170319422","53,6651229625353","-55,9448980276273"
"4210","-186,406338157713","-292,450062109192","-25,6315312234353","-9,62747773646473","56,9145441205277","-54,5769292336917"
"4214","-190,607476753657","-261,436249538461","-22,0178612179573","-0,139729139741098","60,3766928577412","-53,2200636708864"
"4218","-198,031526276162","-240,879966846582","-22,5366636552183","1,94235123177381","55,9653294273743","-52,7554294396869"
"4222","-210,157335543076","-262,839846940814","-22,3266369908811","5,35366400047277","53,1287383016949","-52,2912717808214"
"4230","-221,974332342999","-270,311933458264","-22,9662231020803","-4,20781439727253","48,3833246979035","-51,8937119294258"
"4234","-212,122145550655","-217,462106666464","-49,9441723174352","-9,5565962478437","44,4687229772587","-51,4959011394678"
"4239","-207,210493323734","-185,203196817878","-68,7823186013762","-13,3228270914589","39,3568940727394","-50,7670139938161"
"4239","-200,486590939834","-166,048850555289","-80,9037875999113","-16,9236417297239","34,7199041313348","-50,0410975274059"
"4247","-195,376874121648","-144,200918693129","-93,9107032426838","-2,19869451556151","25,7887644296491","-49,4943002288794"
"4247","-144,738000348099","-140,72860509223","-101,097975751446","6,89252428994053","17,8222705834978","-48,9482019469285"
"4263","-105,026951997959","-130,258683678853","-110,245021225882","5,19016031650078","5,22858912832963","-50,1231571561141"
"4263","-93,7943409930798","-172,393907673553","-89,823170302924","5,9463005885678","-6,19209626792131","-51,2821771729196"
"4271","-78,6131855837808","-194,569393640134","-78,9772313829189","-6,93624575160571","-5,46290919906381","-52,2283899974555"
"4272","-86,5675381947398","-201,760857595546","-48,4807311314587","-15,2250993886932","-6,72124077635976","-53,1636801702063"
"4279","-88,2124434837443","-212,397910442519","-25,5910442072317","-9,71070106585344","-4,43601176293177","-51,8173258837719"
"4284","-79,7660984056722","-147,413279465111","-46,2451954729258","-7,74575752552888","-3,41721166464625","-50,4839655448981"
"4288","-72,1295287161382","-110,446690970234","-54,3740167089801","9,60740310299188","-4,33437314733637","-50,4415542852832"
"4292","-62,8112820675512","-105,563825238571","-53,4929657606597","21,6571741105732","-5,25308061985228","-50,3973342451618"
"4296","-54,0780751382677","-91,8015165060879","-53,5583252613815","12,9613000379796","-5,24570388710179","-50,197094197435"
"4296","-38,2931206075925","-106,848157378407","-63,9558135406245","9,84864924933689","-5,41663189685444","-49,9968788355947"
"4313","-24,2817321892766","-110,449004897408","-71,2522957494872","-11,4293794612942","-5,1126786071645","-49,0908696786021"
"4313","-19,4324874327465","-40,9339523597065","-51,5179716213447","-26,2305658776543","-4,95248667447633","-48,1916487323515"
"4320","-12,8916094497515","2,9990918580407","-39,8025680409246","-22,0480833994859","2,27851204589839","-46,3941912386236"
"4321","-3,24388572353748","17,8765401362742","-25,5567485192233","-22,7224729025429","8,10922412720496","-44,6108695175372"
"4333","6,09385669806569","40,7741132330103","-13,3099251123278","3,72355819367814","9,56426578660585","-42,9284568756459"
"4333","-11,2628978334299","-3,91621126948233","-30,935835101063","21,0400123904104","11,4468326205062","-41,2565760845991"
"4337","-22,5163192891705","-23,060973734997","-39,4852024241247","13,4315247793986","18,7449810692184","-40,0573357883373"
"4341","-32,9387946794111","-28,619342670471","-47,3327898304149","12,102795523207","25,1291310657018","-38,862130862511"
"4345","-42,0776427134145","-36,5420825508574","-54,0370558925856","-15,3060090152928","23,1576037109631","-38,9718944638878"
"4349","-25,4312144448278","-45,3381666444075","-42,8462405789545","-33,6855744158962","22,5212932791058","-39,0724270089859"
"4362","-14,4422320970738","-54,0559573801853","-37,1008110557381","-21,2811474008672","18,3842170156638","-39,2970182849258"
"4362","-30,4588313742327","0,542438505435446","-55,5905926252343","-16,9814678464709","15,3130563910035","-39,5129104131386"
"4370","-41,5932552705642","31,9843310180273","-67,2911787195698","9,8608168305595","15,2604847076596","-39,853338480647"
"4373","-13,784001984605","67,5231825330632","-42,0949809254875","28,4829311673161","14,9424366730799","-40,1854955340008"
"4382","6,19258864361471","99,2006186630126","-27,4604793634199","13,9071457739394","12,1556397948131","-41,2381048334802"
"4382","12,7145703418764","25,2652136624259","-22,4357198823014","8,30720914201361","9,76469062735535","-42,2770769360579"
"4386","20,4564050582894","-10,4252506812357","-15,9812500130983","-15,861810161312","10,3652493866176","-42,4436010759355"
"4390","6,83452764515735","8,6596891066263","-29,7404211240864","-32,9025097657342","10,5080003723407","-42,6073975419653"
"4394","-1,54784367601035","11,6067315674857","-36,9398684947415","-12,2261279139967","11,3072894949804","-42,4599523662586"
"4398","15,2054288692637","66,9183956017904","-35,1924518428162","-2,09076311672306","11,8455352536681","-42,3132728331385"
"4411","27,4082440931273","101,425786702852","-35,2679048469219","14,3862710898912","10,4731236487607","-42,0128829685033"
"4411","22,9252780580609","51,4295210634968","-31,0205106979394","27,2680522044089","9,39068840631841","-41,7145899447375"
"4419","21,2037250511293","30,2267298257706","-28,4038876673819","4,97518791399637","11,4678028248558","-40,8667594231522"
"4419","17,5620670584135","14,7545451239585","-25,5525251285214","-7,01320994654148","13,0236277842752","-40,0259044167264"
"4431","15,0325885680179","0,123427899188431","-23,0198431344419","-14,5004114576358","11,6852892317015","-39,698612790152"
"4431","22,2451408137023","33,6324642765065","-23,5611036913925","-21,7776160320751","10,7490845277699","-39,3720710155693"
"4435","27,4719076088024","49,6150338037379","-23,1853500088843","0,881853123091973","9,77974211951362","-39,0241452319413"
"4439","30,1536888320729","83,76757424135","-28,9687485831241","14,328801369221","8,93531035687844","-38,6770345153739"
"4447","32,9442782241653","109,484429620317","-32,6810619230341","7,364211205814","10,2484769029449","-38,595336024884"
"4448","27,4991133039129","53,6774108612293","-28,1669667918181","5,27265779295741","11,1841123964233","-38,5117554545568"
"4460","23,9863811234194","26,8355970035357","-25,9239411737602","-14,1710972820518","12,0096238561119","-38,514713345409"
"4460","19,0681585651543","37,5159224654349","-29,3166241882092","-27,499414670149","12,7449900023168","-38,5153103062266"
"4468","14,9425417125296","37,423771099889","-31,2814862389727","-12,2465885265483","13,6555587805508","-38,6020161217405"
"4468","14,1856296138289","78,965812170103","-36,7334520523418","-4,87067250313721","14,5059066097691","-38,6859755803548"
"4476","12,8407220587687","104,176755823252","-40,8763310075209","6,48156327569493","14,2475797743205","-39,010095340502"
"4480","16,6781944522682","58,4161810422575","-33,0969937492986","15,3827003753536","14,1844145607435","-39,3296779387855"
"4484","19,1740408310397","36,9546639308469","-28,8632944968205","-5,21657196801105","12,881720398617","-40,0422114327835"
"4488","18,7315688956371","22,3879025060222","-26,4947382585296","-17,0860482582746","11,8746029624934","-40,7472857701199"
"4497","18,6447143976579","7,77776005256443","-24,0734010417077","-18,3337532429486","12,3613666123295","-41,2912707937451"
"4497","19,7915230945662","39,2565728002226","-29,0106889320053","-21,5061482735919","12,6483735549796","-41,8307325114614"
"4505","20,7388048026902","53,869122964377","-31,630221978185","-2,27506587211042","12,906206552325","-42,2999658437327"
"4509","22,5746958967135","75,4129750177081","-36,947978714282","9,73844633664659","13,110755105008","-42,7661928958273"
"4517","24,1566723965486","92,7002128631144","-41,0705746481813","2,56916959068599","13,0438969101525","-43,317949818613"
"4517","28,6997669103926","48,583580880966","-34,2048783476244","0,203238020152876","13,0134528279243","-43,8664409417096"
"4525","32,4961237527654","26,4975329687209","-30,6087828608575","-13,162875084342","13,6174488068417","-44,4781723560992"
"4529","33,2315356594613","28,9983382272324","-28,3884166300474","-22,3860211475051","14,1103389958426","-45,0866405940171"
"4537","34,4948057915583","24,7515953246198","-26,2274230890499","-10,1713768576194","15,9737120295862","-45,4936704982782"
"4538","16,0574913324495","45,5344026816607","-43,3475836830424","-3,9338956146098","17,5411385919639","-45,8999774653924"
"4546","2,30741883008","56,4716307721903","-54,4244331416358","2,91273870375696","19,2209485428564","-46,1512386029423"
"4546","-17,0899863058116","33,1001990608574","-60,966708047378","8,64312356707102","20,7919326112736","-46,4033984224729"
"4558","-34,0468498733158","21,2762455233427","-68,0244459178292","0,708707135237669","20,39800025206","-46,876931987859"
"4558","-47,766244599676","26,9076663384715","-69,1311167234654","-3,17903665748065","20,3493372255945","-47,3490737964326"
"4570","-61,6447470425767","27,3310888464592","-72,1832294871919","3,19630417229609","16,009310392291","-48,0184777066614"
"4571","-50,4287156307614","46,1001281483172","-43,7848235434633","7,03053397064326","12,5951980068894","-48,6848577949181"
"4574","-45,0591525968645","57,6260046268782","-25,5508058033281","14,4403813963687","5,49394266393649","-48,9515035556191"
"4578","-31,5303612839188","51,0053145843002","-24,6124631010598","20,3514147024462","-0,626264430995719","-49,2195226317023"
"4587","-21,3038071936789","50,2846431095841","-19,7721556397884","13,9836245288205","-6,26885528529737","-49,7313980251728"
"4587","-14,4248508949697","32,1813152416331","-42,1502954258864","11,1750810348016","-11,7139621328186","-50,2420521839359"
"4595","-7,5696786419397","21,0394499906203","-55,3985308630414","-0,0250669582301168","-14,0107430554169","-50,0457947541998"
"4599","0,435813120010801","26,9756806857822","-45,2574003509983","-8,08101873077929","-16,8539241994587","-49,8553226928315"
"4607","8,16931814895486","27,3740569696742","-41,0864198682724","-2,51562547405001","-17,752511660775","-47,6628769613144"
"4608","43,2081382412471","68,851390448644","-16,7402749907631","-0,66858662823543","-19,1856224784982","-45,4943353467943"
"4615","71,861519699276","94,7348202801256","0,376095161502517","14,6515883390802","-21,0474877664138","-44,2956797843992"
"4615","61,4044883988415","88,4393642040423","5,44942361854955","25,2335678597935","-22,9845877054361","-43,1071697045238"
"4628","58,4551814936671","92,3257309140849","13,2168276367604","12,832803060357","-16,9855676541818","-41,9277617720225"
"4628","51,1502949247829","57,8441470592011","7,98642774860209","6,79389181619969","-12,5328112452674","-40,756519945634"
"4636","46,6690470757007","38,4384313379855","7,24069717945132","-9,7916241520855","-9,18575889520737","-39,526434199555"
"4636","47,2816356992941","40,1177404222602","-2,59231464084149","-22,132244038884","-6,08219224889046","-38,3035558900813"
"4644","47,398113409317","35,6211099115755","-8,89913707260924","-8,19498388224671","-5,3446821204459","-37,792959765506"
"4648","42,7474621946704","61,5955031088438","-11,4680182089656","-1,7137896321159","-4,2245630185218","-37,281396570738"
"4656","39,0801642074023","75,7918492208792","-14,6804615674108","11,8691132130916","-4,32040402231651","-36,9013062459723"
"4657","43,2042960588889","82,6895415132216","2,45654529682401","22,101074223718","-4,06993615589302","-36,5191684617714"
"4665","45,7629447637734","91,0558298755035","13,1093049743888","14,3627790422632","-4,1251695811023","-36,4660449965636"
"4668","40,2390210783227","62,1631073398411","6,175809462476","11,6537781427584","-4,01960501856828","-36,4081008699275"
"4677","36,2071896731254","47,0515819562084","3,78837237099097","3,37200271247054","-2,48153127817133","-35,9267536103953"
"4677","41,3889298708477","57,2498741184781","-2,76695972210805","-2,40782780971527","-1,17116012983859","-35,445544899544"
"4685","44,799066407581","59,5944807362105","-7,33104356712423","3,9799631810941","-3,54805499772549","-34,6336092663831"
"4689","47,3581658963719","67,3087209062253","-12,0009263230292","6,99861454192947","-5,28395765273033","-33,8249578110236"
"4697","49,6858132231987","72,2571915281571","-16,3384462313905","9,38857408623835","-5,46137204765406","-32,1810963655188"
"4697","50,6993133081892","68,5993624224556","-9,87828139884942","11,4495307448608","-5,74912407666828","-30,5479157620695"
"4706","51,9609943771933","67,8080083239918","-6,75750851985953","5,66634492278566","-4,51157878277772","-28,4831826465383"
"4706","48,809846063096","66,1318281380584","-2,9093885387317","2,25452227719085","-3,59948471709743","-26,4312767615507"
"4714","46,7400395038092","65,0718153493512","0,208731533904632","4,500593203126","-4,8436269062565","-24,148254757738"
"4718","47,8292850170724","73,5993662584943","-3,47119249564458","5,36760064415389","-5,76961782746153","-21,8778840181715"
"4726","48,4488819489201","78,6821310058415","-5,12692479843445","8,77228060634865","-7,41573989985643","-19,9497147426059"
"4726","54,7156893926238","75,0691675278783","-4,68899190295853","11,1791294273236","-8,82977588062557","-18,0285558187817"
"4734","59,5619077053924","74,2861206580004","-4,60414464144001","4,80032290152699","-9,64384372676787","-16,1798565648831"
"4738","57,7026210814658","66,7313904467063","-4,22900076441846","0,979785131232756","-10,5047142593369","-14,3361654161249"
"4747","57,0517511972072","61,9428290897257","-3,99802461509109","1,06695369266169","-10,3674295433414","-12,6293078411465"
"4747","54,1336181527681","79,8801123831017","-3,94381057851284","0,344579137918099","-10,4356318012391","-10,925212229618"
"4755","52,0324574211086","89,78526695427","-3,85577094408571","9,93018005050746","-10,1957949674441","-9,31182154117247"
"4759","52,5042257436173","97,7676467838392","0,205515349744686","16,2067373423112","-10,07569159703","-7,69980791644494"
"4767","52,578069004751","105,63400954415","3,02470669145873","12,1068840544666","-10,6897538857867","-6,30959722377118"
"4767","50,6609271135242","77,2183470738396","1,97232951199133","10,6976778834934","-11,1981207387817","-4,9183798240862"
"4775","49,1083591291749","62,0647784391183","1,94860799480158","1,18272808663716","-11,6892517930789","-3,19540802152873"
"4775","48,1487300213976","80,4368877278626","-2,53587690101011","-5,41118130122678","-12,1525344740547","-1,47479857964954"
"4787","47,1400319559616","87,8965435070936","-5,46561762535919","4,25691220490226","-13,3754597939598","0,331918433405837"
"4788","62,9261714508731","115,839712702579","4,94727504405061","9,35650434339768","-14,4442906982678","2,13588793803541"
"4796","74,8133719168349","135,175567674924","11,4055759296026","15,9632763775724","-15,5356330597408","3,91533573268945"
"4796","89,1439656427734","130,776637055058","20,8648065423682","21,3952036005416","-16,5772260816525","5,69278356651087"
"4808","101,966184189871","134,183021700054","28,78795025674","6,04872675683413","-15,9588398122292","7,60077759949299"
"4808","118,90368989331","104,87929568861","32,588850211882","-3,06333296693699","-15,6445769273553","9,5058927986275"
"4816","134,523970503401","88,3390319668068","37,4529235883907","-10,9149609757669","-12,1014671755814","11,7613331869343"
"4816","123,121885644305","96,2305040979446","4,65461759648643","-18,1877638377822","-9,26809218959637","14,0110722292976"
"4824","117,655439386604","96,4857068601718","-16,1619836266673","-7,47378124985716","-2,03127738649114","15,8807315179647"
"4828","99,3939526316268","99,6463175121161","-15,9740597244266","-2,22464960264084","4,15065712062455","17,7493974704026"
"4837","85,5292000535054","100,964887592962","-20,5792621078518","-1,73380957014652","10,2229639494581","19,771569476138"
"4837","78,0151677304647","100,817187121556","3,15743624060049","-0,622077985839805","16,0053514817968","21,7914613702288"
"4845","70,0945411935354","101,017994970205","17,277702592216","2,11075357933424","17,670534222672","22,8608674608427"
"4849","61,0814507560543","110,575323102207","3,25636485768013","4,43936395942338","20,0409352484178","23,9375332462603"
"4857","52,2228799912698","116,745085542642","-3,37621870687085","10,3640450902351","20,2610244263824","23,1900020576544"
"4857","18,5578841346573","97,0613089866923","-31,1348642598424","15,1154102433749","21,1019625690609","22,4658695871812"
"4865","-9,32843404295993","86,4905436148851","-51,152131801155","1,47781520226601","22,0711414786834","23,0199642186814"
"4866","-1,65834856384243","71,2551777982885","-56,3497744771156","-6,66304020251512","23,1987152112934","23,5808363875839"
"4877","-0,820162238600178","58,6561240292311","-65,036184185677","-6,78240725181769","16,7060726435693","24,368356591498"
"4878","4,41134202120106","82,8420450351131","-56,5854405345274","-8,5254639373784","11,7235414235201","25,1592169335191"
"4886","6,97390543069045","93,8389973223935","-54,0380712159767","9,27285921957374","7,21239342078454","26,1074711598968"
"4886","11,8146951213669","104,644311042514","-40,6874877041627","20,7842324351784","3,05589119871806","27,0569332912123"
"4898","15,4827822900659","114,174141354433","-31,6148517234894","16,2367472085388","0,543739093038517","28,5588978146552"
"4898","24,6208944615928","87,4976367260111","-29,1194742792329","15,6723719791575","-2,17965318950447","30,056546815195"
"4906","32,2094093195464","73,9372405937281","-25,2022307494736","-1,4100985024846","-2,43512037380431","31,462097097229"
"4906","26,6644700550459","54,9652789274099","-43,1351273083929","-12,7729095298308","-3,22681036390475","32,8650198544336"
"4915","23,7844635047332","39,3113227685261","-53,9957920073379","-11,068499838813","-2,87248877370915","34,5743797694598"
"4918","30,0594429510982","69,6427725087765","-45,934238074373","-12,5114024504968","-2,89632732737614","36,2786636386664"
"4927","34,8600014855732","83,4887866869013","-42,7497576335011","0,607175697707517","-4,63700921260579","37,5593152536548"
"4927","28,8755500347142","83,5748230974192","-38,7179755316021","8,74012365890663","-6,15946092682938","38,8398998582455"
"4935","25,0306764223444","87,0130899476771","-35,6848583990729","4,73026722619026","-3,50467289312099","40,0542540990136"
"4939","22,3412073712912","67,44280576191","-29,0177563791865","3,69622168053862","-1,58776604439225","41,2691889350387"
"4947","19,9017320551964","56,6323049576776","-23,6413724289688","-4,08583508432468","-1,73686023187808","41,668544976001"
"4948","18,4615190496921","54,3038507388714","-29,7998754851194","-9,32187023845963","-1,706714270359","42,0761942328437"
"4955","16,8504872837299","49,7659150531641","-32,5315610786147","-3,27865061829981","-3,35584829745088","42,050148888721"
"4956","18,071883599985","54,83680426452","-38,715023194009","-0,323378480294534","-4,62964757115815","42,0350089731315"
"4968","18,5964215641023","56,1668439945808","-43,3001701488698","1,4901886903646","-3,60092421837032","41,8531990144483"
"4968","17,561129955882","47,0403855083487","-37,5915487429687","3,17684645165674","-2,90374018959791","41,6818589282292"
"4976","16,7183337915477","41,3578230318109","-34,8739540466491","-0,433408266041276","-2,11038008594137","41,6963660055085"
"4977","10,7001760090723","45,967884947615","-33,6679717189708","-2,4275617377005","-1,43322591428036","41,7176082053344"
"4984","5,92637766027092","47,1637083090322","-32,4368579313927","4,1839048408644","-0,808986466935828","41,7669496533482"
"4988","5,11596611111047","58,7615977264237","-36,5546111100914","8,38870616210825","-0,208841900131444","41,8215006956432"
"4996","3,68916905748496","66,205512585776","-38,9896135664351","9,34978068301699","-0,546457186844342","42,0571795766377"
"4997","4,79242333768923","44,2057818826254","-38,2725506602969","10,9388871343177","-0,711084272970719","42,2953595785193"
"5005","5,1610530331068","32,5543255172556","-38,2920944862788","-0,59866834046079","-1,75462177184717","42,7342942262956"
"5008","2,76335112076491","25,0330419042176","-40,8687933959961","-7,9848903043215","-2,57837379842385","43,1733384321353"
"5017","0,828250058387801","17,0564926966216","-42,7534810809255","-4,66440906916103","-2,96222351084083","43,9653889005741"
"5017","-0,314680571025098","51,0999825152834","-42,5795205174159","-4,00578676510658","-3,36576236751907","44,754143381849"
"5025","-1,52908573343877","69,7238174885764","-42,9477928349648","8,26330809278521","-4,02541024959276","45,3855435893421"
"5029","0,192049896367683","58,5603247469973","-38,6934612236883","16,5334923528303","-4,64167815476719","46,0157714290231"
"5037","1,21648633131272","56,7214708533023","-35,9715972431994","7,10934321623821","-5,54712224776075","46,3582097375587"
"5038","3,77337557165419","34,2865912056962","-33,47617202671","2,52866102844325","-6,38424359676505","46,7024540449598"
"5046","5,80710697848505","20,3381932251116","-31,1398979166931","-6,25517891660068","-7,06668221978427","46,8718646413792"
"5046","9,73077575410615","22,0806059563261","-31,5229137476706","-12,9888980350287","-7,75868559340214","47,0444209728366"
"5058","13,0905156894693","18,9482973574983","-31,0762717744285","-1,928925100518","-7,77539964255807","47,2197995400881"
"5058","12,6874538811653","35,0581417747801","-31,2475165214123","3,95429015544761","-7,9246186454272","47,3977101117141"
"5066","13,018899147499","43,6308241963295","-31,1001677454959","5,98762605270533","-7,60899421504429","47,379381569141"
"5066","10,9307189743777","31,606912327903","-30,5218395649223","8,40604992460706","-7,42170191454091","47,3649946346155"
"5074","9,58017079860614","26,3493768575141","-30,0309294738929","-0,220828291959196","-7,16927428255777","47,1997467259735"
"5078","13,3485014455017","22,1269088664286","-29,2150997167978","-5,37686862764223","-6,96718707942083","47,0391519950645"
"5087","16,1104743864756","18,2160918693433","-28,5143933360055","-3,64461922466361","-7,43677426706021","46,8606751729421"
"5087","15,6459672962027","25,2157348731156","-27,6698822175068","-3,50068221787661","-7,79221042994587","46,6861552075522"
"5095","15,6848477182871","28,2555365099967","-26,8878059348062","-0,148225332006802","-7,07620058269757","46,7357526679985"
"5099","12,8919826102319","17,313795141184","-23,0965678292746","1,96673541361279","-6,53230453831077","46,7864198986701"
"5107","10,87624168688","11,0832596422507","-20,2592662060343","-3,07182555861057","-5,9123163410869","46,7939333907672"
"5107","10,6448551274339","0,716077460829663","-19,6185849041397","-6,09337293109494","-5,35767935080333","46,8027309629971"
"5115","10,1884184682967","-7,65703782580348","-18,4317122567902","-6,32217504390377","-5,1726225625791","46,3494888516806"
"5119","9,99864879377362","-2,4125889188417","-23,7790637418246","-7,10024047545613","-4,93585524262017","45,9017220211954"
"5127","9,69273752211149","-1,94673945998351","-26,9933075475141","-0,270256085778849","-4,86089901015952","45,1721296812391"
"5128","3,2215732276229","0,937326715633966","-34,9014389843624","4,12489946794773","-4,73962394818035","44,4496940372804"
"5136","-1,85076319963297","2,44914499122757","-41,015723762345","4,09155276428895","-4,16475631740233","43,5572251276371"
"5136","-18,8438136219657","-7,65403047308649","-48,4349659161061","5,04775051294712","-3,66334393182713","42,6722087329678"
"5144","-32,7396071955836","-13,6478146079182","-55,1750934876874","1,59575957983575","-3,90591721733743","41,9482756933359"
"5148","-17,5347118696428","21,2998903454193","-34,7520077807184","-0,34122627174824","-4,02726663935699","41,2288606137135"
"5156","-8,31601353979626","41,6882383355582","-22,7532548284689","10,5935660657928","-9,06717962022255","40,7781798571972"
"5156","7,49359360087494","90,4146040368792","-31,0384113380288","17,7885078767217","-13,1267754664985","40,328597482018"
"5164","20,3301524153165","127,287979591125","-34,2221998797588","27,2327397799392","-16,1839080202218","39,5050358140806"
"5168","30,6559559988171","112,530382664803","-50,3661352324592","35,4016185170264","-19,1445658669151","38,6859539152496"
"5177","40,8438993922468","115,452899648965","-61,6755643512172","3,72205901824718","-18,8484279842502","38,5105367954783"
"5177","55,680902422465","51,5961283152818","-38,0941680398968","-15,8494278111054","-19,1492982679092","38,3325916359737"
"5185","69,4085679513833","13,9746394722026","-24,7384712728012","-30,2963840776302","-17,5904052287844","38,2847189029956"
"5189","63,7321208924125","74,6388899643123","-19,6528272419732","-44,445780735234","-16,5646633082893","38,2335422850862"
"5197","62,2783823103507","102,021528499994","-13,5075146018285","-4,05216308388817","-11,0550736702531","38,532309516418"
"5197","40,9203450108622","147,560694497047","-16,2313565667627","19,5435299594616","-6,56375034636764","38,8250332778863"
"5205","25,1902094235001","183,061686273718","-16,0120293565051","20,8617194118529","-1,02234366192082","38,4947461146736"
"5206","27,6606471841806","100,372656003815","-25,5260880464512","26,4513429344973","4,01722167225457","38,1655168566822"
"5217","27,2796357897169","59,8998010953579","-31,5427350086135","-7,49360712224131","3,39111472061185","36,0285833592628"
"5218","34,4205232292564","73,848750859885","-28,5778527774092","-28,5661124352456","3,70512667405971","33,909845244462"
"5226","39,130953673573","72,1943315392274","-27,9067848480562","-14,5668827982617","4,50901050665358","31,8515448426576"
"5226","23,1174713143112","127,141345783365","-40,2497797569147","-9,39978364434267","5,49595898827419","29,8074668959781"
"5238","11,3126767604628","159,788566604793","-48,8523525604121","15,7946023320639","8,57430756315031","28,3275675089793"
"5238","4,5291497809244","168,198353244455","-45,7669757564141","33,4326582982755","11,3049815268399","26,8538280198006"
"5246","-2,39875141554206","183,200385756164","-45,7884328802016","12,7538451586998","10,7262609997758","25,2312177231029"
"5247","-1,36243518930135","151,547492402802","-43,0048124585119","2,73481611187057","10,6805976331719","23,6150461071576"
"5254","-2,20430678051099","137,636067653332","-41,5684401103175","-7,15395405536736","9,39480238240158","22,1369915239133"
"5258","-6,19347063123564","165,411674567802","-55,7852344773489","-15,4277084550089","8,50430930906864","20,6628503754488"
"5267","-9,90840582325669","179,745967669469","-65,2910024575961","3,35827893369188","6,34185014058845","19,0378229768659"
"5267","-7,39651805438476","187,018092468234","-65,0461347698082","14,0383779426545","4,54019734482236","17,4174260793327"
"5275","-6,25947859846703","195,502600515325","-67,1541727666002","5,60850618270945","1,94515771181643","16,3526021991191"
"5275","-0,665251810195566","162,942083237989","-56,7316938061504","1,82155434564173","-0,391153028851079","15,2862176460527"
"5287","3,56490924928032","145,521752364452","-50,5959504558007","-10,1695634755509","-1,80643436246824","14,5492841386904"
"5287","1,30484323376435","183,607760212402","-56,8820506305335","-18,9060984654095","-3,32232215631914","13,8079217847671"
"5297","0,217037913778172","202,931209098738","-59,9130271504566","0,619572042664242","-2,84508741945769","13,5698912439968"
"5297","0,938637683893922","231,157843282554","-64,8757317050589","11,92259654749","-2,78027828057975","13,3234311763395"
"5308","1,52494382423552","254,212973188773","-68,743048847351","12,5670618448836","-3,2739836617932","12,5400464957031"
"5308","1,92971483496581","221,756406456607","-70,4463464373022","15,2263279843374","-3,78201032721204","11,7549531386568"
"5316","2,34378362265233","209,081406625035","-72,6643514568117","-11,2452747248888","-4,57459468584988","10,7698160872555"
"5316","2,66484171479628","205,186976100586","-66,3229271655819","-28,4077426824965","-5,31675325494537","9,78520731691537"
"5324","3,00967506655092","200,098337970591","-62,7455795476203","-18,2772151095453","-5,29451974636888","8,66873201137918"
"5328","2,42965989099679","243,644130212653","-68,5493808781904","-15,1298734053474","-5,40421798202322","7,55395098359345"
"5336","2,06944530390469","269,274974888318","-71,8237579427352","6,98371745582072","-4,61631062274387","6,10983877541955"
"5337","-0,42769727352662","276,307754340732","-75,6893093144573","22,1557536186708","-4,0396758277371","4,67026295248408"
"5345","-2,37710608904016","288,316953777553","-78,989289255608","6,2394102656249","-3,83728108991791","2,83773553707477"
"5348","0,976089560984333","246,040082508559","-76,7513212743676","-1,1540099753133","-3,62529769955925","1,01266665322086"
"5357","3,23448286414583","224,131712550666","-76,166711643039","-13,6311664751557","-4,304843324342","-1,07039169354763"
"5357","4,80880005613685","259,169604420269","-75,214160690013","-23,2149163920562","-4,81034939577531","-3,14490853505476"
"5365","6,27669111950786","275,451550568524","-74,6254948496288","-1,20580818199013","-4,71142606099117","-4,72651379717489"
"5369","4,70754404950738","304,848340016394","-73,2277204939173","11,495989212481","-4,67727395905595","-6,305897230096"
"5377","3,81556615245025","327,533447235604","-72,1385880513988","13,2476513387692","-4,0547568505682","-7,68477658717664"
"5378","8,53428877489306","279,394789589856","-63,2708099233084","16,9357337804928","-3,56432594814101","-9,06377118827266"
"5386","12,11820277275","256,482547364725","-56,8910674308496","-4,06166981797456","-3,96815025987942","-10,4208124337878"
"5389","27,564604810966","269,129788365556","-52,3088506438344","-17,1349453423937","-4,23917640127976","-11,778157949951"
"5398","39,9910728225226","271,341151119473","-47,5361896542085","-10,1776476864435","-4,07901722163299","-12,8931522161548"
"5399","20,866748303028","266,720154355647","-72,898941753176","-8,17579661267011","-3,96251649555467","-14,0107180072575"
"5406","8,31438247982868","263,534091768456","-88,7737692720491","-3,93981503107073","0,582687467875777","-15,0864773778985"
"5406","-3,70768177474059","218,618274123377","-75,6363980246834","-1,16326176570308","4,26451491050189","-16,1647295920797"
"5418","-14,263210248241","189,115859714176","-70,1803612347645","-21,9076355952883","6,00855426961669","-16,8481968246245"
"5418","-24,3119904210428","183,301746266055","-51,3600837976098","-35,6148284095852","7,87021593542486","-17,5374777405551"
"5427","-34,1234080697991","170,393710553102","-37,8887538238423","-9,79438511795934","7,28310919970585","-18,7833931807343"
"5427","-46,3225989199534","255,516631273475","-64,9371673922635","4,91174852092044","7,20094832985962","-20,0287002923665"
"5435","-57,9117523279033","304,050764952343","-80,0702866098693","31,7953349943279","5,06263859284401","-21,5160858645858"
"5438","-51,9662075279609","248,280582417565","-89,3783605080267","53,1924246615829","3,46805521995155","-23,0006551754866"
"5447","-49,9314493060571","226,937624357927","-98,7247961945472","7,22581732493948","-2,0185945552317","-25,210570532695"
"5447","-29,0949125029576","157,8505520049","-91,1107933764671","-18,789279552833","-6,59750859577604","-27,411239227448"
"5455","-13,5556743267795","109,743276336673","-88,8263269483352","-27,7036539050657","-11,7825494047653","-29,1404204503596"
"5459","-15,8949862211895","213,647983680066","-79,0315240666393","-38,8010677463341","-16,5835918799547","-30,8666007518861"
"5467","-15,3774310226898","264,078921319229","-72,3948454735499","7,75168565721021","-15,5563716705334","-30,6932083937935"
"5468","-24,1512491408467","268,711188934888","-78,4763747456853","36,1617691811104","-15,5352343339547","-30,5355905085224"
"5476","-30,0837649183683","284,643467748461","-81,0401976670484","24,7941448150078","-15,9413269520776","-30,4141816383438"
"5479","-14,1660376806717","219,766049805623","-68,1837165876683","22,8936066194502","-16,5619600285452","-30,3052581419267"
"5488","-2,61832805813503","185,606072398882","-59,6390910878067","-15,0327833115403","-19,7826128311356","-30,406046789572"
"5488","3,61980670009527","172,632424877016","-63,2794423147785","-40,3635253249827","-22,5671925182028","-30,5149813275368"
"5496","10,0300290541126","155,041595203111","-63,7427947337841","-16,8820976085818","-22,2801616398285","-30,1018620967538"
"5497","8,55124873294731","207,193212391564","-67,3754268383115","-6,51914146743404","-22,4544635549971","-29,7003757546869"
"5508","8,93995000761584","233,358199512363","-69,5359489949135","12,6087510215971","-21,3250807383188","-29,1328720195879"
"5508","12,8260907250292","205,674523312813","-53,1243184548773","26,9928051413523","-20,5820611167317","-28,5764236901728"
"5517","16,3543740982051","195,040337888223","-42,3212068248647","1,04614178125138","-18,7483626425043","-27,853439871553"
"5524","12,8502086701534","167,273067689281","-42,3725652159318","-13,1820936444081","-17,2380202378492","-27,141046642113"
"5525","10,8871256301076","147,513470281772","-39,8593652980699","-11,7264526645485","-14,8245590689534","-27,0116303462961"
"5529","5,53012770252872","187,747064343105","-53,6467022110891","-13,294723131276","-12,6798600259303","-26,8852391461531"
"5537","1,33130667721882","206,848875992332","-61,9321209675661","5,40994046500016","-11,6461166886276","-26,8277321932804"
"5537","3,02715543975736","174,235030641073","-57,33915994128","17,3843081418979","-10,4782504084296","-26,7720256100984"
"5545","3,63879267586579","158,385619186438","-55,9620646110088","-0,841945836520918","-11,4118165835558","-27,5119771864579"
"5549","1,21910266993413","120,014706838171","-48,8524531856257","-10,7866325272841","-11,9022764140545","-28,2457634979786"
"5557","-0,76119395050887","91,5937590874296","-44,0253743482686","-10,714770621054","-12,0056087885167","-28,576997096925"
"5558","-0,412248519951516","129,913877557998","-40,9073634773794","-12,450292757354","-12,052661499284","-28,9070754616506"
"5566","-0,496136573660854","144,831636412131","-37,5958011715133","11,46919721644","-11,7960506412086","-29,14789040065"
"5566","0,15329795873083","157,848150169477","-44,1099297210238","27,1851839553433","-11,5811656541421","-29,3886215334334"
"5578","0,528338572747262","169,172633242908","-47,5107587580573","20,6142058880231","-12,3429617849029","-29,3645965000126"
"5578","1,8594621456426","121,854800526691","-44,3603583334071","19,6521185578954","-12,9294926310732","-29,3430421388042"
"5586","2,90294995873602","95,8188756220023","-42,798623397965","-7,7435028274843","-14,0540746815132","-28,5737749334702"
"5586","6,92663308155793","85,4473450895258","-39,4262510486317","-26,104900710655","-15,0236599831055","-27,8136877363316"
"5594","10,191008539541","71,516202031176","-36,8608978166952","-10,9803204147562","-15,4283800166009","-26,4442475495162"
"5599","7,81269311898501","121,062485656709","-39,7226866368185","-4,79414857029574","-15,8958869334851","-25,0881186562641"
"5607","6,55672708438231","147,022120791978","-41,0021720195459","7,74901672449963","-15,2180523583996","-23,3910241864182"
"5607","5,38356391383962","114,568504324591","-38,9471780316678","16,9410482859691","-14,7786830539327","-21,7080281567779"
"5615","4,46264985439716","101,079208728753","-37,7011399663665","-2,15508014938084","-14,6641502097055","-20,2361914540691"
"5619","9,79220904246558","63,3342252527379","-33,7800509904905","-13,0355395853073","-14,5575326349173","-18,7737990000106"
"5627","13,73613096033","36,3981078310148","-30,8201760892906","-19,9070590608996","-15,072378086413","-17,5845605509343"
"5628","16,6250206796165","89,2474674894272","-36,3184183048383","-26,7409083584653","-15,4702086157269","-16,4003856564338"
"5635","19,4230085421556","114,009744174939","-39,306118730157","-3,23430059705229","-14,8261819897233","-15,2207535936713"
"5639","15,8078884342874","113,3178365274","-38,090902623686","10,9083299742994","-14,3477425415506","-14,0451971895965"
"5648","13,6550644875085","119,072883763055","-37,8177863217025","6,39913874070724","-12,8016649671359","-13,2482620334294"
"5648","10,5900699635979","83,4817389151379","-32,9569696293245","6,19602554172351","-11,5094351270861","-12,4510116966605"
"5656","8,08981369097559","63,6750170450565","-29,6777381891233","-7,35685749435275","-10,5490461988945","-11,829932577248"
"5660","7,90319609388548","59,7125821507953","-31,8541059504639","-16,1183821612095","-9,59976203847476","-11,2069076834808"
"5668","7,31766798856669","51,5638432800879","-32,5556039480835","-6,31470056538468","-8,93357092074016","-10,6262506101544"
"5668","7,4786744015148","70,878918836373","-36,6971399284812","-1,50038071202451","-8,21628708039113","-10,0436043603468"
"5676","7,37043252810295","79,719138539507","-39,5372943671079","4,70798472231927","-8,27895443308916","-9,2165492656134"
"5677","5,67563797864646","56,8564459089476","-37,2732496275238","9,7110929476004","-8,17677493203092","-8,39021969854971"
"5688","4,28293106472075","44,5237063655566","-36,4158685646256","-2,36764608285076","-7,78328134059822","-7,41014381036797"
"5689","4,00640728433403","48,5505172799812","-31,0573665392138","-9,35827163573692","-7,39713699272854","-6,43213247453049"
"5697","3,54460172644289","47,6664293586592","-27,3230663395127","-1,37402669209742","-7,47773323346782","-4,99278166561724"
"5697","5,39422129538044","76,144614423427","-31,3854584164124","2,77571414661457","-7,47086121978532","-3,55953434017462"
"5705","6,66406824849348","93,379458369295","-33,2445290497587","11,6075808378054","-7,91844729804193","-1,9994223425693"
"5709","8,6100096177357","73,0341979965509","-31,120038425481","18,3980813451444","-8,2529722496882","-0,445492107108213"
"5717","10,2592684964327","65,2906817696621","-29,914948338782","5,38907061452312","-8,78315798742335","0,88232460061488"
"5718","12,2117170547506","43,8372753769837","-29,1239048560558","-1,82238021541943","-9,24243845877191","2,20728071016073"
"5725","14,0222484568631","28,6853735427547","-28,3410200398211","-8,02932852537317","-9,08246615649665","3,79435137643931"
"5729","14,5212930566082","39,454690784613","-29,925002618374","-13,6462497408193","-9,02051522166946","5,37658141731037"
"5738","15,2895547978595","41,383528348543","-30,7672663728281","-0,442406271287089","-8,84873391835206","6,77801464455208"
"5738","11,9430757393436","46,6481477956318","-34,1978183468157","7,04077383819025","-8,72694102293744","8,1772437342161"
"5746","9,61403456287712","49,7904138468877","-36,7044917999653","4,12248558032627","-7,85558702062989","9,24364413109929"
"5746","8,00335973007543","32,1408848408865","-38,3438669821189","3,5281084864905","-7,14291809017288","10,3114430759442"
"5758","6,47246599289779","21,8815892549748","-40,1166835509639","-6,69016726891718","-6,40982807182808","11,0717022708979"
"5758","-2,59685334902842","11,2484059439575","-46,201748541327","-13,5755081055047","-5,72743924904819","11,8360483073142"
"5767","-9,90215235311019","1,50599434049176","-50,9532737764448","-10,424252633199","-5,46974557955118","12,6922878978029"
"5767","6,38133635024717","22,1637844269684","-49,2707291480036","-9,85499204283081","-5,14543813886886","13,5509709472665"
"5779","17,6319159125129","31,7904141670767","-49,4074548387057","-0,908414630645913","-3,9875814954448","13,5295762487047"
"5779","3,34415518638576","16,9430891608308","-70,0501228262224","5,05012579422541","-2,97016568916323","13,5186087183318"
"5787","-6,24998580841421","9,9242163588659","-84,5294230205782","-5,68683045876817","1,35063032945704","14,5095497221861"
"5787","-5,60913536128897","18,0024559411022","-69,4044041807844","-11,7318157306795","4,99563056766179","15,4993655815412"
"5795","-6,20207767522779","21,3560462157531","-62,6460441219189","-5,53981879377315","5,05825358659475","15,1647671113315"
"5799","-5,98711829942414","36,5024273769136","-62,3506416215384","-2,39831617058398","5,60963025088633","14,8419536509892"
"5808","-6,25750662691135","46,852337767452","-61,2835149442393","-0,0768374895490882","6,38356237305093","14,5297132606227"
"5808","-20,9540206690215","57,0037833347394","-62,6925117905428","2,02420502719517","7,25883579936628","14,2269586330997"
"5816","-32,4290569228721","66,7384815580994","-63,2083300714653","9,98663735568935","12,9686608747645","14,9032111979462"
"5819","-26,8340100306806","48,6289326406003","-66,1337696145045","16,1047093955315","17,7799137371268","15,5777923911178"
"5828","-24,4107026692853","40,6637994269667","-68,1686586445318","8,63924107962123","17,424486372252","15,6773986389437"
"5828","-30,4700796337563","45,6112251771222","-70,2838948171561","5,082289703786","17,7963954629192","15,7811588756237"
"5836","-35,3331953318881","46,8695141414937","-72,2401195444897","13,1708546573364","18,561285297625","15,9107026639032"
