Timer,AX,AY,AZ,GX,GY,GZ
"1002","0","1.99999608000768","-29.9999028003149","0","0","0"
"1010","-1.74747468370579","1.99999902990042","-29.9999762139555","0","0","0"
"1010","-1.20161288949346","1.99999974426252","-29.9999938084692","0","-1.71534883261057","-3.43069766522115"
"1018","0.674383884221303","-1.47050683176423","-33.4772754552993","0","-1.20478754777544","-2.40957509555088"
"1018","0.182808536954044","-0.389427882761477","-32.3862099197859","-1.6453241320185","0.654937104130904","-0.403716045466967"
"1030","-1.67936227991861","1.63203620173386","-28.6238480419788","-1.22892478058561","0.18758752965046","-0.829211945245505"
"1031","-1.18416300394084","1.16738312623069","-29.6402199115126","-2.72645919310478","1.76730754053036","0.762495808468127"
"1039","-2.77884110338177","4.51466518493432","-28.1673786063073","-2.25771394560156","1.2197734908755","0.218395306644779"
"1039","-2.2111299703347","3.40113117108355","-28.7823200953377","1.19906775660555","-4.07778714863032","-1.65102520005816"
"1051","-0.328315793535557","3.10623220108099","-23.7274076524233","0.425373673369704","-2.59512323448233","-1.18646771544598"
"1051","-0.817918358339723","3.02813364146304","-25.4058551827726","3.44139554657631","1.25670050735346","2.37374829758201"
"1059","-6.13739426409531","1.27228225482241","-29.3217887493375","2.51134034688653","0.359946239594158","1.39347126142637"
"1059","-4.57940956886856","1.80727736109354","-28.3455674466771","-2.75433915731844","3.53025308708269","1.11269869003012"
"1067","-0.699232056218778","0.213792537546855","-31.5674664098648","-1.6223582385053","2.43829762230566","1.03227934535413"
"1071","-1.64738494616325","0.791787436961637","-30.4097972276437","-6.15652288081823","2.12553793051646","-0.704332841120739"
"1080","-1.90441233058769","2.68002716018438","-28.3685763163996","-4.76503438676943","2.03595678186766","-0.201736178270704"
"1080","-1.97408788296399","2.1800926660196","-28.8349210717502","3.95483294612042","-4.84401457761908","-0.0577816101241443"
"1088","-0.264057899746985","0.312525803110599","-25.4797203713048","2.04823780496301","-2.8145873631593","-0.0165499044205075"
"1092","-0.800499186236792","0.817935123497237","-26.6025392485851","3.01711253790406","2.90741957296925","-1.71831859567066"
"1100","0.782998908452008","-0.783384950416177","-30.3732096821143","2.36082439636148","1.54632627153558","-1.2057420012402"
"1100","0.212257077504025","-0.207465072721253","-29.3590108962861","-1.16248890266562","-0.55709866959661","0.654649380080558"
"1108","0.0575391184639324","3.41539354107015","-25.616738016965","-0.412397193967936","-0.159565123138775","0.187505759116091"
"1109","0.0155978316131468","2.37484090519139","-26.6383610377963","3.14419326391225","-1.75928125135609","-1.6598726347371"
"1121","0.00422829472412907","2.09926970847872","-33.859696422555","2.4059067491418","-1.21747459288913","-1.18900181236113"
"1121","0.00114621549440427","2.02628975355936","-31.7476368606627","-4.43698845118945","0.651288911758934","0.659444132690163"
"1129","-1.72860706756901","0.271793935078987","-31.1954616129925","-2.86453057461304","0.186543248216663","0.188879080095525"
"1129","-1.19751241686495","0.807148038605242","-31.0511013356401","2.62904363102369","0.0534300259484591","1.76767740343248"
"1137","-2.78245988941892","-0.786241711131811","-29.2747991348376","1.57790919185983","0.0153035164775157","1.21987943266541"
"1141","-2.21211095903126","-0.208221633169984","-29.8104040366301","-3.73072361584557","-1.70919508612851","1.0629782310813"
"1149","1.40033606406058","1.68002475812711","-28.2118714158033","-2.61398053871492","-1.20312883053454","1.01803832919728"
"1149","0.379606200305714","1.18009202987898","-28.7939522615618","-0.572565504718922","-1.05818049589088","1.00516656810842"
"1158","0.102904489150047","1.04769405648591","-27.2075702762252","-0.848366048007152","-1.01666415394211","1.00147981699009"
"1161","0.0278955767284731","1.01263089224776","-27.7928277748974","-0.946207300414887","-2.71835131920776","1.00042385163192"
"1170","0.00756199469470643","1.00334505912747","-31.4229585699019","-0.980916842892872","-2.20575137396987","1.00012140028604"
"1170","0.00204992226256432","1.00088587728775","-30.372017207723","-4.28372285836916","3.08180338482914","1.00003477167089"
"1178","-1.72836208873767","1.00023460828017","-24.8815776176096","-3.45540538357829","1.59627357159462","1.00000995935953"
"1178","-1.19744600746102","1.00006213168108","-26.4461612613716","1.77418229030676","-0.54279268123347","1.00000285257624"
"1190","0.675393685394751","2.73518487627659","-25.1166440612962","0.629397662577574","-0.155467578270396","1.00000081703961"
"1190","0.183087215421514","2.1947001710197","-25.7690560943283","1.86852746406395","-5.18526431507335","-2.42715645528349"
"1199","-5.13712167093371","2.05156275355811","-32.8938652388668","1.30811329746266","-3.62590702249915","-1.40876851436479"
"1199","-3.57933567371086","2.01365544539879","-30.7565699300467","-5.47168103618397","3.67504005312367","4.02365487941293"
"1211","0.300787975444159","2.00361639315537","-35.4134793464834","-3.87683789614569","1.76618940014146","2.57961858041722"
"1211","-0.647379515935714","2.00095773510656","-33.6309782072137","-1.66581511456011","1.21945323629963","0.452436968623671"
"1219","-4.36224643095502","0.265085216654291","-29.6878409441642","-1.88144668847514","1.06285615921271","0.84316609014509"
"1219","-3.36928077824073","0.805371358117435","-30.6569501330779","-3.60318911783274","-0.695574979480056","-0.758498972726214"
"1227","-1.37118766467556","2.68362461146159","-29.1717525438128","-3.21398354776189","-0.199227737042259","-0.217250531349015"
"1231","-1.82954016007721","2.18104538471868","-29.7834636141404","1.8598275703821","3.37009355106618","1.65135308783615"
"1239","1.50404420317524","-1.42239030873822","-28.2048281322099","0.659780639222494","2.39242446287983","1.18656162963493"
"1240","0.407719632245711","-0.376693870214903","-28.7921108708488","0.234059597150401","-3.02833616969437","2.76701363543537"
"1248","-5.07622781809037","1.63540798971527","-27.2070888644358","0.0830334989562092","-1.5809594033288","2.21968931513691"
"1252","-3.56282843327544","1.16827610068832","-27.7927019149648","3.31994911594577","-1.1663993539922","3.77650212195474"
"1260","2.03418058092779","2.77973324715642","-29.684364905638","2.46825678107404","-1.04766037841951","3.22240702315255"
"1260","0.551430175141347","2.20649798638402","-29.1789198411284","2.16611580732391","2.41350572481983","-0.363454501568652"
"1268","-3.3083526597735","0.319518765774386","-36.0010197055228","2.05893019078033","1.40485864954866","0.6094771046672"
"1268","-2.35467113543896","0.819787080835464","-33.7845843124213","-4.56007965551219","-0.597618060064437","0.888145785866963"
"1280","-2.09614503656479","0.952273928213815","-22.7737565694851","-2.90819762997024","-0.171170754030316","0.967962530830216"
"1281","-2.0260632093576","0.987360629089746","-25.8950941275216","-2.32218643404615","1.6645513339339","-2.43633291425414"
"1289","-0.278147486288603","2.73182111730039","-33.6653772860728","-2.11429681696788","1.19034189312996","-1.41139685093341"
"1289","-0.804318622547982","2.1938093414215","-31.6968342132137","1.24994546396655","-0.659060304538052","0.59574537760081"
"1301","-0.946954259001406","3.78649525559519","-34.6593013265074","0.443422729258541","-0.188769143400828","0.17063437721914"
"1301","-0.985620243097584","3.20828877975035","-33.4338064784985","-4.7784331807939","-3.48122425983307","-1.66470496386805"
"1309","0.732815882537692","-2.15034381928313","-24.4206102385524","-3.63090568153994","-2.42425470444498","-1.19038589607001"
"1309","0.198653351744126","-0.569478947235667","-27.0642070594522","0.0666765780099199","3.01921929921511","2.37262604579378"
"1317","-1.67506639583367","5.05468925721408","-29.4939077639328","-0.621592578962329","1.57834813419452","1.39314982421187"
"1321","-1.18299849304274","3.54414659860524","-29.1291268706605","-2.51100492118502","1.1656514299642","-0.600971721199596"
"1330","-1.04960763661559","3.14410720245606","-32.510880350066","-2.18128086652465","1.04744615678133","-0.172131315204129"
"1330","-1.01344774795501","3.03816413784988","-31.3950034111492","-0.41906371194229","-0.699988737885389","1.66427620841244"
"1338","2.45419012711921","-0.460229774835176","-24.1490263536357","-0.793910725066027","-0.200491933031027","1.19026309122267"
"1342","1.39420507894162","0.613285044262114","-26.2546436153193","4.00884994207504","-0.0574252313429354","-4.08623956441211"
"1350","-2.35097358691581","0.897585667975963","-28.5436953524548","2.7126468711355","-0.0164478298200623","-2.5975441894942"
"1350","-1.36622491072279","0.972877450824428","-28.1421432999881","-4.32817126996947","5.13602401930802","-0.457571251248645"
"1358","-1.09927705954645","2.72798551434369","-28.0371618363856","-2.82592728120721","3.61180353547615","-0.844636659873567"
"1358","-1.02691224508114","2.1927935526373","-28.0097155622788","-0.647754387532378","-3.67907959722299","0.758077769710277"
"1370","-2.73621321717757","3.7862262426484","-31.4796615483002","-0.875039579443669","-1.76734641304925","0.217129889683952"
"1371","-2.19957430873931","3.20821753662711","-30.3868415913274","-2.60091617244809","2.20737205944938","1.77576904707976"
"1379","1.40373452697532","-0.415194264866455","-26.6240140527381","-2.21317721206567","1.34581750389003","1.22219705463336"
"1379","0.38052746315615","0.625211869440126","-27.6402632790624","4.50535996002939","-2.32810706738836","-0.649936296448827"
"1391","0.103154227123033","0.900744267910229","-27.905950704912","2.88878561767478","-1.38039862472253","-0.186155829900491"
"1391","0.0279632762510593","0.973713947829779","-27.9754118237263","-0.975192726595274","-2.8225327484363","1.66025928369763"
"1399","-1.72133743937156","2.72820704516574","-31.4706932049481","-0.345953189835749","-2.23559119138617","1.18911255699644"
"1399","-1.1955417499597","2.19285222099452","-30.3844969144532","1.52251817851537","3.07325661492944","1.05416593162227"
"1407","-2.78192567667159","2.05107335803659","-26.623401062197","1.18536523671139","1.59382559161205","1.01551429579879"
"1411","-2.21196614345707","2.01352583801048","-27.6401030192809","-0.579487342781522","-0.543493835712337","1.00444363028427"
"1420","-2.05746025141842","2.00358206902618","-27.9059088067165","-0.205575256292812","-0.155668404096889","1.00127275194178"
"1420","-2.01557645215985","2.00094864499326","-27.9754008698939","3.21756410345545","-0.0445868019870206","-2.42679214558331"
"1428","-2.0042224991346","0.26508280930524","-27.993568822109","2.43193532307254","-0.0127706256318556","-1.40866416817741"
"1432","-2.00114464441316","0.805370720575387","-27.9983186377369","-6.07300105840686","-0.00365778373332276","2.31010642176999"
"1440","-0.271392506538813","2.68362444262033","-33.2152427045431","-4.09015837539742","-0.00104766847180819","1.37524285000716"
"1441","-0.802487467683253","2.18104534000418","-31.5791513701132","3.19424768180339","1.71327826971271","-0.606100666393608"
"1448","-2.67537565168959","2.04794652311084","-27.6742913752371","1.77841739802539","1.20429834273583","-0.173600356176794"
"1449","-2.1830823268048","2.01269775338247","-28.653407744069","-2.01434625656212","1.05851546951152","-3.47687959068672"
"1461","-0.320712576254683","0.268194344221862","-28.9093871838596","-1.35984304792837","1.01676009764103","-2.42301029711614"
"1461","-0.815857261366467","0.806194753277839","-28.9763102541722","-1.12765563859943","-0.7087778897405","1.3059973797715"
"1469","-2.67899996495925","0.948674250655935","-34.2094888494601","-1.04528630512676","-0.203009336454485","0.374065931396052"
"1469","-2.18406481366943","0.986407320801245","-32.5776470866106","2.27442719568228","-1.77172461484933","1.82071892793091"
"1481","-2.04989669717169","4.46673707300731","-21.719655058346","1.45210771320969","-1.22103864165897","1.23507167391451"
"1481","-2.01352610713047","3.38843829378234","-24.8809498695416","-0.484859472728125","-4.49046694294146","1.06732961796833"
"1489","-2.00366668706499","1.36770230451261","-32.6616794220096","-0.172005672968877","-3.42690200904076","1.01928466063253"
"1490","-2.00099397364688","1.83254760344058","-30.6958674464417","3.22947303603426","-3.12227398010141","1.00552354442122"
"1497","-0.271351662373934","0.22048489570797","-28.4433662971208","2.4361600605022","-3.0350219157868","1.00158206273652"
"1502","-0.802476395556617","0.793559784735021","-28.8544741075041","-1.13576330001591","0.417125654208164","-2.42670355227346"
"1510","0.782462922172449","0.945328111996807","-25.484832302121","-0.402916188588383","-0.594104524283684","-1.40863879313495"
"1510","0.212111781156798","0.985521157619425","-26.603875707895","-3.43342867114903","2.5434139433548","-1.11704299956967"
"1518","-1.67141805499425","0.996165545322501","-32.1121198445599","-2.50851406871888","1.44206717654493","-1.0335236496838"
"1522","-1.18200949273131","0.998984515316396","-30.552191007925","1.11009545072077","-4.01411742147038","2.41755479006554"
"1530","-1.04933953622172","0.999731067588649","-23.1901213595467","0.393810425083686","-2.57688684592549","1.40601838951896"
"1530","-1.01337507070672","0.999928778205085","-25.2653874624514","-1.50554064911095","-0.451654540708574","2.82987080387895"
"1538","0.725292042425847","4.47031798191052","-31.023625734766","-1.17934239600225","-0.842941985846457","2.2376929693731"
"1539","0.19661377251035","3.3893866315384","-29.5290551750752","-1.06362237153509","-4.38217187290159","2.06808041375274"
"1551","0.0532984967151409","-2.1023833893937","-25.6611942640564","-1.02257026921676","-3.39588395581377","2.01949970480393"
"1551","0.0144482744816075","-0.556777510899078","-26.6499836452697","0.637239453475173","0.3137669513509","2.00558513772876"
"1559","-3.45391890217341","1.58771615495306","-32.1241742686863","0.226063028985673","-0.623708695050822","2.00159970439363"
"1559","-2.39413155468288","1.15564579682315","-30.5553425074128","-1.56504965198196","0.821356323107768","-4.85385518862216"
"1567","-2.1068420543708","1.0412199220058","-30.1451883233339","-1.20045343262683","0.235254237696173","-2.81740592725246"
"1571","-2.02896298062549","1.0109163369962","-30.0379579249763","0.57413475004425","0.0673819081888844","6.3337689644773"
"1579","1.44998422349931","4.47322783444524","-30.0099236910753","0.203676404423996","0.0192996376840574","3.95486362535784"
"1580","0.393064933277326","3.39015725237737","-30.0025944422573","0.0722549501069043","0.00552783417311018","-0.153663069093462"
"1588","-3.35128266012654","-0.367010882815321","-28.2621175294745","0.0256327080680542","0.00158329141435886","0.669565914034853"
"1592","-2.36630869497298","0.637972350549552","-28.8070885673561","0.00909329702573977","-1.71312485570286","-0.808221822536645"
"1600","-2.09929977196647","0.90412364626045","-27.2110046220346","0.0032258804094672","-1.20425440164117","-0.231492232300405"
"1600","-2.02691840201424","0.97460891393145","-27.7937256476572","-1.64410194622229","4.08223215012153","5.07443064557599"
"1608","-3.73621488621262","2.72844406045084","-27.9460717899969","-1.22849752341057","2.59639637925942","3.59416185941327"
"1608","-3.19957476118503","2.19291499012652","-27.9859010497373","5.49992502349377","-1.25633585110949","-1.9705542106334"
"1620","2.13265219052805","-3.15441528425142","-27.996313981152","3.88685755404205","-0.359841794149499","-0.564409398965225"
"1621","0.578124077067967","-1.57055719972862","-27.9990363300321","-3.26636939244173","-0.103066482344175","-1.87523741899701"
"1629","-1.57219863154162","-1.15110156363158","-33.2154303374716","-1.8040028389042","-0.029520472484052","-1.2506869503728"
"1629","-1.15511287177008","-1.04001646555817","-31.5792004247235","2.00526972774481","-5.14919033654756","0.641776173350406"
"1641","-2.77096612687061","5.9300760636558","-25.9357434404985","1.35662311610222","-3.61557465385475","0.183818593934787"
"1641","-2.2089952044348","3.77597666805088","-27.4603223329667","-0.518732983110877","-1.46273556669751","3.47980631526011"
"1649","-0.327737096488482","1.4703347037656","-26.1203463210982","-0.18402242478445","-1.84611583165318","2.42384857441321"
"1649","-0.81776148386231","1.85972790370454","-26.7700240103189","-0.0652826288786618","4.8983891368326","-1.30575727900044"
"1657","0.778319406596455","-1.50748532432384","-32.1555575305495","-0.0231592515874142","2.83016141441813","-0.373997161335752"
"1661","0.210988547781554","-0.399229717485531","-30.5635473235575","-0.00821582928417363","0.524197861874127","-5.24785591999773"
"1670","0.0571952426184971","1.62943978571754","-31.8858941437736","-0.00291459551583124","0.863719963979233","-3.64383461359256"
"1670","0.0155046129876948","1.16669553180485","-31.2316074920773","-0.001033963429263","2.67454479114253","0.242748513504942"
"1678","-3.45363254759266","1.04414624075919","-29.3219905272751","-0.00036680231176037","2.19320423568632","-0.644049913578985"
"1682","-2.3940539290492","1.01169131860985","-29.8227417184252","-0.00013012446292095","0.341759532355116","0.815530157625109"
"1690","-2.10682101144217","2.73826465220359","-24.7379754508835","-4.61621295929222E-05","0.81146567563923","0.23358549773429"
"1690","-2.02895727626181","2.19551579293881","-26.4086180199742","-1.64526271529162","0.945999686726419","-5.07383108902533"
"1698","-2.00784980255459","2.05177875599813","-30.3225110633969","-1.22890931048736","0.984533140882798","-3.59399013343356"
"1698","-2.00212794185437","2.01371264966586","-29.3457562879162","-6.01694543322931","7.84988333521124","5.3977600859741"
"1711","-0.271659060985996","2.00363154265169","-27.3518335017588","-4.7155187762592","5.8162683024237","2.97319206830461"
"1711","-0.802559725852893","2.00096174717158","-27.8305438430074","-0.96334022710121","1.80664022908807","2.27874328317665"
"1719","-0.94647745339146","2.00025470102124","-33.1713797896404","-1.63224115046381","2.6581959189881","2.07983811258497"
"1719","-0.985490989577289","2.00006745287341","-31.5676838829566","3.06620281552017","-3.95221346929124","-1.40428932493477"
"1731","-2.72498465153732","0.264849441805483","-29.4098540836436","1.73299301295288","-1.84557786881901","-0.402218873037222"
"1731","-2.19653044430779","0.805308917492136","-29.8457126998664","1.26003195475391","2.18496487638742","-3.54236088472939"
"1739","-0.3243581217188","2.68360807521226","-26.4825417263629","1.09224728789807","1.33939960142571","-2.44176555775026"
"1739","-0.816845503901379","2.18104100539767","-27.6032768615086","-0.612521276017878","6.23794642961724","-2.12653122232715"
"1747","-0.95035007373066","3.78311379701559","-29.6348417635381","-0.217294165042099","4.64099632095411","-2.03624128215232"
"1751","-0.986540788072036","3.20739326273825","-29.1659725484725","-1.72233223964649","0.756438538019188","-2.01038028802605"
"1760","-2.72526923323732","1.31975586322416","-30.7819524965488","-1.25625000639552","1.64381706753081","-2.00297313927942"
"1760","-2.19660758934503","1.81984987172726","-30.2044330667745","5.49007972855599","1.89798149487499","1.42630511782733"
"1768","-5.51113239297443","1.95229055722478","-28.314886066164","3.8833648996203","1.97077969088583","0.408524672881336"
"1772","-4.40964111442829","1.98736503297696","-28.8208843335085","-1.62236208527692","3.70520901534436","0.117010313057719"
"1780","-0.653210847756171","5.46699070543423","-27.214611376659","-0.575538889045738","3.20198713354221","0.0335142875589362"
"1780","-1.63490941509158","4.38850546365823","-27.7946685948468","-1.84942086698233","1.34427514449777","1.72317756237115"
"1788","-1.90103043600648","-2.83778517231946","-27.9463183133939","-1.30133516220076","1.81218620143334","1.20713371452584"
"1789","-1.97317111149409","-0.751535125648989","-27.985965500627","0.538346587160698","0.232627716266429","-5.7949857972095"
"1801","-0.263809379307378","3.27130661032666","-26.257770071605","0.190980422624426","0.780207960223829","-3.80054445871463"
"1801","-0.800431816765849","2.33668213593114","-26.8059519712728","1.71299734319203","4.36420348943603","-1.51571492439512"
"1809","0.783017171117333","0.35399563954966","-26.9492682307565","1.25293841770425","3.39073742167761","-1.86129026698427"
"1809","0.212262028187772","0.828917645727205","-26.9867367247817","-2.20076184855329","-0.315241030177491","1.46688616064475"
"1821","-1.67137732569648","0.954691990123537","-32.212214738017","-1.42597466163474","0.623286486953194","0.420147962340905"
"1821","-1.1819984517431","0.988001008241374","-30.5783597408445","-6.08685508798398","4.31925778130199","0.120339474865333"
"1829","-4.50717211561163","0.996822288076299","-24.9355236527437","-4.74031948221518","3.37786399755301","0.0344678315947989"
"1829","-3.40856755367353","0.999158441536326","-26.460264871823","-0.972138368331819","4.82180677632671","0.00987233338168451"
"1837","-1.38183761073284","2.73494555058939","-30.3360135771165","-1.63536232327442","4.2353832572528","0.00282765006934261"
"1841","-1.83242717103124","2.19463679002026","-29.3492863748473","1.41984922893217","-2.78689451641878","-6.85350347838904"
"1850","-3.68349177275359","3.78671439011344","-30.8298779240823","0.503696711879571","-0.79822694067666","-4.81730518982528"
"1850","-3.18528246287027","3.20834681349065","-30.2169626541477","0.178688252518966","1.48494886295761","-0.806937216094039"
"1858","-1.32130899400997","-2.1503284501161","-30.0567225515088","0.0633903117396484","1.1388998560881","-1.65828098249797"
"1862","-1.81601893961192","-0.569474876994908","-30.0148295007835","-6.55849741127384","4.46694061600986","-1.90212427334272"
"1870","-1.95012600685323","1.5843534914515","-30.0038770134213","-4.90763632303426","3.42016355953672","-1.9719662723523"
"1870","-1.98648004752686","1.15475525734123","-30.0010136034441","0.61375170896574","-0.306812747061346","-0.278392188670872"
"1878","-1.99633498135315","6.2464893445657","-31.7388257552533","-0.427515673472319","0.625700529755074","-0.793315896166098"
"1879","-1.9990064786316","4.59494131842875","-31.1931580442867","0.848337249746625","4.31994921543739","2.48635549245582"
"1891","-1.999730674028","-2.78311443911289","-27.5733775733099","0.300950745019383","3.37806203926264","1.42572440058678"
"1891","-1.99992699051928","-0.737056589095027","-28.6270249163411","1.75200971765121","4.82186349976101","-5.73237669106398"
"1899","-1.99998020842834","-0.195195859679257","-25.4253681583398","1.26677820036376","4.23539950407275","-3.78261185489249"
"1899","-1.99999463485694","-0.0516940275680949","-26.5883294473102","-0.550605795881706","-1.07331151832706","0.202999706327"
"1911","1.4578370268003","1.72147821094341","-30.3694946824619","-0.195329421797854","0.406158682865915","-0.655434832729053"
"1911","0.395193688580671","1.19107021320828","-29.3580396495986","-1.71454016657003","2.54348933158229","2.52584761488679"
"1919","-1.62178780622356","2.78576984794771","-34.3092878926622","-1.2534857399457","2.1556671140165","1.43703579966671"
"1920","-1.16855561502324","2.20809666889827","-32.6037384726641","0.555321344877286","-3.09614860147192","-4.01555851676452"
"1928","-2.77461021547118","-1.41522627445783","-25.2035978895758","0.197002280067155","-1.60038235229179","-2.57729960682515"
"1932","-2.20998305203992","-0.374796607710475","-27.2689107562263","-3.22060539815625","3.96877252676604","-2.16535110901938"
"1940","1.40091290179855","5.10624728842936","-26.0703038238597","-2.4330142335015","2.56389908612263","-2.04736013835918"
"1940","0.379762570756724","3.55780079337852","-26.7569409378501","1.13687929366094","-2.97922212425476","-2.01356496922641"
"1948","-3.35488869400736","-0.322613579284565","-28.675015582943","0.403312091419492","-1.56689207713308","-2.00388530094059"
"1952","-2.36728622662042","0.64973015850941","-28.1764755613042","-1.50216989819374","2.26478652216444","-0.287534489676272"
"1960","-2.09956476340951","2.64240590694353","-33.2618199153234","-1.17814660977442","1.36226224934187","-0.795934449153767"
"1961","-2.02699023648125","2.17012937015167","-31.5913284807224","0.582048177114032","2.81733809777774","-0.941551207126847"
"1969","-0.278398786853532","0.309887207742275","-27.6774749497858","0.20648372164721","2.23410333094558","-0.983258999992101"
"1969","-0.804386745661451","0.817236340121733","-28.654240055381","0.0732508561691268","3.78063060822289","2.43195167423579"
"1981","-4.40480829837125","2.68676683337057","-30.6481655422355","0.025986009389533","3.22358951102356","1.41014196891487"
"1981","-3.38081854348327","2.18187754430574","-30.1694559070552","0.00921863196293266","3.06404087786612","-2.30968314763649"
"1989","-3.1032331338225","0.312998495243932","-24.8286201450161","0.00327034343727415","3.01834269424844","-1.37512161512917"
"1989","-3.02798466645383","0.818060307300889","-26.43231609996","4.93689918362822","3.0052537448502","-1.10744295396262"
"2001","0.450249427070753","0.951816624053538","-28.5901459118901","3.68712207617247","3.00150478629678","-1.0307739887296"
"2001","-0.606863174751421","0.987239520507284","-28.1542872989659","1.59851273289532","-2.14030403056992","-1.00881433679363"
"2010","0.835490187116338","0.996620622077935","-29.7788975137932","1.85757092219275","-0.613029423386695","-1.00252461693524"
"2010","0.226486529529402","0.999105034011719","-29.2036343744033","-7.92200527141264","4.96515013172772","4.14001192899027"
"2018","-3.39643910258534","0.999762984744929","-29.0532380161758","-5.39134572807467","3.56286155373942","2.61294575916872"
"2022","-2.37854980336192","0.999937230875953","-29.0139185065127","-1.2030923123878","-0.265940951346778","2.17556093898046"
"2030","-0.373700332525157","2.73515179859925","-23.7879565651549","-1.71729408042592","0.63740709714074","2.05028445475747"
"2030","-0.830221299640418","2.19469141100621","-25.4216850445267","4.6812763163536","0.896145540545129","-4.83991082183267"
"2038","-4.41181158645634","0.316392011784479","-29.325927296371","2.95119258909172","0.970253833807525","-2.81341195863381"
"2042","-3.38271701032124","0.818959017641816","-28.3466494252702","-2.59829996412703","2.70505839848952","-3.94655714432351"
"2051","0.354087797989679","-0.783113790914005","-29.8291885219877","-1.56700276347897","2.20194399361332","-3.27111446415988"
"2051","-0.632930882045072","-0.207393261122361","-29.2167824173877","3.73459271124094","2.05784113293858","-1.36407470896316"
"2059","-2.62941187709088","5.15058098089465","-30.7952361900859","2.61535311447077","2.01656695304355","-1.81785722546272"
"2059","-2.1706223650321","3.56954175511952","-30.2079059455234","3.86354510920747","-1.4224115551865","-1.94783036500711"
"2071","-0.317334902233511","-0.319504201857643","-30.054354772485","3.30634578883746","-0.407409472224542","-1.98505748678637"
"2071","-0.814941634015322","0.650553619840459","-30.0142104704339","-0.181815388125114","-3.54384758474088","-1.99572014063027"
"2079","-4.4076695408726","-0.827712858183486","-26.5265936555194","0.580746664563117","-2.44219138082856","-1.99877415559466"
"2079","-3.38159417543475","-0.219204502491559","-27.6147937644081","-4.08447067290924","4.72766019132452","-3.71322723626688"
"2087","-1.37452560764628","5.14745299120288","-27.8992919743459","-2.73947360223832","2.78126094722966","-3.20428372565179"
"2091","-1.83044501704724","3.568713364673","-27.9736709702646","1.02816171068665","-2.91696498018667","0.368645406439207"
"2100","-3.68295444606352","3.15061325788394","-33.20879883708","0.364744130855938","-1.54906028287178","-0.607990317101415"
"2100","-3.1851368031616","3.03988714677641","-31.577466690298","1.77464065481748","0.556315589543951","0.825858406939444"
"2108","3.86548385035448","1.27539495418344","-25.9352901742871","1.27480660817293","0.159340832053821","0.236543731999763"
"2112","1.77678170575445","1.80810170217764","-27.4602038313926","-2.19300402792742","3.47279535418292","0.0677512472818822"
"2120","-2.24726386797229","1.94917927094253","-33.0745583782915","-1.42322254636716","2.42184048333589","0.0194054243984591"
"2120","-1.33811105051929","1.98654106612074","-31.5423709667132","5.43084560873248","0.407245904879768","3.43271482308029"
"2128","-2.82057367828681","0.261267227455045","-25.9261147749697","3.86235137876314","0.830222390860564","2.41036055127019"
"2132","-2.22244292929377","0.804360234012422","-27.4578050219641","-6.56555572605071","0.95137201614903","-3.02319888556711"
"2141","-0.331382535513788","-0.786980009821714","-26.1196881972217","-4.26489394693394","0.986071892369104","-1.57948797390507"
"2141","-0.818749697543552","-0.20841715797718","-26.7698519509125","-0.158233080101703","0.996010688356475","-2.87955624939159"
"2149","-0.950866266758679","3.41514139882928","-25.2012695093142","-0.701380103547585","0.998857374755357","-2.25192395692359"
"2149","-0.986680718820818","2.37477412996382","-25.7911805071818","-2.53930983762522","0.999672727385985","-0.358578132113549"
"2161","-6.18314273837991","3.83442044613526","-34.6382101880976","-2.19132213925307","0.999906262036143","-0.816282886822698"
"2161","-4.59181116655549","3.22098088359444","-31.9511709082148","-0.422625890202723","-0.713605193233439","2.47977724897357"
"2169","1.02632387742834","-0.411814127546563","-26.0329911211765","-0.795174420844669","-0.204391980711806","1.4238402491993"
"2169","-0.450699637436433","0.626107036540932","-27.4857466927397","2.36315530226416","-1.77212063410627","1.12139702577934"
"2177","-2.58001222787934","-0.834187085419186","-27.8655540059452","1.4835843338437","-1.2211520701501","1.0347707370782"
"2181","-2.15723099876302","-0.220919082307721","-27.9648505414312","-0.473693026325674","-1.06334274201632","-0.703619252579006"
"2190","-2.04262252722224","3.41183049447886","-24.5136890331718","-0.168044335228443","-1.01814273302268","-0.201531791059343"
"2190","-2.01155420903704","2.37389729793958","-25.6114199897431","-4.99535336043606","2.42196021767641","-1.7713014138514"
"2198","-2.00313214056444","2.09901981148107","-34.5912137349535","-3.70785890938953","1.40728019938778","-1.2209174277286"
"2202","-2.00084906759813","2.0262235729431","-31.9388841912004","1.68462347781991","-2.31050282040167","-1.06327553534554"
"2210","-3.72914795332688","0.271776408361938","-26.0297788912125","0.59762634598265","-1.37535638715942","-1.01812348357679"
"2211","-3.19765904137361","0.807143396977106","-27.4849068897778","-1.4332362050238","5.7468031808465","2.42196573113456"
"2219","0.40425372189283","2.68409390330935","-29.6038952080353","-1.15369212976351","3.78674391397688","1.40728177856159"
"2219","-0.619331792336219","2.18116966801933","-29.157881904507","-1.05452284568403","1.51176214952661","-2.31050236809209"
"2231","-2.62572540574698","0.312811027249865","-25.5641550061195","-1.0193421791087","1.86015810666321","-1.37535625760816"
"2231","-2.16962302821909","0.818010659856167","-26.6246137753797","-2.65210804795561","0.246367908772629","5.74680321795278"
"2239","-2.04598178600063","-0.783364946003034","-26.9018593105556","-2.23133771730994","0.784143448906273","3.78674392460493"
"2239","-2.0124648443434","-0.20745977492095","-26.9743421726933","-3.72731424122545","-0.775404335332926","-0.201816192079946"
"2251","-3.73229678380197","3.41539494409496","-28.7318527966557","-3.25801738969423","-0.22209259329111","0.655773816838824"
"2251","-3.19851263330967","2.37484127675666","-28.1913350392872","3.48945274286058","1.64996621643939","0.901406166804391"
"2260","0.404022328301125","2.09926980688094","-26.3114617278062","1.88314247414952","1.18616439963372","0.971760591088877"
"2260","-0.619394519023317","2.02628977961938","-26.8199890770891","4.60379070400882","1.05332151551021","-0.721666722897073"
"2267","0.832093162569257","2.00696236382594","-33.9071811191942","3.56895062355304","1.01527243673817","-0.206700977382712"
"2271","0.225565656594855","2.00184385379971","-31.7600512236856","-1.73390170074876","-0.709203988038898","-0.0592036361042823"
"2280","-3.39668873485907","0.265319888866229","-27.7215856955546","-0.615107975968952","-0.203131380234453","-0.0169572034556884"
"2280","-2.37861747423132","0.805433506729672","-28.6657723352509","-0.218211806319374","-5.19891626013213","-1.71843525493454"
"2288","-2.10263646309696","0.948472648531219","-27.1740590136482","-0.0774114371418382","-3.62981723520162","-1.20577541497967"
"2292","-2.02782291963265","0.986353930192398","-27.7840666158623","-0.0274619907210434","3.67392008352866","0.654639809661987"
"2300","-2.00754229864832","2.73155451164268","-27.9435465400608","-0.0097422417436955","1.76586861659612","0.187503017940962"
"2301","-2.00204458301471","2.19373873582442","-27.9852408503121","-0.00345609592387907","2.93293970159623","-1.65987341986902"
"2309","1.45728132231552","2.05130813515805","-31.4732628981931","-0.00122606268139294","2.26721413367231","-1.18900203723991"
"2313","0.39504304697872","2.01358801440607","-30.3851687331034","-1.64568128933186","-4.77777746410349","-1.05413427637065"
"2321","-1.6218286424825","0.268430113453714","-31.8392589805707","-1.22905780116049","-2.79561561946061","-1.01550522904922"
"2321","-1.16856668500672","0.80625719241559","-31.2194152304307","2.20923358469656","1.19927514655363","0.709137311279813"
"2329","-1.04569543014409","0.948690786511324","-29.3188029916508","1.42898004104568","0.34349837269521","0.203112282566743"
"2329","-1.01238721836388","0.986411700017925","-29.8219083715327","-0.493064099096236","1.81196371716783","5.19891079014653"
"2341","-1.00335795457687","2.73156981091674","-26.4763183408436","-0.174916294209222","1.23256399195481","3.62981566847929"
"2342","-1.00091028176053","2.19374278755532","-27.6016498243253","-4.997791213042","1.06661136355035","-0.246763842970535"
"2349","-2.72916454739754","2.05130920818434","-27.895855632634","-3.70872374652621","1.01907893701317","0.642899836266677"
"2349","-2.19766353973102","2.01358829857732","-27.9727725756975","1.6843166736796","1.00546462072162","-2.52943790932334"
"2361","-0.324665283734573","0.268430188711233","-27.9928816828706","0.597517506090698","1.00156518571294","-1.43806413774242"
"2361","-0.816928770060609","0.806257212346158","-27.9981389925763","0.211971522733238","-0.713130041567832","0.588107289169297"
"2369","-2.67929043190816","0.948690791789568","-31.4766349787101","0.075197673694647","-0.204255886985201","0.168446663286882"
"2369","-2.18414355409297","0.98641170141577","-30.3860503272725","4.96241566735527","-1.77208165391581","3.47540346143803"
"2377","1.40791753010541","0.996401389441503","-30.100928704342","3.69617414218776","-1.22114090537942","2.42258750173322"
"2381","0.381661400904976","0.99904697428663","-30.0263867238039","3.24697032556004","5.79097383441842","-1.30611847752495"
"2389","-1.62545616872443","4.47008445238717","-24.7912162464135","3.08761362712432","3.79939534569081","-0.374100616415054"
"2390","-1.16955004285098","3.38932478554619","-26.4225372531191","-1.90465776235501","-0.198192551110005","-0.107150517820808"
"2398","-2.77487978716819","-0.367231346319984","-30.3261500971381","-0.675684313943414","0.656811706083826","-0.0306902286857745"
"2402","-2.21005612813232","0.637913964851687","-29.3467076741335","-0.239701483979296","2.61528178541068","-3.43594703540455"
"2410","-0.328024694033076","0.904108183883943","-30.8292037505263","-0.085034978963103","2.17623002748362","-2.41128632687455"
"2410","-0.817839446441381","0.974604819005877","-30.2167863987252","3.2603262081232","2.05047609619412","-2.11780131056596"
"2418","-4.40845508628023","4.46361139783067","-31.7952372309638","2.4471053362509","2.01445744702749","-2.03374084637462"
"2418","-3.38180712282289","3.38761051629251","-31.2079062176497","5.44910493305404","-4.85017245269291","3.13107092488048"
"2430","-1.37458333389568","1.36748308289362","-24.1001118054747","4.5140752800188","-2.81635111193139","1.61038486197111"
"2430","-1.83046066560673","1.83248954663326","-26.2418554330006","-0.753368929760281","-3.94739898147632","4.60198413186727"
"2439","-0.225123115704235","1.9556379422775","-30.2789127793212","0.377985953271771","-3.27135558455072","3.4588429468928"
"2439","-0.789944658784764","1.98825152624317","-29.334357985642","4.0698309180107","0.349434573586018","1.41784421174374"
"2451","-2.67197551928615","1.99688863315407","-30.8259750573471","3.37952643470065","-0.613492715647865","1.83325797545644"
"2451","-2.18216061138567","1.99917601180797","-30.2159422916328","-3.44634696431296","2.53786074549004","-1.47491521598739"
"2459","-2.04938050180109","0.264613360061291","-31.7950165482466","-1.86785054140412","1.44047662042002","-0.422447657663035"
"2459","-2.01338617574666","0.805246395591248","-31.2078485225278","-1.30787315667095","4.55331873206471","-0.120998157406297"
"2467","1.45420681824975","0.94842309559314","-25.8386574812446","-1.10921912941966","3.44490412252311","-0.0346564925385313"
"2471","0.394209603610244","0.986340807009604","-27.4349402535199","-1.03874588600115","-0.29972651405651","-0.00992636996148812"
"2480","0.106863212046814","-0.738785807481398","-27.852271209065","-1.01374524490345","0.62773018034251","-0.00284312731597937"
"2480","0.0289687160951386","-0.195653811313494","-27.9613778971037","-2.65012251505652","0.893373862017102","-0.000814333232211732"
"2488","-1.72106488251278","1.68335311422333","-31.4670241858312","-2.23063334224516","0.969459965055431","-0.000233242672376061"
"2492","-1.19546786464304","1.1809734836766","-30.3835376888821","1.20867465572889","-0.722325672013912","-6.68057523200548E-05"
"2500","-1.05298786147366","2.78309591513164","-24.8845895234535","0.428781758948221","-0.206889714679548","-1.9134614166368E-05"
"2500","-1.01436406679266","2.20738852705071","-26.4469486917478","0.152111898710955","-1.77283603920393","1.7135728640828"
"2508","0.725023943177431","0.319754609064555","-30.3325322051118","0.0539622529330728","-1.22135697766242","1.20438272094296"
"2508","0.196541095572572","0.819849539586197","-29.3483762075947","-8.20708838875774","-1.0634014319652","-0.655038707393377"
"2521","0.053278795289956","6.15779573479964","-32.5682007301857","-6.13772634671874","-1.01815954309499","-0.187617270889502"
"2521","0.0144429337756535","4.57145244978218","-31.4099892077906","6.11311178715737","-1.00520128639365","-1.76731599395096"
"2529","-5.18283813614652","-1.05416661142019","-27.6300657480047","3.45914146415559","-1.00148976105882","-1.21977591716346"
"2529","-3.59172859430773","0.455991814505173","-28.6418454296764","2.51763577616974","0.713151644822121","0.650629762650786"
"2541","2.02634626129606","-0.879238968139031","-23.6906820625508","2.18363318660532","0.204262074625055","0.186354453637985"
"2541","0.549306430431981","-0.232850243507252","-25.3962536724496","-6.16108715032612","5.19924011549118","-3.37378073820861"
"2549","-1.58001058298813","3.40867074622917","-32.7964000568487","-4.12140723897952","3.62990999438965","-2.39348055312475"
"2549","-1.15723055286228","2.37306049682404","-30.7310887068885","-0.107330645165412","-1.96031517063781","1.31445533792756"
"2557","-1.04262240634648","2.09879820012104","-28.4525745167001","-0.683322278405576","-0.561476716180501","0.376488473771986"
"2561","-1.01155417626977","2.02616488325689","-28.8568814974369","2.40283525927314","3.26633759881279","1.82141279652838"
"2570","-1.00313213168181","0.271760865479717","-30.7011439669326","1.49766094385671","2.36270651128307","1.23527041290679"
"2570","-1.00084906519021","0.807139280731078","-30.1833065461689","-0.468699297390599","-1.32326968993364","-2.35977014818184"
"2578","-2.72914795267414","0.948924391351987","-28.3093627646633","-0.166272791607219","-0.3790130950644","-1.38946761673686"
"2582","-2.19765904119666","0.986473565956542","-28.8194403257593","-0.0589858815295341","1.60502078656324","4.02918307446125"
"2590","-3.78249963666736","0.996417773125467","-25.4756730968312","-0.0209254574135939","1.1732910552082","2.58120197519405"
"2590","-3.21212173380336","0.99905131320351","-26.6014811322208","6.57356197380529","-0.663944033760695","0.452890487176723"
"2598","2.12925092941422","0.999748757778511","-26.8958115298983","4.91298053174204","-0.190167949209055","0.843295987679787"
"2599","0.577202055675527","0.999933463125984","-26.9727610455118","-2.25710217046923","-0.0544682188068464","0.955116577391362"
"2611","-1.57244857514185","2.73515080078008","-30.470000187505","-0.800715257983147","-0.0156008773945869","0.98714441579869"
"2611","-1.15518062703455","2.19469114675218","-29.3843157324993","4.65168234821919","-1.71804677377892","-2.43083880700875"
"2619","-2.7709844941177","0.316391941801669","-36.0547182513567","3.58594035966285","-1.20566414556401","-1.40982321964152"
"2619","-2.2090001834688","0.818958999108158","-33.798623219458","1.56261814854811","0.654671679632211","0.596196099680343"
"2631","1.40117933998668","4.422391469714","-24.5159876502164","1.84483718698935","0.187512146190589","0.170763473783263"
"2631","0.379834797410602","3.37669417767795","-27.0891424575148","-1.34553725416427","0.0537075393100157","1.76248870148487"
"2639","-1.62595132844341","-0.37057633013478","-27.7618660959242","-0.477334266782481","0.0153830023139143","1.21839327606446"
"2640","-1.16968427184379","0.637028107509113","-27.9377424529903","-0.169336078610687","0.00440602498699404","-7.50533915960576"
"2647","-2.77491617426071","0.903873580885889","-29.7222841937355","-0.0600725938083798","0.00126198097028538","-5.00400504465514"
"2652","-2.21006599202591","0.974542688723663","-29.1888334310074","-0.0213109725728516","-3.4267952306228","0.853166247082775"
"2660","1.40089041824353","0.993258100079116","-29.0493684687763","-0.0075601455374061","-2.40866505179952","-0.469213055873031"
"2660","0.379756475864856","0.998214532004192","-29.0129068549796","3.28781068890803","4.73726285798281","0.865607219825325"
"2668","-3.35489034622414","2.73469557353836","-29.0033743583626","2.45685555642706","2.7840113589097","0.247928652784708"
"2672","-2.367286674507","2.19457058820334","-29.0008821896874","0.516824842034582","0.510979486580937","1.78459047978979"
"2680","-2.0995648848236","2.05152843593635","-29.0002306390018","0.82859184385929","0.859933935046729","1.22472370399272"
"2681","-2.02699026939445","2.01364635700886","-29.0000602980855","2.58443866820935","-0.753696298832846","-0.649212609356832"
"2689","-0.278398795775715","0.268445564417283","-25.5228942452083","2.2073317571146","-0.215874941542373","-0.185948550245647"
"2692","-0.804386748080096","0.806261284318656","-26.6138265933862","-4.50743365657287","-0.0618312581050081","-0.0532596915711677"
"2701","-2.67589051282419","2.68386029202191","-28.6375998774272","-2.88952126911516","-0.0177098112987686","-0.0152547290232091"
"2701","-2.18322189650096","2.1811078003734","-28.1666936276728","0.974931751553659","1.70850587118254","-3.43152597404006"
"2709","1.40816737508582","0.312794642743556","-31.5207017744859","0.345860607984334","1.20293142444883","-2.41002003916013"
"2709","0.381729129435371","0.818006320721504","-30.3975711168897","1.76794165594822","1.05812395451303","-0.403860273691982"
"2721","-1.62543780872447","0.95180232670252","-31.8425014503677","1.27243011379975","1.01664795926707","-0.829252672771356"
"2721","-1.16954506578155","0.98723573411725","-31.2202629392717","1.09664558020791","-2.42238835324986","2.47606242141263"
"2730","-2.77487843797319","2.73178804116772","-29.3190246160063","1.03428537338787","-1.40740282668744","1.42277624213996"
"2730","-2.21005576238955","2.19380058181709","-29.8219663128358","1.01216286172443","0.596889352636845","1.1210922711161"
"2742","-2.05694238108944","-1.41901232976098","-26.4763334889739","1.00431481972367","0.17096203644264","1.03468344874308"
"2742","-2.01543606672461","-0.375799274711387","-27.601653784641","2.64677703720022","0.0489672294797948","2.72351243545288"
"2750","-0.275266656937312","-0.0995235149911578","-24.4187351489385","2.22944652172821","0.0140252749254737","2.20722962942825"
"2750","-0.803537680949862","-0.0263569695385979","-25.5865953183703","-1.2090956846521","0.00401714246088375","0.345776708847606"
"2758","-4.40457813202958","5.19852510769802","-32.8461628321864","-0.428931120500073","0.00115059659342044","0.812616281980039"
"2762","-3.38075614948183","3.5822388738841","-30.744098649076","-3.44265756348258","3.42748624508225","0.946329245299209"
"2770","-1.37429843371574","-0.316141603857203","-31.9330973451814","-2.5117880520602","2.40886297330487","0.984627533594751"
"2771","-1.83038343423524","0.651444141975615","-31.2439482612007","1.10893399314474","0.403528864974371","-7.5722947305279"
"2779","-0.225102179653077","0.907691402044383","-31.0637776481202","0.393398393756617","0.829157750137861","-5.02318257011352"
"2782","-0.789938983393668","0.975553768326179","-31.0166739798829","-3.15093315783979","2.66464542464154","0.847673388495481"
"2791","-0.943056194585848","0.99352586588589","-20.5729946754039","-2.40829775118663","2.19036884274619","-0.470786329522204"
"2791","-0.98456354716629","0.998285444845376","-23.8426070904194","-3.79009146107493","-3.08620927488568","-0.84842174446825"
"2799","-2.72473323839538","0.999545931652568","-29.91309435542","-3.28028783825651","-1.5975355139179","-0.956584705135631"
"2799","-2.19646229067669","0.999879748362959","-28.5001579352118","-1.45418679761808","0.54243123362428","0.726013425273194"
"2811","-0.324339646481604","0.999968153569187","-26.3922001511538","-1.80637076829137","0.15536405184785","0.207945967072591"
"2811","-0.816840495593179","0.999991566059469","-26.8410972691651","1.35918335701882","-1.66907871573862","1.77313857276281"
"2820","-2.6792665022701","-0.735170655419215","-32.1741388693594","0.482175271727052","-1.19163863332086","1.22144362982515"
"2820","-2.18413706719372","-0.194696404887597","-30.5684052146627","3.46154612105148","-1.05488945458465","-0.650152093629577"
"2832","-2.04991628381701","-0.0515617561674027","-28.410042668057","2.51848883700675","-1.01572152844336","-0.186217638886221"
"2832","-2.01353141672165","-0.0136551812582342","-28.8457620032322","-1.10655686515409","-2.71808133085203","3.37381992491629"
"2840","-2.00366812640072","3.46672052048826","-25.4825546161974","-0.392555098899524","-2.20567404345809","2.39349177704643"
"2840","-2.00099436382519","2.38843391015259","-26.6032802314171","-0.139260358436759","1.36824718931166","0.399126221497328"
"2848","-2.00026955434705","2.10286956543446","-30.3734034041031","-0.04940312197269","0.391895624889726","0.827896737705253"
"2852","-2.00007307138914","2.02724310935808","-29.3590615428157","3.27296673983496","0.112247393605079","-2.47645079057881"
"2861","-3.72893759455665","0.272046413799705","-29.0938727770326","2.45158961115128","0.0321500842850153","-1.42288747947942"
"2861","-3.19760201685248","0.8072149029433","-29.0245420275274","2.16020306777709","3.43636516966186","4.01961090205298"
"2869","0.404269180226258","0.948944418501793","-30.7449770085748","2.05683262478019","2.41140608958068","2.57846029772758"
"2873","-0.619327601856972","0.986478869778231","-30.1947662232829","-4.5608237747297","2.1178356131985","0.452105211378344"
"2881","-0.896806483579868","4.4667560214358","-30.0509195334826","-2.90846160898679","2.03375067139142","0.84307106768571"
"2881","-0.972026073119304","3.38844331192456","-30.0133123641583","0.968212596645641","0.29608857851842","-2.47210453386699"
"2889","-2.7213345521753","-0.367464788370302","-26.5263588552969","0.343476963182608","0.79838452543994","-1.42164261743745"
"2893","-2.19554096729215","0.637852142025094","-27.6147323784163","-3.16864296809292","-4.19848207191952","-1.12076757645226"
"2902","-3.78192546450434","0.90409181124721","-27.8992759256388","-2.41458037120764","-2.62969287429503","-1.03459044915998"
"2902","-3.2119660859423","0.974600483014653","-27.9736667745028","2.78866511290124","4.67395570318538","2.41724923559364"
"2910","2.12929312278097","2.72844182767784","-29.7316762210658","1.63453549691303","2.76587881883716","1.40593087210132"
"2910","0.577213493546793","2.19291439881772","-29.191288875499","1.22510379049636","2.21936427908834","-0.597310952306003"
"2922","-5.03028104694383","5.5214266683785","-32.5271319373966","1.07985639375944","2.062830679941","-0.171082791717775"
"2922","-3.5503730808362","4.40292182563312","-31.3992522137972","-0.616916991075294","-3.12273896659656","-1.76258016105625"
"2930","-3.14919635316751","2.3715380011099","-31.1043801955276","-0.218853561050959","-1.60799840868713","-1.2184194720663"
"2930","-3.04044447770713","2.83356341702376","-31.0272890790379","-5.01337811930373","-2.88772225531659","0.651018277900905"
"2938","0.446871793852714","-0.514414506623118","-27.5300129170192","-3.71425325858455","-2.25426287785823","0.186465732819053"
"2942","-0.607778791041562","0.598935216230831","-28.6156876935376","-1.60813761918036","1.35433029493128","3.48056451316128"
"2951","0.835241979825418","0.893785380372191","-28.8995256824985","-1.86098538583805","0.387909524963976","2.42406573871114"
"2951","0.226419244947499","0.97187101466088","-28.9737320707465","4.63030129972018","-3.31605100103537","-3.0192734230934"
"2959","0.0613782301666769","4.46288740011162","-25.5160110134501","2.93310901532694","-2.3769455062407","-1.57836363644534"
"2963","0.0166385465125419","3.38741877883399","-26.6120270465034","2.33102383919935","3.03276967807803","-1.16565587014454"
"2971","-5.18224294458517","8.30810599214162","-35.5913724434118","2.11743191879877","1.58222925613905","-1.04744742854513"
"2971","-3.59156724846165","6.61125935244688","-32.9389256838192","-1.24883327511477","1.16676306733616","0.699988373624695"
"2979","0.297472213082487","-0.778792908411492","-27.0297897390112","-0.443028176191767","1.04776455379756","0.200491828698876"
"2979","-0.648278360137141","1.26408788870067","-28.484909725818","3.1333268108316","1.01368080256572","3.48458189076127"
"2992","0.824263266977152","1.80510723418154","-27.1267744304102","2.40205183513052","1.00391847811738","2.42521640265349"
"2992","0.223443111163946","1.94838624125739","-27.771704570335","-4.43835599604738","1.00112233698883","2.1217911859297"
"3000","-5.12618190537608","3.72149946866314","-26.2017538567289","-2.86501571615783","1.0003214616182","2.03488363308094"
"3000","-3.57637009784507","3.19107584292374","-26.791307134602","4.27411786439179","-0.713486271081846","-1.41716526136968"
"3012","0.301591890315039","-2.15490234850759","-26.9454394957807","2.8067516376948","-0.204357918832289","-0.405906820065081"
"3012","-0.647161588912811","-0.570686189724247","-26.9857357432177","2.28619809690353","-0.0585325333956898","1.59731784133004"
"3020","0.824566003792949","-0.151135724255688","-28.7348315230798","2.10152982261709","-0.0167649851069839","1.17108476488344"
"3020","0.22352517773017","-0.0400255123701672","-28.192113795261","-1.2544746019511","-0.00480185478624933","-0.664575963087694"
"3028","-5.12615965858963","3.45973682408343","-29.7887868442539","-0.445029457539246","-0.00137535519662467","-0.190348947452958"
"3033","-3.57636406713695","2.38658440681235","-29.2062198334476","1.48737050983995","3.42676275778921","1.65905828402718"
"3041","0.301593525132748","0.367211336700627","-30.7924747161633","1.17289647257693","2.40865575087677","1.18876856468276"
"3041","-0.647161145742807","0.832417579660109","-30.2071839878785","4.35182833481644","-6.45084386661916","-2.37308928452697"
"3049","0.824566123928455","0.955618883150425","-26.5770445053493","3.47956605067481","-3.98839641262917","-1.39328250581665"
"3053","0.223525210296769","0.988246478784465","-27.6279835962683","-0.120364866097498","1.85763689730539","2.31451206296538"
"3061","-3.39724186355869","0.996887296427617","-29.6413010735079","0.602546462216191","0.532067435164219","1.37650472105122"
"3061","-2.37876741758373","0.999175657800598","-29.1676612655649","-0.786244436670774","0.152395635537212","-2.31931758385099"
"3070","-0.373759323870158","2.73495010999983","-32.5209547530015","-0.27892309226559","0.0436494101985827","-1.37788112629809"
"3070","-0.830237291144816","2.19463799749613","-31.3976372554007","4.8367900292327","0.0125021363241003","0.605345006931091"
"3082","0.774937437139405","2.05154628804574","-27.6268364629537","3.65160798716177","0.00358088258135191","0.173383918942659"
"3082","0.210071756014142","2.01365108481116","-28.6410011678455","-1.70457869840881","0.00102564231656242","0.049660909074512"
"3090","-3.40088885572884","2.00361523833406","-27.1675828584563","-0.604705533540485","0.000293766170106139","0.0142239597832747"
"3090","-2.37975605229492","2.00095742927341","-27.7823734947679","1.43072483732151","8.41409927274356E-05","3.43123073940807"
"3102","-2.10294511135902","0.265085135660016","-29.6816646513066","1.15280121287728","2.40998024197287E-05","2.40993547756812"
"3102","-2.02790658868681","0.805371336667593","-29.1782138886869","-3.88153222766438","-1.71357144194536","0.403836053420819"
"3110","-0.278647193638033","0.948456183935565","-25.5694705846206","-2.66748044585181","-1.204382313612","0.829245735561197"
"3111","-0.804454084322516","0.986349569847547","-26.6260034761856","1.05370154647399","0.655038824061784","2.66467062557214"
"3118","-0.946990980279131","2.73155335688567","-37.333587190111","0.373804481100101","0.18761730430586","2.19037606083845"
"3123","-0.985630197582843","2.1937384300083","-34.1329697434554","-1.51263783097874","-3.37341903042986","-1.37262886281709"
"3131","0.732813184053791","2.05130805416829","-24.6033989515011","-1.18186014725188","-2.393376952184","-0.39315063106835"
"3131","0.198652620233136","2.01358799295743","-27.1119952017304","-4.35500823122243","-0.399093333170158","-1.8261851992029"
"3139","-1.67506659413329","-1.466738314072","-27.7678407000144","-3.48069413056609","-0.827887317776143","-1.23663733238082"
"3143","-1.18299854679824","-0.388438622455455","-27.9393044489457","1.76521101473344","2.4764534886505","2.35937863284336"
"3151","-1.04960765118775","5.10263445213524","-27.984131801233","0.626215069725061","1.42288825226558","1.38935547826551"
"3152","-1.01344775190526","3.55684400024114","-27.9958514301669","0.222152088491234","1.1211243532417","1.11151984060414"
"3160","-2.73256323255979","1.41230145352433","-26.2603546415151","0.0788092666672564","1.0346926377586","1.03194169735013"
"3163","-2.1985848628288","1.8443588664577","-26.806627679267","3.3184505540768","-2.41721996656607","-4.13158624012229"
"3172","-0.324915038039543","0.223612891132794","-32.1651271659574","2.46772516076494","-1.40592248881799","-2.6105324594157"
"3172","-0.816996474010506","0.794388176699837","-30.56604920177","-6.06030448246272","0.597313353459891","-0.461291373019685"
"3180","-2.67930878524478","2.68071591819361","-31.8865482329132","-4.08565421860043","0.171083479460246","-0.845702183309329"
"3180","-2.1841485293561","2.18027507089015","-31.2317784966451","3.19584554791636","-5.09173302056206","-0.955805763926669"
"3192","-2.04991939100536","0.31257410968033","-27.5834744750408","1.77898424687858","-3.59911763429826","-0.987341813746977"
"3192","-2.01353225902515","0.817947916602334","-28.6296646426606","1.27634751335803","7.10986980333929","-2.70995276599035"
"3200","-2.00366835473421","0.951786859447469","-28.9031798054612","1.0980352920424","4.1771557123427","-2.2033458464548"
"3201","-2.00099442572234","0.987231637899685","-28.9746874018785","-5.54620697767988","3.33716288773312","1.36891403535133"
"3209","1.45756600127917","-0.738549887330909","-28.993382293573","-3.90327624672284","3.09657075242689","0.39208662403627"
"3213","0.395120218382408","-0.195591332207722","-28.9982698718581","1.61529846199899","-5.54023176848487","0.112302099896802"
"3221","-3.35072550889027","1.68336966066351","-34.2152299552288","0.573033042828723","-3.01399904344975","0.0321657533516487"
"3221","-2.36615766118243","1.18097786569647","-32.5791480369421","-1.4419607693511","2.85030374940446","1.7227913129712"
"3229","-0.370341043189451","4.51826549747431","-23.4586082251993","-1.15678720089832","1.52996706280351","1.20702308433333"
"3233","-0.829310656050509","3.40208464775375","-26.0741412242202","7.17061086203595","1.15179404340881","-7.50859582874303"
"3241","-2.68264694097329","-0.36385213187452","-28.4965049444244","5.12478581057387","1.04347710118532","-5.00493782522036"
"3242","-2.18505344400098","0.638808887546202","-28.1298058755556","4.39902188402141","-5.84186059531136","0.852899078529207"
"3250","-0.321246911067879","0.904345187673457","-31.5110578685901","4.14155447413295","-3.81397041598114","-0.469289578732401"
"3250","-0.816002110030537","0.974667585093483","-30.3950498214573","-2.53076838851419","1.90759628000128","0.865585302021272"
"3262","-0.950121444653049","0.993291176581841","-23.1490384871114","-0.897799350697296","0.546376884256206","0.247922375050989"
"3262","-0.986478810795538","0.998223291706609","-25.254646787486","1.32674873270007","-4.98424086231871","0.0710103370602438"
"3270","-2.7252524323","4.46986631522961","-34.4979392199384","1.11591530911745","-3.56832955239712","0.0203388982877095"
"3270","-2.19660303490975","3.38926701593849","-31.9144985728405","-0.604124958844215","1.97795314277045","3.43298219021687"
"3282","-0.32437779973988","1.36792177630908","-26.0234035336703","-0.214315540786724","0.566528613355739","2.41043713100804"
"3283","-0.816850838262896","1.8326057265028","-27.4832401211443","1.56921711642683","0.162266063240116","2.11755808248015"
"3291","0.778566266421529","1.9556687103757","-33.0805809683872","1.20193185589529","0.0464765144402543","2.03367118058366"
"3291","0.211055467089432","1.98825967460717","-31.5439455080934","2.7168824042369","-1.70026646444982","-4.84466922332231"
"3303","-3.40062218915281","0.261722369252734","-24.1879656623335","2.2543166573327","-1.20057147993334","-2.81477486786529"
"3303","-2.37968376372914","0.804480769932988","-26.2648238786094","0.444973426107652","0.656130329352287","2.90736586756097"
"3311","-0.374007729011861","2.68338875558722","-28.546356872757","0.803102291018877","0.187929935057988","1.54631088914364"
"3311","-0.830304629360548","2.18098292263525","-28.1428391258344","2.57539615602469","1.76740554773966","2.87005361385455"
"3319","-2.68291638945863","0.312761571175085","-31.5144652716437","2.20412389281343","1.21980156730786","2.24920219632289"
"3323","-2.18512648669289","0.817997562325833","-30.3959406503235","2.07241369825126","1.0629559287567","-1.35577978371383"
"3332","-0.321266711642503","2.68696842904821","-28.3649536633496","2.02568902455342","1.01803194132855","-0.388324689940483"
"3332","-0.816007477614141","2.1819309332072","-28.8339739680884","2.00911327550509","-2.42199195081684","-0.111224600505772"
"3340","-2.67904068591221","0.313012634310962","-27.2180335207815","2.00323296784816","-1.40728928844639","-0.0318571341924319"
"3344","-2.18407585239551","0.818064051772324","-27.7955632776069","0.355900568072527","-1.11665647220287","-1.72270291776074"
"3352","-0.320981903371278","0.951817615707817","-29.6851129781139","0.771503368544727","-1.03341293987556","-1.20699776603083"
"3352","-0.815930271157469","0.987239783128652","-29.1791154166283","-4.01679903383191","0.704008155101416","-2.77286698745083"
"3360","-2.67901975661502","2.7317891134738","-29.0468277984782","-2.71546684053702","0.201643181163581","-2.22136584191052"
"3360","-2.18407017883529","2.1938008657976","-29.0122426240666","2.68192453639352","-5.08298006021321","3.07733106307417"
"3373","-2.04989815157273","3.78649301098233","-35.957443740492","1.5966688866311","-3.59661059690593","1.59499260179431"
"3373","-2.01352650139273","3.20828818530599","-33.7731918452213","-0.433575867233914","1.96985283918723","-2.25673792337479"
"3381","-0.274749007739755","1.3199928669801","-27.9864604101294","-0.153812626176021","0.564208510994601","-1.3599569563533"
"3381","-0.803397355459417","1.81991263780598","-29.4735817389855","3.23592708598682","0.161601535681259","2.3240572220081"
"3393","-2.67562230608226","1.95230717966446","-26.385252090598","2.43844965835045","0.0462861793568212","1.37923866130481"
"3393","-2.1831491904236","1.9873694351239","-27.5778415330295","-2.78019739590443","0.0132573641111771","-0.604956179507272"
"3401","-2.04964848799521","3.73182344941631","-29.6281919705796","-1.631531543309","0.00379719617429225","-0.173272550348284"
"3402","-2.01345882203743","3.19380995903944","-29.1642340316522","2.06645455125613","0.00108759921392696","-3.47678569999868"
"3409","-2.00364844727301","3.05132699731449","-29.0429372204931","1.37832865623395","0.000311511967209599","-2.42298340478985"
"3414","-2.00098902916369","3.01359300970073","-29.0112254743132","4.42470615403397","-6.85422415482934","-2.12115160698521"
"3422","-2.0002681082152","-2.20190540732539","-25.5258132604009","3.50541972384012","-4.81751160716428","-2.03470044382094"
"3422","-2.00007267936851","-0.583134083969055","-26.6145897385011","-3.40168585910889","4.33373869546202","-2.00993895856055"
"3430","-0.271101915881396","3.31590452395763","-30.3763601530451","-1.85200685083346","1.95485495565637","-2.00284673296336"
"3434","-0.802408693724532","2.34849307178043","-29.3598345530133","-2.94749888854611","2.98706948166828","3.13991966798428"
"3442","0.782481274934969","0.35712354833011","-30.8326356317702","-2.33612869940363","2.28271807488424","1.61291933361866"
"3442","0.212116756264291","0.829746014745856","-30.217683627151","-3.76448922575174","-3.05975845494646","-0.538024974519991"
"3451","-3.40033449253381","-0.780257053447393","-30.0569110421432","-3.27120535154857","-1.58995942628556","-0.154102003821301"
"3451","-2.37960577429276","-0.206636706830705","-30.0148787796318","-3.09621109131559","-1.16897715546566","-0.0441381510271471"
"3463","-3.83182215986823","1.6804444966708","-28.2653291373072","-3.0341312368627","-1.0483987165847","-0.0126421222812546"
"3463","-3.22549219258272","1.18020318989992","-28.8079282076685","3.56887717520078","0.69971590412969","-0.00362097759092568"
"3471","-1.33220913655661","2.78289191701512","-30.6883456560375","1.91131858228655","0.200413787535085","-0.00103712639557579"
"3471","-1.81897377438417","2.20733450190757","-30.1799605654893","-1.96719907490848","-3.36975384052069","-0.000297055459027311"
"3483","-0.222009223801975","0.319740301500638","-28.3084879940158","-1.34311741263596","-2.39232716242305","-8.50831163051598E-05"
"3483","-0.789100538074374","0.819845750491465","-28.8192116263856","3.81401685907278","1.31478569400161","-2.43696470144041E-05"
"3491","-2.67174669317526","0.952289465791403","-23.7370525463019","2.64352912167741","0.376583094905568","-6.97999463814469E-06"
"3492","-2.18209858069695","0.98736474393094","-25.4083767365013","-1.06219836640809","-1.60571679123123","-1.71358034387228"
"3500","1.40847188602076","2.73182220704028","-27.5838872228904","-0.37681875907767","-1.17349040601734","-1.20438486331665"
"3504","0.381811676933741","2.19380963001903","-27.1526510320675","-5.06941685159737","2.37746528002261","0.655038093771159"
"3512","-3.35433321776859","2.05132691017949","-30.5170304889568","-3.73413320401751","1.39453588569032","0.18761709513481"
"3512","-2.3671356468919","2.01359298662463","-29.3966112987895","8.25628793204188","-0.600574723176525","-3.37341909034098"
"3520","-0.370606157720636","2.00359985209964","-30.8422505162526","5.50993372570589","-0.172017606373191","-2.39337696934384"
"3524","-0.829382523884533","2.00095335451267","-30.2201973352472","-2.04533083952888","3.37788712173468","3.02806335121622"
"3532","0.775169149340604","0.265084056534697","-31.7961289836173","-0.725588603059907","2.39465671029178","1.58088126220867"
"3532","0.210134569070607","0.805371050881132","-31.2081393567861","-1.90265155234478","0.399459883605835","-0.54720137196744"
"3541","-5.12978961442916","0.948456108250286","-31.0544157953483","-1.32021894270492","0.827992305758699","-0.156730322768343"
"3544","-3.57734808360191","0.986349549803695","-31.0142264242049","-1.11359884221181","-0.762845073168078","3.38226573081058"
"3553","-3.15650879663442","0.996384929731992","-31.0037193455386","-1.04029960514783","-0.218495348631888","2.39591083875143"
"3553","-3.04242675107041","0.999042615235784","-31.0009723828726","-1.01429643245873","-0.0625817994412761","2.11339743780593"
"3561","-1.28258335140167","2.73491487612743","-22.3074504213462","-1.00507171175244","-0.0179247825907106","2.03247948184875"
"3561","-1.80552110668294","2.19462866645409","-25.034622642791","2.28869346990314","-1.71871239055207","-3.13143220699598"
"3573","-0.218362444860047","2.05154381689116","-34.4404162746662","1.45716872621684","-1.205854792622","-1.61048834099268"
"3573","-0.788111961165567","2.01365043037139","-31.8994598177194","-0.483064059836012","-2.77253961511505","-2.88843542584926"
"3582","-0.942560921355598","0.268446643172312","-32.9737148511087","-0.171368743672586","-2.22127207538419","-2.25446714534274"
"3582","-0.984429287402599","0.806261570007053","-32.2545672710998","-1.70604002828761","1.3637795751872","1.35427178830024"
"3594","-4.45361462916413","0.94869194583578","-25.1123108358478","-1.25047028477192","0.390616003456735","0.387892767397862"
"3594","-3.39404907168193","0.98641200704365","-27.2450447382357","-2.73410158957487","0.111880882316021","0.111100888536131"
"3602","0.351015877709136","4.46673831407228","-27.8026250697821","-2.26042522636894","0.0320451075148991","0.031821700405301"
"3602","-0.63376362499533","3.38843862245553","-27.9483984481577","-2.09238680244323","0.00917841274026492","0.00911442410611702"
"3610","-0.900719832690643","3.10287081340108","-27.9865093294797","-2.03277455638492","0.00262889617054613","0.00261056844002995"
"3614","-0.973086912459615","3.02724343985905","-27.9964730093459","2.92411212345978","0.000752972792909359","0.000747723333996117"
"3623","-0.992704340649432","-2.19829034236407","-29.737638665781","1.68258581976566","0.000215667713778113","0.000214164155066494"
"3623","-0.998022276512137","-0.582176700610218","-29.1928476925167","2.88739615754257","-1.71351657274708","-1.71351700339885"
"3631","-0.999463874338631","5.05132649114888","-32.5275394733337","2.31480703555047","-1.2043665978854","-1.2043667212334"
"3631","-0.999854665868843","3.54325603196123","-31.399358759683","2.11167894833635","4.08220001468754","4.082199979358"
"3643","-2.7288783887047","1.40870293044084","-27.6272865317257","2.03961851576698","2.59638717497522","2.59638716485608"
"3643","-2.19758596719907","1.84340586391048","-28.6411188334834","0.368808474400323","2.17081820188552","-1.25633849031415"
"3651","-2.0535620414036","1.95852892780966","-28.90617438041","0.776082495568975","2.04892603214785","-0.359842550074867"
"3651","-2.01451971675919","1.98901715050407","-28.9754703012786","0.920564445565104","2.01401347511746","-0.10306669885757"
"3663","1.45389953544265","0.261922972789925","-28.9935869741975","0.971819946259168","2.00401376274034","-0.029520534498177"
"3663","0.394126304706632","0.804533896084325","-28.9983233834051","2.63524936187844","-6.56674209468504","1.7051230242929"
"3671","-1.6220771550071","0.948234403224287","-30.7381224261696","2.22535703670622","-4.02159217496386","1.2019625038429"
"3671","-1.16863405233204","0.986290835311775","-30.1929741664652","-4.50103912264913","3.56170725675757","-0.655731909981481"
"3683","-4.50354926463321","2.73153780212587","-31.789011779048","-2.88725278479601","1.73372843300091","-0.187815819122279"
"3683","-3.40758546321005","2.19373431061672","-31.2062786402293","0.975736504670556","2.92373405700766","-1.76737286246446"
"3692","0.347346402726867","2.05130696322331","-31.0539293310249","0.346146097098668","2.26457743771069","-1.21979220553723"
"3692","-0.634758354396997","2.01358770404075","-31.0140992433418","-1.52244974395763","-3.0649543262748","-4.49010993664418"
"3700","-0.900989486138976","0.268430031259174","-29.2651253359316","-1.1853409593015","-1.59144763635241","-3.42679975470612"
"3704","-0.973160010713347","0.806257170647881","-29.8078749259917","-1.0657503838256","-1.16940341105651","-3.12224469224562"
"3712","-4.45055972869132","4.41902762443742","-24.7340886879616","-1.02332518936724","-1.04852080541663","-3.03501352711066"
"3712","-3.39322094249883","3.37580332522469","-26.407601867628","-2.6535210354262","2.41325927989501","3.84428474620799"
"3721","-1.37767741740132","1.36435616584955","-32.0608061608381","-2.23183897978793","1.40478806238534","1.81466474529377"
"3724","-1.83129941661311","1.83166144025772","-30.5387755974275","-3.72749206592458","-0.597638277756601","2.94691596955245"
"3733","-1.95426827238659","0.220250211713751","-26.6637355638931","-3.25808047365725","-0.171176544815173","2.27121723947594"
"3733","-1.98760294203778","0.793497633002464","-27.6506480407688","5.13467670270091","-0.0490286693229421","-3.06305254326201"
"3741","-0.26772159188031","0.945311652255389","-33.124347967741","3.11203803599866","-0.0140428726270524","-1.59090292451377"
"3741","-0.801492348010965","0.985516798560129","-31.5553879191617","2.39449956432261","-0.00402218282370025","-1.16924739379"
"3749","-0.946188106243112","0.996164390905949","-31.145200195747","2.13995016466408","-0.0011520402624819","-1.04847611869289"
"3753","-0.985412552711759","0.998984209590438","-31.0379610288909","-2.88609118406433","-0.000329969279009152","0.699693734489733"
"3762","-2.72496338869817","0.999730986622762","-25.7942422239443","-1.66909775232454","-9.45103471082289E-05","0.200407437670109"
"3762","-2.19652468033028","0.999928756762761","-27.4233283623864","5.34362047929632","-1.71360541446073","-1.65617731460887"
"3774","1.4045612269957","2.73514955438648","-29.5877961646054","3.83140794477381","-1.20439204407609","-1.18794339265296"
"3774","0.380751566827821","2.1946908166678","-29.1536729828205","0.00445233388959565","4.08219272634748","0.659747287015032"
"3782","-1.62570280856025","3.78672869807577","-30.7787369074467","0.646825820854007","2.5963850874368","0.18896591005908"
"3782","-1.16961690252369","3.20835060269089","-30.2035923856021","0.874710167015133","-1.25633908533202","0.0541239287637159"
"3790","-1.04598012543356","1.32000939707465","-31.7917877981942","0.955552973075965","-0.35984272050087","0.0155022652705132"
"3794","-1.01246439419321","1.819917015497","-31.2070044005664","-0.661014084624259","1.61051159697939","-1.70913816017022"
"3803","-1.00337887557154","1.95230833901529","-31.0541190732562","-0.234497166422189","1.17486374221681","-1.20311252570734"
"3803","-1.00091595307008","1.98736974215661","-31.0141488494066","-0.0831887282572702","1.05008476250632","-1.05817582583528"
"3811","-4.45808387099141","0.261486687037401","-25.7880167858262","-0.0295115058942866","1.01434536058484","-1.01666281633706"
"3815","-3.39526060365046","0.804418353839958","-27.4217007885732","4.92526970256701","1.00410882192529","2.42238409786328"
"3823","-1.3782303332617","2.6833722258348","-29.5873706529439","3.68299647519172","1.00117685557738","1.40740160785258"
"3823","-1.83144930226858","2.18097854503483","-29.1535617373749","3.24229549995117","1.00033707692258","1.11668864291312"
"3831","-1.95430890372189","0.312760411848257","-29.0401470639832","3.08595521562554","1.00009654613015","1.03342215426364"
"3835","-1.98761395647011","0.81799725529948","-29.0104960179145","-3.55049242901263","-5.85428572570023","-0.704005515901128"
"3844","-1.99664236389973","2.68696834773793","-27.2641833114127","-1.90479652627171","-3.81752924239505","-0.201642425239466"
"3844","-1.99908980457281","2.18193091167367","-27.807628643817","0.324266459049136","-3.23415807890328","-0.057754757225743"
"3848","-1.99975326220861","2.04818105045364","-27.949706578753","0.115034713452441","-3.0670679445729","-0.0165422131688964"
"3852","-1.99993311377328","2.01275986362878","-27.986851326149","0.0408089857270127","-3.01920971170545","-0.00473804807897694"
"3864","-0.27106408213087","0.268210792976413","-27.9965624206953","0.0144771370839816","-3.00550207742546","-0.00135707957390533"
"3864","-0.802398437667683","0.806199109427465","-27.9991012818776","-3.28535686083452","0.425580775177264","1.71318964767266"
"3872","0.782484055169564","0.948675404301915","-31.4768865588941","-2.45598505193478","-0.591682794539536","1.20427295946442"
"3872","0.21211750993644","0.986407626323131","-30.3861161002048","1.12873031172803","0.830529234546264","1.05850819919291"
"3880","-1.67141650202398","4.46673715391916","-35.3166281785835","0.400421210246242","0.23788155817476","1.01675801526434"
"3884","-1.18200907174869","3.38843831521035","-33.6056575114401","3.43254356844831","3.49529111897082","-2.42235683082894"
"3893","-2.77825720830354","1.36770231018742","-24.4655388420771","2.50820007529554","2.42828375752479","-1.40739379798346"
"3893","-2.21097168693062","1.83254760494345","-27.0759531594327","3.82553217628427","-4.73164363581316","-1.11668640599748"
"3901","-2.0571906719417","1.95565331795141","-27.7584178958514","3.29286056172168","-2.78240189199409","-1.03342151356256"
"3901","-2.01550337395851","1.98825559820715","-27.9368409581823","-0.186599321812409","2.91663818889858","-2.72315098988953"
"3913","-2.004202688934","1.99688971153872","-31.4606092671563","0.579049546574081","1.54896668277009","-2.20712610359167"
"3913","-2.00113927422013","1.99917629739828","-30.3818605774161","-2.43982639262166","1.15723594601064","3.0814096324952"
"3922","-0.271391050774997","1.99978185754006","-28.3612725797831","-1.51078368383267","1.04503577993679","1.59616079239933"
"3925","-0.802487073051575","1.99994222898807","-28.8330115883967","0.464043957343181","-2.41425746666188","-2.25640332828793"
"3934","-4.40429333091468","0.264816278566305","-27.2177819169659","0.164621292682697","-1.40507396469146","-1.35986112107465"
"3934","-3.38067894496511","0.805300134819168","-27.7954974984965","1.70364634534725","0.597556389144815","-1.10307201799407"
"3942","2.083558067461","0.948437327437679","-31.4236565404119","1.24962111698581","0.171153090143431","-1.02952205801406"
"3942","0.564815533502514","0.986344576051453","-30.372199684603","-2.20193867312743","-3.37813473790429","0.705122587924956"
"3950","0.153111445208954","0.996383612525337","-30.0973076028426","-1.42639214446065","-2.39472763292497","0.201962378857675"
"3950","0.0415057895249445","0.999042266397867","-30.0254400257783","-1.15126417422336","1.31409814726683","0.0578463988707055"
"3962","-1.71766630489289","0.999746361898695","-28.2680902614781","-1.05366151956767","0.376386166631663","0.0165684613205455"
"3963","-1.19454657069808","0.999932828621351","-28.8086500738746","-2.66428295962286","8.67569687215054","0.00474556611802213"
"3971","-2.78165590127422","2.73515063274322","-34.1656558992675","-2.23565681179494","6.05279918268374","0.00135923290309363"
"3975","-2.21189301214513","2.19469110225071","-32.566187433405","2.85213890062287","1.87438779535338","-1.71318903091255"
"3983","-0.328522640617757","2.05156035186171","-26.9323413339321","1.65705305547801","2.6776002890637","-1.20427278281096"
"3983","-0.817974430903909","2.01365480935374","-28.45943288881","-0.4121543622755","-3.94665563749317","-1.05850814859553"
"3991","-2.67957389196444","-1.46672061898032","-27.1201137854934","-0.14621326887019","-1.84398598543525","-1.01675800077216"
"3995","-2.18422039507255","-0.388433936236399","-27.769963216387","3.2386229858115","2.18542082626132","2.42235683497982"
"3999","-2.04993887252288","-0.102869572342276","-27.9398593580141","2.43940603868266","1.33953019534335","1.40739379917236"
"3999","-2.01353754011804","-0.0272431111874902","-27.9842768762383","-2.77985811648037","2.81082714524199","-4.02404862761398"
"4011","-2.00366978634457","-0.00721483612962333","-31.4730108775435","-1.63141118269125","2.23223845314239","-2.57973135842875"
"4015","-2.00099481380645","-0.00191071643833473","-30.3851028450162","-6.15973444590987","-1.36063856711651","1.26110907396224"
"4024","-2.00026967632897","1.73466240379566","-35.3163632739166","-4.76617370124291","-0.389716350725663","0.361208948540336"
"4024","-2.00007310445627","1.19456180380803","-33.6055882549652","2.30918243103288","-5.25235823624353","0.103458064967917"
"4032","-2.00001981731784","1.05152610955108","-22.7269599761782","0.819190921078353","-3.64512417446459","0.0296326302273501"
"4032","-2.00000537212239","1.01364574090858","-25.8828596617113","1.93585731732988","5.38311418929729","-3.41866926229925"
"4044","-3.72891924248955","-0.731554598745527","-28.4464964380078","1.33199880939613","2.96899716633436","-2.40633759850098"
"4044","-3.1975970419335","-0.193738758892008","-28.1167316896214","4.40827047125965","0.563963427759644","3.02435114635866"
"4048","-3.05356504356713","-0.0513081412670775","-28.0305182442724","3.49958910520665","0.875109683186066","1.57981800634838"
"4053","-3.01452053059232","-0.0135880160239375","-28.0079786666028","-1.75850795330722","-0.749349635929612","2.87965077783032"
"4065","-1.27501847137576","3.46673830796326","-33.2177682151526","-0.623837134144922","-0.214629963158383","2.25195103191549"
"4065","-1.8034704022584","2.38843862083767","-31.5798116376887","-0.221308507138812","-0.0614746693353916","-3.06857080232378"
"4073","-0.217806535364801","-1.36746603071825","-29.4130247546293","-0.0785100030942237","-0.0176076765530961","-1.59248347340888"
"4073","-0.787961263988925","-0.362148186987873","-29.8465416376807","-0.0278517110143845","-1.71862156451586","2.25745659208043"
"4081","0.786397716171378","1.63926014595962","-29.9598799623128","-0.00988049644448245","-1.20582877807836","1.36016279863361"
"4085","0.213178433824863","1.1692962733058","-29.9895110478198","-3.29399782049943","2.36820286996559","2.81673676963055"
"4093","-1.67112890442764","1.04483499923526","-28.2586970167701","-2.45905046400953","1.39188293086926","2.23393109754225"
"4094","-1.18193110915559","1.01187372360403","-28.8061943111127","4.41813552378668","-2.3149129315386","0.353424587545078"
"4102","-1.04931828782849","1.00314453696063","-28.9493315879002","2.85784242959836","-1.37661953849154","0.81480680005648"
"4102","-1.01336931064524","1.00083277268585","-28.9867532888252","-2.63141627495223","0.605706352999012","-2.48020003218859"
"4114","-2.73254196852937","1.00022054450464","-28.9965367898919","-1.57875089597947","0.173487416281588","-1.4239613434676"
"4114","-2.19857909852836","1.00005840714922","-28.9990945809798","0.439932340013423","1.76326889760431","2.30572497950121"
"4122","-0.324913475440218","6.2055207335938","-30.7383240474777","0.156067608164918","1.21861674112849","1.37398791005972"
"4122","-0.816996050417621","4.58409153653026","-30.1930268781869","1.70061189445045","2.77619491353176","1.10711823627994"
"4134","-2.67930867041628","-1.05081938213027","-30.0504648004218","1.24854463442137","2.2223190320075","1.0306809825534"
"4135","-2.18414849822813","0.456878266520469","-30.0131934790923","-2.20232055925806","0.35009864051259","-0.704790646839972"
"4143","-2.04991938256713","0.856164214192572","-28.2648885336142","-1.42652761996353","0.813854176801831","-0.201867303742636"
"4143","-2.01353225673769","0.961907741849517","-28.8078130165737","2.13918044356034","-2.48047288411811","-1.77139751194954"
"4151","-2.00366835411413","0.989911967158536","-28.9497547810265","1.40412843277056","-1.42403949416892","-1.22094495230495"
"4151","-2.00099442555425","0.99732837034212","-28.9868639281147","4.43385871921056","-1.12145409385336","4.07745161497172"
"4163","-2.0002695710807","0.999292468101459","-32.4736872344211","3.50866662984307","-1.03478708261043","2.59502713046836"
"4163","-2.00007307592533","0.999812623210715","-31.3852796712446","-1.75528766821061","2.41719291551527","5.59758534498784"
"4171","1.45781576282182","0.999950376709184","-32.8392879841541","-0.622694726217779","1.40591474081124","4.45758303907326"
"4175","0.395187924294312","0.99998685818558","-32.2194228131055","3.06958944446989","-4.02447226195813","-2.7232516870915"
"4184","-3.35070715502178","0.999996519632547","-28.5802442145208","2.37944077107804","-2.57985269647887","-0.779998256149626"
"4184","-2.36615268577513","0.999999078288795","-29.6288201258038","-1.15588467558237","-0.452504024533593","-0.223408391695973"
"4192","-0.370339694445025","2.7351681777472","-28.1643982560769","-0.410054320232785","-0.843185296409811","-0.0639890013684939"
"4196","-0.829310290429885","2.19469574872181","-28.7815409147406","3.1450244069468","-4.38224156231591","3.40882885360521"
"4200","-0.953729055657318","2.05156158239398","-28.9428862226779","2.40620160017604","-3.39590391637118","2.40351909235351"
"4200","-0.987456769973095","2.01365513523754","-28.985068217437","-1.14639117349133","2.02733957886567","2.11557660639696"
"4212","-0.996599753436138","0.268447889169439","-27.2575354865693","-0.406686465611294","0.580673958133934","2.03310364292388"
"4212","-0.999078253634012","0.806261899986438","-27.8058906415392","-0.144273512511178","-1.54726074834369","0.295903255553688"
"4224","-2.72866791715727","2.68386045507018","-26.2106914372189","-0.0511815567332102","-1.15674732944832","0.798331444929607"
"4225","-2.19752891210605","2.18110784355373","-26.7936437688569","-0.0181568446213012","-2.75847417422284","-0.771340586025833"
"4233","-0.324628788579957","5.51829991971537","-30.4231719027429","-0.00644120709966915","-2.21724342852063","-0.220928647487648"
"4233","-0.816918876873303","4.40209376385017","-29.372072981299","-1.64753138090633","4.792090156192","3.36387794037382"
"4245","0.778547822364396","-1.09901813948975","-27.3587137180883","-1.22971412791952","2.79971508442111","2.39064417737632"
"4245","0.211050467233593","0.444113713543868","-27.8323426015387","2.20900075037605","0.515477373637067","0.398310607286043"
"4249","0.0572120278806331","0.852783757483341","-27.9561677770886","1.4288974422181","0.86122222730292","0.82766312813273"
"4253","0.0155091631737138","0.961012490164328","-27.9885405369343","-0.493093401332706","0.960251040618408","0.95063898788205"
"4261","0.00420425828727361","-0.745493545603532","-29.7355648062187","-0.174926689284882","0.988615037255511","0.985861937199458"
"4266","0.0011396996438897","-0.197430232186226","-29.1923055042479","1.58319045569548","-4.14399593382735","-4.14478448130275"
"4274","-5.18644440630563","10.3587247711073","-32.5273977240445","1.20688894915574","-2.61408686442908","-2.61431272150231"
"4274","-3.59270619000601","7.15432795987375","-31.3993217008565","1.07339461211127","-0.4623094315874","1.25120422270648"
"4282","-1.43175431991546","-2.37013961390587","-25.8887160835556","1.02603700733628","-0.845993777329537","0.358371984647671"
"4286","-1.84595870306194","0.10748060744809","-27.4480275364866","-0.636009615435915","0.757689061882035","0.102645497073613"
"4294","-0.229324358007108","-0.971535741108511","-29.5942534979222","-0.225626739438941","0.217018555344339","0.02939989318598"
"4294","-0.791083540848926","-0.257293343551333","-29.1553611831383","6.50094344461734","-1.65141953078741","1.72199911072408"
"4302","-0.943366463754638","-0.0681394022213644","-29.0406175097168","4.88721884266396","-1.18658066033502","1.20679618045434"
"4303","-0.984647655619439","-0.0180454654247927","-29.0106190108898","4.31474413244815","-4.48059743089065","-4.08150412962633"
"4315","-0.995838252498339","5.20072625644932","-32.4798977452189","4.11165663323052","-3.42407516706168","-2.59618785842406"
"4315","-0.998871824273984","3.58282180758166","-31.3869033424704","-0.896128417919967","2.01927072260963","6.39713060994431"
"4323","0.729223614576079","1.41918119723931","-27.62403019691","0.327341502219934","0.578362862968305","3.97301177273816"
"4323","0.197679551792539","1.84618083984304","-28.6402674997825","-2.52912074283247","-1.5479226960467","-1.86204339132993"
"4335","-1.67533037568034","1.95926382906522","-27.1673910488352","-1.54246118146701","-1.15693692560517","-0.533329550477013"
"4335","-1.18307005328398","1.98921177556337","-27.7823233482062","0.452806249089477","-1.04495013401727","-0.152757132694345"
"4343","-2.77854482152693","3.7323113593424","-29.6816515410276","0.160634674539649","-1.0128746917934","-0.0437529508127327"
"4344","-2.21104965375993","3.19393917299516","-29.1782104611455","0.0569857388592713","-2.71726593518624","3.41462489670312"
"4351","-2.05721180736239","3.0513612172503","-29.0465912076041","0.0202158994790101","-2.20544049648173","2.40517920461209"
"4351","-2.01550910339514","3.01360207222034","-29.0121807699282","1.65241800345558","1.36831408222324","0.402473753847462"
"4364","-0.275286455879647","1.26843383640685","-30.741745290777","1.23144767515827","0.39191478446819","0.828855543462314"
"4364","-0.803543048090981","1.80625817837114","-30.1939213254365","-5.49887844636109","0.112252881323258","0.950980521454613"
"4372","-2.67566180076336","3.68385946946892","-31.7892594035701","-3.88648627697282","0.0321516560863403","0.985959759810669"
"4376","-2.18315989672919","3.1811075825354","-31.2063433789963","1.62125476523409","-1.70436941409219","-0.717599773487192"
"4384","-2.04965139028423","-0.42237383679226","-27.5768247372016","0.575146063206763","-1.20174665356173","-0.205536115000512"
"4385","-2.01345960879636","0.623310492076541","-28.6279261402507","5.13977418879217","-2.771362955125","-0.0588699942925185"
"4393","-2.00364866054936","0.900240723142363","-27.1641645331729","3.75909272695804","-2.22093505448206","-0.0168616412156692"
"4396","-2.00098908697912","0.973580593274234","-27.7814798104021","1.62404458473834","3.07745444992254","-1.71840788383956"
"4401","-2.00026812388794","0.993003306822908","-27.9428702476061","1.86662844010344","1.59502794245966","-1.20576757530534"
"4401","-2.00007268361711","0.998147054704047","-27.9850640409264","-2.98305306645376","-3.97030614569358","-1.05893628953618"
"4413","-5.45785527564127","4.46984612526391","-31.4732166732816","-1.70349533506925","-2.56433834779453","-1.0168806296091"
"4413","-4.39519863551688","3.38926166899801","-30.3851566480977","2.04092513267745","-0.448060379101757","-1.00483497787598"
"4425","-0.649295748600145","1.36792036027039","-31.839255821076","1.3692720015327","-0.841912540129439","-1.00138484236681"
"4425","-1.63384810134513","1.83260535149104","-31.2194144044148","-0.514245744698203","4.18601470589808","2.42676004045822"
"4434","1.55709283967888","1.95566861106074","-27.5802420161591","-0.182430560530255","2.62612195068133","1.40865497257433"
"4434","0.422100174068046","1.98825964830543","-28.6288195510658","1.58052842990031","2.1793348855647","-0.596530710939183"
"4446","-1.61449393657213","0.261722362287204","-27.1643981058178","1.20594458575951","2.05136539478533","-0.170859313693918"
"4446","-1.16657837669098","0.804480768088295","-27.781540875457","4.36355227395356","0.301133816751423","-0.0489378074600639"
"4450","-1.04515643512415","0.948220333253255","-27.9428862124076","3.48372516100379","0.799829590926269","-0.0140168478218787"
"4454","-1.01224110640065","0.986287109139142","-27.985068214752","-5.0546284238037","-2.48448982922018","1.70956361589474"
"4462","-2.73223613242513","0.996368393472258","-29.7346570049447","-3.0836406160117","-1.4251900342345","1.20323438544023"
"4466","-2.19849619180016","0.999038235912021","-29.1920681693723","2.55131354169914","4.0189514005085","-0.655367615548965"
"4474","1.40402678530192","4.47008213818964","-36.0044571944723","1.55033415811041","2.57827140220351","-0.187711477307883"
"4475","0.380606689190325","3.3893241726736","-33.7854830069213","6.13097207462552","-2.97510558169167","1.65981371259207"
"4483","-1.62574208231095","-2.10239993047343","-27.9896738021087","4.75597014473382","-1.56571301019785","1.18898493578281"
"4486","-1.16962754893897","-0.556781891499329","-29.4744218457438","-3.95804851916576","2.2651242324678","1.054129378143"
"4495","0.682934774715335","1.58771499483178","-28.1240324870095","-2.04937854127271","1.36235897688599","1.01550382609075"
"4495","0.185131470608981","1.1556454895864","-28.770987718735","1.91822179903542","-2.32336923131095","-4.13629440241883"
"4503","0.0501858488962288","1.04121984063981","-28.9401272031298","1.32574254471943","-1.37904160587046","-2.61188097905432"
"4503","0.0136044910200856","1.01091631544792","-28.984346901462","-2.17493431796654","-4.53572241350101","1.25190072640381"
"4515","0.00368793554331004","6.20839625058401","-28.9959076658073","-1.41681225060727","-3.43986415583204","0.358571478389618"
"4515","0.000999733731422165","4.58485306423279","-28.998930103257","2.1426270064064","-3.12598661964225","-1.61087570824925"
"4524","-1.7286467761696","-1.050617705547","-32.4768418060855","1.4053511135577","-3.0360852961498","-1.17496803156945"
"4524","-1.19752318116031","0.456931676848293","-31.3861044000645","-2.14669288673272","2.13039942369499","4.09062040071665"
"4536","-1.05354502122522","-0.878990062911454","-27.6238213220142","-1.40679349948822","0.610192529489994","2.59879895588036"
"4536","-1.01451510289155","-0.232784325543022","-28.6402128916884","-1.14431148317086","0.174772354378324","-1.25564770113662"
"4544","-1.00393478622534","-0.0616486403032047","-27.1673767721365","-1.05119502696374","0.0500585870503407","-0.359644693095141"
"4544","-1.00106665056078","-0.0163265067025809","-27.7823196157169","-2.66340796234205","0.0143378633674075","-1.81658837298458"
"4552","-1.00028914999537","-0.00432377453579559","-27.9430898056697","-2.2353464033063","0.0041066745598655","-1.23388859352927"
"4552","-1.00007838342086","-0.00114507203389927","-27.9851214420198","4.49749535827775","1.71475458517608","-2.78056910277664"
"4565","-6.18677460695941","1.7348651706116","-29.7346709206412","2.88599562141192","1.20472119145466","-2.22357189453183"
"4565","-4.59279570153024","1.19461550286389","-29.1920718074814","0.669063851123753","2.7722149271922","1.36312085717993"
"4573","-2.43177858489761","2.78670875260222","-34.2658973860781","0.882599189664372","2.22117907773186","0.390427332354684"
"4577","-2.84596528086702","2.20834532049966","-32.5923944915795","-5.62263372368697","2.0633504775726","-1.60175150182401"
"4585","-1.22932614113307","2.05517642002904","-28.6777536468546","-3.93038891465899","2.01814494865351","-1.17235466126138"
"4585","-1.79108402422266","2.01461245839321","-29.6543129177309","-0.0395661953150861","-3.13553792772242","0.664212237265002"
"4593","-1.94336659478866","2.00386984041699","-28.1710630722356","-0.659282591742783","-1.61166430831955","0.190244768500729"
"4597","-1.98464769114043","2.00102485594484","-28.7832833592149","2.41136342612348","-2.88877224835766","-1.65908812313513"
"4601","-1.99583826212745","2.00027141421725","-28.9433417660378","1.50068634226757","-2.25456361860315","-1.18877711124945"
"4602","-1.99887182688426","2.00007187905549","-28.9851873143471","-3.758118704443","3.06782250091995","0.659508491954528"
"4614","-0.270776386131521","-1.47031780784717","-28.9961273827137","-2.62369904668534","1.5922691436821","0.188897513982561"
"4614","-0.802320448399279","-0.389386585440927","-28.9989875458781","1.06923315810731","4.59679539784709","1.76768268329692"
"4626","0.782505196673096","1.6320465579109","-34.2154175833794","0.379314377186586","3.45735678110557","1.21988094493293"
"4626","0.21212324102202","1.1673858873987","-32.5791970903033","1.77980950304339","-0.296159802971822","-2.36417802507386"
"4634","-1.67141494842861","4.51466591241147","-25.1971818092115","1.27664027600367","0.628751763635539","-1.39073012813285"
"4634","-1.18200865059662","3.40113136396086","-27.2672333410491","2.74338548976986","-2.53349022370636","-2.82549191474533"
"4642","-4.50717488033942","1.37106383031961","-26.0698652817098","2.26371872395048","-1.439224808336","-2.23643876069885"
"4646","-3.40856830314206","1.83343784162506","-26.7568262857235","0.448308843660267","0.587774847976569","3.07301385272387"
"4651","-3.11075560010315","1.95588908073673","-26.9364248488394","0.804285542606273","0.168351444930154","1.59375605925928"
"4651","-3.03002387326641","1.98831803563766","-26.9833789607684","-0.714676759357237","3.47537618883867","1.17006459336674"
"4663","0.44969663437361","1.99690624694198","-26.9956546081276","-0.253534196737014","2.42257969027017","1.04871018234841"
"4667","-0.607013027019534","1.99918067649522","-26.9988639440494","-1.73518852356114","0.407457629753531","1.0139516510606"
"4675","-2.62238600757368","3.73495143910865","-32.2153852690112","-1.26081082017972","0.830283033449386","1.00399605499163"
"4675","-2.16871777676953","3.19463834948611","-30.5791886420595","2.19796908495509","-0.762188959150957","-0.712433787965091"
"4683","-2.04573638843364","3.05154638126381","-30.1514226386638","1.42498391852427","-0.218307423369006","-0.204056464875761"
"4684","-2.01239832142768","3.01365110949825","-30.0395878196409","-0.494481738190084","5.07820706037559","-1.77202453510511"
"4696","1.45447460798545","-0.466721598818886","-26.533228290421","-0.17541920686759","3.59524350639146","-1.22112454531511"
"4696","0.394282196644629","0.611565804271406","-27.6165283183175","3.22826207238711","-0.256666058864738","2.3638218309938"
"4700","0.106882890727281","0.897130358935997","-27.8997454548025","2.43573046671516","0.640063627198633","1.39062810643481"
"4704","0.0289740506354043","0.972756870612826","-27.9737895278508","-6.07165471730602","-2.53025026101953","1.11188434887104"
"4716","-1.7210634364138","2.72795358089596","-29.7317083136079","-4.08968075596309","-1.43829681285997","1.03204610041132"
"4716","-1.19546747263133","2.19278509565194","-29.1912972657489","8.1301561363677","-1.12553769867369","1.0091786971273"
"4724","-4.5108233276117","0.315887159280749","-29.0500126118597","5.46518800943549","-1.03595671546287","1.00262897762515"
"4725","-3.40955733230555","0.818825316756518","-29.0130752592581","-2.06120454618508","0.703279562686863","-0.712825348527389"
"4732","2.07572965028986","4.42235606640584","-30.741979145388","-0.731219858608132","0.20143449651813","-0.204168616300184"
"4737","0.562693388845231","3.37668480176398","-30.1939824642084","-0.259402921758783","-5.0830398320148","-0.0584783130510825"
"4745","-1.57638161666546","1.36458960867256","-26.573593109028","-0.0920241361402286","-3.59662771684429","-0.0167494552261278"
"4745","-1.15624680463773","1.83172326328894","-27.6270812658355","1.61260043992091","3.68342628031681","-1.71837575134273"
"4753","-1.04235572969995","1.95543500625011","-27.9025044093862","1.21732224872651","1.76859139721626","-1.20575837186241"
"4753","-1.01148188497406","1.98819778237477","-27.9745108268416","7.65808121975781","-0.493437124372721","2.36822303583051"
"4765","-1.00311253479733","0.261705978235152","-31.4704576490069","5.9429640436596","-0.141331077973652","1.39188870680967"
"4765","-1.00084375282338","0.804476429073934","-30.3844353308869","0.398780929257099","3.3866764079958","-0.601332932533525"
"4773","0.728689059819458","2.68338760599067","-30.1005064809135","1.43196167276252","2.39717415221203","-0.172234773952324"
"4774","0.197534643505718","2.18098261818578","-30.0262763380315","-1.49200635432926","0.400180933487878","1.66424657558652"
"4785","-3.40428744394225","2.04792991239269","-28.2683089063184","-0.52929471627369","0.828198830059503","1.19025460373962"
"4786","-2.38067734911159","2.01269335433976","-28.8087072362156","-6.76875459471795","4.37794911381601","1.05449303854093"
"4794","1.35464071386579","0.268193179216441","-30.6885493246691","-4.98222582859008","3.39467446616634","1.01560798630391"
"4794","0.367219003614667","0.806194444747614","-30.1800138124616","2.23253714791278","3.11304331392348","1.00447046527384"
"4802","0.0995465404482959","0.948674168947389","-30.0470626744025","0.79200072630133","3.03237805310014","1.00128043806391"
"4802","0.0269852965605847","0.986407299162242","-30.0123040298499","5.21670417440665","-0.417882913735393","1.00036674518984"
"4815","-1.7216025522711","0.996400223585754","-26.5260952371412","3.78638392098721","0.593887628756366","1.00010504376436"
"4815","-1.19561361735142","0.999046665531212","-27.6146634582859","-0.0115201033768271","2.59725896702122","-2.42712660249245"
"4827","-2.78194515864323","2.73491594877356","-36.5920617049058","0.641159540260362","2.17106790200645","-1.40875996387896"
"4827","-2.21197142467307","2.19462895052466","-33.9391058838207","-7.35353166230488","0.335419207019164","2.31007898380658"
"4835","-2.05746168306214","0.316375470276579","-26.291276090824","-5.18967763412272","0.809649669161053","1.37523499118026"
"4835","-2.015576840253","0.818954636928173","-28.2918332785657","5.44943553865556","-4.19525549080717","-2.31968126198248"
"4843","-0.275304818137032","2.68722189262556","-30.5534181897669","3.22369988535194","-2.62876871159171","-1.37798529159053"
"4847","-0.803548025772363","2.18199805836639","-30.1446852311901","4.07935835326991","-2.18009297520597","2.31889351638626"
"4851","-0.946745363921526","2.04819883301824","-30.0378263969483","3.38290632723777","-2.05158252807528","1.37775966419286"
"4852","-0.985563615356879","2.01276457301343","-30.0098893044876","3.13583742136663","-2.01477435307843","1.10819854834233"
"4864","-2.72500433909443","-1.46695638167525","-26.5254639331765","3.04818882251606","-2.00423169466544","1.03099040732261"
"4867","-2.19653578125435","-0.388496373642969","-27.6144984106569","1.37184882209453","-2.00121204899101","-2.41828036553603"
"4876","-2.05327735467281","-0.102886107739193","-27.8992147572855","1.77716107004388","-2.00034715707837","-1.40622621004629"
"4876","-2.01444254324997","-0.0272474902827513","-27.973650782695","-3.01479194351284","-0.286521088654391","0.597226361122914"
"4884","-3.73283290279978","1.7279524259931","-33.2087935592571","-1.71475481789859","-0.795644189155547","0.171058562971087"
"4884","-3.19865796563445","1.1927847897972","-31.577465310468","5.3274234681383","0.772110274272986","3.47615156606918"
"4896","0.403982931292785","1.05105550012619","-24.1967290540067","3.82566199576998","0.2211491028695","2.42280177510005"
"4897","-0.619405198851555","1.01352110867189","-26.2671149730723","-1.64283240166197","1.77692023677357","0.407521239658133"
"4901","-0.896827518744943","1.00358081654798","-26.8083950952145","-0.582800808722969","1.22252678029108","0.830301252703559"
"4904","-0.972031775378421","1.00094831329748","-26.9499069592242","1.43849561864137","-0.649841855880131","2.66497294853931"
"4913","-2.72133609795632","4.47058798699803","-28.7254644730059","1.1555579259985","-0.186128780076473","2.19046265268316"
"4917","-2.19554138632589","3.38945813741183","-28.1896648808043","-2.23530793448544","1.66026703135301","-3.08618240568825"
"4925","-2.05300779189421","4.83830923500135","-36.7423896400731","-1.43823001208869","1.18911477609272","-1.59752781799789"
"4925","-2.01436946957519","4.22201075768695","-33.978407505011","2.13502897711273","-5.80014681138315","0.542433437902427"
"4933","-2.00389530762354","4.05879545932553","-33.2557941149717","1.4026556848502","-3.80202268493753","0.155364683200846"
"4937","-2.00105594861401","4.0155708942815","-33.0668746191327","-2.14764909993439","0.197440024253795","0.0444998097452117"
"4946","1.4575493235175","-1.20138160103045","-24.3246798519387","-1.4071327196221","-0.657027246071677","0.0127457091699541"
"4946","0.395115697337853","0.41700463647868","-27.0391270920387","2.14606085545911","-2.61534352073079","-1.7099276975316"
"4954","0.107108837940402","0.845604417821854","-27.7487901167628","1.4065692840801","-2.1762477098162","-1.20333866630535"
"4954","0.0290353009061384","0.959111174311669","-27.9343238789301","-2.14626073628031","1.37667552850424","2.36891609190162"
"4966","-3.44996461875753","4.45950819145494","-31.4599512038684","-1.40664019253317","0.394309683753108","1.39208721307681"
"4966","-2.39305961878052","3.38652385767253","-30.3816885338499","-9.37048879250309","1.8265171769915","1.11230226861077"
"4974","-2.10655147161334","3.10236372322181","-30.0997883603825","-7.19569323813877","1.23673241800857","1.03216580167498"
"4974","-2.0288842088083","3.02710914636661","-30.0260885931453","3.44730148110838","-2.35935139826046","-0.704365362489275"
"4986","-2.00782999526754","1.27201093616926","-30.0068205819766","1.22294282062452","-1.3893476776912","-0.201745493094915"
"4986","-2.00212257245115","1.80720550734644","-30.0017831677715","0.433843442679172","-2.8250959510014","-0.0577842780915139"
"4995","-2.000575391639","1.94894193025105","-24.7847839114117","0.153907549544791","-2.23632534810786","-0.0165506685841379"
"4995","-2.0001559784393","1.98647821081086","-26.4208555883418","-3.23589341157425","-0.354110352755399","1.70883787475765"
"5003","-2.00004228298063","1.99641900322957","-26.8485889248987","-2.43843771222931","-0.815003218063201","1.20302651746239"
"5003","-2.000011462164","1.99905163897392","-26.9604152035281","-2.15553738348683","0.7665654291673","1.05815119121139"
"5015","-2.00000310718879","3.73491726589824","-30.466772499954","-2.05517745619765","0.219560939155674","1.0166557604473"
"5015","-2.00000084230362","3.19462929934087","-29.3834718883175","1.27091827362944","1.77646535229369","-0.708807774172244"
"5023","1.45783534407191","-0.418792859191309","-29.10025459922","0.450862910265658","1.22239649152536","-0.203017896002894"
"5027","0.395193232422935","0.624258848025937","-29.0262104862728","3.45043794619185","-4.07703586270541","-1.77172706648935"
"5036","-1.62178792987981","4.37082872143596","-32.4839739687007","2.51454817130946","-2.59490805001602","-1.22103934386177"
"5036","-1.16855564854425","3.36303873367749","-31.3879690272415","-6.04369384805803","2.97034048548575","-1.06331045476622"
"5044","0.683225347847308","1.36097569892561","-24.1471872896497","-4.07976153523562","1.56434818345465","-1.01813348525506"
"5044","0.185210239816866","1.83076618586735","-26.2541628118277","1.55268965980535","-0.55193680375219","-1.00519382286401"
"5052","0.0502072018274814","1.95518154192613","-26.8050088920164","0.550822341046415","-0.158086652978925","-1.0014876233423"
"5052","0.0136102794199606","1.98813065701784","-26.9490216728321","-1.44984009711937","1.6682989038158","0.713152257110424"
"5064","-1.72522828152716","-1.47348022052449","-32.2023545434813","-1.15958242126949","1.19141527829907","0.204262249997684"
"5064","-1.19659648806478","-0.390224092181039","-30.5757818990743","0.588633890947659","-2.37233120843175","0.0585051317697171"
"5072","-2.78221159741209","-0.103343662166237","-26.6734104632879","0.208820027739282","-1.39306537640658","0.0167571366879135"
"5076","-2.21204365148438","-0.0273686651437569","-27.6531774391181","-3.21641300890605","-1.11258243577088","1.71837795147973"
"5085","-2.05748126246604","6.93342560059973","-29.6478877326469","-2.4315269680671","-1.03224604761676","1.20575900202929"
"5085","-2.01558214788116","4.77686373120583","-29.1693832767274","2.78265324562567","-1.00923596633687","-0.654644510686405"
"5093","-0.275306256940622","4.20573804794629","-29.0442834352145","1.63240276498822","-1.00264538076696","-0.187504364416157"
"5097","-0.803548415806426","4.05448593192405","-29.0115774276675","2.86959353514548","-1.0007576943383","1.65987303420936"
"5101","-2.67566325585554","-1.19107567019763","-30.7415875534346","2.30849149008161","-1.00021702006662","1.18900192677864"
"5101","-2.1831602911788","0.419733972405488","-30.1938800867055","-6.11679321007504","0.713516185403935","-4.08660078921984"
"5114","-2.0496514972125","0.846327232162664","-30.0506878626089","-4.10569380152008","0.20436648694194","-2.59764765210158"
"5114","-2.01345963778271","0.959302598374258","-30.0132517963011","3.18873643251285","1.7721133321385","-0.457600885179918"
"5122","-0.27473088220433","4.45955888659153","-26.5263430204823","1.77646226216348","1.2211499787084","-0.844645147673217"
"5122","-0.803392441949148","3.38653728334556","-27.6147282385744","-0.369793509059522","-0.65023620166853","-2.66908135068067"
"5134","-2.67562097411702","-0.367969564926886","-34.8535178814765","-0.131185601113277","-0.186241729249966","-2.19163938802533"
"5134","-2.18314882935152","0.637718461252998","-32.746021547576","-0.0465385722513634","3.37381302491443","4.7994237078543"
"5142","1.40818718229045","-0.831112013488067","-30.4564785472273","-0.0165097288788973","2.39348980073647","2.80181557242781"
"5146","0.381734498816251","-0.220104706155264","-30.8579021642127","-3.29634956497445","0.399125655439359","-4.624656035063"
"5150","-1.62543635318081","-0.0582906766903455","-22.2700462520471","-2.45988475397153","0.827896575573993","-2.75175832628537"
"5151","-1.16954467120955","-0.0154372118996018","-25.0248437251794","4.41783955636841","-5.90360752631803","4.63899351436534"
"5163","-2.77487833101174","6.93658542619206","-29.2221774032572","2.85773743407323","-3.83165607417281","2.75586489084069"
"5163","-2.2100557333942","4.77770055280414","-28.3195251320165","3.94953183392947","0.188952379855416","2.21649607325504"
"5171","1.40089319917612","-0.999545600805503","-26.344975648284","3.33684989422078","-0.659458291230277","2.06200916367834"
"5175","0.37975722972622","0.470457182946659","-26.8287509310037","-0.170993945068123","-0.902461480058684","0.304182422656916"
"5183","0.102945430539707","0.859760340059349","-35.6480325711654","0.584585611103729","-0.972062855658084","0.800702777676228"
"5183","0.0279066752110179","0.962860109538058","-32.9537388645836","2.49787656385864","0.721580147778807","0.9429169596755"
"5191","-3.45027056910951","2.72533260604191","-27.0336624857391","2.1766235337016","0.206676180394026","0.983650181097884"
"5192","-2.39314255647925","2.19209097874504","-28.485922213781","0.417411506073319","-1.65438181094093","2.70889540245606"
"5199","1.35126161785712","0.315703335204871","-28.8655998940329","0.793324598985461","-1.1874291215202","2.203042994641"
"5199","0.366302990788004","0.8187766343364","-28.964862538378","-0.71856519423356","-2.76726210389715","-3.08257912331982"
"5212","1.8282160118661","-0.783162091772607","-22.036570650567","-0.254913633244533","-2.21976048188504","-1.59649575989724"
"5212","1.22451462999902","-0.207406052714971","-24.2252432817235","4.84530747271647","-2.06294416100188","-1.17084930295863"
"5220","-2.39697364947543","1.68024074958612","-36.9673735088024","3.65462958141909","-2.01802857078873","-1.04893494016869"
"5224","-1.37869470951627","1.18014923123794","-33.2986663572289","-1.70350677678429","-0.29158542843823","-1.01401602656754"
"5232","-2.83157518641171","4.51804604890294","-25.3852793078918","-0.604325265419998","-0.797094725739686","-1.00401449353089"
"5232","-2.22542524247137","3.40202653084227","-27.3164094082368","-1.85963293938494","2.48527315383407","2.42600685141882"
"5240","-2.06110877377493","3.10646932062296","-33.036964873519","-1.30495793227088","1.42541439536709","1.40843924292287"
"5241","-2.01656550167734","3.02819643820562","-31.5325425493792","-1.10818494289141","-4.01888713862151","-0.596592500583062"
"5249","-0.275572826664639","3.00746730722833","-27.6621060005456","-1.03837900454421","-2.57825299620746","-0.170877011586001"
"5249","-0.803620678117343","3.00197757875784","-28.6502220089649","-2.65886143147064","1.26153250891687","-0.0489428765196106"
"5261","-0.94676505868004","-0.469813118387503","-28.9085543076937","-2.23373350483531","0.361330229480973","-0.0140182997103051"
"5261","-0.985568954255617","0.610747072265154","-28.97609250766","6.14331387902213","3.53064949175702","-3.43117183390953"
"5277","-2.72500578637492","4.36725037653756","-28.9937496433613","4.11510210591839","2.43841116118867","-2.40991860575772"
"5277","-2.19653617358635","3.36209107495087","-28.9983659115078","1.75034021523672","-4.72874292809136","1.30974712368171"
"5281","-2.05327746102704","3.09589315081492","-28.9995727851457","1.91143227737751","-2.78157106648673","0.375139939253948"
"5282","-2.01444257208071","3.02539553446453","-28.999888309273","3.61382661526988","1.20329781066505","0.107448202388766"
"5290","1.45392044799287","3.00672553947032","-23.7842885210451","3.21775723892046","0.344650550808917","0.0307754919925011"
"5290","0.394131973727043","3.00178113523187","-25.4207260738606","-0.213242500521361","1.81229372593041","-1.70476357728998"
"5298","-1.6220756182365","1.26530327900893","-31.0642373433472","0.569597781389258","1.23265851361087","-1.20185955043732"
"5302","-1.16863363574086","1.80542910791495","-29.5396726431765","0.847313237291437","-0.64693990805112","0.655761398066332"
"5310","-1.04571357929732","-1.52186536010469","-32.6182131250072","0.94583381195926","-0.18529759937555","0.187824265148355"
"5310","-1.01239213827651","-0.403038005055293","-31.4230644103064","0.980784346495937","-1.76665158979607","5.19453197089055"
"5318","-2.7322770744804","1.62843123091037","-27.6334841190193","0.993183176572985","-1.21958561742559","3.62856147981952"
"5322","-2.19850729046314","1.16642843464361","-28.6427391259981","2.64282804604076","4.07784095791804","-3.67427975906391"
"5331","-3.78272958195637","4.51441234868733","-30.6451587479931","2.22804560265755","2.59513864671954","-1.76597163545831"
"5331","-3.21218406788135","3.40106421227963","-30.1686698130523","-1.20959266582103","0.456882251705113","-2.93296920842927"
"5339","0.400316245551647","-0.364122375411536","-30.0440969078131","-0.429107426389145","0.844439315483773","-2.26722258506827"
"5339","-0.620399172139562","0.638737318523808","-30.0115286620854","1.4930189086793","6.09617908518557","-0.362959990511322"
"5351","-2.62601475342703","2.63949465578174","-28.2644532851204","1.17490026274338","4.60039108348751","-0.817537945958495"
"5351","-2.16970146522876","2.16935837891209","-28.8076992255381","-3.87369250882213","-6.1095050599145","-0.947738916442992"
"5359","-0.317085262676136","2.04485144676099","-30.6882857911232","-2.66469927689215","-3.17705124192719","-0.985031293937252"
"5359","-0.814873961171458","2.01187807942823","-30.1799449144516","1.05468817634399","-0.623554620493118","0.717865706219592"
"5371","-2.67873340976556","0.267977268674989","-28.3084839022204","0.37415449165843","-0.892177891253029","0.205612283893937"
"5371","-2.18399255529742","0.806137264818181","-28.8192105566297","1.77797901476248","0.744460931521226","1.77247015536372"
"5380","-3.77879489541496","0.948659025896438","-27.2141737857032","1.2759909035848","0.21322973234922","1.22125218060724"
"5380","-3.21111744434311","0.986403288804161","-27.7945541913996","1.09790878341983","0.0610736129091598","-2.36378527348215"
"5388","0.400605388221682","0.996399161516294","-33.1619706824597","1.03473349935175","0.0174928053076063","-1.39061763557181"
"5392","-0.620320790704465","0.99904638426168","-31.5652239731219","1.01232183605065","5.14574535220489","-1.11188134978912"
"5400","-2.62599350561408","-0.735420969406366","-29.4092109666848","1.00437121644789","3.61458793573667","-1.03204524140932"
"5400","-2.16969570532459","-0.194762695935849","-29.8455445638572","4.29204338325175","1.46245294926077","-1.00917845109053"
"5408","-0.317083701268562","5.15392595340597","-28.221058528551","3.45835712024094","1.84603488389911","-1.00262890715489"
"5412","-0.814873537901636","3.57042760946858","-28.7963541333406","3.16260386640177","0.24232271192967","-1.00075297593906"
"5421","-0.949815508821917","1.41589882219307","-28.9467589792975","3.05768431688136","0.782984816930299","-1.0002156686149"
"5421","-0.986395877033155","1.84531156327945","-28.9860807079861","4.66571006169692","4.36499884133056","4.1406732617903"
"5429","-2.7252299504321","0.2238651953356","-34.2120432294842","4.23616308148018","3.39096522768383","2.61313517920404"
"5429","-2.19659694047523","0.794454994820041","-32.5783149017839","-2.49720563870579","1.39840256304657","-1.25154149632079"
"5441","-0.324376147647078","0.945565191896403","-26.9355119300538","-0.885892842333134","1.82768946625388","-0.358468587114588"
"5441","-0.816850390409922","0.985583943863383","-28.4602618070518","1.33097261013071","0.237068187039646","-3.52982985541342"
"5449","0.778566387826505","6.20168743863888","-32.3360127758651","1.11741374509913","0.781479807213224","-2.43817639959035"
"5450","0.211055500000162","4.58307635897782","-31.3492861653688","-0.6035933831941","-0.776167259995907","-0.411924865055019"
"5457","0.057213392174136","-2.78625665504902","-27.6141955907003","-0.214126962378805","-0.222311111435988","-0.831562546379273"
"5462","0.0155095330094169","-0.737888747100295","-28.6376963478047","-1.7212086629069","-3.49083140584137","5.90255751289152"
"5470","-1.72471342765956","-0.195416241397066","-27.166718848815","-1.25585141343386","-2.42700639910787","3.83135532758905"
"5470","-1.19645692033857","-0.0517523916062187","-27.7821476087435","-7.67174958198889","6.44558784357607","-1.90261686484044"
"5478","-2.78217376308389","5.19179959799395","-33.1587271149133","-5.94781294519949","3.98689097380862","-0.544950671923166"
"5482","-2.21203339527093","3.58045774653528","-31.5643759772862","-0.400501094829682","1.56908860171692","-0.156085673535967"
"5490","-0.32856069598628","3.15372354106698","-31.1475500268363","-1.43257190779673","1.87657764399486","-0.0447063169904881"
"5490","-0.817984747037455","3.04071084798028","-31.0385753669461","-0.153456467890293","0.251070819835231","1.70077348733367"
"5499","-2.67957668848476","-2.19472374741767","-31.0100851146349","-0.699685582878922","0.785490464477784","1.20071670226704"
"5499","-2.18422115315947","-0.581232153641926","-31.0026366447101","0.751783977999758","0.938559823747509","-0.656088734531076"
"5511","-2.04993907802676","6.78674505885857","-32.7392500819291","0.266698118396","0.982402203012806","-0.187918021400443"
"5511","-2.01353759582649","4.73801809185195","-32.1932689799305","-6.48637322257441","-0.718618734794235","-3.48098048006081"
"5519","1.4541657709593","-1.01005476956453","-26.8348458167017","-4.88205000305421","-0.205827967584812","-2.42418488063907"
"5519","0.394198476419878","0.467674023199114","-28.4339437348369","0.622828549647439","-6.91326696579548","1.30566095361452"
"5531","-3.35097537674202","2.59419169331658","-28.8520106799774","-0.424295631011145","-4.83442274681769","0.373969571659266"
"5531","-2.36622539591284","2.15736072386736","-28.9613097845769","7.43046492802658","4.32889497884865","0.10711298376493"
"5539","-2.09927719107284","0.306505666995905","-30.7284456190052","5.21696999178194","1.95346761032593","0.030679478119358"
"5540","-2.0269122807356","0.816340801349278","-30.1904442693501","-2.14926079664724","-2.15406291802979","0.00878726690820031"
"5548","-0.278377654437422","2.68652966642416","-31.7883503646678","-0.762458135824082","-1.33054861135938","0.00251686353384319"
"5552","-0.80438101703931","2.18181473500904","-31.2061057205561","1.37476152414603","2.33248040886235","3.42787757352098"
"5560","-2.67588895924096","2.0481502832042","-27.5767626039595","1.13294802265259","1.38165124442692","2.40897505824407"
"5560","-2.18322147535218","2.01275171548956","-28.6279098961831","-2.24332888046984","-4.03142185275709","-4.73717406542379"
"5568","-2.04966808315367","2.00337705693728","-27.1641602863362","-1.44107547204048","-2.58184320977951","-2.78398592679796"
"5572","-2.01346413393637","2.00089435131822","-27.7814787001123","2.13401953977791","-0.453074150648156","1.20260614237727"
"5580","-2.00364988723433","0.265068430625594","-33.1585522359488","1.40229758326023","-0.843348592875302","0.344452442032979"
"5581","-2.00098941951159","0.805366912646964","-31.5643302570625","-3.79302247689155","0.758446699992121","0.0986586386362077"
"5589","1.45756735837386","4.41879185600607","-29.4089773142371","-2.63608128774043","0.217235559305986","0.0282579705926948"
"5589","0.395120586266642","3.37574088629893","-29.8454834779387","1.06484051276296","1.77579931314782","3.4352503840153"
"5601","-3.3507254091634","-0.370828791795127","-23.0053602796788","0.377756070169673","1.22220572349068","2.41108679083043"
"5601","-2.36615763414825","0.63696124768918","-25.217083666064","-3.15648232939712","2.77722287580096","-3.02299087483009"
"5609","-2.09925882206368","2.6390242961397","-32.7495579864658","-2.41026634011152","2.22261346266228","-1.57942839512544"
"5609","-2.02690730122393","2.16923381282579","-30.7188423515859","-5.43603616430998","2.06376131647878","2.26119584921309"
"5621","-2.00729409078309","0.309650035882333","-23.2336905602553","-4.50943908646348","2.01826262181311","1.36123380285133"
"5621","-2.00197729827712","0.81717352952377","-25.2767781611922","2.40025997550379","-3.13550422358126","-0.610113160869849"
"5629","-2.0005360103943","-0.783586644550083","-31.0266037103931","0.851501013404541","-1.61165465472365","-0.174749621486759"
"5630","-2.00014530288431","-0.207518487697039","-29.5298337347612","1.94731944086638","-2.88876948335874","-1.76363042050857"
"5638","-2.00003938902755","-0.0549574485930558","-27.3999585696481","1.33606503968231","-2.25456282664759","-1.21872028911718"
"5642","-2.00001067766479","-0.0145544678422474","-27.8431256242035","-3.81651871419607","-0.359333961548146","0.650932117383235"
"5650","-0.27108510832229","3.46648236100301","-29.6975476418826","-2.64441666394142","-0.816499372740517","0.186441054580956"
"5650","-0.802404137494201","2.38837083800026","-29.1823663256794","1.06188350754074","7.62045027667061","-1.66017758917251"
"5658","-2.67535306235746","3.83802128378225","-25.5705561945939","0.376707061741812","5.03697536135397","-1.18908915791533"
"5662","-2.18307620323863","3.22193449911117","-26.6262872972325","-1.51160812987006","-0.843722834396505","5.80015414898393"
"5671","-0.320710916264812","-2.14673000188975","-32.1179791134538","-1.18149485701395","0.47191785376678","3.80202478658529"
"5671","-0.815856811372738","-0.568521894272216","-30.5537228507343","0.580860374148234","0.84874583751545","-1.91101776694703"
"5679","-4.40791762917667","1.5846058713699","-30.144764881522","0.206062344196674","0.956677532402697","-0.547356872210963"
"5679","-3.38166142776143","1.15482209551332","-30.0378472206706","1.71834771008309","-4.15314352683502","-0.1567748614055"
"5691","-1.37454383855588","-0.694166641957446","-28.271333989087","1.25483647994597","-2.6167069331608","-0.0449037153209264"
"5691","-1.83044995912258","-0.183837247291846","-28.8094981115569","2.73565051329703","-0.463059876010668","-0.0128613964735552"
"5699","-0.22512021336681","3.42165093536698","-25.4730738119016","2.26097471272982","-0.846208720863497","-0.00368378246805981"
"5699","-0.78994387201271","2.37649806079815","-26.6008015771431","0.447335395634208","-0.955950847251431","-1.71463345972311"
"5711","-0.94305751980352","0.364540153767874","-28.6341946270736","0.80394020835534","-0.987383368753019","-1.20468649850192"
"5712","-0.98456390640923","0.831710166068488","-28.1658033616068","5.86618608848163","-0.996386323593308","-1.05862664572858"
"5720","-2.72473333577975","0.955431537692548","-24.566225985847","4.66203634679616","-0.998964964821698","-1.01679194091716"
"5720","-2.19646231707586","0.988196863791195","-25.6251552107467","-3.99137187786571","4.1410314904411","2.4223471137873"
"5728","-2.05325743984067","2.73204257865608","-36.3333654202389","-2.06120012476477","2.6132377836472","1.40739101481231"
"5732","-2.01443714469318","2.19386799138183","-33.1329117641085","1.91402804901407","2.17564458111499","1.11668560883699"
"5740","-0.274995866941622","2.05134236611131","-23.6033837934247","1.32425479654648","2.0503084116761","1.03342128523854"
"5740","-0.803464274598356","2.01359707984345","-26.1119912388144","6.0507695934584","2.01440941855026","1.00957257984192"
"5748","-2.67564044667059","2.00360093611323","-31.9835219425687","4.7275180209271","2.00412716951379","1.00274179416429"
"5752","-2.18315410801445","2.0009536415937","-30.5185704701035","-0.677649336032061","-4.8531312678786","1.00078530922316"
"5761","-2.04964982106662","-1.47008428928261","-30.1355746698295","0.404847756348176","-2.81719858067474","1.00022492956766"
"5761","-2.01345918340938","-0.389324742350948","-30.035444538706","2.43411390188308","-0.520485025575328","-2.42709226460222"
"5769","-2.00364854523452","6.83756820145032","-26.5321450742004","2.1540034959375","-0.86265652726049","-1.4087501287636"
