Timer,AX,AY,AZ,GX,GY,GZ
"1005","6.19960079840319","-2.80039920159681","-24.8003992015968","1.8812375249501","-0.00898203592814371","-0.0459081836327345"
"1006","6.19960079840319","-2.80039920159681","-24.8003992015968","-0.1187624750499","-0.00898203592814371","0.954091816367265"
"1017","4.19960079840319","-0.800399201596806","-24.8003992015968","-0.1187624750499","-0.00898203592814371","0.954091816367265"
"1017","4.19960079840319","-0.800399201596806","-24.8003992015968","2.8812375249501","-3.00898203592814","0.954091816367265"
"1025","2.19960079840319","-2.80039920159681","-26.8003992015968","2.8812375249501","-3.00898203592814","0.954091816367265"
"1025","2.19960079840319","-2.80039920159681","-26.8003992015968","1.8812375249501","-2.00898203592814","1.95409181636727"
"1037","14.1996007984032","-2.80039920159681","-18.8003992015968","1.8812375249501","-2.00898203592814","1.95409181636727"
"1037","14.1996007984032","-2.80039920159681","-18.8003992015968","-0.1187624750499","-0.00898203592814371","0.954091816367265"
"1045","3.19960079840319","1.19960079840319","-32.8003992015968","-0.1187624750499","-0.00898203592814371","0.954091816367265"
"1046","3.19960079840319","1.19960079840319","-32.8003992015968","-1.1187624750499","-1.00898203592814","-2.04590818363273"
"1054","1.19960079840319","0.199600798403194","-26.8003992015968","-1.1187624750499","-1.00898203592814","-2.04590818363273"
"1058","1.19960079840319","0.199600798403194","-26.8003992015968","-0.1187624750499","-0.00898203592814371","-0.0459081836327345"
"1066","9.19960079840319","-2.80039920159681","-23.8003992015968","-0.1187624750499","-0.00898203592814371","-0.0459081836327345"
"1066","9.19960079840319","-2.80039920159681","-23.8003992015968","-2.1187624750499","-1.00898203592814","-0.0459081836327345"
"1074","10.1996007984032","-3.80039920159681","-28.8003992015968","-2.1187624750499","-1.00898203592814","-0.0459081836327345"
"1074","10.1996007984032","-3.80039920159681","-28.8003992015968","0.8812375249501","1.99101796407186","-2.04590818363273"
"1086","-0.800399201596806","1.19960079840319","-29.8003992015968","0.8812375249501","1.99101796407186","-2.04590818363273"
"1087","-0.800399201596806","1.19960079840319","-29.8003992015968","3.8812375249501","-1.00898203592814","-0.0459081836327345"
"1095","9.19960079840319","1.19960079840319","-26.8003992015968","3.8812375249501","-1.00898203592814","-0.0459081836327345"
"1095","9.19960079840319","1.19960079840319","-26.8003992015968","-3.1187624750499","1.99101796407186","-1.04590818363273"
"1107","8.19960079840319","-0.800399201596806","-26.8003992015968","-3.1187624750499","1.99101796407186","-1.04590818363273"
"1107","8.19960079840319","-0.800399201596806","-26.8003992015968","-1.1187624750499","-1.00898203592814","-0.0459081836327345"
"1115","1.19960079840319","1.19960079840319","-28.8003992015968","-1.1187624750499","-1.00898203592814","-0.0459081836327345"
"1115","1.19960079840319","1.19960079840319","-28.8003992015968","2.8812375249501","-0.00898203592814371","-0.0459081836327345"
"1127","12.1996007984032","-1.80039920159681","-26.8003992015968","2.8812375249501","-0.00898203592814371","-0.0459081836327345"
"1127","12.1996007984032","-1.80039920159681","-26.8003992015968","1.8812375249501","-2.00898203592814","-1.04590818363273"
"1136","6.19960079840319","1.19960079840319","-26.8003992015968","1.8812375249501","-2.00898203592814","-1.04590818363273"
"1136","6.19960079840319","1.19960079840319","-26.8003992015968","-0.1187624750499","-1.00898203592814","-1.04590818363273"
"1144","5.19960079840319","-0.800399201596806","-31.8003992015968","-0.1187624750499","-1.00898203592814","-1.04590818363273"
"1148","5.19960079840319","-0.800399201596806","-31.8003992015968","-0.1187624750499","-2.00898203592814","-3.04590818363273"
"1156","12.1996007984032","-2.80039920159681","-24.8003992015968","-0.1187624750499","-2.00898203592814","-3.04590818363273"
"1156","12.1996007984032","-2.80039920159681","-24.8003992015968","-2.1187624750499","1.99101796407186","-2.04590818363273"
"1164","4.19960079840319","-0.800399201596806","-20.8003992015968","-2.1187624750499","1.99101796407186","-2.04590818363273"
"1168","4.19960079840319","-0.800399201596806","-20.8003992015968","-0.1187624750499","-3.00898203592814","1.95409181636727"
"1177","-0.800399201596806","-3.80039920159681","-32.8003992015968","-0.1187624750499","-3.00898203592814","1.95409181636727"
"1177","-0.800399201596806","-3.80039920159681","-32.8003992015968","2.8812375249501","-0.00898203592814371","-2.04590818363273"
"1185","3.19960079840319","-2.80039920159681","-24.8003992015968","2.8812375249501","-0.00898203592814371","-2.04590818363273"
"1185","3.19960079840319","-2.80039920159681","-24.8003992015968","1.8812375249501","-1.00898203592814","-1.04590818363273"
"1197","-1.80039920159681","-2.80039920159681","-27.8003992015968","1.8812375249501","-1.00898203592814","-1.04590818363273"
"1197","-1.80039920159681","-2.80039920159681","-27.8003992015968","1.8812375249501","-1.00898203592814","2.95409181636727"
"1205","12.1996007984032","0.199600798403194","-27.8003992015968","1.8812375249501","-1.00898203592814","2.95409181636727"
"1205","12.1996007984032","0.199600798403194","-27.8003992015968","2.8812375249501","-2.00898203592814","-0.0459081836327345"
"1217","1.19960079840319","-2.80039920159681","-29.8003992015968","2.8812375249501","-2.00898203592814","-0.0459081836327345"
"1217","1.19960079840319","-2.80039920159681","-29.8003992015968","4.8812375249501","-3.00898203592814","-0.0459081836327345"
"1226","9.19960079840319","-2.80039920159681","-23.8003992015968","4.8812375249501","-3.00898203592814","-0.0459081836327345"
"1226","9.19960079840319","-2.80039920159681","-23.8003992015968","2.8812375249501","-3.00898203592814","-5.04590818363273"
"1234","2.19960079840319","-12.8003992015968","-25.8003992015968","2.8812375249501","-3.00898203592814","-5.04590818363273"
"1238","2.19960079840319","-12.8003992015968","-25.8003992015968","1.8812375249501","0.991017964071856","-0.0459081836327345"
"1246","0.199600798403194","10.1996007984032","-33.8003992015968","1.8812375249501","0.991017964071856","-0.0459081836327345"
"1246","0.199600798403194","10.1996007984032","-33.8003992015968","10.8812375249501","-4.00898203592814","-1.04590818363273"
"1254","-1.80039920159681","-10.8003992015968","-24.8003992015968","10.8812375249501","-4.00898203592814","-1.04590818363273"
"1258","-1.80039920159681","-10.8003992015968","-24.8003992015968","10.8812375249501","-1.00898203592814","-0.0459081836327345"
"1267","12.1996007984032","0.199600798403194","-31.8003992015968","10.8812375249501","-1.00898203592814","-0.0459081836327345"
"1267","12.1996007984032","0.199600798403194","-31.8003992015968","1.8812375249501","-1.00898203592814","-1.04590818363273"
"1275","4.19960079840319","5.19960079840319","-28.8003992015968","1.8812375249501","-1.00898203592814","-1.04590818363273"
"1275","4.19960079840319","5.19960079840319","-28.8003992015968","8.8812375249501","-3.00898203592814","0.954091816367265"
"1287","9.19960079840319","-5.80039920159681","-25.8003992015968","8.8812375249501","-3.00898203592814","0.954091816367265"
"1287","9.19960079840319","-5.80039920159681","-25.8003992015968","-0.1187624750499","-0.00898203592814371","-2.04590818363273"
"1295","2.19960079840319","2.19960079840319","-31.8003992015968","-0.1187624750499","-0.00898203592814371","-2.04590818363273"
"1296","2.19960079840319","2.19960079840319","-31.8003992015968","1.8812375249501","0.991017964071856","-0.0459081836327345"
"1308","9.19960079840319","1.19960079840319","-27.8003992015968","1.8812375249501","0.991017964071856","-0.0459081836327345"
"1308","9.19960079840319","1.19960079840319","-27.8003992015968","2.8812375249501","-0.00898203592814371","-0.0459081836327345"
"1316","9.19960079840319","-2.80039920159681","-28.8003992015968","2.8812375249501","-0.00898203592814371","-0.0459081836327345"
"1316","9.19960079840319","-2.80039920159681","-28.8003992015968","0.8812375249501","0.991017964071856","-0.0459081836327345"
"1328","0.199600798403194","-2.80039920159681","-24.8003992015968","0.8812375249501","0.991017964071856","-0.0459081836327345"
"1328","0.199600798403194","-2.80039920159681","-24.8003992015968","2.8812375249501","-0.00898203592814371","-2.04590818363273"
"1336","8.19960079840319","-6.80039920159681","-24.8003992015968","2.8812375249501","-0.00898203592814371","-2.04590818363273"
"1336","8.19960079840319","-6.80039920159681","-24.8003992015968","3.8812375249501","1.99101796407186","-0.0459081836327345"
"1344","-0.800399201596806","-0.800399201596806","-29.8003992015968","3.8812375249501","1.99101796407186","-0.0459081836327345"
"1349","-0.800399201596806","-0.800399201596806","-29.8003992015968","3.8812375249501","-3.00898203592814","1.95409181636727"
"1357","1.19960079840319","1.19960079840319","-26.8003992015968","3.8812375249501","-3.00898203592814","1.95409181636727"
"1357","1.19960079840319","1.19960079840319","-26.8003992015968","6.8812375249501","-2.00898203592814","-1.04590818363273"
"1365","6.19960079840319","-3.80039920159681","-25.8003992015968","6.8812375249501","-2.00898203592814","-1.04590818363273"
"1365","6.19960079840319","-3.80039920159681","-25.8003992015968","6.8812375249501","-2.00898203592814","0.954091816367265"
"1377","2.19960079840319","1.19960079840319","-24.8003992015968","6.8812375249501","-2.00898203592814","0.954091816367265"
"1377","2.19960079840319","1.19960079840319","-24.8003992015968","5.8812375249501","-3.00898203592814","-2.04590818363273"
"1386","2.19960079840319","-2.80039920159681","-31.8003992015968","5.8812375249501","-3.00898203592814","-2.04590818363273"
"1386","2.19960079840319","-2.80039920159681","-31.8003992015968","5.8812375249501","-3.00898203592814","-3.04590818363273"
"1398","10.1996007984032","1.19960079840319","-23.8003992015968","5.8812375249501","-3.00898203592814","-3.04590818363273"
"1398","10.1996007984032","1.19960079840319","-23.8003992015968","7.8812375249501","-3.00898203592814","-2.04590818363273"
"1406","1.19960079840319","3.19960079840319","-30.8003992015968","7.8812375249501","-3.00898203592814","-2.04590818363273"
"1406","1.19960079840319","3.19960079840319","-30.8003992015968","10.8812375249501","-4.00898203592814","-0.0459081836327345"
"1418","7.19960079840319","-3.80039920159681","-26.8003992015968","10.8812375249501","-4.00898203592814","-0.0459081836327345"
"1418","7.19960079840319","-3.80039920159681","-26.8003992015968","5.8812375249501","-3.00898203592814","-2.04590818363273"
"1426","7.19960079840319","-0.800399201596806","-24.8003992015968","5.8812375249501","-3.00898203592814","-2.04590818363273"
"1427","7.19960079840319","-0.800399201596806","-24.8003992015968","6.8812375249501","-3.00898203592814","-3.04590818363273"
"1435","3.19960079840319","-2.80039920159681","-32.8003992015968","6.8812375249501","-3.00898203592814","-3.04590818363273"
"1439","3.19960079840319","-2.80039920159681","-32.8003992015968","5.8812375249501","-1.00898203592814","-1.04590818363273"
"1447","4.19960079840319","-1.80039920159681","-23.8003992015968","5.8812375249501","-1.00898203592814","-1.04590818363273"
"1447","4.19960079840319","-1.80039920159681","-23.8003992015968","8.8812375249501","-0.00898203592814371","-1.04590818363273"
"1455","5.19960079840319","-1.80039920159681","-26.8003992015968","8.8812375249501","-0.00898203592814371","-1.04590818363273"
"1455","5.19960079840319","-1.80039920159681","-26.8003992015968","7.8812375249501","-0.00898203592814371","-0.0459081836327345"
"1467","4.19960079840319","0.199600798403194","-29.8003992015968","7.8812375249501","-0.00898203592814371","-0.0459081836327345"
"1468","4.19960079840319","0.199600798403194","-29.8003992015968","3.8812375249501","-3.00898203592814","-0.0459081836327345"
"1476","2.19960079840319","-1.80039920159681","-26.8003992015968","3.8812375249501","-3.00898203592814","-0.0459081836327345"
"1476","2.19960079840319","-1.80039920159681","-26.8003992015968","5.8812375249501","-0.00898203592814371","-1.04590818363273"
"1488","4.19960079840319","-0.800399201596806","-25.8003992015968","5.8812375249501","-0.00898203592814371","-1.04590818363273"
"1488","4.19960079840319","-0.800399201596806","-25.8003992015968","3.8812375249501","-0.00898203592814371","-2.04590818363273"
"1496","7.19960079840319","-3.80039920159681","-24.8003992015968","3.8812375249501","-0.00898203592814371","-2.04590818363273"
"1496","7.19960079840319","-3.80039920159681","-24.8003992015968","5.8812375249501","-2.00898203592814","-1.04590818363273"
"1508","1.19960079840319","1.19960079840319","-32.8003992015968","5.8812375249501","-2.00898203592814","-1.04590818363273"
"1508","1.19960079840319","1.19960079840319","-32.8003992015968","7.8812375249501","-0.00898203592814371","-2.04590818363273"
"1517","8.19960079840319","1.19960079840319","-14.8003992015968","7.8812375249501","-0.00898203592814371","-2.04590818363273"
"1517","8.19960079840319","1.19960079840319","-14.8003992015968","4.8812375249501","-1.00898203592814","0.954091816367265"
"1525","2.19960079840319","-1.80039920159681","-18.8003992015968","4.8812375249501","-1.00898203592814","0.954091816367265"
"1529","2.19960079840319","-1.80039920159681","-18.8003992015968","4.8812375249501","-3.00898203592814","0.954091816367265"
"1537","-11.8003992015968","4.19960079840319","-35.8003992015968","4.8812375249501","-3.00898203592814","0.954091816367265"
"1537","-11.8003992015968","4.19960079840319","-35.8003992015968","3.8812375249501","-3.00898203592814","-2.04590818363273"
"1545","-11.8003992015968","-10.8003992015968","-26.8003992015968","3.8812375249501","-3.00898203592814","-2.04590818363273"
"1549","-11.8003992015968","-10.8003992015968","-26.8003992015968","1.8812375249501","-3.00898203592814","0.954091816367265"
"1558","-29.8003992015968","2.19960079840319","-24.8003992015968","1.8812375249501","-3.00898203592814","0.954091816367265"
"1558","-29.8003992015968","2.19960079840319","-24.8003992015968","2.8812375249501","-3.00898203592814","-1.04590818363273"
"1566","-50.8003992015968","21.1996007984032","-65.8003992015968","2.8812375249501","-3.00898203592814","-1.04590818363273"
"1570","-50.8003992015968","21.1996007984032","-65.8003992015968","11.8812375249501","-6.00898203592814","-1.04590818363273"
"1578","-2.80039920159681","1.19960079840319","-37.8003992015968","11.8812375249501","-6.00898203592814","-1.04590818363273"
"1578","-2.80039920159681","1.19960079840319","-37.8003992015968","7.8812375249501","-11.0089820359281","-0.0459081836327345"
"1586","55.1996007984032","-1.80039920159681","-0.800399201596806","7.8812375249501","-11.0089820359281","-0.0459081836327345"
"1586","55.1996007984032","-1.80039920159681","-0.800399201596806","0.8812375249501","-21.0089820359281","-0.0459081836327345"
"1598","-6.80039920159681","8.19960079840319","-38.8003992015968","0.8812375249501","-21.0089820359281","-0.0459081836327345"
"1599","-6.80039920159681","8.19960079840319","-38.8003992015968","9.8812375249501","-12.0089820359281","0.954091816367265"
"1607","-18.8003992015968","6.19960079840319","-49.8003992015968","9.8812375249501","-12.0089820359281","0.954091816367265"
"1607","-18.8003992015968","6.19960079840319","-49.8003992015968","-1.1187624750499","1.99101796407186","0.954091816367265"
"1615","30.1996007984032","25.1996007984032","-39.8003992015968","-1.1187624750499","1.99101796407186","0.954091816367265"
"1619","30.1996007984032","25.1996007984032","-39.8003992015968","1.8812375249501","-5.00898203592814","-1.04590818363273"
"1627","69.1996007984032","-22.8003992015968","-2.80039920159681","1.8812375249501","-5.00898203592814","-1.04590818363273"
"1627","69.1996007984032","-22.8003992015968","-2.80039920159681","-10.1187624750499","-16.0089820359281","-1.04590818363273"
"1635","20.1996007984032","32.1996007984032","-47.8003992015968","-10.1187624750499","-16.0089820359281","-1.04590818363273"
"1639","20.1996007984032","32.1996007984032","-47.8003992015968","-11.1187624750499","2.99101796407186","-2.04590818363273"
"1648","15.1996007984032","35.1996007984032","-45.8003992015968","-11.1187624750499","2.99101796407186","-2.04590818363273"
"1648","15.1996007984032","35.1996007984032","-45.8003992015968","2.8812375249501","12.9910179640719","1.95409181636727"
"1656","15.1996007984032","35.1996007984032","-45.8003992015968","2.8812375249501","12.9910179640719","1.95409181636727"
"1656","15.1996007984032","35.1996007984032","-45.8003992015968","2.8812375249501","12.9910179640719","1.95409181636727"
"1664","59.1996007984032","-52.8003992015968","-9.80039920159681","2.8812375249501","12.9910179640719","1.95409181636727"
"1668","59.1996007984032","-52.8003992015968","-9.80039920159681","-25.1187624750499","2.99101796407186","-2.04590818363273"
"1676","104.199600798403","41.1996007984032","-14.8003992015968","-25.1187624750499","2.99101796407186","-2.04590818363273"
"1677","104.199600798403","41.1996007984032","-14.8003992015968","14.8812375249501","10.9910179640719","0.954091816367265"
"1689","179.199600798403","20.1996007984032","10.1996007984032","14.8812375249501","10.9910179640719","0.954091816367265"
"1689","179.199600798403","20.1996007984032","10.1996007984032","3.8812375249501","1.99101796407186","-4.04590818363273"
"1697","0.199600798403194","-127.800399201597","-5.80039920159681","3.8812375249501","1.99101796407186","-4.04590818363273"
"1697","0.199600798403194","-127.800399201597","-5.80039920159681","-16.1187624750499","34.9910179640719","-5.04590818363273"
"1705","0.199600798403194","-127.800399201597","-5.80039920159681","-16.1187624750499","34.9910179640719","-5.04590818363273"
"1705","0.199600798403194","-127.800399201597","-5.80039920159681","-16.1187624750499","34.9910179640719","-5.04590818363273"
"1717","-38.8003992015968","53.1996007984032","-28.8003992015968","-16.1187624750499","34.9910179640719","-5.04590818363273"
"1718","-38.8003992015968","53.1996007984032","-28.8003992015968","-27.1187624750499","48.9910179640719","3.95409181636727"
"1725","-67.8003992015968","7.19960079840319","-49.8003992015968","-27.1187624750499","48.9910179640719","3.95409181636727"
"1729","-67.8003992015968","7.19960079840319","-49.8003992015968","31.8812375249501","28.9910179640719","3.95409181636727"
"1738","-92.8003992015968","-60.8003992015968","-29.8003992015968","31.8812375249501","28.9910179640719","3.95409181636727"
"1738","-92.8003992015968","-60.8003992015968","-29.8003992015968","-4.1187624750499","-7.00898203592814","-7.04590818363273"
"1746","-21.8003992015968","-0.800399201596806","-16.8003992015968","-4.1187624750499","-7.00898203592814","-7.04590818363273"
"1750","-21.8003992015968","-0.800399201596806","-16.8003992015968","-15.1187624750499","-11.0089820359281","-7.04590818363273"
"1754","-21.8003992015968","-0.800399201596806","-16.8003992015968","-15.1187624750499","-11.0089820359281","-7.04590818363273"
"1758","-21.8003992015968","-0.800399201596806","-16.8003992015968","-15.1187624750499","-11.0089820359281","-7.04590818363273"
"1767","52.1996007984032","74.1996007984032","12.1996007984032","-15.1187624750499","-11.0089820359281","-7.04590818363273"
"1767","52.1996007984032","74.1996007984032","12.1996007984032","47.8812375249501","-23.0089820359281","-19.0459081836327"
"1779","-12.8003992015968","45.1996007984032","-49.8003992015968","47.8812375249501","-23.0089820359281","-19.0459081836327"
"1779","-12.8003992015968","45.1996007984032","-49.8003992015968","-26.1187624750499","0.991017964071856","-9.04590818363273"
"1787","33.1996007984032","117.199600798403","-15.8003992015968","-26.1187624750499","0.991017964071856","-9.04590818363273"
"1787","33.1996007984032","117.199600798403","-15.8003992015968","9.8812375249501","-6.00898203592814","-7.04590818363273"
"1799","-7.80039920159681","-56.8003992015968","-6.80039920159681","9.8812375249501","-6.00898203592814","-7.04590818363273"
"1799","-7.80039920159681","-56.8003992015968","-6.80039920159681","-13.1187624750499","0.991017964071856","0.954091816367265"
"1807","-7.80039920159681","-56.8003992015968","-6.80039920159681","-13.1187624750499","0.991017964071856","0.954091816367265"
"1808","-7.80039920159681","-56.8003992015968","-6.80039920159681","-13.1187624750499","0.991017964071856","0.954091816367265"
"1816","-78.8003992015968","-120.800399201597","-54.8003992015968","-13.1187624750499","0.991017964071856","0.954091816367265"
"1816","-78.8003992015968","-120.800399201597","-54.8003992015968","-63.1187624750499","7.99101796407186","-3.04590818363273"
"1828","56.1996007984032","-42.8003992015968","-11.8003992015968","-63.1187624750499","7.99101796407186","-3.04590818363273"
"1828","56.1996007984032","-42.8003992015968","-11.8003992015968","14.8812375249501","-5.00898203592814","-17.0459081836327"
"1836","9.19960079840319","-52.8003992015968","-4.80039920159681","14.8812375249501","-5.00898203592814","-17.0459081836327"
"1840","9.19960079840319","-52.8003992015968","-4.80039920159681","-7.1187624750499","-16.0089820359281","-20.0459081836327"
"1848","27.1996007984032","5.19960079840319","-15.8003992015968","-7.1187624750499","-16.0089820359281","-20.0459081836327"
"1848","27.1996007984032","5.19960079840319","-15.8003992015968","-3.1187624750499","-3.00898203592814","-17.0459081836327"
"1857","-38.8003992015968","8.19960079840319","-92.8003992015968","-3.1187624750499","-3.00898203592814","-17.0459081836327"
"1857","-38.8003992015968","8.19960079840319","-92.8003992015968","5.8812375249501","2.99101796407186","-14.0459081836327"
"1869","-25.8003992015968","12.1996007984032","-8.80039920159681","5.8812375249501","2.99101796407186","-14.0459081836327"
"1869","-25.8003992015968","12.1996007984032","-8.80039920159681","-13.1187624750499","-20.0089820359281","-15.0459081836327"
"1877","-37.8003992015968","36.1996007984032","-99.8003992015968","-13.1187624750499","-20.0089820359281","-15.0459081836327"
"1877","-37.8003992015968","36.1996007984032","-99.8003992015968","17.8812375249501","16.9910179640719","-6.04590818363273"
"1889","35.1996007984032","12.1996007984032","-51.8003992015968","17.8812375249501","16.9910179640719","-6.04590818363273"
"1889","35.1996007984032","12.1996007984032","-51.8003992015968","2.8812375249501","-7.00898203592814","-11.0459081836327"
"1898","-30.8003992015968","69.1996007984032","-61.8003992015968","2.8812375249501","-7.00898203592814","-11.0459081836327"
"1898","-30.8003992015968","69.1996007984032","-61.8003992015968","10.8812375249501","-28.0089820359281","-10.0459081836327"
"1906","16.1996007984032","-29.8003992015968","-54.8003992015968","10.8812375249501","-28.0089820359281","-10.0459081836327"
"1910","16.1996007984032","-29.8003992015968","-54.8003992015968","-1.1187624750499","13.9910179640719","-8.04590818363273"
"1918","-1.80039920159681","-20.8003992015968","-5.80039920159681","-1.1187624750499","13.9910179640719","-8.04590818363273"
"1918","-1.80039920159681","-20.8003992015968","-5.80039920159681","-29.1187624750499","-6.00898203592814","-10.0459081836327"
"1926","8.19960079840319","0.199600798403194","-70.8003992015968","-29.1187624750499","-6.00898203592814","-10.0459081836327"
"1930","8.19960079840319","0.199600798403194","-70.8003992015968","0.8812375249501","-3.00898203592814","-12.0459081836327"
"1938","83.1996007984032","84.1996007984032","-2.80039920159681","0.8812375249501","-3.00898203592814","-12.0459081836327"
"1939","83.1996007984032","84.1996007984032","-2.80039920159681","0.8812375249501","-1.00898203592814","-14.0459081836327"
"1947","-41.8003992015968","176.199600798403","-22.8003992015968","0.8812375249501","-1.00898203592814","-14.0459081836327"
"1951","-41.8003992015968","176.199600798403","-22.8003992015968","31.8812375249501","-8.00898203592814","-8.04590818363273"
"1959","-26.8003992015968","112.199600798403","-115.800399201597","31.8812375249501","-8.00898203592814","-8.04590818363273"
"1959","-26.8003992015968","112.199600798403","-115.800399201597","9.8812375249501","16.9910179640719","2.95409181636727"
"1967","-26.8003992015968","-118.800399201597","2.19960079840319","9.8812375249501","16.9910179640719","2.95409181636727"
"1967","-26.8003992015968","-118.800399201597","2.19960079840319","-70.1187624750499","-14.0089820359281","5.95409181636727"
"1980","-32.8003992015968","-110.800399201597","-70.8003992015968","-70.1187624750499","-14.0089820359281","5.95409181636727"
"1980","-32.8003992015968","-110.800399201597","-70.8003992015968","-79.1187624750499","-16.0089820359281","6.95409181636727"
"1988","-19.8003992015968","-59.8003992015968","-75.8003992015968","-79.1187624750499","-16.0089820359281","6.95409181636727"
"1988","-19.8003992015968","-59.8003992015968","-75.8003992015968","-26.1187624750499","-28.0089820359281","3.95409181636727"
"2000","146.199600798403","-60.8003992015968","-43.8003992015968","-26.1187624750499","-28.0089820359281","3.95409181636727"
"2000","146.199600798403","-60.8003992015968","-43.8003992015968","-5.1187624750499","-50.0089820359281","-4.04590818363273"
"2004","146.199600798403","-60.8003992015968","-43.8003992015968","-5.1187624750499","-50.0089820359281","-4.04590818363273"
"2008","146.199600798403","-60.8003992015968","-43.8003992015968","-5.1187624750499","-50.0089820359281","-4.04590818363273"
"2016","271.199600798403","-13.8003992015968","55.1996007984032","-5.1187624750499","-50.0089820359281","-4.04590818363273"
"2017","271.199600798403","-13.8003992015968","55.1996007984032","1.8812375249501","-60.0089820359281","-12.0459081836327"
"2029","46.1996007984032","31.1996007984032","-2.80039920159681","1.8812375249501","-60.0089820359281","-12.0459081836327"
"2029","46.1996007984032","31.1996007984032","-2.80039920159681","12.8812375249501","5.99101796407186","-12.0459081836327"
"2037","179.199600798403","-23.8003992015968","3.19960079840319","12.8812375249501","5.99101796407186","-12.0459081836327"
"2041","179.199600798403","-23.8003992015968","3.19960079840319","-12.1187624750499","18.9910179640719","-10.0459081836327"
"2049","138.199600798403","4.19960079840319","-55.8003992015968","-12.1187624750499","18.9910179640719","-10.0459081836327"
"2049","138.199600798403","4.19960079840319","-55.8003992015968","-7.1187624750499","-22.0089820359281","-9.04590818363273"
"2057","178.199600798403","-55.8003992015968","0.199600798403194","-7.1187624750499","-22.0089820359281","-9.04590818363273"
"2058","178.199600798403","-55.8003992015968","0.199600798403194","-8.1187624750499","8.99101796407186","-11.0459081836327"
"2070","-190.800399201597","144.199600798403","-145.800399201597","-8.1187624750499","8.99101796407186","-11.0459081836327"
"2070","-190.800399201597","144.199600798403","-145.800399201597","12.8812375249501","33.9910179640719","-10.0459081836327"
"2078","41.1996007984032","70.1996007984032","-130.800399201597","12.8812375249501","33.9910179640719","-10.0459081836327"
"2078","41.1996007984032","70.1996007984032","-130.800399201597","36.8812375249501","43.9910179640719","-17.0459081836327"
"2090","265.199600798403","-26.8003992015968","51.1996007984032","36.8812375249501","43.9910179640719","-17.0459081836327"
"2090","265.199600798403","-26.8003992015968","51.1996007984032","-23.1187624750499","-34.0089820359281","-32.0459081836327"
"2098","-180.800399201597","-33.8003992015968","-87.8003992015968","-23.1187624750499","-34.0089820359281","-32.0459081836327"
"2099","-180.800399201597","-33.8003992015968","-87.8003992015968","-37.1187624750499","0.991017964071856","-36.0459081836327"
"2107","-180.800399201597","-33.8003992015968","-87.8003992015968","-37.1187624750499","0.991017964071856","-36.0459081836327"
"2107","-180.800399201597","-33.8003992015968","-87.8003992015968","-37.1187624750499","0.991017964071856","-36.0459081836327"
"2115","-60.8003992015968","184.199600798403","-113.800399201597","-37.1187624750499","0.991017964071856","-36.0459081836327"
"2118","-60.8003992015968","184.199600798403","-113.800399201597","4.8812375249501","43.9910179640719","-32.0459081836327"
"2127","182.199600798403","-8.80039920159681","43.1996007984032","4.8812375249501","43.9910179640719","-32.0459081836327"
"2131","182.199600798403","-8.80039920159681","43.1996007984032","-19.1187624750499","-40.0089820359281","-35.0459081836327"
"2139","147.199600798403","-71.8003992015968","-5.80039920159681","-19.1187624750499","-40.0089820359281","-35.0459081836327"
"2139","147.199600798403","-71.8003992015968","-5.80039920159681","-124.11876247505","14.9910179640719","-30.0459081836327"
"2147","142.199600798403","220.199600798403","100.199600798403","-124.11876247505","14.9910179640719","-30.0459081836327"
"2151","142.199600798403","220.199600798403","100.199600798403","18.8812375249501","-37.0089820359281","-35.0459081836327"
"2156","142.199600798403","220.199600798403","100.199600798403","18.8812375249501","-37.0089820359281","-35.0459081836327"
"2156","142.199600798403","220.199600798403","100.199600798403","18.8812375249501","-37.0089820359281","-35.0459081836327"
"2168","-107.800399201597","167.199600798403","-207.800399201597","18.8812375249501","-37.0089820359281","-35.0459081836327"
"2168","-107.800399201597","167.199600798403","-207.800399201597","80.8812375249501","18.9910179640719","-29.0459081836327"
"2180","123.199600798403","80.1996007984032","-33.8003992015968","80.8812375249501","18.9910179640719","-29.0459081836327"
"2180","123.199600798403","80.1996007984032","-33.8003992015968","-47.1187624750499","-4.00898203592814","-42.0459081836327"
"2188","-52.8003992015968","112.199600798403","-95.8003992015968","-47.1187624750499","-4.00898203592814","-42.0459081836327"
"2189","-52.8003992015968","112.199600798403","-95.8003992015968","71.8812375249501","9.99101796407186","-50.0459081836327"
"2196","71.1996007984032","-75.8003992015968","1.19960079840319","71.8812375249501","9.99101796407186","-50.0459081836327"
"2201","71.1996007984032","-75.8003992015968","1.19960079840319","-21.1187624750499","6.99101796407186","-52.0459081836327"
"2205","71.1996007984032","-75.8003992015968","1.19960079840319","-21.1187624750499","6.99101796407186","-52.0459081836327"
"2209","71.1996007984032","-75.8003992015968","1.19960079840319","-21.1187624750499","6.99101796407186","-52.0459081836327"
"2217","78.1996007984032","66.1996007984032","-49.8003992015968","-21.1187624750499","6.99101796407186","-52.0459081836327"
"2217","78.1996007984032","66.1996007984032","-49.8003992015968","-8.1187624750499","-3.00898203592814","-56.0459081836327"
"2229","87.1996007984032","-89.8003992015968","10.1996007984032","-8.1187624750499","-3.00898203592814","-56.0459081836327"
"2229","87.1996007984032","-89.8003992015968","10.1996007984032","-39.1187624750499","-0.00898203592814371","-56.0459081836327"
"2237","53.1996007984032","66.1996007984032","-50.8003992015968","-39.1187624750499","-0.00898203592814371","-56.0459081836327"
"2241","53.1996007984032","66.1996007984032","-50.8003992015968","8.8812375249501","-5.00898203592814","-58.0459081836327"
"2250","89.1996007984032","-2.80039920159681","-11.8003992015968","8.8812375249501","-5.00898203592814","-58.0459081836327"
"2250","89.1996007984032","-2.80039920159681","-11.8003992015968","13.8812375249501","-15.0089820359281","-57.0459081836327"
"2258","89.1996007984032","-2.80039920159681","-11.8003992015968","13.8812375249501","-15.0089820359281","-57.0459081836327"
"2258","89.1996007984032","-2.80039920159681","-11.8003992015968","13.8812375249501","-15.0089820359281","-57.0459081836327"
"2266","139.199600798403","-60.8003992015968","10.1996007984032","13.8812375249501","-15.0089820359281","-57.0459081836327"
"2266","139.199600798403","-60.8003992015968","10.1996007984032","-25.1187624750499","-12.0089820359281","-57.0459081836327"
"2279","61.1996007984032","5.19960079840319","8.19960079840319","-25.1187624750499","-12.0089820359281","-57.0459081836327"
"2279","61.1996007984032","5.19960079840319","8.19960079840319","14.8812375249501","11.9910179640719","-54.0459081836327"
"2287","10.1996007984032","20.1996007984032","-33.8003992015968","14.8812375249501","11.9910179640719","-54.0459081836327"
"2291","10.1996007984032","20.1996007984032","-33.8003992015968","-5.1187624750499","4.99101796407186","-57.0459081836327"
"2299","4.19960079840319","11.1996007984032","-67.8003992015968","-5.1187624750499","4.99101796407186","-57.0459081836327"
"2299","4.19960079840319","11.1996007984032","-67.8003992015968","-3.1187624750499","-0.00898203592814371","-57.0459081836327"
"2307","4.19960079840319","11.1996007984032","-67.8003992015968","-3.1187624750499","-0.00898203592814371","-57.0459081836327"
"2307","4.19960079840319","11.1996007984032","-67.8003992015968","-3.1187624750499","-0.00898203592814371","-57.0459081836327"
"2315","47.1996007984032","-31.8003992015968","-47.8003992015968","-3.1187624750499","-0.00898203592814371","-57.0459081836327"
"2316","47.1996007984032","-31.8003992015968","-47.8003992015968","-16.1187624750499","-7.00898203592814","-55.0459081836327"
"2328","140.199600798403","130.199600798403","23.1996007984032","-16.1187624750499","-7.00898203592814","-55.0459081836327"
"2332","140.199600798403","130.199600798403","23.1996007984032","25.8812375249501","-32.0089820359281","-51.0459081836327"
"2340","190.199600798403","-83.8003992015968","20.1996007984032","25.8812375249501","-32.0089820359281","-51.0459081836327"
"2340","190.199600798403","-83.8003992015968","20.1996007984032","-8.1187624750499","-32.0089820359281","-52.0459081836327"
"2348","77.1996007984032","-147.800399201597","-25.8003992015968","-8.1187624750499","-32.0089820359281","-52.0459081836327"
"2352","77.1996007984032","-147.800399201597","-25.8003992015968","-69.1187624750499","-11.0089820359281","-50.0459081836327"
"2356","77.1996007984032","-147.800399201597","-25.8003992015968","-69.1187624750499","-11.0089820359281","-50.0459081836327"
"2357","77.1996007984032","-147.800399201597","-25.8003992015968","-69.1187624750499","-11.0089820359281","-50.0459081836327"
"2365","45.1996007984032","-133.800399201597","-26.8003992015968","-69.1187624750499","-11.0089820359281","-50.0459081836327"
"2368","45.1996007984032","-133.800399201597","-26.8003992015968","-51.1187624750499","14.9910179640719","-48.0459081836327"
"2381","95.1996007984032","22.1996007984032","-25.8003992015968","-51.1187624750499","14.9910179640719","-48.0459081836327"
"2381","95.1996007984032","22.1996007984032","-25.8003992015968","34.8812375249501","-2.00898203592814","-54.0459081836327"
"2389","82.1996007984032","-0.800399201596806","-9.80039920159681","34.8812375249501","-2.00898203592814","-54.0459081836327"
"2389","82.1996007984032","-0.800399201596806","-9.80039920159681","13.8812375249501","-12.0089820359281","-59.0459081836327"
"2397","57.1996007984032","32.1996007984032","-60.8003992015968","13.8812375249501","-12.0089820359281","-59.0459081836327"
"2401","57.1996007984032","32.1996007984032","-60.8003992015968","13.8812375249501","-12.0089820359281","-59.0459081836327"
"2405","57.1996007984032","32.1996007984032","-60.8003992015968","13.8812375249501","-12.0089820359281","-59.0459081836327"
"2409","57.1996007984032","32.1996007984032","-60.8003992015968","5.8812375249501","5.99101796407186","-55.0459081836327"
"2418","-24.8003992015968","30.1996007984032","-79.8003992015968","5.8812375249501","5.99101796407186","-55.0459081836327"
"2418","-24.8003992015968","30.1996007984032","-79.8003992015968","14.8812375249501","0.991017964071856","-56.0459081836327"
"2430","154.199600798403","-81.8003992015968","46.1996007984032","14.8812375249501","0.991017964071856","-56.0459081836327"
"2430","154.199600798403","-81.8003992015968","46.1996007984032","-26.1187624750499","0.991017964071856","-52.0459081836327"
"2438","26.1996007984032","102.199600798403","-93.8003992015968","-26.1187624750499","0.991017964071856","-52.0459081836327"
"2442","26.1996007984032","102.199600798403","-93.8003992015968","-48.1187624750499","-24.0089820359281","-48.0459081836327"
"2450","57.1996007984032","-29.8003992015968","-48.8003992015968","-48.1187624750499","-24.0089820359281","-48.0459081836327"
"2451","57.1996007984032","-29.8003992015968","-48.8003992015968","19.8812375249501","-20.0089820359281","-38.0459081836327"
"2459","57.1996007984032","-29.8003992015968","-48.8003992015968","19.8812375249501","-20.0089820359281","-38.0459081836327"
"2459","57.1996007984032","-29.8003992015968","-48.8003992015968","22.8812375249501","19.9910179640719","-22.0459081836327"
"2467","108.199600798403","-58.8003992015968","1.19960079840319","22.8812375249501","19.9910179640719","-22.0459081836327"
"2467","108.199600798403","-58.8003992015968","1.19960079840319","-40.1187624750499","6.99101796407186","-20.0459081836327"
"2479","5.19960079840319","18.1996007984032","-49.8003992015968","-40.1187624750499","6.99101796407186","-20.0459081836327"
"2479","5.19960079840319","18.1996007984032","-49.8003992015968","-16.1187624750499","5.99101796407186","-20.0459081836327"
"2487","18.1996007984032","72.1996007984032","-48.8003992015968","-16.1187624750499","5.99101796407186","-20.0459081836327"
"2491","18.1996007984032","72.1996007984032","-48.8003992015968","-19.1187624750499","24.9910179640719","-17.0459081836327"
"2500","25.1996007984032","-44.8003992015968","-39.8003992015968","-19.1187624750499","24.9910179640719","-17.0459081836327"
"2500","25.1996007984032","-44.8003992015968","-39.8003992015968","27.8812375249501","10.9910179640719","-21.0459081836327"
"2508","25.1996007984032","-44.8003992015968","-39.8003992015968","27.8812375249501","10.9910179640719","-21.0459081836327"
"2508","25.1996007984032","-44.8003992015968","-39.8003992015968","0.8812375249501","8.99101796407186","-18.0459081836327"
"2516","68.1996007984032","-8.80039920159681","-1.80039920159681","0.8812375249501","8.99101796407186","-18.0459081836327"
"2516","68.1996007984032","-8.80039920159681","-1.80039920159681","-34.1187624750499","-2.00898203592814","-18.0459081836327"
"2528","-37.8003992015968","1.19960079840319","-85.8003992015968","-34.1187624750499","-2.00898203592814","-18.0459081836327"
"2529","-37.8003992015968","1.19960079840319","-85.8003992015968","16.8812375249501","6.99101796407186","-10.0459081836327"
"2541","92.1996007984032","101.199600798403","1.19960079840319","16.8812375249501","6.99101796407186","-10.0459081836327"
"2541","92.1996007984032","101.199600798403","1.19960079840319","7.8812375249501","15.9910179640719","-5.04590818363273"
"2549","93.1996007984032","90.1996007984032","-28.8003992015968","7.8812375249501","15.9910179640719","-5.04590818363273"
"2549","93.1996007984032","90.1996007984032","-28.8003992015968","-10.1187624750499","-6.00898203592814","-1.04590818363273"
"2561","47.1996007984032","3.19960079840319","-50.8003992015968","-10.1187624750499","-6.00898203592814","-1.04590818363273"
"2561","47.1996007984032","3.19960079840319","-50.8003992015968","-12.1187624750499","0.991017964071856","5.95409181636727"
"2569","65.1996007984032","-66.8003992015968","-9.80039920159681","-12.1187624750499","0.991017964071856","5.95409181636727"
"2569","65.1996007984032","-66.8003992015968","-9.80039920159681","-12.1187624750499","0.991017964071856","5.95409181636727"
"2577","73.1996007984032","4.19960079840319","-3.80039920159681","-12.1187624750499","0.991017964071856","5.95409181636727"
"2582","73.1996007984032","4.19960079840319","-3.80039920159681","-53.1187624750499","9.99101796407186","5.95409181636727"
"2590","28.1996007984032","9.19960079840319","-29.8003992015968","-53.1187624750499","9.99101796407186","5.95409181636727"
"2590","28.1996007984032","9.19960079840319","-29.8003992015968","-28.1187624750499","9.99101796407186","3.95409181636727"
"2598","28.1996007984032","4.19960079840319","-32.8003992015968","-28.1187624750499","9.99101796407186","3.95409181636727"
"2602","28.1996007984032","4.19960079840319","-32.8003992015968","0.8812375249501","11.9910179640719","1.95409181636727"
"2610","28.1996007984032","4.19960079840319","-32.8003992015968","0.8812375249501","11.9910179640719","1.95409181636727"
"2610","28.1996007984032","4.19960079840319","-32.8003992015968","-8.1187624750499","16.9910179640719","-3.04590818363273"
"2618","-54.8003992015968","62.1996007984032","-68.8003992015968","-8.1187624750499","16.9910179640719","-3.04590818363273"
"2622","-54.8003992015968","62.1996007984032","-68.8003992015968","7.8812375249501","12.9910179640719","-5.04590818363273"
"2631","-33.8003992015968","-33.8003992015968","-41.8003992015968","7.8812375249501","12.9910179640719","-5.04590818363273"
"2631","-33.8003992015968","-33.8003992015968","-41.8003992015968","8.8812375249501","11.9910179640719","-2.04590818363273"
"2639","-12.8003992015968","-70.8003992015968","-28.8003992015968","8.8812375249501","11.9910179640719","-2.04590818363273"
"2639","-12.8003992015968","-70.8003992015968","-28.8003992015968","-33.1187624750499","6.99101796407186","-0.0459081836327345"
"2651","52.1996007984032","-31.8003992015968","-34.8003992015968","-33.1187624750499","6.99101796407186","-0.0459081836327345"
"2652","52.1996007984032","-31.8003992015968","-34.8003992015968","-56.1187624750499","-12.0089820359281","3.95409181636727"
"2655","52.1996007984032","-31.8003992015968","-34.8003992015968","-56.1187624750499","-12.0089820359281","3.95409181636727"
"2659","52.1996007984032","-31.8003992015968","-34.8003992015968","-26.1187624750499","-15.0089820359281","3.95409181636727"
"2668","146.199600798403","24.1996007984032","2.19960079840319","-26.1187624750499","-15.0089820359281","3.95409181636727"
"2668","146.199600798403","24.1996007984032","2.19960079840319","5.8812375249501","-25.0089820359281","-1.04590818363273"
"2680","63.1996007984032","12.1996007984032","-24.8003992015968","5.8812375249501","-25.0089820359281","-1.04590818363273"
"2680","63.1996007984032","12.1996007984032","-24.8003992015968","24.8812375249501","-22.0089820359281","-11.0459081836327"
"2688","49.1996007984032","-129.800399201597","-6.80039920159681","24.8812375249501","-22.0089820359281","-11.0459081836327"
"2692","49.1996007984032","-129.800399201597","-6.80039920159681","16.8812375249501","4.99101796407186","-10.0459081836327"
"2701","40.1996007984032","-140.800399201597","-17.8003992015968","16.8812375249501","4.99101796407186","-10.0459081836327"
"2701","40.1996007984032","-140.800399201597","-17.8003992015968","-37.1187624750499","10.9910179640719","-8.04590818363273"
"2709","40.1996007984032","-140.800399201597","-17.8003992015968","-37.1187624750499","10.9910179640719","-8.04590818363273"
"2709","40.1996007984032","-140.800399201597","-17.8003992015968","-56.1187624750499","14.9910179640719","-12.0459081836327"
"2717","13.1996007984032","92.1996007984032","-21.8003992015968","-56.1187624750499","14.9910179640719","-12.0459081836327"
"2717","13.1996007984032","92.1996007984032","-21.8003992015968","22.8812375249501","16.9910179640719","-11.0459081836327"
"2729","-6.80039920159681","-33.8003992015968","-35.8003992015968","22.8812375249501","16.9910179640719","-11.0459081836327"
"2733","-6.80039920159681","-33.8003992015968","-35.8003992015968","51.8812375249501","18.9910179640719","-15.0459081836327"
"2741","-16.8003992015968","55.1996007984032","-57.8003992015968","51.8812375249501","18.9910179640719","-15.0459081836327"
"2742","-16.8003992015968","55.1996007984032","-57.8003992015968","-12.1187624750499","17.9910179640719","-17.0459081836327"
"2750","-9.80039920159681","43.1996007984032","-19.8003992015968","-12.1187624750499","17.9910179640719","-17.0459081836327"
"2750","-9.80039920159681","43.1996007984032","-19.8003992015968","0.8812375249501","8.99101796407186","-20.0459081836327"
"2758","-9.80039920159681","43.1996007984032","-19.8003992015968","0.8812375249501","8.99101796407186","-20.0459081836327"
"2758","-9.80039920159681","43.1996007984032","-19.8003992015968","24.8812375249501","2.99101796407186","-13.0459081836327"
"2766","28.1996007984032","-49.8003992015968","-13.8003992015968","24.8812375249501","2.99101796407186","-13.0459081836327"
"2766","28.1996007984032","-49.8003992015968","-13.8003992015968","-26.1187624750499","-0.00898203592814371","-9.04590818363273"
"2778","-29.8003992015968","149.199600798403","-47.8003992015968","-26.1187624750499","-0.00898203592814371","-9.04590818363273"
"2782","-29.8003992015968","149.199600798403","-47.8003992015968","-41.1187624750499","-3.00898203592814","-4.04590818363273"
"2791","28.1996007984032","58.1996007984032","-58.8003992015968","-41.1187624750499","-3.00898203592814","-4.04590818363273"
"2791","28.1996007984032","58.1996007984032","-58.8003992015968","12.8812375249501","-4.00898203592814","0.954091816367265"
"2799","45.1996007984032","-106.800399201597","-58.8003992015968","12.8812375249501","-4.00898203592814","0.954091816367265"
"2803","45.1996007984032","-106.800399201597","-58.8003992015968","20.8812375249501","-7.00898203592814","0.954091816367265"
"2807","45.1996007984032","-106.800399201597","-58.8003992015968","20.8812375249501","-7.00898203592814","0.954091816367265"
"2807","45.1996007984032","-106.800399201597","-58.8003992015968","-58.1187624750499","-19.0089820359281","-1.04590818363273"
"2815","91.1996007984032","-127.800399201597","11.1996007984032","-58.1187624750499","-19.0089820359281","-1.04590818363273"
"2819","91.1996007984032","-127.800399201597","11.1996007984032","-67.1187624750499","-20.0089820359281","-6.04590818363273"
"2831","42.1996007984032","-38.8003992015968","3.19960079840319","-67.1187624750499","-20.0089820359281","-6.04590818363273"
"2832","42.1996007984032","-38.8003992015968","3.19960079840319","9.8812375249501","-7.00898203592814","-10.0459081836327"
"2840","61.1996007984032","-47.8003992015968","-24.8003992015968","9.8812375249501","-7.00898203592814","-10.0459081836327"
"2840","61.1996007984032","-47.8003992015968","-24.8003992015968","3.8812375249501","-0.00898203592814371","-14.0459081836327"
"2852","116.199600798403","-10.8003992015968","-23.8003992015968","3.8812375249501","-0.00898203592814371","-14.0459081836327"
"2852","116.199600798403","-10.8003992015968","-23.8003992015968","-18.1187624750499","2.99101796407186","-15.0459081836327"
"2856","116.199600798403","-10.8003992015968","-23.8003992015968","-18.1187624750499","2.99101796407186","-15.0459081836327"
"2860","116.199600798403","-10.8003992015968","-23.8003992015968","-1.1187624750499","-2.00898203592814","-18.0459081836327"
"2868","9.19960079840319","53.1996007984032","-10.8003992015968","-1.1187624750499","-2.00898203592814","-18.0459081836327"
"2872","9.19960079840319","53.1996007984032","-10.8003992015968","12.8812375249501","10.9910179640719","-19.0459081836327"
"2881","-23.8003992015968","31.1996007984032","-24.8003992015968","12.8812375249501","10.9910179640719","-19.0459081836327"
"2881","-23.8003992015968","31.1996007984032","-24.8003992015968","19.8812375249501","29.9910179640719","-17.0459081836327"
"2889","-55.8003992015968","-89.8003992015968","-77.8003992015968","19.8812375249501","29.9910179640719","-17.0459081836327"
"2893","-55.8003992015968","-89.8003992015968","-77.8003992015968","-10.1187624750499","28.9910179640719","-13.0459081836327"
"2901","-35.8003992015968","-184.800399201597","-72.8003992015968","-10.1187624750499","28.9910179640719","-13.0459081836327"
"2902","-35.8003992015968","-184.800399201597","-72.8003992015968","-7.1187624750499","27.9910179640719","-15.0459081836327"
"2909","-35.8003992015968","-184.800399201597","-72.8003992015968","-7.1187624750499","27.9910179640719","-15.0459081836327"
"2910","-35.8003992015968","-184.800399201597","-72.8003992015968","-47.1187624750499","20.9910179640719","-13.0459081836327"
"2922","69.1996007984032","179.199600798403","51.1996007984032","-47.1187624750499","20.9910179640719","-13.0459081836327"
"2922","69.1996007984032","179.199600798403","51.1996007984032","5.8812375249501","8.99101796407186","-15.0459081836327"
"2930","81.1996007984032","77.1996007984032","-21.8003992015968","5.8812375249501","8.99101796407186","-15.0459081836327"
"2930","81.1996007984032","77.1996007984032","-21.8003992015968","80.8812375249501","0.991017964071856","-15.0459081836327"
"2942","-164.800399201597","-142.800399201597","-245.800399201597","80.8812375249501","0.991017964071856","-15.0459081836327"
"2942","-164.800399201597","-142.800399201597","-245.800399201597","34.8812375249501","-11.0089820359281","-15.0459081836327"
"2950","-265.800399201597","-333.800399201597","116.199600798403","34.8812375249501","-11.0089820359281","-15.0459081836327"
"2951","-265.800399201597","-333.800399201597","116.199600798403","-51.1187624750499","13.9910179640719","-12.0459081836327"
"2959","-265.800399201597","-333.800399201597","116.199600798403","-51.1187624750499","13.9910179640719","-12.0459081836327"
"2959","-265.800399201597","-333.800399201597","116.199600798403","-117.11876247505","14.9910179640719","-5.04590818363273"
"2967","337.199600798403","134.199600798403","565.199600798403","-117.11876247505","14.9910179640719","-5.04590818363273"
"2967","337.199600798403","134.199600798403","565.199600798403","10.8812375249501","-46.0089820359281","9.95409181636727"
"2979","-131.800399201597","-90.8003992015968","-493.800399201597","10.8812375249501","-46.0089820359281","9.95409181636727"
"2983","-131.800399201597","-90.8003992015968","-493.800399201597","258.88123752495","-107.008982035928","6.95409181636727"
"2991","409.199600798403","-370.800399201597","-17.8003992015968","258.88123752495","-107.008982035928","6.95409181636727"
"2992","409.199600798403","-370.800399201597","-17.8003992015968","26.8812375249501","26.9910179640719","8.95409181636727"
"3000","399.199600798403","635.199600798403","439.199600798403","26.8812375249501","26.9910179640719","8.95409181636727"
"3003","399.199600798403","635.199600798403","439.199600798403","-331.11876247505","-45.0089820359281","-19.0459081836327"
"3008","399.199600798403","635.199600798403","439.199600798403","-331.11876247505","-45.0089820359281","-19.0459081836327"
"3011","399.199600798403","635.199600798403","439.199600798403","237.88123752495","9.99101796407186","-24.0459081836327"
"3015","-453.800399201597","1096.1996007984","-42.8003992015968","237.88123752495","9.99101796407186","-24.0459081836327"
"3015","-453.800399201597","1096.1996007984","-42.8003992015968","509.88123752495","130.991017964072","-3.04590818363273"
"3031","28.1996007984032","-549.800399201597","-251.800399201597","509.88123752495","130.991017964072","-3.04590818363273"
"3031","28.1996007984032","-549.800399201597","-251.800399201597","-71.1187624750499","99.9910179640719","4.95409181636727"
"3040","305.199600798403","-518.800399201597","318.199600798403","-71.1187624750499","99.9910179640719","4.95409181636727"
"3040","305.199600798403","-518.800399201597","318.199600798403","-366.11876247505","26.9910179640719","-0.0459081836327345"
"3052","-321.800399201597","687.199600798403","-44.8003992015968","-366.11876247505","26.9910179640719","-0.0459081836327345"
"3052","-321.800399201597","687.199600798403","-44.8003992015968","-146.11876247505","-15.0089820359281","13.9540918163673"
"3056","-321.800399201597","687.199600798403","-44.8003992015968","-146.11876247505","-15.0089820359281","13.9540918163673"
"3060","-321.800399201597","687.199600798403","-44.8003992015968","130.88123752495","48.9910179640719","29.9540918163673"
"3064","-99.8003992015968","813.199600798403","1.19960079840319","130.88123752495","48.9910179640719","29.9540918163673"
"3068","-99.8003992015968","813.199600798403","1.19960079840319","311.88123752495","81.9910179640719","42.9540918163673"
"3081","130.199600798403","-847.800399201597","-22.8003992015968","311.88123752495","81.9910179640719","42.9540918163673"
"3081","130.199600798403","-847.800399201597","-22.8003992015968","42.8812375249501","10.9910179640719","6.95409181636727"
"3089","-17.8003992015968","329.199600798403","53.1996007984032","42.8812375249501","10.9910179640719","6.95409181636727"
"3093","-17.8003992015968","329.199600798403","53.1996007984032","-420.11876247505","-31.0089820359281","-3.04590818363273"
"3101","-192.800399201597","930.199600798403","-31.8003992015968","-420.11876247505","-31.0089820359281","-3.04590818363273"
"3101","-192.800399201597","930.199600798403","-31.8003992015968","-172.11876247505","-50.0089820359281","-11.0459081836327"
"3109","-192.800399201597","930.199600798403","-31.8003992015968","-172.11876247505","-50.0089820359281","-11.0459081836327"
"3109","-192.800399201597","930.199600798403","-31.8003992015968","404.88123752495","6.99101796407186","15.9540918163673"
"3117","-8.80039920159681","419.199600798403","-13.8003992015968","404.88123752495","6.99101796407186","15.9540918163673"
"3117","-8.80039920159681","419.199600798403","-13.8003992015968","161.88123752495","-17.0089820359281","19.9540918163673"
"3130","253.199600798403","-156.800399201597","-36.8003992015968","161.88123752495","-17.0089820359281","19.9540918163673"
"3130","253.199600798403","-156.800399201597","-36.8003992015968","-367.11876247505","-41.0089820359281","11.9540918163673"
"3142","-77.8003992015968","342.199600798403","-51.8003992015968","-367.11876247505","-41.0089820359281","11.9540918163673"
"3142","-77.8003992015968","342.199600798403","-51.8003992015968","-227.11876247505","-79.0089820359281","4.95409181636727"
"3150","-10.8003992015968","330.199600798403","114.199600798403","-227.11876247505","-79.0089820359281","4.95409181636727"
"3150","-10.8003992015968","330.199600798403","114.199600798403","200.88123752495","20.9910179640719","19.9540918163673"
"3158","-10.8003992015968","330.199600798403","114.199600798403","200.88123752495","20.9910179640719","19.9540918163673"
"3159","-10.8003992015968","330.199600798403","114.199600798403","159.88123752495","27.9910179640719","11.9540918163673"
"3166","122.199600798403","-267.800399201597","-50.8003992015968","159.88123752495","27.9910179640719","11.9540918163673"
"3167","122.199600798403","-267.800399201597","-50.8003992015968","-96.1187624750499","13.9910179640719","-8.04590818363273"
"3179","15.1996007984032","-133.800399201597","-128.800399201597","-96.1187624750499","13.9910179640719","-8.04590818363273"
"3183","15.1996007984032","-133.800399201597","-128.800399201597","-125.11876247505","-23.0089820359281","-18.0459081836327"
"3191","-34.8003992015968","331.199600798403","111.199600798403","-125.11876247505","-23.0089820359281","-18.0459081836327"
"3191","-34.8003992015968","331.199600798403","111.199600798403","3.8812375249501","13.9910179640719","-17.0459081836327"
"3199","-50.8003992015968","321.199600798403","-73.8003992015968","3.8812375249501","13.9910179640719","-17.0459081836327"
"3203","-50.8003992015968","321.199600798403","-73.8003992015968","109.88123752495","36.9910179640719","-12.0459081836327"
"3207","-50.8003992015968","321.199600798403","-73.8003992015968","109.88123752495","36.9910179640719","-12.0459081836327"
"3208","-50.8003992015968","321.199600798403","-73.8003992015968","129.88123752495","15.9910179640719","-9.04590818363273"
"3215","80.1996007984032","-58.8003992015968","-58.8003992015968","129.88123752495","15.9910179640719","-9.04590818363273"
"3216","80.1996007984032","-58.8003992015968","-58.8003992015968","-33.1187624750499","-2.00898203592814","-4.04590818363273"
"3232","-106.800399201597","62.1996007984032","-74.8003992015968","-33.1187624750499","-2.00898203592814","-4.04590818363273"
"3232","-106.800399201597","62.1996007984032","-74.8003992015968","-174.11876247505","0.991017964071856","0.954091816367265"
"3240","2.19960079840319","337.199600798403","21.1996007984032","-174.11876247505","0.991017964071856","0.954091816367265"
"3240","2.19960079840319","337.199600798403","21.1996007984032","-32.1187624750499","5.99101796407186","7.95409181636727"
"3252","-94.8003992015968","321.199600798403","-101.800399201597","-32.1187624750499","5.99101796407186","7.95409181636727"
"3253","-94.8003992015968","321.199600798403","-101.800399201597","156.88123752495","22.9910179640719","13.9540918163673"
"3257","-94.8003992015968","321.199600798403","-101.800399201597","156.88123752495","22.9910179640719","13.9540918163673"
"3261","-94.8003992015968","321.199600798403","-101.800399201597","109.88123752495","4.99101796407186","6.95409181636727"
"3265","43.1996007984032","-257.800399201597","-39.8003992015968","109.88123752495","4.99101796407186","6.95409181636727"
"3269","43.1996007984032","-257.800399201597","-39.8003992015968","-104.11876247505","-14.0089820359281","-0.0459081836327345"
"3281","9.19960079840319","199.199600798403","-15.8003992015968","-104.11876247505","-14.0089820359281","-0.0459081836327345"
"3281","9.19960079840319","199.199600798403","-15.8003992015968","-108.11876247505","-14.0089820359281","-3.04590818363273"
"3289","-13.8003992015968","30.1996007984032","-75.8003992015968","-108.11876247505","-14.0089820359281","-3.04590818363273"
"3289","-13.8003992015968","30.1996007984032","-75.8003992015968","70.8812375249501","-2.00898203592814","5.95409181636727"
"3302","42.1996007984032","-147.800399201597","-44.8003992015968","70.8812375249501","-2.00898203592814","5.95409181636727"
"3302","42.1996007984032","-147.800399201597","-44.8003992015968","74.8812375249501","15.9910179640719","11.9540918163673"
"3310","42.1996007984032","-147.800399201597","-44.8003992015968","74.8812375249501","15.9910179640719","11.9540918163673"
"3310","42.1996007984032","-147.800399201597","-44.8003992015968","-75.1187624750499","10.9910179640719","9.95409181636727"
"3314","93.1996007984032","-126.800399201597","0.199600798403194","-75.1187624750499","10.9910179640719","9.95409181636727"
"3318","93.1996007984032","-126.800399201597","0.199600798403194","-87.1187624750499","-3.00898203592814","10.9540918163673"
"3330","-52.8003992015968","12.1996007984032","-13.8003992015968","-87.1187624750499","-3.00898203592814","10.9540918163673"
"3330","-52.8003992015968","12.1996007984032","-13.8003992015968","11.8812375249501","7.99101796407186","11.9540918163673"
"3342","-44.8003992015968","-173.800399201597","-37.8003992015968","11.8812375249501","7.99101796407186","11.9540918163673"
"3342","-44.8003992015968","-173.800399201597","-37.8003992015968","45.8812375249501","32.9910179640719","16.9540918163673"
"3351","68.1996007984032","-230.800399201597","-28.8003992015968","45.8812375249501","32.9910179640719","16.9540918163673"
"3351","68.1996007984032","-230.800399201597","-28.8003992015968","-41.1187624750499","11.9910179640719","7.95409181636727"
"3359","68.1996007984032","-230.800399201597","-28.8003992015968","-41.1187624750499","11.9910179640719","7.95409181636727"
"3359","68.1996007984032","-230.800399201597","-28.8003992015968","-69.1187624750499","-1.00898203592814","4.95409181636727"
"3367","59.1996007984032","46.1996007984032","-55.8003992015968","-69.1187624750499","-1.00898203592814","4.95409181636727"
"3367","59.1996007984032","46.1996007984032","-55.8003992015968","21.8812375249501","-7.00898203592814","-5.04590818363273"
"3379","-40.8003992015968","187.199600798403","-23.8003992015968","21.8812375249501","-7.00898203592814","-5.04590818363273"
"3383","-40.8003992015968","187.199600798403","-23.8003992015968","91.8812375249501","23.9910179640719","-0.0459081836327345"
"3392","1.19960079840319","-98.8003992015968","-56.8003992015968","91.8812375249501","23.9910179640719","-0.0459081836327345"
"3392","1.19960079840319","-98.8003992015968","-56.8003992015968","76.8812375249501","27.9910179640719","2.95409181636727"
"3400","69.1996007984032","-167.800399201597","-41.8003992015968","76.8812375249501","27.9910179640719","2.95409181636727"
"3404","69.1996007984032","-167.800399201597","-41.8003992015968","-15.1187624750499","22.9910179640719","7.95409181636727"
"3408","69.1996007984032","-167.800399201597","-41.8003992015968","-15.1187624750499","22.9910179640719","7.95409181636727"
"3408","69.1996007984032","-167.800399201597","-41.8003992015968","-67.1187624750499","5.99101796407186","11.9540918163673"
"3416","67.1996007984032","-66.8003992015968","-21.8003992015968","-67.1187624750499","5.99101796407186","11.9540918163673"
"3417","67.1996007984032","-66.8003992015968","-21.8003992015968","-35.1187624750499","1.99101796407186","16.9540918163673"
"3433","-4.80039920159681","135.199600798403","-54.8003992015968","-35.1187624750499","1.99101796407186","16.9540918163673"
"3433","-4.80039920159681","135.199600798403","-54.8003992015968","62.8812375249501","24.9910179640719","27.9540918163673"
"3441","86.1996007984032","-84.8003992015968","-32.8003992015968","62.8812375249501","24.9910179640719","27.9540918163673"
"3441","86.1996007984032","-84.8003992015968","-32.8003992015968","75.8812375249501","21.9910179640719","22.9540918163673"
"3449","15.1996007984032","-166.800399201597","-68.8003992015968","75.8812375249501","21.9910179640719","22.9540918163673"
"3453","15.1996007984032","-166.800399201597","-68.8003992015968","-34.1187624750499","8.99101796407186","13.9540918163673"
"3457","15.1996007984032","-166.800399201597","-68.8003992015968","-34.1187624750499","8.99101796407186","13.9540918163673"
"3461","15.1996007984032","-166.800399201597","-68.8003992015968","-86.1187624750499","12.9910179640719","8.95409181636727"
"3470","-14.8003992015968","60.1996007984032","0.199600798403194","-86.1187624750499","12.9910179640719","8.95409181636727"
"3470","-14.8003992015968","60.1996007984032","0.199600798403194","-20.1187624750499","17.9910179640719","7.95409181636727"
"3482","-64.8003992015968","76.1996007984032","-88.8003992015968","-20.1187624750499","17.9910179640719","7.95409181636727"
"3482","-64.8003992015968","76.1996007984032","-88.8003992015968","67.8812375249501","28.9910179640719","9.95409181636727"
"3490","33.1996007984032","-113.800399201597","-11.8003992015968","67.8812375249501","28.9910179640719","9.95409181636727"
"3490","33.1996007984032","-113.800399201597","-11.8003992015968","58.8812375249501","22.9910179640719","9.95409181636727"
"3502","34.1996007984032","106.199600798403","32.1996007984032","58.8812375249501","22.9910179640719","9.95409181636727"
"3502","34.1996007984032","106.199600798403","32.1996007984032","-72.1187624750499","5.99101796407186","7.95409181636727"
"3506","34.1996007984032","106.199600798403","32.1996007984032","-72.1187624750499","5.99101796407186","7.95409181636727"
"3510","34.1996007984032","106.199600798403","32.1996007984032","-23.1187624750499","-5.00898203592814","11.9540918163673"
"3515","35.1996007984032","301.199600798403","-11.8003992015968","-23.1187624750499","-5.00898203592814","11.9540918163673"
"3519","35.1996007984032","301.199600798403","-11.8003992015968","95.8812375249501","5.99101796407186","13.9540918163673"
"3531","33.1996007984032","194.199600798403","-49.8003992015968","95.8812375249501","5.99101796407186","13.9540918163673"
"3531","33.1996007984032","194.199600798403","-49.8003992015968","39.8812375249501","8.99101796407186","10.9540918163673"
"3539","87.1996007984032","-19.8003992015968","-15.8003992015968","39.8812375249501","8.99101796407186","10.9540918163673"
"3543","87.1996007984032","-19.8003992015968","-15.8003992015968","-116.11876247505","12.9910179640719","10.9540918163673"
"3551","67.1996007984032","106.199600798403","49.1996007984032","-116.11876247505","12.9910179640719","10.9540918163673"
"3551","67.1996007984032","106.199600798403","49.1996007984032","-75.1187624750499","2.99101796407186","11.9540918163673"
"3560","67.1996007984032","106.199600798403","49.1996007984032","-75.1187624750499","2.99101796407186","11.9540918163673"
"3560","67.1996007984032","106.199600798403","49.1996007984032","43.8812375249501","21.9910179640719","16.9540918163673"
"3564","11.1996007984032","-0.800399201596806","-10.8003992015968","43.8812375249501","21.9910179640719","16.9540918163673"
"3568","11.1996007984032","-0.800399201596806","-10.8003992015968","28.8812375249501","36.9910179640719","9.95409181636727"
"3580","39.1996007984032","-76.8003992015968","-36.8003992015968","28.8812375249501","36.9910179640719","9.95409181636727"
"3584","39.1996007984032","-76.8003992015968","-36.8003992015968","-43.1187624750499","31.9910179640719","2.95409181636727"
"3592","-95.8003992015968","2.19960079840319","-112.800399201597","-43.1187624750499","31.9910179640719","2.95409181636727"
"3592","-95.8003992015968","2.19960079840319","-112.800399201597","-50.1187624750499","30.9910179640719","-3.04590818363273"
"3600","-87.8003992015968","-627.800399201597","312.199600798403","-50.1187624750499","30.9910179640719","-3.04590818363273"
"3600","-87.8003992015968","-627.800399201597","312.199600798403","8.8812375249501","33.9910179640719","-6.04590818363273"
"3609","-87.8003992015968","-627.800399201597","312.199600798403","8.8812375249501","33.9910179640719","-6.04590818363273"
"3609","-87.8003992015968","-627.800399201597","312.199600798403","-15.1187624750499","40.9910179640719","-1.04590818363273"
"3617","157.199600798403","-835.800399201597","412.199600798403","-15.1187624750499","40.9910179640719","-1.04590818363273"
"3617","157.199600798403","-835.800399201597","412.199600798403","-114.11876247505","-25.0089820359281","-1.04590818363273"
"3629","-295.800399201597","-190.800399201597","-372.800399201597","-114.11876247505","-25.0089820359281","-1.04590818363273"
"3633","-295.800399201597","-190.800399201597","-372.800399201597","79.8812375249501","-1.00898203592814","3.95409181636727"
"3641","60.1996007984032","349.199600798403","-534.800399201597","79.8812375249501","-1.00898203592814","3.95409181636727"
"3641","60.1996007984032","349.199600798403","-534.800399201597","374.88123752495","-3.00898203592814","-5.04590818363273"
"3649","283.199600798403","383.199600798403","802.199600798403","374.88123752495","-3.00898203592814","-5.04590818363273"
"3653","283.199600798403","383.199600798403","802.199600798403","190.88123752495","-33.0089820359281","-29.0459081836327"
"3658","283.199600798403","383.199600798403","802.199600798403","190.88123752495","-33.0089820359281","-29.0459081836327"
"3658","283.199600798403","383.199600798403","802.199600798403","69.8812375249501","-39.0089820359281","-39.0459081836327"
"3666","97.1996007984032","339.199600798403","-241.800399201597","69.8812375249501","-39.0089820359281","-39.0459081836327"
"3666","97.1996007984032","339.199600798403","-241.800399201597","227.88123752495","33.9910179640719","-5.04590818363273"
"3678","141.199600798403","-546.800399201597","-245.800399201597","227.88123752495","33.9910179640719","-5.04590818363273"
"3678","141.199600798403","-546.800399201597","-245.800399201597","-113.11876247505","15.9910179640719","22.9540918163673"
"3691","-176.800399201597","-685.800399201597","-265.800399201597","-113.11876247505","15.9910179640719","22.9540918163673"
"3691","-176.800399201597","-685.800399201597","-265.800399201597","-414.11876247505","26.9910179640719","41.9540918163673"
"3703","-38.8003992015968","953.199600798403","2.19960079840319","-414.11876247505","26.9910179640719","41.9540918163673"
"3703","-38.8003992015968","953.199600798403","2.19960079840319","-21.1187624750499","0.991017964071856","64.9540918163673"
"3707","-38.8003992015968","953.199600798403","2.19960079840319","-21.1187624750499","0.991017964071856","64.9540918163673"
"3711","-38.8003992015968","953.199600798403","2.19960079840319","376.88123752495","54.9910179640719","97.9540918163673"
"3715","-238.800399201597","-44.8003992015968","-281.800399201597","376.88123752495","54.9910179640719","97.9540918163673"
"3719","-238.800399201597","-44.8003992015968","-281.800399201597","120.88123752495","24.9910179640719","80.9540918163673"
"3728","51.1996007984032","-801.800399201597","-97.8003992015968","120.88123752495","24.9910179640719","80.9540918163673"
"3728","51.1996007984032","-801.800399201597","-97.8003992015968","-461.11876247505","10.9910179640719","67.9540918163673"
"3736","48.1996007984032","135.199600798403","12.1996007984032","-461.11876247505","10.9910179640719","67.9540918163673"
"3740","48.1996007984032","135.199600798403","12.1996007984032","-170.11876247505","-33.0089820359281","28.9540918163673"
"3748","-74.8003992015968","368.199600798403","103.199600798403","-170.11876247505","-33.0089820359281","28.9540918163673"
"3748","-74.8003992015968","368.199600798403","103.199600798403","238.88123752495","-7.00898203592814","34.9540918163673"
"3756","-12.8003992015968","158.199600798403","109.199600798403","238.88123752495","-7.00898203592814","34.9540918163673"
"3756","-12.8003992015968","158.199600798403","109.199600798403","116.88123752495","7.99101796407186","16.9540918163673"
"3765","62.1996007984032","-53.8003992015968","4.19960079840319","116.88123752495","7.99101796407186","16.9540918163673"
"3768","62.1996007984032","-53.8003992015968","4.19960079840319","-74.1187624750499","-30.0089820359281","-7.04590818363273"
"3776","238.199600798403","-111.800399201597","-98.8003992015968","-74.1187624750499","-30.0089820359281","-7.04590818363273"
"3780","238.199600798403","-111.800399201597","-98.8003992015968","-72.1187624750499","-14.0089820359281","-2.04590818363273"
"3789","-18.8003992015968","72.1996007984032","-58.8003992015968","-72.1187624750499","-14.0089820359281","-2.04590818363273"
"3789","-18.8003992015968","72.1996007984032","-58.8003992015968","-9.1187624750499","1.99101796407186","5.95409181636727"
"3797","-66.8003992015968","209.199600798403","29.1996007984032","-9.1187624750499","1.99101796407186","5.95409181636727"
"3797","-66.8003992015968","209.199600798403","29.1996007984032","58.8812375249501","37.9910179640719","25.9540918163673"
"3805","27.1996007984032","-44.8003992015968","16.1996007984032","58.8812375249501","37.9910179640719","25.9540918163673"
"3806","27.1996007984032","-44.8003992015968","16.1996007984032","37.8812375249501","33.9910179640719","31.9540918163673"
"3813","51.1996007984032","-156.800399201597","-116.800399201597","37.8812375249501","33.9910179640719","31.9540918163673"
"3817","51.1996007984032","-156.800399201597","-116.800399201597","-89.1187624750499","-34.0089820359281","24.9540918163673"
"3826","113.199600798403","-127.800399201597","-50.8003992015968","-89.1187624750499","-34.0089820359281","24.9540918163673"
"3830","113.199600798403","-127.800399201597","-50.8003992015968","-80.1187624750499","-16.0089820359281","28.9540918163673"
"3834","-60.8003992015968","186.199600798403","34.1996007984032","-80.1187624750499","-16.0089820359281","28.9540918163673"
"3838","-60.8003992015968","186.199600798403","34.1996007984032","5.8812375249501","-2.00898203592814","33.9540918163673"
"3846","-25.8003992015968","119.199600798403","20.1996007984032","5.8812375249501","-2.00898203592814","33.9540918163673"
"3846","-25.8003992015968","119.199600798403","20.1996007984032","55.8812375249501","13.9910179640719","32.9540918163673"
"3854","33.1996007984032","-165.800399201597","-24.8003992015968","55.8812375249501","13.9910179640719","32.9540918163673"
"3858","33.1996007984032","-165.800399201597","-24.8003992015968","-33.1187624750499","-5.00898203592814","24.9540918163673"
"3867","136.199600798403","-272.800399201597","-63.8003992015968","-33.1187624750499","-5.00898203592814","24.9540918163673"
"3867","136.199600798403","-272.800399201597","-63.8003992015968","-111.11876247505","-18.0089820359281","12.9540918163673"
"3875","54.1996007984032","177.199600798403","-6.80039920159681","-111.11876247505","-18.0089820359281","12.9540918163673"
"3875","54.1996007984032","177.199600798403","-6.80039920159681","18.8812375249501","7.99101796407186","9.95409181636727"
"3887","-55.8003992015968","233.199600798403","-4.80039920159681","18.8812375249501","7.99101796407186","9.95409181636727"
"3887","-55.8003992015968","233.199600798403","-4.80039920159681","97.8812375249501","18.9910179640719","11.9540918163673"
"3895","37.1996007984032","69.1996007984032","32.1996007984032","97.8812375249501","18.9910179640719","11.9540918163673"
"3896","37.1996007984032","69.1996007984032","32.1996007984032","20.8812375249501","22.9910179640719","10.9540918163673"
"3904","10.1996007984032","-135.800399201597","-74.8003992015968","20.8812375249501","22.9910179640719","10.9540918163673"
"3907","10.1996007984032","-135.800399201597","-74.8003992015968","-77.1187624750499","7.99101796407186","5.95409181636727"
"3916","-72.8003992015968","-71.8003992015968","-72.8003992015968","-77.1187624750499","7.99101796407186","5.95409181636727"
"3916","-72.8003992015968","-71.8003992015968","-72.8003992015968","-52.1187624750499","18.9910179640719","8.95409181636727"
"3924","-96.8003992015968","10.1996007984032","-36.8003992015968","-52.1187624750499","18.9910179640719","8.95409181636727"
"3928","-96.8003992015968","10.1996007984032","-36.8003992015968","14.8812375249501","27.9910179640719","17.9540918163673"
"3936","20.1996007984032","59.1996007984032","-33.8003992015968","14.8812375249501","27.9910179640719","17.9540918163673"
"3937","20.1996007984032","59.1996007984032","-33.8003992015968","36.8812375249501","3.99101796407186","11.9540918163673"
"3944","39.1996007984032","54.1996007984032","-61.8003992015968","36.8812375249501","3.99101796407186","11.9540918163673"
"3948","39.1996007984032","54.1996007984032","-61.8003992015968","17.8812375249501","-11.0089820359281","10.9540918163673"
"3957","-3.80039920159681","6.19960079840319","-83.8003992015968","17.8812375249501","-11.0089820359281","10.9540918163673"
"3957","-3.80039920159681","6.19960079840319","-83.8003992015968","-0.1187624750499","-9.00898203592814","14.9540918163673"
"3965","-24.8003992015968","-16.8003992015968","-43.8003992015968","-0.1187624750499","-9.00898203592814","14.9540918163673"
"3965","-24.8003992015968","-16.8003992015968","-43.8003992015968","-25.1187624750499","0.991017964071856","16.9540918163673"
"3973","46.1996007984032","73.1996007984032","41.1996007984032","-25.1187624750499","0.991017964071856","16.9540918163673"
"3977","46.1996007984032","73.1996007984032","41.1996007984032","3.8812375249501","-7.00898203592814","20.9540918163673"
"3985","93.1996007984032","-22.8003992015968","23.1996007984032","3.8812375249501","-7.00898203592814","20.9540918163673"
"3985","93.1996007984032","-22.8003992015968","23.1996007984032","3.8812375249501","-14.0089820359281","20.9540918163673"
"3994","15.1996007984032","-73.8003992015968","-65.8003992015968","3.8812375249501","-14.0089820359281","20.9540918163673"
"3998","15.1996007984032","-73.8003992015968","-65.8003992015968","-41.1187624750499","-6.00898203592814","21.9540918163673"
"4006","-37.8003992015968","142.199600798403","-98.8003992015968","-41.1187624750499","-6.00898203592814","21.9540918163673"
"4006","-37.8003992015968","142.199600798403","-98.8003992015968","-13.1187624750499","8.99101796407186","25.9540918163673"
"4014","-123.800399201597","152.199600798403","-88.8003992015968","-13.1187624750499","8.99101796407186","25.9540918163673"
"4018","-123.800399201597","152.199600798403","-88.8003992015968","30.8812375249501","3.99101796407186","30.9540918163673"
"4027","-116.800399201597","-82.8003992015968","-15.8003992015968","30.8812375249501","3.99101796407186","30.9540918163673"
"4027","-116.800399201597","-82.8003992015968","-15.8003992015968","-9.1187624750499","-1.00898203592814","35.9540918163673"
"4035","-71.8003992015968","-248.800399201597","-25.8003992015968","-9.1187624750499","-1.00898203592814","35.9540918163673"
"4039","-71.8003992015968","-248.800399201597","-25.8003992015968","-97.1187624750499","-25.0089820359281","27.9540918163673"
"4047","148.199600798403","107.199600798403","-3.80039920159681","-97.1187624750499","-25.0089820359281","27.9540918163673"
"4047","148.199600798403","107.199600798403","-3.80039920159681","-16.1187624750499","-58.0089820359281","16.9540918163673"
"4055","150.199600798403","213.199600798403","-23.8003992015968","-16.1187624750499","-58.0089820359281","16.9540918163673"
"4055","150.199600798403","213.199600798403","-23.8003992015968","98.8812375249501","-37.0089820359281","15.9540918163673"
"4063","95.1996007984032","45.1996007984032","10.1996007984032","98.8812375249501","-37.0089820359281","15.9540918163673"
"4067","95.1996007984032","45.1996007984032","10.1996007984032","35.8812375249501","-9.00898203592814","15.9540918163673"
"4076","18.1996007984032","-120.800399201597","-6.80039920159681","35.8812375249501","-9.00898203592814","15.9540918163673"
"4080","18.1996007984032","-120.800399201597","-6.80039920159681","-76.1187624750499","14.9910179640719","19.9540918163673"
"4084","-38.8003992015968","12.1996007984032","-16.8003992015968","-76.1187624750499","14.9910179640719","19.9540918163673"
"4088","-38.8003992015968","12.1996007984032","-16.8003992015968","-23.1187624750499","10.9910179640719","13.9540918163673"
"4096","-85.8003992015968","25.1996007984032","-60.8003992015968","-23.1187624750499","10.9910179640719","13.9540918163673"
"4096","-85.8003992015968","25.1996007984032","-60.8003992015968","52.8812375249501","16.9910179640719","14.9540918163673"
"4104","-31.8003992015968","132.199600798403","-43.8003992015968","52.8812375249501","16.9910179640719","14.9540918163673"
"4108","-31.8003992015968","132.199600798403","-43.8003992015968","17.8812375249501","6.99101796407186","9.95409181636727"
"4116","-68.8003992015968","255.199600798403","-37.8003992015968","17.8812375249501","6.99101796407186","9.95409181636727"
"4116","-68.8003992015968","255.199600798403","-37.8003992015968","38.8812375249501","-13.0089820359281","12.9540918163673"
"4125","-40.8003992015968","179.199600798403","-13.8003992015968","38.8812375249501","-13.0089820359281","12.9540918163673"
"4125","-40.8003992015968","179.199600798403","-13.8003992015968","44.8812375249501","-12.0089820359281","17.9540918163673"
"4137","-42.8003992015968","-11.8003992015968","-85.8003992015968","44.8812375249501","-12.0089820359281","17.9540918163673"
"4137","-42.8003992015968","-11.8003992015968","-85.8003992015968","-52.1187624750499","-27.0089820359281","26.9540918163673"
"4145","36.1996007984032","-19.8003992015968","-17.8003992015968","-52.1187624750499","-27.0089820359281","26.9540918163673"
"4145","36.1996007984032","-19.8003992015968","-17.8003992015968","-90.1187624750499","-35.0089820359281","29.9540918163673"
"4153","60.1996007984032","34.1996007984032","1.19960079840319","-90.1187624750499","-35.0089820359281","29.9540918163673"
"4158","60.1996007984032","34.1996007984032","1.19960079840319","-16.1187624750499","-39.0089820359281","25.9540918163673"
"4166","123.199600798403","-43.8003992015968","68.1996007984032","-16.1187624750499","-39.0089820359281","25.9540918163673"
"4166","123.199600798403","-43.8003992015968","68.1996007984032","-8.1187624750499","-35.0089820359281","20.9540918163673"
"4174","74.1996007984032","-107.800399201597","-22.8003992015968","-8.1187624750499","-35.0089820359281","20.9540918163673"
"4178","74.1996007984032","-107.800399201597","-22.8003992015968","-39.1187624750499","-21.0089820359281","10.9540918163673"
"4186","61.1996007984032","-75.8003992015968","-34.8003992015968","-39.1187624750499","-21.0089820359281","10.9540918163673"
"4186","61.1996007984032","-75.8003992015968","-34.8003992015968","-5.1187624750499","-4.00898203592814","-1.04590818363273"
"4194","-16.8003992015968","-75.8003992015968","-111.800399201597","-5.1187624750499","-4.00898203592814","-1.04590818363273"
"4198","-16.8003992015968","-75.8003992015968","-111.800399201597","19.8812375249501","5.99101796407186","-5.04590818363273"
"4207","-268.800399201597","-182.800399201597","-191.800399201597","19.8812375249501","5.99101796407186","-5.04590818363273"
"4207","-268.800399201597","-182.800399201597","-191.800399201597","12.8812375249501","27.9910179640719","-8.04590818363273"
"4215","901.199600798403","1.19960079840319","631.199600798403","12.8812375249501","27.9910179640719","-8.04590818363273"
"4215","901.199600798403","1.19960079840319","631.199600798403","15.8812375249501","-30.0089820359281","-7.04590818363273"
"4227","247.199600798403","415.199600798403","-264.800399201597","15.8812375249501","-30.0089820359281","-7.04590818363273"
"4227","247.199600798403","415.199600798403","-264.800399201597","173.88123752495","-70.0089820359281","-29.0459081836327"
"4236","-117.800399201597","248.199600798403","-571.800399201597","173.88123752495","-70.0089820359281","-29.0459081836327"
"4236","-117.800399201597","248.199600798403","-571.800399201597","131.88123752495","175.991017964072","9.95409181636727"
"4247","-281.800399201597","496.199600798403","153.199600798403","131.88123752495","175.991017964072","9.95409181636727"
"4247","-281.800399201597","496.199600798403","153.199600798403","-79.1187624750499","64.9910179640719","-6.04590818363273"
"4256","-275.800399201597","343.199600798403","407.199600798403","-79.1187624750499","64.9910179640719","-6.04590818363273"
"4256","-275.800399201597","343.199600798403","407.199600798403","75.8812375249501","174.991017964072","19.9540918163673"
"4264","-649.800399201597","-23.8003992015968","-158.800399201597","75.8812375249501","174.991017964072","19.9540918163673"
"4268","-649.800399201597","-23.8003992015968","-158.800399201597","-78.1187624750499","119.991017964072","44.9540918163673"
"4276","-238.800399201597","-8.80039920159681","-420.800399201597","-78.1187624750499","119.991017964072","44.9540918163673"
"4276","-238.800399201597","-8.80039920159681","-420.800399201597","-220.11876247505","42.9910179640719","48.9540918163673"
"4284","-107.800399201597","23.1996007984032","-140.800399201597","-220.11876247505","42.9910179640719","48.9540918163673"
"4288","-107.800399201597","23.1996007984032","-140.800399201597","-69.1187624750499","-20.0089820359281","41.9540918163673"
"4297","-197.800399201597","-59.8003992015968","9.19960079840319","-69.1187624750499","-20.0089820359281","41.9540918163673"
"4297","-197.800399201597","-59.8003992015968","9.19960079840319","-31.1187624750499","-43.0089820359281","41.9540918163673"
"4305","-302.800399201597","29.1996007984032","122.199600798403","-31.1187624750499","-43.0089820359281","41.9540918163673"
"4305","-302.800399201597","29.1996007984032","122.199600798403","-51.1187624750499","-25.0089820359281","31.9540918163673"
"4317","55.1996007984032","-232.800399201597","-152.800399201597","-51.1187624750499","-25.0089820359281","31.9540918163673"
"4317","55.1996007984032","-232.800399201597","-152.800399201597","4.8812375249501","-126.008982035928","-5.04590818363273"
"4326","303.199600798403","-411.800399201597","-136.800399201597","4.8812375249501","-126.008982035928","-5.04590818363273"
"4326","303.199600798403","-411.800399201597","-136.800399201597","-96.1187624750499","-69.0089820359281","-15.0459081836327"
"4334","72.1996007984032","-150.800399201597","-141.800399201597","-96.1187624750499","-69.0089820359281","-15.0459081836327"
"4338","72.1996007984032","-150.800399201597","-141.800399201597","-50.1187624750499","-67.0089820359281","-26.0459081836327"
"4346","141.199600798403","170.199600798403","198.199600798403","-50.1187624750499","-67.0089820359281","-26.0459081836327"
"4346","141.199600798403","170.199600798403","198.199600798403","105.88123752495","-38.0089820359281","-25.0459081836327"
"4354","141.199600798403","65.1996007984032","219.199600798403","105.88123752495","-38.0089820359281","-25.0459081836327"
"4358","141.199600798403","65.1996007984032","219.199600798403","100.88123752495","7.99101796407186","-18.0459081836327"
"4367","-115.800399201597","-79.8003992015968","-115.800399201597","100.88123752495","7.99101796407186","-18.0459081836327"
"4367","-115.800399201597","-79.8003992015968","-115.800399201597","7.8812375249501","29.9910179640719","-17.0459081836327"
"4375","-16.8003992015968","-209.800399201597","-115.800399201597","7.8812375249501","29.9910179640719","-17.0459081836327"
"4379","-16.8003992015968","-209.800399201597","-115.800399201597","-54.1187624750499","51.9910179640719","-15.0459081836327"
"4387","-217.800399201597","101.199600798403","-108.800399201597","-54.1187624750499","51.9910179640719","-15.0459081836327"
"4387","-217.800399201597","101.199600798403","-108.800399201597","25.8812375249501","14.9910179640719","-13.0459081836327"
"4395","-137.800399201597","234.199600798403","21.1996007984032","25.8812375249501","14.9910179640719","-13.0459081836327"
"4395","-137.800399201597","234.199600798403","21.1996007984032","80.8812375249501","26.9910179640719","4.95409181636727"
"4407","-264.800399201597","292.199600798403","-24.8003992015968","80.8812375249501","26.9910179640719","4.95409181636727"
"4407","-264.800399201597","292.199600798403","-24.8003992015968","68.8812375249501","-4.00898203592814","15.9540918163673"
"4415","11.1996007984032","-82.8003992015968","-109.800399201597","68.8812375249501","-4.00898203592814","15.9540918163673"
"4416","11.1996007984032","-82.8003992015968","-109.800399201597","-7.1187624750499","-43.0089820359281","17.9540918163673"
"4424","-12.8003992015968","-181.800399201597","-116.800399201597","-7.1187624750499","-43.0089820359281","17.9540918163673"
"4428","-12.8003992015968","-181.800399201597","-116.800399201597","-110.11876247505","-63.0089820359281","23.9540918163673"
"4437","50.1996007984032","39.1996007984032","3.19960079840319","-110.11876247505","-63.0089820359281","23.9540918163673"
"4438","50.1996007984032","39.1996007984032","3.19960079840319","-54.1187624750499","-60.0089820359281","21.9540918163673"
"4444","155.199600798403","70.1996007984032","116.199600798403","-54.1187624750499","-60.0089820359281","21.9540918163673"
"4448","155.199600798403","70.1996007984032","116.199600798403","77.8812375249501","-52.0089820359281","14.9540918163673"
"4457","87.1996007984032","-114.800399201597","-28.8003992015968","77.8812375249501","-52.0089820359281","14.9540918163673"
"4457","87.1996007984032","-114.800399201597","-28.8003992015968","3.8812375249501","-55.0089820359281","-1.04590818363273"
"4465","115.199600798403","-175.800399201597","-129.800399201597","3.8812375249501","-55.0089820359281","-1.04590818363273"
"4469","115.199600798403","-175.800399201597","-129.800399201597","-90.1187624750499","-22.0089820359281","-9.04590818363273"
"4477","113.199600798403","23.1996007984032","-78.8003992015968","-90.1187624750499","-22.0089820359281","-9.04590818363273"
"4477","113.199600798403","23.1996007984032","-78.8003992015968","1.8812375249501","-24.0089820359281","-26.0459081836327"
"4485","-1.80039920159681","172.199600798403","63.1996007984032","1.8812375249501","-24.0089820359281","-26.0459081836327"
"4485","-1.80039920159681","172.199600798403","63.1996007984032","92.8812375249501","8.99101796407186","-18.0459081836327"
"4497","-37.8003992015968","71.1996007984032","50.1996007984032","92.8812375249501","8.99101796407186","-18.0459081836327"
"4498","-37.8003992015968","71.1996007984032","50.1996007984032","19.8812375249501","6.99101796407186","-10.0459081836327"
"4506","18.1996007984032","-72.8003992015968","-44.8003992015968","19.8812375249501","6.99101796407186","-10.0459081836327"
"4506","18.1996007984032","-72.8003992015968","-44.8003992015968","-59.1187624750499","-1.00898203592814","-4.04590818363273"
"4514","8.19960079840319","-158.800399201597","-79.8003992015968","-59.1187624750499","-1.00898203592814","-4.04590818363273"
"4518","8.19960079840319","-158.800399201597","-79.8003992015968","-80.1187624750499","0.991017964071856","-2.04590818363273"
"4526","-116.800399201597","32.1996007984032","-57.8003992015968","-80.1187624750499","0.991017964071856","-2.04590818363273"
"4526","-116.800399201597","32.1996007984032","-57.8003992015968","-26.1187624750499","0.991017964071856","-0.0459081836327345"
"4535","-23.8003992015968","146.199600798403","66.1996007984032","-26.1187624750499","0.991017964071856","-0.0459081836327345"
"4538","-23.8003992015968","146.199600798403","66.1996007984032","72.8812375249501","2.99101796407186","3.95409181636727"
"4547","-34.8003992015968","-82.8003992015968","-97.8003992015968","72.8812375249501","2.99101796407186","3.95409181636727"
"4547","-34.8003992015968","-82.8003992015968","-97.8003992015968","54.8812375249501","-9.00898203592814","-2.04590818363273"
"4555","-29.8003992015968","-251.800399201597","-106.800399201597","54.8812375249501","-9.00898203592814","-2.04590818363273"
"4559","-29.8003992015968","-251.800399201597","-106.800399201597","-60.1187624750499","-20.0089820359281","-6.04590818363273"
"4567","94.1996007984032","-116.800399201597","26.1996007984032","-60.1187624750499","-20.0089820359281","-6.04590818363273"
"4567","94.1996007984032","-116.800399201597","26.1996007984032","-74.1187624750499","-38.0089820359281","-18.0459081836327"
"4575","72.1996007984032","248.199600798403","52.1996007984032","-74.1187624750499","-38.0089820359281","-18.0459081836327"
"4576","72.1996007984032","248.199600798403","52.1996007984032","84.8812375249501","-44.0089820359281","-21.0459081836327"
"4588","122.199600798403","109.199600798403","-17.8003992015968","84.8812375249501","-44.0089820359281","-21.0459081836327"
"4588","122.199600798403","109.199600798403","-17.8003992015968","137.88123752495","-23.0089820359281","-11.0459081836327"
"4596","34.1996007984032","-245.800399201597","-128.800399201597","137.88123752495","-23.0089820359281","-11.0459081836327"
"4596","34.1996007984032","-245.800399201597","-128.800399201597","-76.1187624750499","-9.00898203592814","-14.0459081836327"
"4604","98.1996007984032","-196.800399201597","-45.8003992015968","-76.1187624750499","-9.00898203592814","-14.0459081836327"
"4608","98.1996007984032","-196.800399201597","-45.8003992015968","-163.11876247505","7.99101796407186","-9.04590818363273"
"4616","-55.8003992015968","259.199600798403","-0.800399201596806","-163.11876247505","7.99101796407186","-9.04590818363273"
"4616","-55.8003992015968","259.199600798403","-0.800399201596806","93.8812375249501","28.9910179640719","-0.0459081836327345"
"4625","-82.8003992015968","52.1996007984032","-30.8003992015968","93.8812375249501","28.9910179640719","-0.0459081836327345"
"4628","-82.8003992015968","52.1996007984032","-30.8003992015968","93.8812375249501","28.9910179640719","-0.0459081836327345"
"4637","-42.8003992015968","-170.800399201597","-30.8003992015968","93.8812375249501","28.9910179640719","-0.0459081836327345"
"4637","-42.8003992015968","-170.800399201597","-30.8003992015968","-62.1187624750499","13.9910179640719","-6.04590818363273"
"4645","-3.80039920159681","-218.800399201597","-48.8003992015968","-62.1187624750499","13.9910179640719","-6.04590818363273"
"4645","-3.80039920159681","-218.800399201597","-48.8003992015968","-90.1187624750499","-6.00898203592814","-10.0459081836327"
"4657","13.1996007984032","79.1996007984032","-61.8003992015968","-90.1187624750499","-6.00898203592814","-10.0459081836327"
"4657","13.1996007984032","79.1996007984032","-61.8003992015968","14.8812375249501","-2.00898203592814","-21.0459081836327"
"4666","29.1996007984032","97.1996007984032","-0.800399201596806","14.8812375249501","-2.00898203592814","-21.0459081836327"
"4666","29.1996007984032","97.1996007984032","-0.800399201596806","24.8812375249501","-14.0089820359281","-28.0459081836327"
"4674","45.1996007984032","62.1996007984032","4.19960079840319","24.8812375249501","-14.0089820359281","-28.0459081836327"
"4678","45.1996007984032","62.1996007984032","4.19960079840319","24.8812375249501","-14.0089820359281","-28.0459081836327"
"4686","74.1996007984032","13.1996007984032","-23.8003992015968","24.8812375249501","-14.0089820359281","-28.0459081836327"
"4686","74.1996007984032","13.1996007984032","-23.8003992015968","-1.1187624750499","-12.0089820359281","-23.0459081836327"
"4694","67.1996007984032","-106.800399201597","-0.800399201596806","-1.1187624750499","-12.0089820359281","-23.0459081836327"
"4698","67.1996007984032","-106.800399201597","-0.800399201596806","-22.1187624750499","-14.0089820359281","-15.0459081836327"
"4707","-6.80039920159681","-65.8003992015968","-46.8003992015968","-22.1187624750499","-14.0089820359281","-15.0459081836327"
"4707","-6.80039920159681","-65.8003992015968","-46.8003992015968","-41.1187624750499","1.99101796407186","-10.0459081836327"
"4715","4.19960079840319","98.1996007984032","-32.8003992015968","-41.1187624750499","1.99101796407186","-10.0459081836327"
"4715","4.19960079840319","98.1996007984032","-32.8003992015968","30.8812375249501","0.991017964071856","-9.04590818363273"
"4727","72.1996007984032","-2.80039920159681","-11.8003992015968","30.8812375249501","0.991017964071856","-9.04590818363273"
"4727","72.1996007984032","-2.80039920159681","-11.8003992015968","30.8812375249501","0.991017964071856","-9.04590818363273"
"4735","100.199600798403","48.1996007984032","12.1996007984032","30.8812375249501","0.991017964071856","-9.04590818363273"
"4736","100.199600798403","48.1996007984032","12.1996007984032","-22.1187624750499","-5.00898203592814","-13.0459081836327"
"4747","28.1996007984032","114.199600798403","-49.8003992015968","-22.1187624750499","-5.00898203592814","-13.0459081836327"
"4747","28.1996007984032","114.199600798403","-49.8003992015968","11.8812375249501","5.99101796407186","-19.0459081836327"
"4756","32.1996007984032","-94.8003992015968","32.1996007984032","11.8812375249501","5.99101796407186","-19.0459081836327"
"4756","32.1996007984032","-94.8003992015968","32.1996007984032","-23.1187624750499","24.9910179640719","-17.0459081836327"
"4764","0.199600798403194","30.1996007984032","1.19960079840319","-23.1187624750499","24.9910179640719","-17.0459081836327"
"4768","0.199600798403194","30.1996007984032","1.19960079840319","27.8812375249501","9.99101796407186","-21.0459081836327"
"4776","-78.8003992015968","107.199600798403","-55.8003992015968","27.8812375249501","9.99101796407186","-21.0459081836327"
"4776","-78.8003992015968","107.199600798403","-55.8003992015968","27.8812375249501","9.99101796407186","-21.0459081836327"
"4784","-22.8003992015968","70.1996007984032","-45.8003992015968","27.8812375249501","9.99101796407186","-21.0459081836327"
"4788","-22.8003992015968","70.1996007984032","-45.8003992015968","8.8812375249501","1.99101796407186","-20.0459081836327"
"4797","-37.8003992015968","49.1996007984032","-59.8003992015968","8.8812375249501","1.99101796407186","-20.0459081836327"
"4797","-37.8003992015968","49.1996007984032","-59.8003992015968","-17.1187624750499","-11.0089820359281","-20.0459081836327"
"4805","-166.800399201597","45.1996007984032","-175.800399201597","-17.1187624750499","-11.0089820359281","-20.0459081836327"
"4809","-166.800399201597","45.1996007984032","-175.800399201597","-29.1187624750499","-10.0089820359281","-17.0459081836327"
"4817","-228.800399201597","105.199600798403","-118.800399201597","-29.1187624750499","-10.0089820359281","-17.0459081836327"
"4817","-228.800399201597","105.199600798403","-118.800399201597","0.8812375249501","-102.008982035928","-15.0459081836327"
"4826","666.199600798403","148.199600798403","462.199600798403","0.8812375249501","-102.008982035928","-15.0459081836327"
"4826","666.199600798403","148.199600798403","462.199600798403","0.8812375249501","-102.008982035928","-15.0459081836327"
"4838","-144.800399201597","-197.800399201597","-56.8003992015968","0.8812375249501","-102.008982035928","-15.0459081836327"
"4838","-144.800399201597","-197.800399201597","-56.8003992015968","-27.1187624750499","-12.0089820359281","-25.0459081836327"
"4846","-313.800399201597","-509.800399201597","-229.800399201597","-27.1187624750499","-12.0089820359281","-25.0459081836327"
"4846","-313.800399201597","-509.800399201597","-229.800399201597","-205.11876247505","131.991017964072","-4.04590818363273"
"4858","6.19960079840319","527.199600798403","-362.800399201597","-205.11876247505","131.991017964072","-4.04590818363273"
"4858","6.19960079840319","527.199600798403","-362.800399201597","-33.1187624750499","45.9910179640719","-16.0459081836327"
"4867","-486.800399201597","185.199600798403","-406.800399201597","-33.1187624750499","45.9910179640719","-16.0459081836327"
"4867","-486.800399201597","185.199600798403","-406.800399201597","-33.1187624750499","45.9910179640719","-16.0459081836327"
"4874","-175.800399201597","-635.800399201597","163.199600798403","-33.1187624750499","45.9910179640719","-16.0459081836327"
"4878","-175.800399201597","-635.800399201597","163.199600798403","-147.11876247505","28.9910179640719","-32.0459081836327"
"4887","52.1996007984032","65.1996007984032","33.1996007984032","-147.11876247505","28.9910179640719","-32.0459081836327"
"4887","52.1996007984032","65.1996007984032","33.1996007984032","-218.11876247505","-60.0089820359281","-46.0459081836327"
"4895","424.199600798403","293.199600798403","130.199600798403","-218.11876247505","-60.0089820359281","-46.0459081836327"
"4899","424.199600798403","293.199600798403","130.199600798403","183.88123752495","-106.008982035928","-57.0459081836327"
"4907","334.199600798403","15.1996007984032","-36.8003992015968","183.88123752495","-106.008982035928","-57.0459081836327"
"4908","334.199600798403","15.1996007984032","-36.8003992015968","173.88123752495","-123.008982035928","-67.0459081836327"
"4915","223.199600798403","-132.800399201597","-72.8003992015968","173.88123752495","-123.008982035928","-67.0459081836327"
"4916","223.199600798403","-132.800399201597","-72.8003992015968","25.8812375249501","3.99101796407186","-49.0459081836327"
"4928","330.199600798403","375.199600798403","137.199600798403","25.8812375249501","3.99101796407186","-49.0459081836327"
"4928","330.199600798403","375.199600798403","137.199600798403","25.8812375249501","3.99101796407186","-49.0459081836327"
"4936","77.1996007984032","193.199600798403","10.1996007984032","25.8812375249501","3.99101796407186","-49.0459081836327"
"4936","77.1996007984032","193.199600798403","10.1996007984032","119.88123752495","29.9910179640719","-34.0459081836327"
"4948","-30.8003992015968","-179.800399201597","-56.8003992015968","119.88123752495","29.9910179640719","-34.0459081836327"
"4948","-30.8003992015968","-179.800399201597","-56.8003992015968","-86.1187624750499","92.9910179640719","-26.0459081836327"
"4956","-101.800399201597","74.1996007984032","-118.800399201597","-86.1187624750499","92.9910179640719","-26.0459081836327"
"4957","-101.800399201597","74.1996007984032","-118.800399201597","-129.11876247505","75.9910179640719","-23.0459081836327"
"4965","-116.800399201597","152.199600798403","-5.80039920159681","-129.11876247505","75.9910179640719","-23.0459081836327"
"4969","-116.800399201597","152.199600798403","-5.80039920159681","40.8812375249501","49.9910179640719","-19.0459081836327"
"4977","-251.800399201597","55.1996007984032","-42.8003992015968","40.8812375249501","49.9910179640719","-19.0459081836327"
"4977","-251.800399201597","55.1996007984032","-42.8003992015968","40.8812375249501","49.9910179640719","-19.0459081836327"
"4985","-130.800399201597","-122.800399201597","-58.8003992015968","40.8812375249501","49.9910179640719","-19.0459081836327"
"4989","-130.800399201597","-122.800399201597","-58.8003992015968","-43.1187624750499","26.9910179640719","-27.0459081836327"
"4997","113.199600798403","-66.8003992015968","-50.8003992015968","-43.1187624750499","26.9910179640719","-27.0459081836327"
"4998","113.199600798403","-66.8003992015968","-50.8003992015968","40.8812375249501","-23.0089820359281","-50.0459081836327"
"5006","-56.8003992015968","98.1996007984032","-118.800399201597","40.8812375249501","-23.0089820359281","-50.0459081836327"
"5009","-56.8003992015968","98.1996007984032","-118.800399201597","40.8812375249501","-23.0089820359281","-50.0459081836327"
"5018","91.1996007984032","64.1996007984032","12.1996007984032","40.8812375249501","-23.0089820359281","-50.0459081836327"
"5018","91.1996007984032","64.1996007984032","12.1996007984032","10.8812375249501","-12.0089820359281","-38.0459081836327"
"5026","180.199600798403","-20.8003992015968","98.1996007984032","10.8812375249501","-12.0089820359281","-38.0459081836327"
"5026","180.199600798403","-20.8003992015968","98.1996007984032","10.8812375249501","-12.0089820359281","-38.0459081836327"
"5038","141.199600798403","-28.8003992015968","18.1996007984032","10.8812375249501","-12.0089820359281","-38.0459081836327"
"5038","141.199600798403","-28.8003992015968","18.1996007984032","-4.1187624750499","-14.0089820359281","-35.0459081836327"
"5047","40.1996007984032","1.19960079840319","-74.8003992015968","-4.1187624750499","-14.0089820359281","-35.0459081836327"
"5047","40.1996007984032","1.19960079840319","-74.8003992015968","19.8812375249501","29.9910179640719","-25.0459081836327"
"5059","-101.800399201597","159.199600798403","-84.8003992015968","19.8812375249501","29.9910179640719","-25.0459081836327"
"5059","-101.800399201597","159.199600798403","-84.8003992015968","40.8812375249501","45.9910179640719","-16.0459081836327"
"5067","-31.8003992015968","81.1996007984032","-5.80039920159681","40.8812375249501","45.9910179640719","-16.0459081836327"
"5067","-31.8003992015968","81.1996007984032","-5.80039920159681","-15.1187624750499","20.9910179640719","-9.04590818363273"
"5075","-127.800399201597","30.1996007984032","-56.8003992015968","-15.1187624750499","20.9910179640719","-9.04590818363273"
"5079","-127.800399201597","30.1996007984032","-56.8003992015968","-15.1187624750499","20.9910179640719","-9.04590818363273"
"5087","-22.8003992015968","-2.80039920159681","-38.8003992015968","-15.1187624750499","20.9910179640719","-9.04590818363273"
"5088","-22.8003992015968","-2.80039920159681","-38.8003992015968","-30.1187624750499","12.9910179640719","-7.04590818363273"
"5096","-33.8003992015968","-134.800399201597","-43.8003992015968","-30.1187624750499","12.9910179640719","-7.04590818363273"
"5100","-33.8003992015968","-134.800399201597","-43.8003992015968","-28.1187624750499","-3.00898203592814","-13.0459081836327"
"5108","51.1996007984032","3.19960079840319","35.1996007984032","-28.1187624750499","-3.00898203592814","-13.0459081836327"
"5108","51.1996007984032","3.19960079840319","35.1996007984032","-21.1187624750499","-16.0089820359281","-20.0459081836327"
"5116","91.1996007984032","172.199600798403","74.1996007984032","-21.1187624750499","-16.0089820359281","-20.0459081836327"
"5116","91.1996007984032","172.199600798403","74.1996007984032","-21.1187624750499","-16.0089820359281","-20.0459081836327"
"5128","4.19960079840319","-80.8003992015968","-80.8003992015968","-21.1187624750499","-16.0089820359281","-20.0459081836327"
"5128","4.19960079840319","-80.8003992015968","-80.8003992015968","45.8812375249501","-15.0089820359281","-18.0459081836327"
"5137","39.1996007984032","-189.800399201597","-77.8003992015968","45.8812375249501","-15.0089820359281","-18.0459081836327"
"5137","39.1996007984032","-189.800399201597","-77.8003992015968","-43.1187624750499","6.99101796407186","-14.0459081836327"
"5145","14.1996007984032","6.19960079840319","-34.8003992015968","-43.1187624750499","6.99101796407186","-14.0459081836327"
"5149","14.1996007984032","6.19960079840319","-34.8003992015968","79.8812375249501","12.9910179640719","-6.04590818363273"
"5157","-19.8003992015968","94.1996007984032","-18.8003992015968","79.8812375249501","12.9910179640719","-6.04590818363273"
"5157","-19.8003992015968","94.1996007984032","-18.8003992015968","22.8812375249501","14.9910179640719","-3.04590818363273"
"5165","-19.8003992015968","94.1996007984032","-18.8003992015968","22.8812375249501","14.9910179640719","-3.04590818363273"
"5165","-19.8003992015968","94.1996007984032","-18.8003992015968","22.8812375249501","14.9910179640719","-3.04590818363273"
"5178","31.1996007984032","-55.8003992015968","-14.8003992015968","22.8812375249501","14.9910179640719","-3.04590818363273"
"5178","31.1996007984032","-55.8003992015968","-14.8003992015968","-46.1187624750499","9.99101796407186","-3.04590818363273"
"5186","37.1996007984032","-8.80039920159681","-17.8003992015968","-46.1187624750499","9.99101796407186","-3.04590818363273"
"5186","37.1996007984032","-8.80039920159681","-17.8003992015968","-2.1187624750499","17.9910179640719","0.954091816367265"
"5198","-40.8003992015968","-84.8003992015968","-30.8003992015968","-2.1187624750499","17.9910179640719","0.954091816367265"
"5198","-40.8003992015968","-84.8003992015968","-30.8003992015968","-2.1187624750499","17.9910179640719","0.954091816367265"
"5206","-31.8003992015968","-13.8003992015968","-33.8003992015968","-2.1187624750499","17.9910179640719","0.954091816367265"
"5206","-31.8003992015968","-13.8003992015968","-33.8003992015968","-0.1187624750499","14.9910179640719","-2.04590818363273"
"5218","-8.80039920159681","57.1996007984032","-49.8003992015968","-0.1187624750499","14.9910179640719","-2.04590818363273"
"5218","-8.80039920159681","57.1996007984032","-49.8003992015968","40.8812375249501","-0.00898203592814371","-3.04590818363273"
"5227","1.19960079840319","63.1996007984032","-41.8003992015968","40.8812375249501","-0.00898203592814371","-3.04590818363273"
"5227","1.19960079840319","63.1996007984032","-41.8003992015968","40.8812375249501","-0.00898203592814371","-3.04590818363273"
"5235","6.19960079840319","13.1996007984032","-61.8003992015968","40.8812375249501","-0.00898203592814371","-3.04590818363273"
"5239","6.19960079840319","13.1996007984032","-61.8003992015968","14.8812375249501","-4.00898203592814","1.95409181636727"
"5247","45.1996007984032","-27.8003992015968","-7.80039920159681","14.8812375249501","-4.00898203592814","1.95409181636727"
"5247","45.1996007984032","-27.8003992015968","-7.80039920159681","-1.1187624750499","-6.00898203592814","11.9540918163673"
"5255","3.19960079840319","-0.800399201596806","-23.8003992015968","-1.1187624750499","-6.00898203592814","11.9540918163673"
"5259","3.19960079840319","-0.800399201596806","-23.8003992015968","14.8812375249501","-5.00898203592814","15.9540918163673"
"5268","58.1996007984032","33.1996007984032","57.1996007984032","14.8812375249501","-5.00898203592814","15.9540918163673"
"5268","58.1996007984032","33.1996007984032","57.1996007984032","12.8812375249501","2.99101796407186","15.9540918163673"
"5276","46.1996007984032","89.1996007984032","-3.80039920159681","12.8812375249501","2.99101796407186","15.9540918163673"
"5276","46.1996007984032","89.1996007984032","-3.80039920159681","28.8812375249501","15.9910179640719","20.9540918163673"
"5288","-104.800399201597","145.199600798403","-130.800399201597","28.8812375249501","15.9910179640719","20.9540918163673"
"5288","-104.800399201597","145.199600798403","-130.800399201597","-9.1187624750499","15.9910179640719","21.9540918163673"
"5296","-5.80039920159681","-81.8003992015968","-8.80039920159681","-9.1187624750499","15.9910179640719","21.9540918163673"
"5297","-5.80039920159681","-81.8003992015968","-8.80039920159681","-59.1187624750499","-8.00898203592814","22.9540918163673"
"5309","-65.8003992015968","-109.800399201597","-41.8003992015968","-59.1187624750499","-8.00898203592814","22.9540918163673"
"5309","-65.8003992015968","-109.800399201597","-41.8003992015968","-27.1187624750499","-0.00898203592814371","25.9540918163673"
"5317","-61.8003992015968","-46.8003992015968","-52.8003992015968","-27.1187624750499","-0.00898203592814371","25.9540918163673"
"5317","-61.8003992015968","-46.8003992015968","-52.8003992015968","-27.1187624750499","-0.00898203592814371","25.9540918163673"
"5325","76.1996007984032","74.1996007984032","-27.8003992015968","-27.1187624750499","-0.00898203592814371","25.9540918163673"
"5329","76.1996007984032","74.1996007984032","-27.8003992015968","36.8812375249501","-26.0089820359281","13.9540918163673"
"5337","30.1996007984032","54.1996007984032","-43.8003992015968","36.8812375249501","-26.0089820359281","13.9540918163673"
"5337","30.1996007984032","54.1996007984032","-43.8003992015968","0.8812375249501","-8.00898203592814","18.9540918163673"
"5345","55.1996007984032","-0.800399201596806","33.1996007984032","0.8812375249501","-8.00898203592814","18.9540918163673"
"5349","55.1996007984032","-0.800399201596806","33.1996007984032","-9.1187624750499","-14.0089820359281","20.9540918163673"
"5358","118.199600798403","25.1996007984032","74.1996007984032","-9.1187624750499","-14.0089820359281","20.9540918163673"
"5358","118.199600798403","25.1996007984032","74.1996007984032","11.8812375249501","5.99101796407186","22.9540918163673"
"5366","118.199600798403","25.1996007984032","74.1996007984032","11.8812375249501","5.99101796407186","22.9540918163673"
"5366","118.199600798403","25.1996007984032","74.1996007984032","11.8812375249501","5.99101796407186","22.9540918163673"
"5378","-11.8003992015968","-32.8003992015968","-57.8003992015968","11.8812375249501","5.99101796407186","22.9540918163673"
"5378","-11.8003992015968","-32.8003992015968","-57.8003992015968","-23.1187624750499","12.9910179640719","28.9540918163673"
"5386","44.1996007984032","75.1996007984032","-15.8003992015968","-23.1187624750499","12.9910179640719","28.9540918163673"
"5387","44.1996007984032","75.1996007984032","-15.8003992015968","33.8812375249501","5.99101796407186","28.9540918163673"
"5399","-57.8003992015968","111.199600798403","2.19960079840319","33.8812375249501","5.99101796407186","28.9540918163673"
"5399","-57.8003992015968","111.199600798403","2.19960079840319","-1.1187624750499","23.9910179640719","33.9540918163673"
"5407","-48.8003992015968","74.1996007984032","-0.800399201596806","-1.1187624750499","23.9910179640719","33.9540918163673"
"5407","-48.8003992015968","74.1996007984032","-0.800399201596806","-30.1187624750499","8.99101796407186","34.9540918163673"
"5415","-48.8003992015968","74.1996007984032","-0.800399201596806","-30.1187624750499","8.99101796407186","34.9540918163673"
"5419","-48.8003992015968","74.1996007984032","-0.800399201596806","-30.1187624750499","8.99101796407186","34.9540918163673"
"5428","-101.800399201597","66.1996007984032","-156.800399201597","-30.1187624750499","8.99101796407186","34.9540918163673"
"5428","-101.800399201597","66.1996007984032","-156.800399201597","-46.1187624750499","7.99101796407186","37.9540918163673"
"5436","640.199600798403","225.199600798403","600.199600798403","-46.1187624750499","7.99101796407186","37.9540918163673"
"5440","640.199600798403","225.199600798403","600.199600798403","156.88123752495","-102.008982035928","27.9540918163673"
"5448","502.199600798403","1117.1996007984","54.1996007984032","156.88123752495","-102.008982035928","27.9540918163673"
"5448","502.199600798403","1117.1996007984","54.1996007984032","241.88123752495","71.9910179640719","34.9540918163673"
"5456","12.1996007984032","731.199600798403","-486.800399201597","241.88123752495","71.9910179640719","34.9540918163673"
"5460","12.1996007984032","731.199600798403","-486.800399201597","-511.11876247505","78.9910179640719","27.9540918163673"
"5468","12.1996007984032","731.199600798403","-486.800399201597","-511.11876247505","78.9910179640719","27.9540918163673"
"5468","12.1996007984032","731.199600798403","-486.800399201597","-511.11876247505","78.9910179640719","27.9540918163673"
"5477","-213.800399201597","-1247.8003992016","309.199600798403","-511.11876247505","78.9910179640719","27.9540918163673"
"5477","-213.800399201597","-1247.8003992016","309.199600798403","-488.11876247505","89.9910179640719","34.9540918163673"
"5489","-625.800399201597","402.199600798403","-313.800399201597","-488.11876247505","89.9910179640719","34.9540918163673"
"5489","-625.800399201597","402.199600798403","-313.800399201597","342.88123752495","5.99101796407186","12.9540918163673"
"5497","-323.800399201597","-114.800399201597","-453.800399201597","342.88123752495","5.99101796407186","12.9540918163673"
"5501","-323.800399201597","-114.800399201597","-453.800399201597","-105.11876247505","-3.00898203592814","-16.0459081836327"
"5509","165.199600798403","-422.800399201597","23.1996007984032","-105.11876247505","-3.00898203592814","-16.0459081836327"
"5509","165.199600798403","-422.800399201597","23.1996007984032","-97.1187624750499","-72.0089820359281","-15.0459081836327"
"5517","165.199600798403","-422.800399201597","23.1996007984032","-97.1187624750499","-72.0089820359281","-15.0459081836327"
"5518","165.199600798403","-422.800399201597","23.1996007984032","-97.1187624750499","-72.0089820359281","-15.0459081836327"
"5526","37.1996007984032","78.1996007984032","35.1996007984032","-97.1187624750499","-72.0089820359281","-15.0459081836327"
"5526","37.1996007984032","78.1996007984032","35.1996007984032","244.88123752495","-5.00898203592814","4.95409181636727"
"5538","-160.800399201597","-335.800399201597","-147.800399201597","244.88123752495","-5.00898203592814","4.95409181636727"
"5538","-160.800399201597","-335.800399201597","-147.800399201597","-275.11876247505","-19.0089820359281","16.9540918163673"
"5546","31.1996007984032","-547.800399201597","-99.8003992015968","-275.11876247505","-19.0089820359281","16.9540918163673"
"5550","31.1996007984032","-547.800399201597","-99.8003992015968","-87.1187624750499","-68.0089820359281","14.9540918163673"
"5559","156.199600798403","-86.8003992015968","18.1996007984032","-87.1187624750499","-68.0089820359281","14.9540918163673"
"5559","156.199600798403","-86.8003992015968","18.1996007984032","237.88123752495","-53.0089820359281","40.9540918163673"
"5567","156.199600798403","-86.8003992015968","18.1996007984032","237.88123752495","-53.0089820359281","40.9540918163673"
"5567","156.199600798403","-86.8003992015968","18.1996007984032","237.88123752495","-53.0089820359281","40.9540918163673"
"5575","74.1996007984032","563.199600798403","41.1996007984032","237.88123752495","-53.0089820359281","40.9540918163673"
"5579","74.1996007984032","563.199600798403","41.1996007984032","154.88123752495","-4.00898203592814","52.9540918163673"
"5587","2.19960079840319","-256.800399201597","-75.8003992015968","154.88123752495","-4.00898203592814","52.9540918163673"
"5588","2.19960079840319","-256.800399201597","-75.8003992015968","-190.11876247505","-8.00898203592814","45.9540918163673"
"5599","-12.8003992015968","-291.800399201597","-104.800399201597","-190.11876247505","-8.00898203592814","45.9540918163673"
"5600","-12.8003992015968","-291.800399201597","-104.800399201597","-1.1187624750499","-15.0089820359281","36.9540918163673"
"5608","91.1996007984032","19.1996007984032","26.1996007984032","-1.1187624750499","-15.0089820359281","36.9540918163673"
"5608","91.1996007984032","19.1996007984032","26.1996007984032","69.8812375249501","-1.00898203592814","27.9540918163673"
"5616","91.1996007984032","19.1996007984032","26.1996007984032","69.8812375249501","-1.00898203592814","27.9540918163673"
"5616","91.1996007984032","19.1996007984032","26.1996007984032","69.8812375249501","-1.00898203592814","27.9540918163673"
"5628","-77.8003992015968","118.199600798403","-6.80039920159681","69.8812375249501","-1.00898203592814","27.9540918163673"
"5628","-77.8003992015968","118.199600798403","-6.80039920159681","52.8812375249501","18.9910179640719","28.9540918163673"
"5636","106.199600798403","-3.80039920159681","-20.8003992015968","52.8812375249501","18.9910179640719","28.9540918163673"
"5640","106.199600798403","-3.80039920159681","-20.8003992015968","3.8812375249501","-29.0089820359281","15.9540918163673"
"5649","89.1996007984032","45.1996007984032","39.1996007984032","3.8812375249501","-29.0089820359281","15.9540918163673"
"5649","89.1996007984032","45.1996007984032","39.1996007984032","22.8812375249501","-7.00898203592814","23.9540918163673"
"5657","26.1996007984032","61.1996007984032","71.1996007984032","22.8812375249501","-7.00898203592814","23.9540918163673"
"5660","26.1996007984032","61.1996007984032","71.1996007984032","14.8812375249501","6.99101796407186","28.9540918163673"
"5665","26.1996007984032","61.1996007984032","71.1996007984032","14.8812375249501","6.99101796407186","28.9540918163673"
"5665","26.1996007984032","61.1996007984032","71.1996007984032","14.8812375249501","6.99101796407186","28.9540918163673"
"5677","-55.8003992015968","-10.8003992015968","-110.800399201597","14.8812375249501","6.99101796407186","28.9540918163673"
"5678","-55.8003992015968","-10.8003992015968","-110.800399201597","-11.1187624750499","1.99101796407186","30.9540918163673"
"5689","35.1996007984032","14.1996007984032","-60.8003992015968","-11.1187624750499","1.99101796407186","30.9540918163673"
"5689","35.1996007984032","14.1996007984032","-60.8003992015968","32.8812375249501","-18.0089820359281","35.9540918163673"
"5698","46.1996007984032","156.199600798403","-21.8003992015968","32.8812375249501","-18.0089820359281","35.9540918163673"
"5698","46.1996007984032","156.199600798403","-21.8003992015968","43.8812375249501","-3.00898203592814","46.9540918163673"
"5710","-38.8003992015968","158.199600798403","26.1996007984032","43.8812375249501","-3.00898203592814","46.9540918163673"
"5710","-38.8003992015968","158.199600798403","26.1996007984032","-28.1187624750499","-12.0089820359281","52.9540918163673"
"5714","-38.8003992015968","158.199600798403","26.1996007984032","-28.1187624750499","-12.0089820359281","52.9540918163673"
"5718","-38.8003992015968","158.199600798403","26.1996007984032","-28.1187624750499","-12.0089820359281","52.9540918163673"
"5726","21.1996007984032","-17.8003992015968","-47.8003992015968","-28.1187624750499","-12.0089820359281","52.9540918163673"
"5726","21.1996007984032","-17.8003992015968","-47.8003992015968","-95.1187624750499","-21.0089820359281","53.9540918163673"
"5739","27.1996007984032","8.19960079840319","-24.8003992015968","-95.1187624750499","-21.0089820359281","53.9540918163673"
"5739","27.1996007984032","8.19960079840319","-24.8003992015968","40.8812375249501","-4.00898203592814","36.9540918163673"
"5747","11.1996007984032","238.199600798403","-31.8003992015968","40.8812375249501","-4.00898203592814","36.9540918163673"
"5751","11.1996007984032","238.199600798403","-31.8003992015968","91.8812375249501","-1.00898203592814","26.9540918163673"
"5759","-29.8003992015968","207.199600798403","-56.8003992015968","91.8812375249501","-1.00898203592814","26.9540918163673"
"5759","-29.8003992015968","207.199600798403","-56.8003992015968","-31.1187624750499","-4.00898203592814","25.9540918163673"
"5767","-29.8003992015968","207.199600798403","-56.8003992015968","-31.1187624750499","-4.00898203592814","25.9540918163673"
"5768","-29.8003992015968","207.199600798403","-56.8003992015968","-31.1187624750499","-4.00898203592814","25.9540918163673"
"5776","30.1996007984032","-13.8003992015968","-68.8003992015968","-31.1187624750499","-4.00898203592814","25.9540918163673"
"5776","30.1996007984032","-13.8003992015968","-68.8003992015968","-78.1187624750499","-12.0089820359281","24.9540918163673"
"5788","-6.80039920159681","11.1996007984032","-23.8003992015968","-78.1187624750499","-12.0089820359281","24.9540918163673"
"5788","-6.80039920159681","11.1996007984032","-23.8003992015968","-7.1187624750499","6.99101796407186","24.9540918163673"
"5800","-52.8003992015968","-2.80039920159681","-23.8003992015968","-7.1187624750499","6.99101796407186","24.9540918163673"
"5800","-52.8003992015968","-2.80039920159681","-23.8003992015968","2.8812375249501","-5.00898203592814","28.9540918163673"
"5808","135.199600798403","81.1996007984032","14.1996007984032","2.8812375249501","-5.00898203592814","28.9540918163673"
"5809","135.199600798403","81.1996007984032","14.1996007984032","6.8812375249501","-13.0089820359281","22.9540918163673"
"5817","135.199600798403","81.1996007984032","14.1996007984032","6.8812375249501","-13.0089820359281","22.9540918163673"
"5817","135.199600798403","81.1996007984032","14.1996007984032","6.8812375249501","-13.0089820359281","22.9540918163673"
"5825","24.1996007984032","-5.80039920159681","-47.8003992015968","6.8812375249501","-13.0089820359281","22.9540918163673"
"5829","24.1996007984032","-5.80039920159681","-47.8003992015968","-38.1187624750499","20.9910179640719","24.9540918163673"
