Timer,AX,AY,AZ,GX,GY,GZ
"1005","2,7250745279894","6,7250745279894","-27,2749254720106","0,0645909241470686","-0,0433918516064922","-1,05299768135144"
"1006","2,7250745279894","6,7250745279894","-27,2749254720106","-1,93540907585293","-0,0433918516064922","-1,05299768135144"
"1013","-0,2749254720106","4,7250745279894","-26,2749254720106","-1,93540907585293","-0,0433918516064922","-1,05299768135144"
"1017","-0,2749254720106","4,7250745279894","-26,2749254720106","-1,93540907585293","-2,04339185160649","-0,0529976813514409"
"1025","1,7250745279894","4,7250745279894","-26,2749254720106","-1,93540907585293","-2,04339185160649","-0,0529976813514409"
"1025","1,7250745279894","4,7250745279894","-26,2749254720106","-1,93540907585293","-2,04339185160649","1,94700231864856"
"1033","0,7250745279894","7,7250745279894","-25,2749254720106","-1,93540907585293","-2,04339185160649","1,94700231864856"
"1037","0,7250745279894","7,7250745279894","-25,2749254720106","-0,935409075852931","-1,04339185160649","-1,05299768135144"
"1045","2,7250745279894","5,7250745279894","-24,2749254720106","-0,935409075852931","-1,04339185160649","-1,05299768135144"
"1045","2,7250745279894","5,7250745279894","-24,2749254720106","0,0645909241470686","-5,04339185160649","-3,05299768135144"
"1054","1,7250745279894","4,7250745279894","-22,2749254720106","0,0645909241470686","-5,04339185160649","-3,05299768135144"
"1058","1,7250745279894","4,7250745279894","-22,2749254720106","1,06459092414707","-1,04339185160649","0,947002318648559"
"1066","-0,2749254720106","7,7250745279894","-29,2749254720106","1,06459092414707","-1,04339185160649","0,947002318648559"
"1066","-0,2749254720106","7,7250745279894","-29,2749254720106","-0,935409075852931","-4,04339185160649","-1,05299768135144"
"1074","-0,2749254720106","3,7250745279894","-26,2749254720106","-0,935409075852931","-4,04339185160649","-1,05299768135144"
"1074","-0,2749254720106","3,7250745279894","-26,2749254720106","-0,935409075852931","-0,0433918516064922","-0,0529976813514409"
"1086","-1,2749254720106","4,7250745279894","-26,2749254720106","-0,935409075852931","-0,0433918516064922","-0,0529976813514409"
"1086","-1,2749254720106","4,7250745279894","-26,2749254720106","1,06459092414707","0,956608148393508","-1,05299768135144"
"1095","0,7250745279894","5,7250745279894","-26,2749254720106","1,06459092414707","0,956608148393508","-1,05299768135144"
"1095","0,7250745279894","5,7250745279894","-26,2749254720106","0,0645909241470686","-1,04339185160649","-0,0529976813514409"
"1103","-0,2749254720106","5,7250745279894","-24,2749254720106","0,0645909241470686","-1,04339185160649","-0,0529976813514409"
"1107","-0,2749254720106","5,7250745279894","-24,2749254720106","-0,935409075852931","-1,04339185160649","-0,0529976813514409"
"1115","-0,2749254720106","5,7250745279894","-26,2749254720106","-0,935409075852931","-1,04339185160649","-0,0529976813514409"
"1115","-0,2749254720106","5,7250745279894","-26,2749254720106","0,0645909241470686","-1,04339185160649","-1,05299768135144"
"1123","-2,2749254720106","5,7250745279894","-23,2749254720106","0,0645909241470686","-1,04339185160649","-1,05299768135144"
"1127","-2,2749254720106","5,7250745279894","-23,2749254720106","-0,935409075852931","-1,04339185160649","-2,05299768135144"
"1136","0,7250745279894","5,7250745279894","-26,2749254720106","-0,935409075852931","-1,04339185160649","-2,05299768135144"
"1136","0,7250745279894","5,7250745279894","-26,2749254720106","-0,935409075852931","1,95660814839351","-0,0529976813514409"
"1144","1,7250745279894","3,7250745279894","-25,2749254720106","-0,935409075852931","1,95660814839351","-0,0529976813514409"
"1144","1,7250745279894","3,7250745279894","-25,2749254720106","0,0645909241470686","-0,0433918516064922","2,94700231864856"
"1156","-1,2749254720106","4,7250745279894","-25,2749254720106","0,0645909241470686","-0,0433918516064922","2,94700231864856"
"1156","-1,2749254720106","4,7250745279894","-25,2749254720106","2,06459092414707","-0,0433918516064922","-0,0529976813514409"
"1164","-0,2749254720106","7,7250745279894","-29,2749254720106","2,06459092414707","-0,0433918516064922","-0,0529976813514409"
"1164","-0,2749254720106","7,7250745279894","-29,2749254720106","2,06459092414707","-0,0433918516064922","0,947002318648559"
"1176","0,7250745279894","4,7250745279894","-27,2749254720106","2,06459092414707","-0,0433918516064922","0,947002318648559"
"1177","0,7250745279894","4,7250745279894","-27,2749254720106","1,06459092414707","-4,04339185160649","-1,05299768135144"
"1185","0,7250745279894","4,7250745279894","-25,2749254720106","1,06459092414707","-4,04339185160649","-1,05299768135144"
"1185","0,7250745279894","4,7250745279894","-25,2749254720106","0,0645909241470686","-0,0433918516064922","-0,0529976813514409"
"1193","-0,2749254720106","3,7250745279894","-25,2749254720106","0,0645909241470686","-0,0433918516064922","-0,0529976813514409"
"1197","-0,2749254720106","3,7250745279894","-25,2749254720106","-1,93540907585293","0,956608148393508","0,947002318648559"
"1205","-0,2749254720106","8,7250745279894","-26,2749254720106","-1,93540907585293","0,956608148393508","0,947002318648559"
"1205","-0,2749254720106","8,7250745279894","-26,2749254720106","-0,935409075852931","1,95660814839351","0,947002318648559"
"1213","1,7250745279894","5,7250745279894","-27,2749254720106","-0,935409075852931","1,95660814839351","0,947002318648559"
"1217","1,7250745279894","5,7250745279894","-27,2749254720106","0,0645909241470686","-0,0433918516064922","-0,0529976813514409"
"1226","1,7250745279894","3,7250745279894","-26,2749254720106","0,0645909241470686","-0,0433918516064922","-0,0529976813514409"
"1226","1,7250745279894","3,7250745279894","-26,2749254720106","-0,935409075852931","-2,04339185160649","-1,05299768135144"
"1234","-1,2749254720106","4,7250745279894","-29,2749254720106","-0,935409075852931","-2,04339185160649","-1,05299768135144"
"1238","-1,2749254720106","4,7250745279894","-29,2749254720106","1,06459092414707","0,956608148393508","-0,0529976813514409"
"1246","0,7250745279894","5,7250745279894","-24,2749254720106","1,06459092414707","0,956608148393508","-0,0529976813514409"
"1246","0,7250745279894","5,7250745279894","-24,2749254720106","0,0645909241470686","2,95660814839351","2,94700231864856"
"1254","0,7250745279894","4,7250745279894","-25,2749254720106","0,0645909241470686","2,95660814839351","2,94700231864856"
"1255","0,7250745279894","4,7250745279894","-25,2749254720106","-1,93540907585293","0,956608148393508","-0,0529976813514409"
"1267","0,7250745279894","6,7250745279894","-25,2749254720106","-1,93540907585293","0,956608148393508","-0,0529976813514409"
"1267","0,7250745279894","6,7250745279894","-25,2749254720106","-3,93540907585293","1,95660814839351","-0,0529976813514409"
"1275","-1,2749254720106","7,7250745279894","-27,2749254720106","-3,93540907585293","1,95660814839351","-0,0529976813514409"
"1275","-1,2749254720106","7,7250745279894","-27,2749254720106","1,06459092414707","1,95660814839351","-0,0529976813514409"
"1287","-0,2749254720106","6,7250745279894","-26,2749254720106","1,06459092414707","1,95660814839351","-0,0529976813514409"
"1287","-0,2749254720106","6,7250745279894","-26,2749254720106","0,0645909241470686","-0,0433918516064922","-0,0529976813514409"
"1295","0,7250745279894","4,7250745279894","-25,2749254720106","0,0645909241470686","-0,0433918516064922","-0,0529976813514409"
"1295","0,7250745279894","4,7250745279894","-25,2749254720106","-2,93540907585293","-1,04339185160649","-0,0529976813514409"
"1303","1,7250745279894","5,7250745279894","-26,2749254720106","-2,93540907585293","-1,04339185160649","-0,0529976813514409"
"1307","1,7250745279894","5,7250745279894","-26,2749254720106","-1,93540907585293","-1,04339185160649","-0,0529976813514409"
"1316","0,7250745279894","4,7250745279894","-28,2749254720106","-1,93540907585293","-1,04339185160649","-0,0529976813514409"
"1316","0,7250745279894","4,7250745279894","-28,2749254720106","-0,935409075852931","-1,04339185160649","0,947002318648559"
"1324","2,7250745279894","5,7250745279894","-28,2749254720106","-0,935409075852931","-1,04339185160649","0,947002318648559"
"1328","2,7250745279894","5,7250745279894","-28,2749254720106","0,0645909241470686","2,95660814839351","-0,0529976813514409"
"1336","0,7250745279894","4,7250745279894","-26,2749254720106","0,0645909241470686","2,95660814839351","-0,0529976813514409"
"1336","0,7250745279894","4,7250745279894","-26,2749254720106","-4,93540907585293","-1,04339185160649","-0,0529976813514409"
"1344","1,7250745279894","4,7250745279894","-26,2749254720106","-4,93540907585293","-1,04339185160649","-0,0529976813514409"
"1345","1,7250745279894","4,7250745279894","-26,2749254720106","0,0645909241470686","-0,0433918516064922","0,947002318648559"
"1357","-0,2749254720106","3,7250745279894","-25,2749254720106","0,0645909241470686","-0,0433918516064922","0,947002318648559"
"1357","-0,2749254720106","3,7250745279894","-25,2749254720106","-1,93540907585293","0,956608148393508","-0,0529976813514409"
"1365","-0,2749254720106","4,7250745279894","-26,2749254720106","-1,93540907585293","0,956608148393508","-0,0529976813514409"
"1365","-0,2749254720106","4,7250745279894","-26,2749254720106","1,06459092414707","-1,04339185160649","0,947002318648559"
"1377","1,7250745279894","5,7250745279894","-28,2749254720106","1,06459092414707","-1,04339185160649","0,947002318648559"
"1377","1,7250745279894","5,7250745279894","-28,2749254720106","3,06459092414707","-1,04339185160649","0,947002318648559"
"1385","-2,2749254720106","4,7250745279894","-25,2749254720106","3,06459092414707","-1,04339185160649","0,947002318648559"
"1386","-2,2749254720106","4,7250745279894","-25,2749254720106","2,06459092414707","-1,04339185160649","-1,05299768135144"
"1394","-0,2749254720106","4,7250745279894","-28,2749254720106","2,06459092414707","-1,04339185160649","-1,05299768135144"
"1398","-0,2749254720106","4,7250745279894","-28,2749254720106","-0,935409075852931","-1,04339185160649","-0,0529976813514409"
"1406","1,7250745279894","5,7250745279894","-27,2749254720106","-0,935409075852931","-1,04339185160649","-0,0529976813514409"
"1406","1,7250745279894","5,7250745279894","-27,2749254720106","0,0645909241470686","0,956608148393508","-0,0529976813514409"
"1414","-0,2749254720106","5,7250745279894","-28,2749254720106","0,0645909241470686","0,956608148393508","-0,0529976813514409"
"1418","-0,2749254720106","5,7250745279894","-28,2749254720106","2,06459092414707","0,956608148393508","-0,0529976813514409"
"1426","-1,2749254720106","5,7250745279894","-24,2749254720106","2,06459092414707","0,956608148393508","-0,0529976813514409"
"1427","-1,2749254720106","5,7250745279894","-24,2749254720106","-0,935409075852931","0,956608148393508","0,947002318648559"
"1435","-0,2749254720106","5,7250745279894","-25,2749254720106","-0,935409075852931","0,956608148393508","0,947002318648559"
"1438","-0,2749254720106","5,7250745279894","-25,2749254720106","-0,935409075852931","-0,0433918516064922","-2,05299768135144"
"1447","-0,2749254720106","5,7250745279894","-25,2749254720106","-0,935409075852931","-0,0433918516064922","-2,05299768135144"
"1447","-0,2749254720106","5,7250745279894","-25,2749254720106","-0,935409075852931","-0,0433918516064922","-0,0529976813514409"
"1455","-1,2749254720106","4,7250745279894","-26,2749254720106","-0,935409075852931","-0,0433918516064922","-0,0529976813514409"
"1455","-1,2749254720106","4,7250745279894","-26,2749254720106","-1,93540907585293","1,95660814839351","-0,0529976813514409"
"1467","-0,2749254720106","5,7250745279894","-27,2749254720106","-1,93540907585293","1,95660814839351","-0,0529976813514409"
"1467","-0,2749254720106","5,7250745279894","-27,2749254720106","-1,93540907585293","1,95660814839351","2,94700231864856"
"1476","0,7250745279894","5,7250745279894","-26,2749254720106","-1,93540907585293","1,95660814839351","2,94700231864856"
"1476","0,7250745279894","5,7250745279894","-26,2749254720106","-2,93540907585293","0,956608148393508","1,94700231864856"
"1488","0,7250745279894","2,7250745279894","-24,2749254720106","-2,93540907585293","0,956608148393508","1,94700231864856"
"1488","0,7250745279894","2,7250745279894","-24,2749254720106","-5,93540907585293","-0,0433918516064922","1,94700231864856"
"1496","-1,2749254720106","4,7250745279894","-24,2749254720106","-5,93540907585293","-0,0433918516064922","1,94700231864856"
"1496","-1,2749254720106","4,7250745279894","-24,2749254720106","-2,93540907585293","0,956608148393508","0,947002318648559"
"1504","0,7250745279894","6,7250745279894","-26,2749254720106","-2,93540907585293","0,956608148393508","0,947002318648559"
"1508","0,7250745279894","6,7250745279894","-26,2749254720106","-0,935409075852931","-1,04339185160649","0,947002318648559"
"1517","-0,2749254720106","6,7250745279894","-27,2749254720106","-0,935409075852931","-1,04339185160649","0,947002318648559"
"1517","-0,2749254720106","6,7250745279894","-27,2749254720106","-0,935409075852931","2,95660814839351","-0,0529976813514409"
"1525","-0,2749254720106","4,7250745279894","-25,2749254720106","-0,935409075852931","2,95660814839351","-0,0529976813514409"
"1525","-0,2749254720106","4,7250745279894","-25,2749254720106","-2,93540907585293","-0,0433918516064922","0,947002318648559"
"1537","-1,2749254720106","8,7250745279894","-27,2749254720106","-2,93540907585293","-0,0433918516064922","0,947002318648559"
"1537","-1,2749254720106","8,7250745279894","-27,2749254720106","-0,935409075852931","1,95660814839351","-0,0529976813514409"
"1545","0,7250745279894","4,7250745279894","-28,2749254720106","-0,935409075852931","1,95660814839351","-0,0529976813514409"
"1546","0,7250745279894","4,7250745279894","-28,2749254720106","-0,935409075852931","-0,0433918516064922","-2,05299768135144"
"1557","1,7250745279894","2,7250745279894","-26,2749254720106","-0,935409075852931","-0,0433918516064922","-2,05299768135144"
"1558","1,7250745279894","2,7250745279894","-26,2749254720106","-4,93540907585293","1,95660814839351","-1,05299768135144"
"1566","0,7250745279894","4,7250745279894","-26,2749254720106","-4,93540907585293","1,95660814839351","-1,05299768135144"
"1566","0,7250745279894","4,7250745279894","-26,2749254720106","-5,93540907585293","-0,0433918516064922","-1,05299768135144"
"1574","-0,2749254720106","7,7250745279894","-26,2749254720106","-5,93540907585293","-0,0433918516064922","-1,05299768135144"
"1578","-0,2749254720106","7,7250745279894","-26,2749254720106","3,06459092414707","0,956608148393508","0,947002318648559"
"1586","1,7250745279894","3,7250745279894","-28,2749254720106","3,06459092414707","0,956608148393508","0,947002318648559"
"1586","1,7250745279894","3,7250745279894","-28,2749254720106","2,06459092414707","-1,04339185160649","0,947002318648559"
"1594","-0,2749254720106","4,7250745279894","-23,2749254720106","2,06459092414707","-1,04339185160649","0,947002318648559"
"1598","-0,2749254720106","4,7250745279894","-23,2749254720106","-2,93540907585293","1,95660814839351","-0,0529976813514409"
"1607","0,7250745279894","7,7250745279894","-28,2749254720106","-2,93540907585293","1,95660814839351","-0,0529976813514409"
"1607","0,7250745279894","7,7250745279894","-28,2749254720106","4,06459092414707","-2,04339185160649","1,94700231864856"
"1615","-1,2749254720106","5,7250745279894","-27,2749254720106","4,06459092414707","-2,04339185160649","1,94700231864856"
"1619","-1,2749254720106","5,7250745279894","-27,2749254720106","2,06459092414707","-2,04339185160649","-2,05299768135144"
"1627","-0,2749254720106","4,7250745279894","-26,2749254720106","2,06459092414707","-2,04339185160649","-2,05299768135144"
"1627","-0,2749254720106","4,7250745279894","-26,2749254720106","-1,93540907585293","-2,04339185160649","-1,05299768135144"
"1635","0,7250745279894","3,7250745279894","-24,2749254720106","-1,93540907585293","-2,04339185160649","-1,05299768135144"
"1636","0,7250745279894","3,7250745279894","-24,2749254720106","-0,935409075852931","-3,04339185160649","-1,05299768135144"
"1647","-0,2749254720106","5,7250745279894","-25,2749254720106","-0,935409075852931","-3,04339185160649","-1,05299768135144"
"1648","-0,2749254720106","5,7250745279894","-25,2749254720106","-1,93540907585293","-1,04339185160649","-0,0529976813514409"
"1656","-0,2749254720106","5,7250745279894","-24,2749254720106","-1,93540907585293","-1,04339185160649","-0,0529976813514409"
"1656","-0,2749254720106","5,7250745279894","-24,2749254720106","-1,93540907585293","-1,04339185160649","-1,05299768135144"
"1668","-1,2749254720106","5,7250745279894","-26,2749254720106","-1,93540907585293","-1,04339185160649","-1,05299768135144"
"1668","-1,2749254720106","5,7250745279894","-26,2749254720106","-1,93540907585293","-2,04339185160649","-0,0529976813514409"
"1676","-0,2749254720106","5,7250745279894","-24,2749254720106","-1,93540907585293","-2,04339185160649","-0,0529976813514409"
"1676","-0,2749254720106","5,7250745279894","-24,2749254720106","-1,93540907585293","-0,0433918516064922","-0,0529976813514409"
"1684","0,7250745279894","4,7250745279894","-26,2749254720106","-1,93540907585293","-0,0433918516064922","-0,0529976813514409"
"1688","0,7250745279894","4,7250745279894","-26,2749254720106","1,06459092414707","0,956608148393508","-1,05299768135144"
"1697","0,7250745279894","5,7250745279894","-26,2749254720106","1,06459092414707","0,956608148393508","-1,05299768135144"
"1697","0,7250745279894","5,7250745279894","-26,2749254720106","1,06459092414707","0,956608148393508","-0,0529976813514409"
"1705","-1,2749254720106","4,7250745279894","-24,2749254720106","1,06459092414707","0,956608148393508","-0,0529976813514409"
"1709","-1,2749254720106","4,7250745279894","-24,2749254720106","1,06459092414707","0,956608148393508","-2,05299768135144"
"1717","1,7250745279894","4,7250745279894","-27,2749254720106","1,06459092414707","0,956608148393508","-2,05299768135144"
"1717","1,7250745279894","4,7250745279894","-27,2749254720106","1,06459092414707","-2,04339185160649","-1,05299768135144"
"1725","-0,2749254720106","4,7250745279894","-27,2749254720106","1,06459092414707","-2,04339185160649","-1,05299768135144"
"1726","-0,2749254720106","4,7250745279894","-27,2749254720106","1,06459092414707","-1,04339185160649","0,947002318648559"
"1738","-1,2749254720106","3,7250745279894","-24,2749254720106","1,06459092414707","-1,04339185160649","0,947002318648559"
"1738","-1,2749254720106","3,7250745279894","-24,2749254720106","3,06459092414707","1,95660814839351","-1,05299768135144"
"1746","2,7250745279894","6,7250745279894","-25,2749254720106","3,06459092414707","1,95660814839351","-1,05299768135144"
"1746","2,7250745279894","6,7250745279894","-25,2749254720106","-0,935409075852931","1,95660814839351","-0,0529976813514409"
"1758","1,7250745279894","4,7250745279894","-24,2749254720106","-0,935409075852931","1,95660814839351","-0,0529976813514409"
"1758","1,7250745279894","4,7250745279894","-24,2749254720106","-3,93540907585293","-1,04339185160649","-1,05299768135144"
"1766","-0,2749254720106","4,7250745279894","-27,2749254720106","-3,93540907585293","-1,04339185160649","-1,05299768135144"
"1767","-0,2749254720106","4,7250745279894","-27,2749254720106","-0,935409075852931","-2,04339185160649","-0,0529976813514409"
"1775","-0,2749254720106","8,7250745279894","-27,2749254720106","-0,935409075852931","-2,04339185160649","-0,0529976813514409"
"1779","-0,2749254720106","8,7250745279894","-27,2749254720106","2,06459092414707","-1,04339185160649","0,947002318648559"
"1787","-0,2749254720106","4,7250745279894","-25,2749254720106","2,06459092414707","-1,04339185160649","0,947002318648559"
"1787","-0,2749254720106","4,7250745279894","-25,2749254720106","2,06459092414707","-1,04339185160649","2,94700231864856"
"1795","-0,2749254720106","3,7250745279894","-26,2749254720106","2,06459092414707","-1,04339185160649","2,94700231864856"
"1799","-0,2749254720106","3,7250745279894","-26,2749254720106","0,0645909241470686","-0,0433918516064922","1,94700231864856"
"1807","2,7250745279894","4,7250745279894","-25,2749254720106","0,0645909241470686","-0,0433918516064922","1,94700231864856"
"1808","2,7250745279894","4,7250745279894","-25,2749254720106","1,06459092414707","0,956608148393508","2,94700231864856"
"1816","-2,2749254720106","6,7250745279894","-27,2749254720106","1,06459092414707","0,956608148393508","2,94700231864856"
"1816","-2,2749254720106","6,7250745279894","-27,2749254720106","3,06459092414707","-3,04339185160649","0,947002318648559"
"1828","-0,2749254720106","4,7250745279894","-26,2749254720106","3,06459092414707","-3,04339185160649","0,947002318648559"
"1828","-0,2749254720106","4,7250745279894","-26,2749254720106","-0,935409075852931","-0,0433918516064922","0,947002318648559"
"1836","0,7250745279894","3,7250745279894","-27,2749254720106","-0,935409075852931","-0,0433918516064922","0,947002318648559"
"1836","0,7250745279894","3,7250745279894","-27,2749254720106","-1,93540907585293","0,956608148393508","-0,0529976813514409"
"1848","0,7250745279894","5,7250745279894","-25,2749254720106","-1,93540907585293","0,956608148393508","-0,0529976813514409"
"1848","0,7250745279894","5,7250745279894","-25,2749254720106","-0,935409075852931","-1,04339185160649","-1,05299768135144"
"1856","0,7250745279894","4,7250745279894","-25,2749254720106","-0,935409075852931","-1,04339185160649","-1,05299768135144"
"1857","0,7250745279894","4,7250745279894","-25,2749254720106","0,0645909241470686","0,956608148393508","3,94700231864856"
"1865","0,7250745279894","6,7250745279894","-27,2749254720106","0,0645909241470686","0,956608148393508","3,94700231864856"
"1869","0,7250745279894","6,7250745279894","-27,2749254720106","1,06459092414707","-1,04339185160649","2,94700231864856"
"1877","-0,2749254720106","4,7250745279894","-26,2749254720106","1,06459092414707","-1,04339185160649","2,94700231864856"
"1877","-0,2749254720106","4,7250745279894","-26,2749254720106","-1,93540907585293","1,95660814839351","-0,0529976813514409"
"1885","1,7250745279894","5,7250745279894","-27,2749254720106","-1,93540907585293","1,95660814839351","-0,0529976813514409"
"1889","1,7250745279894","5,7250745279894","-27,2749254720106","1,06459092414707","0,956608148393508","-2,05299768135144"
"1897","-0,2749254720106","4,7250745279894","-24,2749254720106","1,06459092414707","0,956608148393508","-2,05299768135144"
"1898","-0,2749254720106","4,7250745279894","-24,2749254720106","2,06459092414707","-1,04339185160649","0,947002318648559"
"1906","0,7250745279894","4,7250745279894","-24,2749254720106","2,06459092414707","-1,04339185160649","0,947002318648559"
"1906","0,7250745279894","4,7250745279894","-24,2749254720106","3,06459092414707","-1,04339185160649","-0,0529976813514409"
"1918","0,7250745279894","3,7250745279894","-26,2749254720106","3,06459092414707","-1,04339185160649","-0,0529976813514409"
"1918","0,7250745279894","3,7250745279894","-26,2749254720106","1,06459092414707","1,95660814839351","-0,0529976813514409"
"1926","-1,2749254720106","5,7250745279894","-25,2749254720106","1,06459092414707","1,95660814839351","-0,0529976813514409"
"1926","-1,2749254720106","5,7250745279894","-25,2749254720106","0,0645909241470686","-0,0433918516064922","-0,0529976813514409"
"1938","-1,2749254720106","4,7250745279894","-24,2749254720106","0,0645909241470686","-0,0433918516064922","-0,0529976813514409"
"1938","-1,2749254720106","4,7250745279894","-24,2749254720106","1,06459092414707","1,95660814839351","1,94700231864856"
"1947","0,7250745279894","6,7250745279894","-27,2749254720106","1,06459092414707","1,95660814839351","1,94700231864856"
"1947","0,7250745279894","6,7250745279894","-27,2749254720106","0,0645909241470686","-3,04339185160649","-0,0529976813514409"
"1959","-2,2749254720106","3,7250745279894","-25,2749254720106","0,0645909241470686","-3,04339185160649","-0,0529976813514409"
"1959","-2,2749254720106","3,7250745279894","-25,2749254720106","-2,93540907585293","-1,04339185160649","-0,0529976813514409"
"1967","-0,2749254720106","4,7250745279894","-27,2749254720106","-2,93540907585293","-1,04339185160649","-0,0529976813514409"
"1967","-0,2749254720106","4,7250745279894","-27,2749254720106","-2,93540907585293","-0,0433918516064922","0,947002318648559"
"1975","0,7250745279894","7,7250745279894","-26,2749254720106","-2,93540907585293","-0,0433918516064922","0,947002318648559"
"1979","0,7250745279894","7,7250745279894","-26,2749254720106","0,0645909241470686","-1,04339185160649","0,947002318648559"
"1988","2,7250745279894","4,7250745279894","-28,2749254720106","0,0645909241470686","-1,04339185160649","0,947002318648559"
"1988","2,7250745279894","4,7250745279894","-28,2749254720106","-1,93540907585293","1,95660814839351","0,947002318648559"
"1996","0,7250745279894","3,7250745279894","-23,2749254720106","-1,93540907585293","1,95660814839351","0,947002318648559"
"2000","0,7250745279894","3,7250745279894","-23,2749254720106","-2,93540907585293","0,956608148393508","0,947002318648559"
"2008","-0,2749254720106","5,7250745279894","-25,2749254720106","-2,93540907585293","0,956608148393508","0,947002318648559"
"2008","-0,2749254720106","5,7250745279894","-25,2749254720106","-5,93540907585293","-0,0433918516064922","0,947002318648559"
"2016","-0,2749254720106","4,7250745279894","-27,2749254720106","-5,93540907585293","-0,0433918516064922","0,947002318648559"
"2016","-0,2749254720106","4,7250745279894","-27,2749254720106","0,0645909241470686","-0,0433918516064922","1,94700231864856"
"2028","1,7250745279894","3,7250745279894","-27,2749254720106","0,0645909241470686","-0,0433918516064922","1,94700231864856"
"2029","1,7250745279894","3,7250745279894","-27,2749254720106","-0,935409075852931","-3,04339185160649","-1,05299768135144"
"2037","-0,2749254720106","3,7250745279894","-25,2749254720106","-0,935409075852931","-3,04339185160649","-1,05299768135144"
"2037","-0,2749254720106","3,7250745279894","-25,2749254720106","-0,935409075852931","-0,0433918516064922","-0,0529976813514409"
"2049","0,7250745279894","8,7250745279894","-27,2749254720106","-0,935409075852931","-0,0433918516064922","-0,0529976813514409"
"2049","0,7250745279894","8,7250745279894","-27,2749254720106","1,06459092414707","-1,04339185160649","0,947002318648559"
"2057","-0,2749254720106","4,7250745279894","-25,2749254720106","1,06459092414707","-1,04339185160649","0,947002318648559"
"2057","-0,2749254720106","4,7250745279894","-25,2749254720106","1,06459092414707","1,95660814839351","1,94700231864856"
"2065","1,7250745279894","2,7250745279894","-27,2749254720106","1,06459092414707","1,95660814839351","1,94700231864856"
"2069","1,7250745279894","2,7250745279894","-27,2749254720106","-3,93540907585293","2,95660814839351","0,947002318648559"
"2078","-0,2749254720106","4,7250745279894","-26,2749254720106","-3,93540907585293","2,95660814839351","0,947002318648559"
"2078","-0,2749254720106","4,7250745279894","-26,2749254720106","-0,935409075852931","2,95660814839351","1,94700231864856"
"2086","0,7250745279894","4,7250745279894","-27,2749254720106","-0,935409075852931","2,95660814839351","1,94700231864856"
"2090","0,7250745279894","4,7250745279894","-27,2749254720106","-2,93540907585293","0,956608148393508","0,947002318648559"
"2098","-0,2749254720106","4,7250745279894","-25,2749254720106","-2,93540907585293","0,956608148393508","0,947002318648559"
"2098","-0,2749254720106","4,7250745279894","-25,2749254720106","-3,93540907585293","0,956608148393508","-2,05299768135144"
"2106","0,7250745279894","4,7250745279894","-26,2749254720106","-3,93540907585293","0,956608148393508","-2,05299768135144"
"2107","0,7250745279894","4,7250745279894","-26,2749254720106","0,0645909241470686","3,95660814839351","-0,0529976813514409"
"2119","0,7250745279894","5,7250745279894","-26,2749254720106","0,0645909241470686","3,95660814839351","-0,0529976813514409"
"2119","0,7250745279894","5,7250745279894","-26,2749254720106","0,0645909241470686","-2,04339185160649","-0,0529976813514409"
"2127","0,7250745279894","4,7250745279894","-27,2749254720106","0,0645909241470686","-2,04339185160649","-0,0529976813514409"
"2127","0,7250745279894","4,7250745279894","-27,2749254720106","0,0645909241470686","-1,04339185160649","-0,0529976813514409"
"2139","0,7250745279894","3,7250745279894","-26,2749254720106","0,0645909241470686","-1,04339185160649","-0,0529976813514409"
"2139","0,7250745279894","3,7250745279894","-26,2749254720106","-0,935409075852931","-1,04339185160649","-0,0529976813514409"
"2147","-0,2749254720106","6,7250745279894","-24,2749254720106","-0,935409075852931","-1,04339185160649","-0,0529976813514409"
"2147","-0,2749254720106","6,7250745279894","-24,2749254720106","-0,935409075852931","-1,04339185160649","-0,0529976813514409"
"2156","0,7250745279894","4,7250745279894","-24,2749254720106","-0,935409075852931","-1,04339185160649","-0,0529976813514409"
"2159","0,7250745279894","4,7250745279894","-24,2749254720106","1,06459092414707","0,956608148393508","1,94700231864856"
"2168","-0,2749254720106","3,7250745279894","-26,2749254720106","1,06459092414707","0,956608148393508","1,94700231864856"
"2168","-0,2749254720106","3,7250745279894","-26,2749254720106","-0,935409075852931","0,956608148393508","0,947002318648559"
"2176","-0,2749254720106","5,7250745279894","-25,2749254720106","-0,935409075852931","0,956608148393508","0,947002318648559"
"2180","-0,2749254720106","5,7250745279894","-25,2749254720106","1,06459092414707","-1,04339185160649","0,947002318648559"
"2188","0,7250745279894","3,7250745279894","-27,2749254720106","1,06459092414707","-1,04339185160649","0,947002318648559"
"2188","0,7250745279894","3,7250745279894","-27,2749254720106","1,06459092414707","-1,04339185160649","1,94700231864856"
"2196","0,7250745279894","3,7250745279894","-26,2749254720106","1,06459092414707","-1,04339185160649","1,94700231864856"
"2197","0,7250745279894","3,7250745279894","-26,2749254720106","-2,93540907585293","0,956608148393508","0,947002318648559"
"2209","-1,2749254720106","4,7250745279894","-23,2749254720106","-2,93540907585293","0,956608148393508","0,947002318648559"
"2209","-1,2749254720106","4,7250745279894","-23,2749254720106","-1,93540907585293","3,95660814839351","2,94700231864856"
"2217","0,7250745279894","7,7250745279894","-29,2749254720106","-1,93540907585293","3,95660814839351","2,94700231864856"
"2217","0,7250745279894","7,7250745279894","-29,2749254720106","-0,935409075852931","0,956608148393508","0,947002318648559"
"2229","-0,2749254720106","4,7250745279894","-26,2749254720106","-0,935409075852931","0,956608148393508","0,947002318648559"
"2229","-0,2749254720106","4,7250745279894","-26,2749254720106","2,06459092414707","-0,0433918516064922","0,947002318648559"
"2237","-0,2749254720106","3,7250745279894","-26,2749254720106","2,06459092414707","-0,0433918516064922","0,947002318648559"
"2238","-0,2749254720106","3,7250745279894","-26,2749254720106","-0,935409075852931","-0,0433918516064922","-0,0529976813514409"
"2246","-0,2749254720106","3,7250745279894","-26,2749254720106","-0,935409075852931","-0,0433918516064922","-0,0529976813514409"
"2249","-0,2749254720106","3,7250745279894","-26,2749254720106","-0,935409075852931","-0,0433918516064922","-0,0529976813514409"
"2258","2,7250745279894","6,7250745279894","-27,2749254720106","-0,935409075852931","-0,0433918516064922","-0,0529976813514409"
"2258","2,7250745279894","6,7250745279894","-27,2749254720106","5,06459092414707","-0,0433918516064922","1,94700231864856"
"2266","-0,2749254720106","4,7250745279894","-26,2749254720106","5,06459092414707","-0,0433918516064922","1,94700231864856"
"2270","-0,2749254720106","4,7250745279894","-26,2749254720106","-1,93540907585293","-1,04339185160649","1,94700231864856"
"2278","-0,2749254720106","4,7250745279894","-26,2749254720106","-1,93540907585293","-1,04339185160649","1,94700231864856"
"2279","-0,2749254720106","4,7250745279894","-26,2749254720106","-1,93540907585293","-1,04339185160649","0,947002318648559"
"2287","0,7250745279894","5,7250745279894","-24,2749254720106","-1,93540907585293","-1,04339185160649","0,947002318648559"
"2291","0,7250745279894","5,7250745279894","-24,2749254720106","-0,935409075852931","-1,04339185160649","-2,05299768135144"
"2299","1,7250745279894","4,7250745279894","-24,2749254720106","-0,935409075852931","-1,04339185160649","-2,05299768135144"
"2299","1,7250745279894","4,7250745279894","-24,2749254720106","-0,935409075852931","-1,04339185160649","-2,05299768135144"
"2307","1,7250745279894","3,7250745279894","-25,2749254720106","-0,935409075852931","-1,04339185160649","-2,05299768135144"
"2307","1,7250745279894","3,7250745279894","-25,2749254720106","-4,93540907585293","-0,0433918516064922","-3,05299768135144"
"2319","0,7250745279894","6,7250745279894","-26,2749254720106","-4,93540907585293","-0,0433918516064922","-3,05299768135144"
"2319","0,7250745279894","6,7250745279894","-26,2749254720106","1,06459092414707","0,956608148393508","1,94700231864856"
"2328","-0,2749254720106","4,7250745279894","-27,2749254720106","1,06459092414707","0,956608148393508","1,94700231864856"
"2328","-0,2749254720106","4,7250745279894","-27,2749254720106","0,0645909241470686","-0,0433918516064922","-1,05299768135144"
"2340","-2,2749254720106","3,7250745279894","-25,2749254720106","0,0645909241470686","-0,0433918516064922","-1,05299768135144"
"2340","-2,2749254720106","3,7250745279894","-25,2749254720106","-0,935409075852931","-1,04339185160649","-1,05299768135144"
"2348","-2,2749254720106","3,7250745279894","-25,2749254720106","-0,935409075852931","-1,04339185160649","-1,05299768135144"
"2348","-2,2749254720106","3,7250745279894","-25,2749254720106","-0,935409075852931","-1,04339185160649","-1,05299768135144"
"2356","-0,2749254720106","5,7250745279894","-26,2749254720106","-0,935409075852931","-1,04339185160649","-1,05299768135144"
"2360","-0,2749254720106","5,7250745279894","-26,2749254720106","2,06459092414707","-2,04339185160649","1,94700231864856"
"2369","0,7250745279894","5,7250745279894","-25,2749254720106","2,06459092414707","-2,04339185160649","1,94700231864856"
"2369","0,7250745279894","5,7250745279894","-25,2749254720106","-1,93540907585293","1,95660814839351","-0,0529976813514409"
"2377","0,7250745279894","4,7250745279894","-26,2749254720106","-1,93540907585293","1,95660814839351","-0,0529976813514409"
"2380","0,7250745279894","4,7250745279894","-26,2749254720106","-2,93540907585293","-1,04339185160649","0,947002318648559"
"2389","-0,2749254720106","5,7250745279894","-25,2749254720106","-2,93540907585293","-1,04339185160649","0,947002318648559"
"2389","-0,2749254720106","5,7250745279894","-25,2749254720106","2,06459092414707","-0,0433918516064922","-0,0529976813514409"
"2397","-0,2749254720106","5,7250745279894","-25,2749254720106","2,06459092414707","-0,0433918516064922","-0,0529976813514409"
"2397","-0,2749254720106","5,7250745279894","-25,2749254720106","2,06459092414707","-0,0433918516064922","-0,0529976813514409"
"2409","0,7250745279894","4,7250745279894","-27,2749254720106","2,06459092414707","-0,0433918516064922","-0,0529976813514409"
"2410","0,7250745279894","4,7250745279894","-27,2749254720106","-0,935409075852931","1,95660814839351","-2,05299768135144"
"2418","-0,2749254720106","3,7250745279894","-26,2749254720106","-0,935409075852931","1,95660814839351","-2,05299768135144"
"2418","-0,2749254720106","3,7250745279894","-26,2749254720106","-2,93540907585293","1,95660814839351","-2,05299768135144"
"2430","-0,2749254720106","4,7250745279894","-26,2749254720106","-2,93540907585293","1,95660814839351","-2,05299768135144"
"2430","-0,2749254720106","4,7250745279894","-26,2749254720106","-0,935409075852931","0,956608148393508","-0,0529976813514409"
"2438","1,7250745279894","3,7250745279894","-26,2749254720106","-0,935409075852931","0,956608148393508","-0,0529976813514409"
"2438","1,7250745279894","3,7250745279894","-26,2749254720106","-0,935409075852931","0,956608148393508","-1,05299768135144"
"2446","1,7250745279894","3,7250745279894","-26,2749254720106","-0,935409075852931","0,956608148393508","-1,05299768135144"
"2447","1,7250745279894","3,7250745279894","-26,2749254720106","-0,935409075852931","0,956608148393508","-1,05299768135144"
"2459","1,7250745279894","6,7250745279894","-25,2749254720106","-0,935409075852931","0,956608148393508","-1,05299768135144"
"2459","1,7250745279894","6,7250745279894","-25,2749254720106","-1,93540907585293","-1,04339185160649","0,947002318648559"
"2467","-0,2749254720106","4,7250745279894","-26,2749254720106","-1,93540907585293","-1,04339185160649","0,947002318648559"
"2471","-0,2749254720106","4,7250745279894","-26,2749254720106","-0,935409075852931","-1,04339185160649","-1,05299768135144"
"2479","-0,2749254720106","6,7250745279894","-23,2749254720106","-0,935409075852931","-1,04339185160649","-1,05299768135144"
"2479","-0,2749254720106","6,7250745279894","-23,2749254720106","-1,93540907585293","-0,0433918516064922","-1,05299768135144"
"2487","-0,2749254720106","6,7250745279894","-26,2749254720106","-1,93540907585293","-0,0433918516064922","-1,05299768135144"
"2491","-0,2749254720106","6,7250745279894","-26,2749254720106","-1,93540907585293","-0,0433918516064922","-1,05299768135144"
"2495","-0,2749254720106","6,7250745279894","-26,2749254720106","-1,93540907585293","-0,0433918516064922","-1,05299768135144"
"2500","-0,2749254720106","6,7250745279894","-26,2749254720106","-1,93540907585293","0,956608148393508","-2,05299768135144"
"2508","-0,2749254720106","4,7250745279894","-24,2749254720106","-1,93540907585293","0,956608148393508","-2,05299768135144"
"2508","-0,2749254720106","4,7250745279894","-24,2749254720106","-0,935409075852931","-1,04339185160649","-2,05299768135144"
"2520","-0,2749254720106","6,7250745279894","-27,2749254720106","-0,935409075852931","-1,04339185160649","-2,05299768135144"
"2520","-0,2749254720106","6,7250745279894","-27,2749254720106","0,0645909241470686","-1,04339185160649","-4,05299768135144"
"2528","-0,2749254720106","5,7250745279894","-25,2749254720106","0,0645909241470686","-1,04339185160649","-4,05299768135144"
"2529","-0,2749254720106","5,7250745279894","-25,2749254720106","0,0645909241470686","-1,04339185160649","-4,05299768135144"
"2540","0,7250745279894","3,7250745279894","-24,2749254720106","0,0645909241470686","-1,04339185160649","-4,05299768135144"
"2541","0,7250745279894","3,7250745279894","-24,2749254720106","1,06459092414707","1,95660814839351","-2,05299768135144"
"2545","0,7250745279894","3,7250745279894","-24,2749254720106","1,06459092414707","1,95660814839351","-2,05299768135144"
"2545","0,7250745279894","3,7250745279894","-24,2749254720106","0,0645909241470686","0,956608148393508","-0,0529976813514409"
"2557","-0,2749254720106","5,7250745279894","-26,2749254720106","0,0645909241470686","0,956608148393508","-0,0529976813514409"
"2561","-0,2749254720106","5,7250745279894","-26,2749254720106","1,06459092414707","-1,04339185160649","-0,0529976813514409"
"2569","-0,2749254720106","4,7250745279894","-29,2749254720106","1,06459092414707","-1,04339185160649","-0,0529976813514409"
"2569","-0,2749254720106","4,7250745279894","-29,2749254720106","2,06459092414707","-0,0433918516064922","-0,0529976813514409"
"2577","-0,2749254720106","3,7250745279894","-28,2749254720106","2,06459092414707","-0,0433918516064922","-0,0529976813514409"
"2581","-0,2749254720106","3,7250745279894","-28,2749254720106","-0,935409075852931","-1,04339185160649","-1,05299768135144"
"2590","-0,2749254720106","5,7250745279894","-24,2749254720106","-0,935409075852931","-1,04339185160649","-1,05299768135144"
"2590","-0,2749254720106","5,7250745279894","-24,2749254720106","-0,935409075852931","-1,04339185160649","-1,05299768135144"
"2598","-0,2749254720106","5,7250745279894","-24,2749254720106","-0,935409075852931","-1,04339185160649","-1,05299768135144"
"2598","-0,2749254720106","5,7250745279894","-24,2749254720106","1,06459092414707","1,95660814839351","-2,05299768135144"
"2610","-0,2749254720106","3,7250745279894","-24,2749254720106","1,06459092414707","1,95660814839351","-2,05299768135144"
"2610","-0,2749254720106","3,7250745279894","-24,2749254720106","0,0645909241470686","-1,04339185160649","-2,05299768135144"
"2618","0,7250745279894","3,7250745279894","-26,2749254720106","0,0645909241470686","-1,04339185160649","-2,05299768135144"
"2619","0,7250745279894","3,7250745279894","-26,2749254720106","-2,93540907585293","0,956608148393508","-0,0529976813514409"
"2631","-0,2749254720106","8,7250745279894","-27,2749254720106","-2,93540907585293","0,956608148393508","-0,0529976813514409"
"2631","-0,2749254720106","8,7250745279894","-27,2749254720106","0,0645909241470686","-1,04339185160649","-2,05299768135144"
"2639","1,7250745279894","3,7250745279894","-27,2749254720106","0,0645909241470686","-1,04339185160649","-2,05299768135144"
"2639","1,7250745279894","3,7250745279894","-27,2749254720106","2,06459092414707","-0,0433918516064922","-1,05299768135144"
"2647","1,7250745279894","3,7250745279894","-27,2749254720106","2,06459092414707","-0,0433918516064922","-1,05299768135144"
"2647","1,7250745279894","3,7250745279894","-27,2749254720106","1,06459092414707","2,95660814839351","-2,05299768135144"
"2660","-0,2749254720106","7,7250745279894","-29,2749254720106","1,06459092414707","2,95660814839351","-2,05299768135144"
"2660","-0,2749254720106","7,7250745279894","-29,2749254720106","-3,93540907585293","0,956608148393508","-2,05299768135144"
"2668","-0,2749254720106","5,7250745279894","-28,2749254720106","-3,93540907585293","0,956608148393508","-2,05299768135144"
"2672","-0,2749254720106","5,7250745279894","-28,2749254720106","-3,93540907585293","-1,04339185160649","-0,0529976813514409"
"2680","-0,2749254720106","3,7250745279894","-24,2749254720106","-3,93540907585293","-1,04339185160649","-0,0529976813514409"
"2680","-0,2749254720106","3,7250745279894","-24,2749254720106","-2,93540907585293","-0,0433918516064922","-1,05299768135144"
"2688","0,7250745279894","4,7250745279894","-25,2749254720106","-2,93540907585293","-0,0433918516064922","-1,05299768135144"
"2688","0,7250745279894","4,7250745279894","-25,2749254720106","-0,935409075852931","-2,04339185160649","-0,0529976813514409"
"2696","0,7250745279894","4,7250745279894","-25,2749254720106","-0,935409075852931","-2,04339185160649","-0,0529976813514409"
"2697","0,7250745279894","4,7250745279894","-25,2749254720106","1,06459092414707","-0,0433918516064922","-2,05299768135144"
"2709","1,7250745279894","3,7250745279894","-25,2749254720106","1,06459092414707","-0,0433918516064922","-2,05299768135144"
"2709","1,7250745279894","3,7250745279894","-25,2749254720106","3,06459092414707","-0,0433918516064922","-2,05299768135144"
"2721","-0,2749254720106","4,7250745279894","-24,2749254720106","3,06459092414707","-0,0433918516064922","-2,05299768135144"
"2721","-0,2749254720106","4,7250745279894","-24,2749254720106","-1,93540907585293","0,956608148393508","-1,05299768135144"
"2729","0,7250745279894","5,7250745279894","-26,2749254720106","-1,93540907585293","0,956608148393508","-1,05299768135144"
"2729","0,7250745279894","5,7250745279894","-26,2749254720106","-0,935409075852931","-0,0433918516064922","-0,0529976813514409"
"2737","-0,2749254720106","5,7250745279894","-26,2749254720106","-0,935409075852931","-0,0433918516064922","-0,0529976813514409"
"2741","-0,2749254720106","5,7250745279894","-26,2749254720106","2,06459092414707","-1,04339185160649","-2,05299768135144"
"2746","-0,2749254720106","5,7250745279894","-26,2749254720106","2,06459092414707","-1,04339185160649","-2,05299768135144"
"2746","-0,2749254720106","5,7250745279894","-26,2749254720106","2,06459092414707","0,956608148393508","-0,0529976813514409"
"2758","0,7250745279894","5,7250745279894","-26,2749254720106","2,06459092414707","0,956608148393508","-0,0529976813514409"
"2762","0,7250745279894","5,7250745279894","-26,2749254720106","0,0645909241470686","0,956608148393508","-3,05299768135144"
"2770","-0,2749254720106","4,7250745279894","-28,2749254720106","0,0645909241470686","0,956608148393508","-3,05299768135144"
"2770","-0,2749254720106","4,7250745279894","-28,2749254720106","2,06459092414707","-1,04339185160649","-2,05299768135144"
"2778","-0,2749254720106","4,7250745279894","-27,2749254720106","2,06459092414707","-1,04339185160649","-2,05299768135144"
"2778","-0,2749254720106","4,7250745279894","-27,2749254720106","0,0645909241470686","-2,04339185160649","-1,05299768135144"
"2790","1,7250745279894","3,7250745279894","-24,2749254720106","0,0645909241470686","-2,04339185160649","-1,05299768135144"
"2790","1,7250745279894","3,7250745279894","-24,2749254720106","1,06459092414707","-1,04339185160649","-1,05299768135144"
"2795","1,7250745279894","3,7250745279894","-24,2749254720106","1,06459092414707","-1,04339185160649","-1,05299768135144"
"2799","1,7250745279894","3,7250745279894","-24,2749254720106","4,06459092414707","0,956608148393508","-0,0529976813514409"
"2811","-0,2749254720106","4,7250745279894","-25,2749254720106","4,06459092414707","0,956608148393508","-0,0529976813514409"
"2811","-0,2749254720106","4,7250745279894","-25,2749254720106","0,0645909241470686","0,956608148393508","-1,05299768135144"
"2819","-0,2749254720106","3,7250745279894","-25,2749254720106","0,0645909241470686","0,956608148393508","-1,05299768135144"
"2819","-0,2749254720106","3,7250745279894","-25,2749254720106","-1,93540907585293","0,956608148393508","-3,05299768135144"
"2827","1,7250745279894","5,7250745279894","-29,2749254720106","-1,93540907585293","0,956608148393508","-3,05299768135144"
"2831","1,7250745279894","5,7250745279894","-29,2749254720106","0,0645909241470686","-0,0433918516064922","-1,05299768135144"
"2840","-0,2749254720106","4,7250745279894","-23,2749254720106","0,0645909241470686","-0,0433918516064922","-1,05299768135144"
"2840","-0,2749254720106","4,7250745279894","-23,2749254720106","-0,935409075852931","-0,0433918516064922","-1,05299768135144"
"2848","-0,2749254720106","4,7250745279894","-23,2749254720106","-0,935409075852931","-0,0433918516064922","-1,05299768135144"
"2848","-0,2749254720106","4,7250745279894","-23,2749254720106","0,0645909241470686","-0,0433918516064922","-2,05299768135144"
"2860","0,7250745279894","6,7250745279894","-26,2749254720106","0,0645909241470686","-0,0433918516064922","-2,05299768135144"
"2860","0,7250745279894","6,7250745279894","-26,2749254720106","-1,93540907585293","-1,04339185160649","-2,05299768135144"
"2868","-0,2749254720106","3,7250745279894","-27,2749254720106","-1,93540907585293","-1,04339185160649","-2,05299768135144"
"2868","-0,2749254720106","3,7250745279894","-27,2749254720106","3,06459092414707","0,956608148393508","-2,05299768135144"
"2881","-0,2749254720106","1,7250745279894","-28,2749254720106","3,06459092414707","0,956608148393508","-2,05299768135144"
"2881","-0,2749254720106","1,7250745279894","-28,2749254720106","-0,935409075852931","-0,0433918516064922","0,947002318648559"
"2889","0,7250745279894","6,7250745279894","-25,2749254720106","-0,935409075852931","-0,0433918516064922","0,947002318648559"
"2889","0,7250745279894","6,7250745279894","-25,2749254720106","-0,935409075852931","-1,04339185160649","2,94700231864856"
"2897","0,7250745279894","6,7250745279894","-25,2749254720106","-0,935409075852931","-1,04339185160649","2,94700231864856"
"2897","0,7250745279894","6,7250745279894","-25,2749254720106","0,0645909241470686","-2,04339185160649","-2,05299768135144"
"2909","-0,2749254720106","3,7250745279894","-25,2749254720106","0,0645909241470686","-2,04339185160649","-2,05299768135144"
"2910","-0,2749254720106","3,7250745279894","-25,2749254720106","1,06459092414707","-1,04339185160649","-1,05299768135144"
"2918","-0,2749254720106","3,7250745279894","-24,2749254720106","1,06459092414707","-1,04339185160649","-1,05299768135144"
"2922","-0,2749254720106","3,7250745279894","-24,2749254720106","1,06459092414707","-0,0433918516064922","0,947002318648559"
"2930","0,7250745279894","6,7250745279894","-25,2749254720106","1,06459092414707","-0,0433918516064922","0,947002318648559"
"2930","0,7250745279894","6,7250745279894","-25,2749254720106","-2,93540907585293","2,95660814839351","0,947002318648559"
"2938","-0,2749254720106","4,7250745279894","-26,2749254720106","-2,93540907585293","2,95660814839351","0,947002318648559"
"2942","-0,2749254720106","4,7250745279894","-26,2749254720106","2,06459092414707","0,956608148393508","1,94700231864856"
"2946","-0,2749254720106","4,7250745279894","-26,2749254720106","2,06459092414707","0,956608148393508","1,94700231864856"
"2946","-0,2749254720106","4,7250745279894","-26,2749254720106","4,06459092414707","1,95660814839351","-0,0529976813514409"
"2959","-0,2749254720106","4,7250745279894","-25,2749254720106","4,06459092414707","1,95660814839351","-0,0529976813514409"
"2962","-0,2749254720106","4,7250745279894","-25,2749254720106","-4,93540907585293","-1,04339185160649","0,947002318648559"
"2971","2,7250745279894","7,7250745279894","-27,2749254720106","-4,93540907585293","-1,04339185160649","0,947002318648559"
"2971","2,7250745279894","7,7250745279894","-27,2749254720106","-0,935409075852931","-2,04339185160649","0,947002318648559"
"2979","-1,2749254720106","3,7250745279894","-27,2749254720106","-0,935409075852931","-2,04339185160649","0,947002318648559"
"2979","-1,2749254720106","3,7250745279894","-27,2749254720106","-0,935409075852931","1,95660814839351","1,94700231864856"
"2991","0,7250745279894","3,7250745279894","-23,2749254720106","-0,935409075852931","1,95660814839351","1,94700231864856"
"2991","0,7250745279894","3,7250745279894","-23,2749254720106","0,0645909241470686","0,956608148393508","-1,05299768135144"
"2995","0,7250745279894","3,7250745279894","-23,2749254720106","0,0645909241470686","0,956608148393508","-1,05299768135144"
"2999","0,7250745279894","3,7250745279894","-23,2749254720106","-2,93540907585293","1,95660814839351","-1,05299768135144"
"3008","-0,2749254720106","4,7250745279894","-25,2749254720106","-2,93540907585293","1,95660814839351","-1,05299768135144"
"3012","-0,2749254720106","4,7250745279894","-25,2749254720106","1,06459092414707","0,956608148393508","-1,05299768135144"
"3020","-0,2749254720106","3,7250745279894","-27,2749254720106","1,06459092414707","0,956608148393508","-1,05299768135144"
"3020","-0,2749254720106","3,7250745279894","-27,2749254720106","-0,935409075852931","1,95660814839351","0,947002318648559"
"3028","2,7250745279894","5,7250745279894","-27,2749254720106","-0,935409075852931","1,95660814839351","0,947002318648559"
"3032","2,7250745279894","5,7250745279894","-27,2749254720106","-3,93540907585293","-0,0433918516064922","-0,0529976813514409"
"3040","1,7250745279894","3,7250745279894","-23,2749254720106","-3,93540907585293","-0,0433918516064922","-0,0529976813514409"
"3041","1,7250745279894","3,7250745279894","-23,2749254720106","-0,935409075852931","-1,04339185160649","-1,05299768135144"
"3049","1,7250745279894","3,7250745279894","-23,2749254720106","-0,935409075852931","-1,04339185160649","-1,05299768135144"
"3049","1,7250745279894","3,7250745279894","-23,2749254720106","-0,935409075852931","2,95660814839351","0,947002318648559"
"3061","-0,2749254720106","6,7250745279894","-26,2749254720106","-0,935409075852931","2,95660814839351","0,947002318648559"
"3061","-0,2749254720106","6,7250745279894","-26,2749254720106","-0,935409075852931","-2,04339185160649","1,94700231864856"
"3069","-1,2749254720106","5,7250745279894","-30,2749254720106","-0,935409075852931","-2,04339185160649","1,94700231864856"
"3069","-1,2749254720106","5,7250745279894","-30,2749254720106","-0,935409075852931","-1,04339185160649","2,94700231864856"
"3081","-0,2749254720106","3,7250745279894","-23,2749254720106","-0,935409075852931","-1,04339185160649","2,94700231864856"
"3082","-0,2749254720106","3,7250745279894","-23,2749254720106","1,06459092414707","0,956608148393508","0,947002318648559"
"3090","0,7250745279894","5,7250745279894","-24,2749254720106","1,06459092414707","0,956608148393508","0,947002318648559"
"3090","0,7250745279894","5,7250745279894","-24,2749254720106","-2,93540907585293","-1,04339185160649","0,947002318648559"
"3098","0,7250745279894","5,7250745279894","-24,2749254720106","-2,93540907585293","-1,04339185160649","0,947002318648559"
"3098","0,7250745279894","5,7250745279894","-24,2749254720106","-0,935409075852931","-1,04339185160649","-2,05299768135144"
"3110","0,7250745279894","3,7250745279894","-26,2749254720106","-0,935409075852931","-1,04339185160649","-2,05299768135144"
"3110","0,7250745279894","3,7250745279894","-26,2749254720106","-2,93540907585293","1,95660814839351","-0,0529976813514409"
"3118","-0,2749254720106","4,7250745279894","-26,2749254720106","-2,93540907585293","1,95660814839351","-0,0529976813514409"
"3122","-0,2749254720106","4,7250745279894","-26,2749254720106","-0,935409075852931","2,95660814839351","-2,05299768135144"
"3131","-0,2749254720106","7,7250745279894","-24,2749254720106","-0,935409075852931","2,95660814839351","-2,05299768135144"
"3131","-0,2749254720106","7,7250745279894","-24,2749254720106","-3,93540907585293","1,95660814839351","-0,0529976813514409"
"3139","1,7250745279894","4,7250745279894","-26,2749254720106","-3,93540907585293","1,95660814839351","-0,0529976813514409"
"3143","1,7250745279894","4,7250745279894","-26,2749254720106","-0,935409075852931","0,956608148393508","-0,0529976813514409"
"3147","1,7250745279894","4,7250745279894","-26,2749254720106","-0,935409075852931","0,956608148393508","-0,0529976813514409"
"3147","1,7250745279894","4,7250745279894","-26,2749254720106","-0,935409075852931","-0,0433918516064922","-0,0529976813514409"
"3159","-0,2749254720106","3,7250745279894","-21,2749254720106","-0,935409075852931","-0,0433918516064922","-0,0529976813514409"
"3160","-0,2749254720106","3,7250745279894","-21,2749254720106","-0,935409075852931","-1,04339185160649","-1,05299768135144"
"3171","-0,2749254720106","9,7250745279894","-29,2749254720106","-0,935409075852931","-1,04339185160649","-1,05299768135144"
"3172","-0,2749254720106","9,7250745279894","-29,2749254720106","-3,93540907585293","-0,0433918516064922","0,947002318648559"
"3180","0,7250745279894","3,7250745279894","-25,2749254720106","-3,93540907585293","-0,0433918516064922","0,947002318648559"
"3180","0,7250745279894","3,7250745279894","-25,2749254720106","-0,935409075852931","-1,04339185160649","-0,0529976813514409"
"3192","-1,2749254720106","3,7250745279894","-22,2749254720106","-0,935409075852931","-1,04339185160649","-0,0529976813514409"
"3192","-1,2749254720106","3,7250745279894","-22,2749254720106","1,06459092414707","0,956608148393508","-1,05299768135144"
"3196","-1,2749254720106","3,7250745279894","-22,2749254720106","1,06459092414707","0,956608148393508","-1,05299768135144"
"3200","-1,2749254720106","3,7250745279894","-22,2749254720106","-2,93540907585293","-2,04339185160649","-1,05299768135144"
"3208","-0,2749254720106","4,7250745279894","-27,2749254720106","-2,93540907585293","-2,04339185160649","-1,05299768135144"
"3212","-0,2749254720106","4,7250745279894","-27,2749254720106","-1,93540907585293","-1,04339185160649","-0,0529976813514409"
"3221","0,7250745279894","2,7250745279894","-27,2749254720106","-1,93540907585293","-1,04339185160649","-0,0529976813514409"
"3221","0,7250745279894","2,7250745279894","-27,2749254720106","2,06459092414707","1,95660814839351","-1,05299768135144"
"3229","1,7250745279894","4,7250745279894","-27,2749254720106","2,06459092414707","1,95660814839351","-1,05299768135144"
"3233","1,7250745279894","4,7250745279894","-27,2749254720106","0,0645909241470686","-3,04339185160649","-0,0529976813514409"
"3241","0,7250745279894","5,7250745279894","-26,2749254720106","0,0645909241470686","-3,04339185160649","-0,0529976813514409"
"3241","0,7250745279894","5,7250745279894","-26,2749254720106","-4,93540907585293","-0,0433918516064922","0,947002318648559"
"3249","0,7250745279894","5,7250745279894","-26,2749254720106","-4,93540907585293","-0,0433918516064922","0,947002318648559"
"3249","0,7250745279894","5,7250745279894","-26,2749254720106","2,06459092414707","2,95660814839351","-1,05299768135144"
"3262","-0,2749254720106","5,7250745279894","-25,2749254720106","2,06459092414707","2,95660814839351","-1,05299768135144"
"3262","-0,2749254720106","5,7250745279894","-25,2749254720106","1,06459092414707","0,956608148393508","0,947002318648559"
"3270","-0,2749254720106","4,7250745279894","-27,2749254720106","1,06459092414707","0,956608148393508","0,947002318648559"
"3270","-0,2749254720106","4,7250745279894","-27,2749254720106","-3,93540907585293","1,95660814839351","-1,05299768135144"
"3282","1,7250745279894","4,7250745279894","-26,2749254720106","-3,93540907585293","1,95660814839351","-1,05299768135144"
"3282","1,7250745279894","4,7250745279894","-26,2749254720106","0,0645909241470686","0,956608148393508","-0,0529976813514409"
"3290","-3,2749254720106","6,7250745279894","-24,2749254720106","0,0645909241470686","0,956608148393508","-0,0529976813514409"
"3290","-3,2749254720106","6,7250745279894","-24,2749254720106","2,06459092414707","0,956608148393508","-0,0529976813514409"
"3298","-3,2749254720106","6,7250745279894","-24,2749254720106","2,06459092414707","0,956608148393508","-0,0529976813514409"
"3299","-3,2749254720106","6,7250745279894","-24,2749254720106","1,06459092414707","-1,04339185160649","2,94700231864856"
"3311","-1,2749254720106","3,7250745279894","-26,2749254720106","1,06459092414707","-1,04339185160649","2,94700231864856"
"3311","-1,2749254720106","3,7250745279894","-26,2749254720106","-0,935409075852931","1,95660814839351","0,947002318648559"
"3319","-0,2749254720106","4,7250745279894","-23,2749254720106","-0,935409075852931","1,95660814839351","0,947002318648559"
"3323","-0,2749254720106","4,7250745279894","-23,2749254720106","-1,93540907585293","-0,0433918516064922","1,94700231864856"
"3331","-0,2749254720106","4,7250745279894","-27,2749254720106","-1,93540907585293","-0,0433918516064922","1,94700231864856"
"3331","-0,2749254720106","4,7250745279894","-27,2749254720106","-3,93540907585293","2,95660814839351","-0,0529976813514409"
"3339","-0,2749254720106","4,7250745279894","-27,2749254720106","-3,93540907585293","2,95660814839351","-0,0529976813514409"
"3343","-0,2749254720106","4,7250745279894","-27,2749254720106","-4,93540907585293","1,95660814839351","0,947002318648559"
"3348","-0,2749254720106","4,7250745279894","-27,2749254720106","-4,93540907585293","1,95660814839351","0,947002318648559"
"3348","-0,2749254720106","4,7250745279894","-27,2749254720106","0,0645909241470686","-0,0433918516064922","-3,05299768135144"
"3360","-1,2749254720106","4,7250745279894","-25,2749254720106","0,0645909241470686","-0,0433918516064922","-3,05299768135144"
"3360","-1,2749254720106","4,7250745279894","-25,2749254720106","-0,935409075852931","-0,0433918516064922","-3,05299768135144"
"3372","0,7250745279894","9,7250745279894","-29,2749254720106","-0,935409075852931","-0,0433918516064922","-3,05299768135144"
"3372","0,7250745279894","9,7250745279894","-29,2749254720106","-2,93540907585293","0,956608148393508","-0,0529976813514409"
"3380","2,7250745279894","3,7250745279894","-24,2749254720106","-2,93540907585293","0,956608148393508","-0,0529976813514409"
"3380","2,7250745279894","3,7250745279894","-24,2749254720106","0,0645909241470686","-2,04339185160649","-0,0529976813514409"
"3392","0,7250745279894","2,7250745279894","-22,2749254720106","0,0645909241470686","-2,04339185160649","-0,0529976813514409"
"3393","0,7250745279894","2,7250745279894","-22,2749254720106","-0,935409075852931","-0,0433918516064922","1,94700231864856"
"3397","0,7250745279894","2,7250745279894","-22,2749254720106","-0,935409075852931","-0,0433918516064922","1,94700231864856"
"3401","0,7250745279894","2,7250745279894","-22,2749254720106","-1,93540907585293","-2,04339185160649","0,947002318648559"
"3409","0,7250745279894","4,7250745279894","-27,2749254720106","-1,93540907585293","-2,04339185160649","0,947002318648559"
"3413","0,7250745279894","4,7250745279894","-27,2749254720106","1,06459092414707","-0,0433918516064922","0,947002318648559"
"3421","-0,2749254720106","3,7250745279894","-28,2749254720106","1,06459092414707","-0,0433918516064922","0,947002318648559"
"3421","-0,2749254720106","3,7250745279894","-28,2749254720106","4,06459092414707","-0,0433918516064922","-0,0529976813514409"
"3430","-1,2749254720106","3,7250745279894","-25,2749254720106","4,06459092414707","-0,0433918516064922","-0,0529976813514409"
"3433","-1,2749254720106","3,7250745279894","-25,2749254720106","-3,93540907585293","-1,04339185160649","0,947002318648559"
"3442","-0,2749254720106","8,7250745279894","-27,2749254720106","-3,93540907585293","-1,04339185160649","0,947002318648559"
"3442","-0,2749254720106","8,7250745279894","-27,2749254720106","2,06459092414707","-3,04339185160649","-0,0529976813514409"
"3450","-0,2749254720106","8,7250745279894","-27,2749254720106","2,06459092414707","-3,04339185160649","-0,0529976813514409"
"3450","-0,2749254720106","8,7250745279894","-27,2749254720106","6,06459092414707","-1,04339185160649","-0,0529976813514409"
"3462","-0,2749254720106","1,7250745279894","-24,2749254720106","6,06459092414707","-1,04339185160649","-0,0529976813514409"
"3462","-0,2749254720106","1,7250745279894","-24,2749254720106","0,0645909241470686","-1,04339185160649","-0,0529976813514409"
"3471","-0,2749254720106","1,7250745279894","-24,2749254720106","0,0645909241470686","-1,04339185160649","-0,0529976813514409"
"3471","-0,2749254720106","1,7250745279894","-24,2749254720106","-2,93540907585293","-1,04339185160649","-0,0529976813514409"
"3479","-0,2749254720106","5,7250745279894","-29,2749254720106","-2,93540907585293","-1,04339185160649","-0,0529976813514409"
"3483","-0,2749254720106","5,7250745279894","-29,2749254720106","-0,935409075852931","0,956608148393508","-1,05299768135144"
"3491","0,7250745279894","3,7250745279894","-25,2749254720106","-0,935409075852931","0,956608148393508","-1,05299768135144"
"3491","0,7250745279894","3,7250745279894","-25,2749254720106","5,06459092414707","0,956608148393508","-1,05299768135144"
"3499","0,7250745279894","3,7250745279894","-25,2749254720106","5,06459092414707","0,956608148393508","-1,05299768135144"
"3499","0,7250745279894","3,7250745279894","-25,2749254720106","-0,935409075852931","-1,04339185160649","0,947002318648559"
"3511","-0,2749254720106","6,7250745279894","-27,2749254720106","-0,935409075852931","-1,04339185160649","0,947002318648559"
"3512","-0,2749254720106","6,7250745279894","-27,2749254720106","0,0645909241470686","-2,04339185160649","-1,05299768135144"
"3520","-0,2749254720106","6,7250745279894","-27,2749254720106","0,0645909241470686","-2,04339185160649","-1,05299768135144"
"3523","-0,2749254720106","6,7250745279894","-27,2749254720106","5,06459092414707","-1,04339185160649","-1,05299768135144"
"3532","-0,2749254720106","3,7250745279894","-24,2749254720106","5,06459092414707","-1,04339185160649","-1,05299768135144"
"3532","-0,2749254720106","3,7250745279894","-24,2749254720106","0,0645909241470686","-1,04339185160649","0,947002318648559"
"3540","-1,2749254720106","4,7250745279894","-26,2749254720106","0,0645909241470686","-1,04339185160649","0,947002318648559"
"3540","-1,2749254720106","4,7250745279894","-26,2749254720106","1,06459092414707","-0,0433918516064922","0,947002318648559"
"3548","-1,2749254720106","4,7250745279894","-26,2749254720106","1,06459092414707","-0,0433918516064922","0,947002318648559"
"3548","-1,2749254720106","4,7250745279894","-26,2749254720106","-0,935409075852931","0,956608148393508","0,947002318648559"
"3561","-0,2749254720106","4,7250745279894","-27,2749254720106","-0,935409075852931","0,956608148393508","0,947002318648559"
"3561","-0,2749254720106","4,7250745279894","-27,2749254720106","-0,935409075852931","0,956608148393508","0,947002318648559"
"3569","-0,2749254720106","3,7250745279894","-26,2749254720106","-0,935409075852931","0,956608148393508","0,947002318648559"
"3573","-0,2749254720106","3,7250745279894","-26,2749254720106","-0,935409075852931","2,95660814839351","-0,0529976813514409"
"3581","0,7250745279894","5,7250745279894","-24,2749254720106","-0,935409075852931","2,95660814839351","-0,0529976813514409"
"3581","0,7250745279894","5,7250745279894","-24,2749254720106","0,0645909241470686","1,95660814839351","-1,05299768135144"
"3589","-0,2749254720106","3,7250745279894","-24,2749254720106","0,0645909241470686","1,95660814839351","-1,05299768135144"
"3593","-0,2749254720106","3,7250745279894","-24,2749254720106","3,06459092414707","0,956608148393508","2,94700231864856"
"3597","-0,2749254720106","3,7250745279894","-24,2749254720106","3,06459092414707","0,956608148393508","2,94700231864856"
"3598","-0,2749254720106","3,7250745279894","-24,2749254720106","2,06459092414707","0,956608148393508","0,947002318648559"
"3610","-0,2749254720106","5,7250745279894","-23,2749254720106","2,06459092414707","0,956608148393508","0,947002318648559"
"3610","-0,2749254720106","5,7250745279894","-23,2749254720106","-0,935409075852931","1,95660814839351","-0,0529976813514409"
"3622","-0,2749254720106","6,7250745279894","-27,2749254720106","-0,935409075852931","1,95660814839351","-0,0529976813514409"
"3622","-0,2749254720106","6,7250745279894","-27,2749254720106","3,06459092414707","-1,04339185160649","-0,0529976813514409"
"3630","-0,2749254720106","2,7250745279894","-28,2749254720106","3,06459092414707","-1,04339185160649","-0,0529976813514409"
"3630","-0,2749254720106","2,7250745279894","-28,2749254720106","0,0645909241470686","0,956608148393508","1,94700231864856"
"3642","-0,2749254720106","9,7250745279894","-21,2749254720106","0,0645909241470686","0,956608148393508","1,94700231864856"
"3643","-0,2749254720106","9,7250745279894","-21,2749254720106","1,06459092414707","1,95660814839351","-1,05299768135144"
"3647","-0,2749254720106","9,7250745279894","-21,2749254720106","1,06459092414707","1,95660814839351","-1,05299768135144"
"3651","-0,2749254720106","9,7250745279894","-21,2749254720106","3,06459092414707","-3,04339185160649","-0,0529976813514409"
"3659","1,7250745279894","3,7250745279894","-27,2749254720106","3,06459092414707","-3,04339185160649","-0,0529976813514409"
"3663","1,7250745279894","3,7250745279894","-27,2749254720106","2,06459092414707","-1,04339185160649","0,947002318648559"
"3671","-0,2749254720106","-0,2749254720106","-23,2749254720106","2,06459092414707","-1,04339185160649","0,947002318648559"
"3671","-0,2749254720106","-0,2749254720106","-23,2749254720106","-3,93540907585293","2,95660814839351","0,947002318648559"
"3679","-0,2749254720106","5,7250745279894","-27,2749254720106","-3,93540907585293","2,95660814839351","0,947002318648559"
"3680","-0,2749254720106","5,7250745279894","-27,2749254720106","-0,935409075852931","-0,0433918516064922","0,947002318648559"
"3688","-0,2749254720106","8,7250745279894","-27,2749254720106","-0,935409075852931","-0,0433918516064922","0,947002318648559"
"3692","-0,2749254720106","8,7250745279894","-27,2749254720106","2,06459092414707","-2,04339185160649","-1,05299768135144"
"3696","-0,2749254720106","2,7250745279894","-25,2749254720106","2,06459092414707","-2,04339185160649","-1,05299768135144"
"3696","-0,2749254720106","2,7250745279894","-25,2749254720106","-1,93540907585293","-2,04339185160649","-0,0529976813514409"
"3708","-0,2749254720106","2,7250745279894","-25,2749254720106","-1,93540907585293","-2,04339185160649","-0,0529976813514409"
"3708","-0,2749254720106","2,7250745279894","-25,2749254720106","-1,93540907585293","0,956608148393508","-0,0529976813514409"
"3720","0,7250745279894","4,7250745279894","-27,2749254720106","-1,93540907585293","0,956608148393508","-0,0529976813514409"
"3721","0,7250745279894","4,7250745279894","-27,2749254720106","2,06459092414707","1,95660814839351","1,94700231864856"
"3729","0,7250745279894","4,7250745279894","-27,2749254720106","2,06459092414707","1,95660814839351","1,94700231864856"
"3729","0,7250745279894","4,7250745279894","-27,2749254720106","2,06459092414707","0,956608148393508","-0,0529976813514409"
"3737","-0,2749254720106","1,7250745279894","-25,2749254720106","2,06459092414707","0,956608148393508","-0,0529976813514409"
"3741","-0,2749254720106","1,7250745279894","-25,2749254720106","-3,93540907585293","0,956608148393508","1,94700231864856"
"3745","0,7250745279894","4,7250745279894","-25,2749254720106","-3,93540907585293","0,956608148393508","1,94700231864856"
"3745","0,7250745279894","4,7250745279894","-25,2749254720106","0,0645909241470686","-0,0433918516064922","-2,05299768135144"
"3757","-0,2749254720106","9,7250745279894","-27,2749254720106","0,0645909241470686","-0,0433918516064922","-2,05299768135144"
"3757","-0,2749254720106","9,7250745279894","-27,2749254720106","0,0645909241470686","-1,04339185160649","0,947002318648559"
"3765","-0,2749254720106","3,7250745279894","-26,2749254720106","0,0645909241470686","-1,04339185160649","0,947002318648559"
"3769","-0,2749254720106","3,7250745279894","-26,2749254720106","-1,93540907585293","0,956608148393508","-1,05299768135144"
"3778","-1,2749254720106","2,7250745279894","-27,2749254720106","-1,93540907585293","0,956608148393508","-1,05299768135144"
"3778","-1,2749254720106","2,7250745279894","-27,2749254720106","-1,93540907585293","1,95660814839351","0,947002318648559"
"3786","-1,2749254720106","7,7250745279894","-27,2749254720106","-1,93540907585293","1,95660814839351","0,947002318648559"
"3786","-1,2749254720106","7,7250745279894","-27,2749254720106","3,06459092414707","-1,04339185160649","0,947002318648559"
"3794","2,7250745279894","4,7250745279894","-25,2749254720106","3,06459092414707","-1,04339185160649","0,947002318648559"
"3798","2,7250745279894","4,7250745279894","-25,2749254720106","-0,935409075852931","-1,04339185160649","-0,0529976813514409"
"3806","-0,2749254720106","3,7250745279894","-23,2749254720106","-0,935409075852931","-1,04339185160649","-0,0529976813514409"
"3807","-0,2749254720106","3,7250745279894","-23,2749254720106","-0,935409075852931","-0,0433918516064922","-3,05299768135144"
"3815","0,7250745279894","6,7250745279894","-23,2749254720106","-0,935409075852931","-0,0433918516064922","-3,05299768135144"
"3818","0,7250745279894","6,7250745279894","-23,2749254720106","-3,93540907585293","-1,04339185160649","-0,0529976813514409"
"3827","-1,2749254720106","6,7250745279894","-26,2749254720106","-3,93540907585293","-1,04339185160649","-0,0529976813514409"
"3827","-1,2749254720106","6,7250745279894","-26,2749254720106","3,06459092414707","-0,0433918516064922","0,947002318648559"
"3835","-0,2749254720106","4,7250745279894","-26,2749254720106","3,06459092414707","-0,0433918516064922","0,947002318648559"
"3835","-0,2749254720106","4,7250745279894","-26,2749254720106","0,0645909241470686","-2,04339185160649","1,94700231864856"
"3847","0,7250745279894","4,7250745279894","-24,2749254720106","0,0645909241470686","-2,04339185160649","1,94700231864856"
"3847","0,7250745279894","4,7250745279894","-24,2749254720106","0,0645909241470686","-0,0433918516064922","-0,0529976813514409"
"3855","1,7250745279894","5,7250745279894","-25,2749254720106","0,0645909241470686","-0,0433918516064922","-0,0529976813514409"
"3856","1,7250745279894","5,7250745279894","-25,2749254720106","1,06459092414707","-2,04339185160649","-1,05299768135144"
"3864","-0,2749254720106","5,7250745279894","-25,2749254720106","1,06459092414707","-2,04339185160649","-1,05299768135144"
"3868","-0,2749254720106","5,7250745279894","-25,2749254720106","0,0645909241470686","-1,04339185160649","-1,05299768135144"
"3876","1,7250745279894","5,7250745279894","-27,2749254720106","0,0645909241470686","-1,04339185160649","-1,05299768135144"
"3876","1,7250745279894","5,7250745279894","-27,2749254720106","-1,93540907585293","-1,04339185160649","-1,05299768135144"
"3884","0,7250745279894","6,7250745279894","-29,2749254720106","-1,93540907585293","-1,04339185160649","-1,05299768135144"
"3888","0,7250745279894","6,7250745279894","-29,2749254720106","-1,93540907585293","1,95660814839351","0,947002318648559"
"3896","0,7250745279894","3,7250745279894","-25,2749254720106","-1,93540907585293","1,95660814839351","0,947002318648559"
"3897","0,7250745279894","3,7250745279894","-25,2749254720106","1,06459092414707","1,95660814839351","-0,0529976813514409"
"3905","-1,2749254720106","3,7250745279894","-22,2749254720106","1,06459092414707","1,95660814839351","-0,0529976813514409"
"3909","-1,2749254720106","3,7250745279894","-22,2749254720106","2,06459092414707","-1,04339185160649","-1,05299768135144"
"3917","-0,2749254720106","5,7250745279894","-24,2749254720106","2,06459092414707","-1,04339185160649","-1,05299768135144"
"3917","-0,2749254720106","5,7250745279894","-24,2749254720106","0,0645909241470686","-1,04339185160649","1,94700231864856"
"3925","0,7250745279894","6,7250745279894","-27,2749254720106","0,0645909241470686","-1,04339185160649","1,94700231864856"
"3925","0,7250745279894","6,7250745279894","-27,2749254720106","3,06459092414707","2,95660814839351","0,947002318648559"
"3937","-0,2749254720106","3,7250745279894","-25,2749254720106","3,06459092414707","2,95660814839351","0,947002318648559"
"3937","-0,2749254720106","3,7250745279894","-25,2749254720106","0,0645909241470686","2,95660814839351","1,94700231864856"
"3946","-0,2749254720106","4,7250745279894","-25,2749254720106","0,0645909241470686","2,95660814839351","1,94700231864856"
"3946","-0,2749254720106","4,7250745279894","-25,2749254720106","2,06459092414707","-0,0433918516064922","0,947002318648559"
"3954","-0,2749254720106","6,7250745279894","-26,2749254720106","2,06459092414707","-0,0433918516064922","0,947002318648559"
"3958","-0,2749254720106","6,7250745279894","-26,2749254720106","1,06459092414707","2,95660814839351","-0,0529976813514409"
"3966","-0,2749254720106","3,7250745279894","-26,2749254720106","1,06459092414707","2,95660814839351","-0,0529976813514409"
"3966","-0,2749254720106","3,7250745279894","-26,2749254720106","0,0645909241470686","-1,04339185160649","-0,0529976813514409"
"3974","-0,2749254720106","2,7250745279894","-24,2749254720106","0,0645909241470686","-1,04339185160649","-0,0529976813514409"
"3978","-0,2749254720106","2,7250745279894","-24,2749254720106","-2,93540907585293","-0,0433918516064922","0,947002318648559"
"3986","0,7250745279894","8,7250745279894","-26,2749254720106","-2,93540907585293","-0,0433918516064922","0,947002318648559"
"3987","0,7250745279894","8,7250745279894","-26,2749254720106","-0,935409075852931","1,95660814839351","1,94700231864856"
"3995","2,7250745279894","5,7250745279894","-25,2749254720106","-0,935409075852931","1,95660814839351","1,94700231864856"
"3995","2,7250745279894","5,7250745279894","-25,2749254720106","3,06459092414707","-3,04339185160649","-0,0529976813514409"
"4007","-0,2749254720106","0,7250745279894","-23,2749254720106","3,06459092414707","-3,04339185160649","-0,0529976813514409"
"4007","-0,2749254720106","0,7250745279894","-23,2749254720106","-0,935409075852931","0,956608148393508","0,947002318648559"
"4015","-0,2749254720106","3,7250745279894","-23,2749254720106","-0,935409075852931","0,956608148393508","0,947002318648559"
"4015","-0,2749254720106","3,7250745279894","-23,2749254720106","-2,93540907585293","-1,04339185160649","1,94700231864856"
"4027","-0,2749254720106","8,7250745279894","-31,2749254720106","-2,93540907585293","-1,04339185160649","1,94700231864856"
"4028","-0,2749254720106","8,7250745279894","-31,2749254720106","0,0645909241470686","-0,0433918516064922","-0,0529976813514409"
"4036","2,7250745279894","3,7250745279894","-26,2749254720106","0,0645909241470686","-0,0433918516064922","-0,0529976813514409"
"4036","2,7250745279894","3,7250745279894","-26,2749254720106","0,0645909241470686","0,956608148393508","-2,05299768135144"
"4044","1,7250745279894","1,7250745279894","-26,2749254720106","0,0645909241470686","0,956608148393508","-2,05299768135144"
"4048","1,7250745279894","1,7250745279894","-26,2749254720106","-1,93540907585293","-1,04339185160649","0,947002318648559"
"4056","-1,2749254720106","10,7250745279894","-27,2749254720106","-1,93540907585293","-1,04339185160649","0,947002318648559"
"4056","-1,2749254720106","10,7250745279894","-27,2749254720106","4,06459092414707","0,956608148393508","-1,05299768135144"
"4064","-0,2749254720106","5,7250745279894","-27,2749254720106","4,06459092414707","0,956608148393508","-1,05299768135144"
"4068","-0,2749254720106","5,7250745279894","-27,2749254720106","3,06459092414707","-2,04339185160649","-2,05299768135144"
"4077","-0,2749254720106","1,7250745279894","-26,2749254720106","3,06459092414707","-2,04339185160649","-2,05299768135144"
"4077","-0,2749254720106","1,7250745279894","-26,2749254720106","-3,93540907585293","-1,04339185160649","-0,0529976813514409"
"4085","-0,2749254720106","4,7250745279894","-26,2749254720106","-3,93540907585293","-1,04339185160649","-0,0529976813514409"
"4085","-0,2749254720106","4,7250745279894","-26,2749254720106","2,06459092414707","-0,0433918516064922","-2,05299768135144"
"4097","-0,2749254720106","7,7250745279894","-26,2749254720106","2,06459092414707","-0,0433918516064922","-2,05299768135144"
"4097","-0,2749254720106","7,7250745279894","-26,2749254720106","1,06459092414707","0,956608148393508","-0,0529976813514409"
"4105","-0,2749254720106","4,7250745279894","-25,2749254720106","1,06459092414707","0,956608148393508","-0,0529976813514409"
"4106","-0,2749254720106","4,7250745279894","-25,2749254720106","-0,935409075852931","-0,0433918516064922","-0,0529976813514409"
"4118","-0,2749254720106","2,7250745279894","-24,2749254720106","-0,935409075852931","-0,0433918516064922","-0,0529976813514409"
"4118","-0,2749254720106","2,7250745279894","-24,2749254720106","-2,93540907585293","0,956608148393508","0,947002318648559"
"4126","0,7250745279894","6,7250745279894","-28,2749254720106","-2,93540907585293","0,956608148393508","0,947002318648559"
"4126","0,7250745279894","6,7250745279894","-28,2749254720106","-0,935409075852931","-1,04339185160649","0,947002318648559"
"4134","-1,2749254720106","5,7250745279894","-27,2749254720106","-0,935409075852931","-1,04339185160649","0,947002318648559"
"4138","-1,2749254720106","5,7250745279894","-27,2749254720106","2,06459092414707","-0,0433918516064922","-1,05299768135144"
"4146","-1,2749254720106","4,7250745279894","-26,2749254720106","2,06459092414707","-0,0433918516064922","-1,05299768135144"
"4147","-1,2749254720106","4,7250745279894","-26,2749254720106","-3,93540907585293","0,956608148393508","0,947002318648559"
"4155","1,7250745279894","5,7250745279894","-23,2749254720106","-3,93540907585293","0,956608148393508","0,947002318648559"
"4158","1,7250745279894","5,7250745279894","-23,2749254720106","3,06459092414707","-3,04339185160649","1,94700231864856"
"4167","2,7250745279894","3,7250745279894","-26,2749254720106","3,06459092414707","-3,04339185160649","1,94700231864856"
"4167","2,7250745279894","3,7250745279894","-26,2749254720106","1,06459092414707","-1,04339185160649","-0,0529976813514409"
"4175","-0,2749254720106","4,7250745279894","-24,2749254720106","1,06459092414707","-1,04339185160649","-0,0529976813514409"
"4175","-0,2749254720106","4,7250745279894","-24,2749254720106","2,06459092414707","-1,04339185160649","-0,0529976813514409"
"4187","-2,2749254720106","7,7250745279894","-28,2749254720106","2,06459092414707","-1,04339185160649","-0,0529976813514409"
"4187","-2,2749254720106","7,7250745279894","-28,2749254720106","-0,935409075852931","0,956608148393508","0,947002318648559"
"4195","-0,2749254720106","4,7250745279894","-25,2749254720106","-0,935409075852931","0,956608148393508","0,947002318648559"
"4195","-0,2749254720106","4,7250745279894","-25,2749254720106","3,06459092414707","-0,0433918516064922","1,94700231864856"
"4208","0,7250745279894","1,7250745279894","-25,2749254720106","3,06459092414707","-0,0433918516064922","1,94700231864856"
"4208","0,7250745279894","1,7250745279894","-25,2749254720106","-3,93540907585293","2,95660814839351","-0,0529976813514409"
"4216","-1,2749254720106","4,7250745279894","-23,2749254720106","-3,93540907585293","2,95660814839351","-0,0529976813514409"
"4216","-1,2749254720106","4,7250745279894","-23,2749254720106","-1,93540907585293","-1,04339185160649","0,947002318648559"
"4224","0,7250745279894","5,7250745279894","-30,2749254720106","-1,93540907585293","-1,04339185160649","0,947002318648559"
"4228","0,7250745279894","5,7250745279894","-30,2749254720106","5,06459092414707","-0,0433918516064922","-0,0529976813514409"
"4236","0,7250745279894","3,7250745279894","-27,2749254720106","5,06459092414707","-0,0433918516064922","-0,0529976813514409"
"4237","0,7250745279894","3,7250745279894","-27,2749254720106","2,06459092414707","1,95660814839351","1,94700231864856"
"4245","-0,2749254720106","2,7250745279894","-23,2749254720106","2,06459092414707","1,95660814839351","1,94700231864856"
"4248","-0,2749254720106","2,7250745279894","-23,2749254720106","-2,93540907585293","1,95660814839351","-0,0529976813514409"
"4257","-1,2749254720106","7,7250745279894","-21,2749254720106","-2,93540907585293","1,95660814839351","-0,0529976813514409"
"4257","-1,2749254720106","7,7250745279894","-21,2749254720106","3,06459092414707","0,956608148393508","-0,0529976813514409"
"4265","0,7250745279894","6,7250745279894","-28,2749254720106","3,06459092414707","0,956608148393508","-0,0529976813514409"
"4265","0,7250745279894","6,7250745279894","-28,2749254720106","3,06459092414707","-0,0433918516064922","0,947002318648559"
"4277","1,7250745279894","0,7250745279894","-25,2749254720106","3,06459092414707","-0,0433918516064922","0,947002318648559"
"4277","1,7250745279894","0,7250745279894","-25,2749254720106","1,06459092414707","-1,04339185160649","1,94700231864856"
"4286","-1,2749254720106","2,7250745279894","-26,2749254720106","1,06459092414707","-1,04339185160649","1,94700231864856"
"4286","-1,2749254720106","2,7250745279894","-26,2749254720106","0,0645909241470686","0,956608148393508","0,947002318648559"
"4298","-0,2749254720106","10,7250745279894","-28,2749254720106","0,0645909241470686","0,956608148393508","0,947002318648559"
"4298","-0,2749254720106","10,7250745279894","-28,2749254720106","4,06459092414707","-2,04339185160649","0,947002318648559"
"4306","-0,2749254720106","4,7250745279894","-25,2749254720106","4,06459092414707","-2,04339185160649","0,947002318648559"
"4306","-0,2749254720106","4,7250745279894","-25,2749254720106","2,06459092414707","-2,04339185160649","-0,0529976813514409"
"4314","0,7250745279894","-0,2749254720106","-22,2749254720106","2,06459092414707","-2,04339185160649","-0,0529976813514409"
"4318","0,7250745279894","-0,2749254720106","-22,2749254720106","-0,935409075852931","-1,04339185160649","0,947002318648559"
"4327","-1,2749254720106","4,7250745279894","-25,2749254720106","-0,935409075852931","-1,04339185160649","0,947002318648559"
"4327","-1,2749254720106","4,7250745279894","-25,2749254720106","0,0645909241470686","0,956608148393508","-1,05299768135144"
"4335","0,7250745279894","6,7250745279894","-26,2749254720106","0,0645909241470686","0,956608148393508","-1,05299768135144"
"4335","0,7250745279894","6,7250745279894","-26,2749254720106","1,06459092414707","0,956608148393508","-1,05299768135144"
"4347","0,7250745279894","2,7250745279894","-25,2749254720106","1,06459092414707","0,956608148393508","-1,05299768135144"
"4347","0,7250745279894","2,7250745279894","-25,2749254720106","-0,935409075852931","-1,04339185160649","0,947002318648559"
"4355","-0,2749254720106","2,7250745279894","-25,2749254720106","-0,935409075852931","-1,04339185160649","0,947002318648559"
"4355","-0,2749254720106","2,7250745279894","-25,2749254720106","0,0645909241470686","1,95660814839351","-0,0529976813514409"
"4367","-0,2749254720106","8,7250745279894","-27,2749254720106","0,0645909241470686","1,95660814839351","-0,0529976813514409"
"4367","-0,2749254720106","8,7250745279894","-27,2749254720106","1,06459092414707","1,95660814839351","2,94700231864856"
"4376","0,7250745279894","5,7250745279894","-24,2749254720106","1,06459092414707","1,95660814839351","2,94700231864856"
"4376","0,7250745279894","5,7250745279894","-24,2749254720106","1,06459092414707","-3,04339185160649","-0,0529976813514409"
"4384","0,7250745279894","5,7250745279894","-25,2749254720106","1,06459092414707","-3,04339185160649","-0,0529976813514409"
"4388","0,7250745279894","5,7250745279894","-25,2749254720106","0,0645909241470686","-1,04339185160649","1,94700231864856"
"4396","-0,2749254720106","4,7250745279894","-27,2749254720106","0,0645909241470686","-1,04339185160649","1,94700231864856"
"4396","-0,2749254720106","4,7250745279894","-27,2749254720106","0,0645909241470686","-0,0433918516064922","-1,05299768135144"
"4404","-0,2749254720106","4,7250745279894","-26,2749254720106","0,0645909241470686","-0,0433918516064922","-1,05299768135144"
"4408","-0,2749254720106","4,7250745279894","-26,2749254720106","-0,935409075852931","0,956608148393508","-0,0529976813514409"
"4417","-0,2749254720106","7,7250745279894","-25,2749254720106","-0,935409075852931","0,956608148393508","-0,0529976813514409"
"4417","-0,2749254720106","7,7250745279894","-25,2749254720106","-1,93540907585293","-0,0433918516064922","-1,05299768135144"
"4425","-0,2749254720106","4,7250745279894","-24,2749254720106","-1,93540907585293","-0,0433918516064922","-1,05299768135144"
"4429","-0,2749254720106","4,7250745279894","-24,2749254720106","-0,935409075852931","-1,04339185160649","-1,05299768135144"
"4437","1,7250745279894","4,7250745279894","-28,2749254720106","-0,935409075852931","-1,04339185160649","-1,05299768135144"
"4437","1,7250745279894","4,7250745279894","-28,2749254720106","2,06459092414707","-3,04339185160649","-0,0529976813514409"
"4445","-0,2749254720106","3,7250745279894","-24,2749254720106","2,06459092414707","-3,04339185160649","-0,0529976813514409"
"4446","-0,2749254720106","3,7250745279894","-24,2749254720106","-1,93540907585293","1,95660814839351","-3,05299768135144"
"4458","-1,2749254720106","4,7250745279894","-23,2749254720106","-1,93540907585293","1,95660814839351","-3,05299768135144"
"4458","-1,2749254720106","4,7250745279894","-23,2749254720106","-1,93540907585293","0,956608148393508","-1,05299768135144"
"4466","1,7250745279894","8,7250745279894","-30,2749254720106","-1,93540907585293","0,956608148393508","-1,05299768135144"
"4466","1,7250745279894","8,7250745279894","-30,2749254720106","0,0645909241470686","0,956608148393508","-2,05299768135144"
"4478","-0,2749254720106","3,7250745279894","-27,2749254720106","0,0645909241470686","0,956608148393508","-2,05299768135144"
"4478","-0,2749254720106","3,7250745279894","-27,2749254720106","2,06459092414707","-0,0433918516064922","-1,05299768135144"
"4486","-0,2749254720106","2,7250745279894","-24,2749254720106","2,06459092414707","-0,0433918516064922","-1,05299768135144"
"4486","-0,2749254720106","2,7250745279894","-24,2749254720106","-0,935409075852931","-0,0433918516064922","-1,05299768135144"
"4494","-1,2749254720106","6,7250745279894","-23,2749254720106","-0,935409075852931","-0,0433918516064922","-1,05299768135144"
"4498","-1,2749254720106","6,7250745279894","-23,2749254720106","-1,93540907585293","-0,0433918516064922","-2,05299768135144"
"4507","0,7250745279894","4,7250745279894","-26,2749254720106","-1,93540907585293","-0,0433918516064922","-2,05299768135144"
"4507","0,7250745279894","4,7250745279894","-26,2749254720106","0,0645909241470686","-0,0433918516064922","-2,05299768135144"
"4515","2,7250745279894","0,7250745279894","-24,2749254720106","0,0645909241470686","-0,0433918516064922","-2,05299768135144"
"4519","2,7250745279894","0,7250745279894","-24,2749254720106","-0,935409075852931","0,956608148393508","-1,05299768135144"
"4527","-1,2749254720106","4,7250745279894","-26,2749254720106","-0,935409075852931","0,956608148393508","-1,05299768135144"
"4527","-1,2749254720106","4,7250745279894","-26,2749254720106","-3,93540907585293","1,95660814839351","-1,05299768135144"
"4535","0,7250745279894","8,7250745279894","-27,2749254720106","-3,93540907585293","1,95660814839351","-1,05299768135144"
"4536","0,7250745279894","8,7250745279894","-27,2749254720106","1,06459092414707","1,95660814839351","0,947002318648559"
"4548","0,7250745279894","3,7250745279894","-26,2749254720106","1,06459092414707","1,95660814839351","0,947002318648559"
"4548","0,7250745279894","3,7250745279894","-26,2749254720106","0,0645909241470686","-0,0433918516064922","0,947002318648559"
"4556","0,7250745279894","3,7250745279894","-25,2749254720106","0,0645909241470686","-0,0433918516064922","0,947002318648559"
"4556","0,7250745279894","3,7250745279894","-25,2749254720106","-0,935409075852931","-1,04339185160649","-1,05299768135144"
"4564","-0,2749254720106","11,7250745279894","-30,2749254720106","-0,935409075852931","-1,04339185160649","-1,05299768135144"
"4568","-0,2749254720106","11,7250745279894","-30,2749254720106","3,06459092414707","-3,04339185160649","-0,0529976813514409"
"4576","-0,2749254720106","6,7250745279894","-30,2749254720106","3,06459092414707","-3,04339185160649","-0,0529976813514409"
"4577","-0,2749254720106","6,7250745279894","-30,2749254720106","-1,93540907585293","0,956608148393508","-2,05299768135144"
"4585","0,7250745279894","1,7250745279894","-27,2749254720106","-1,93540907585293","0,956608148393508","-2,05299768135144"
"4589","0,7250745279894","1,7250745279894","-27,2749254720106","-3,93540907585293","0,956608148393508","-1,05299768135144"
"4597","2,7250745279894","1,7250745279894","-26,2749254720106","-3,93540907585293","0,956608148393508","-1,05299768135144"
"4597","2,7250745279894","1,7250745279894","-26,2749254720106","-3,93540907585293","-2,04339185160649","-1,05299768135144"
"4605","-0,2749254720106","7,7250745279894","-28,2749254720106","-3,93540907585293","-2,04339185160649","-1,05299768135144"
"4605","-0,2749254720106","7,7250745279894","-28,2749254720106","0,0645909241470686","-0,0433918516064922","-0,0529976813514409"
"4617","-0,2749254720106","5,7250745279894","-24,2749254720106","0,0645909241470686","-0,0433918516064922","-0,0529976813514409"
"4618","-0,2749254720106","5,7250745279894","-24,2749254720106","3,06459092414707","-0,0433918516064922","-1,05299768135144"
"4626","1,7250745279894","3,7250745279894","-27,2749254720106","3,06459092414707","-0,0433918516064922","-1,05299768135144"
"4626","1,7250745279894","3,7250745279894","-27,2749254720106","-1,93540907585293","-1,04339185160649","2,94700231864856"
"4638","-2,2749254720106","6,7250745279894","-26,2749254720106","-1,93540907585293","-1,04339185160649","2,94700231864856"
"4638","-2,2749254720106","6,7250745279894","-26,2749254720106","-1,93540907585293","-0,0433918516064922","-1,05299768135144"
"4646","-1,2749254720106","4,7250745279894","-24,2749254720106","-1,93540907585293","-0,0433918516064922","-1,05299768135144"
"4646","-1,2749254720106","4,7250745279894","-24,2749254720106","-1,93540907585293","-1,04339185160649","-3,05299768135144"
"4654","0,7250745279894","6,7250745279894","-27,2749254720106","-1,93540907585293","-1,04339185160649","-3,05299768135144"
"4658","0,7250745279894","6,7250745279894","-27,2749254720106","0,0645909241470686","-0,0433918516064922","-1,05299768135144"
"4667","1,7250745279894","4,7250745279894","-27,2749254720106","0,0645909241470686","-0,0433918516064922","-1,05299768135144"
"4667","1,7250745279894","4,7250745279894","-27,2749254720106","0,0645909241470686","-0,0433918516064922","-1,05299768135144"
"4675","-0,2749254720106","4,7250745279894","-27,2749254720106","0,0645909241470686","-0,0433918516064922","-1,05299768135144"
"4679","-0,2749254720106","4,7250745279894","-27,2749254720106","-3,93540907585293","0,956608148393508","-3,05299768135144"
"4687","-1,2749254720106","6,7250745279894","-26,2749254720106","-3,93540907585293","0,956608148393508","-3,05299768135144"
"4687","-1,2749254720106","6,7250745279894","-26,2749254720106","-0,935409075852931","-1,04339185160649","-2,05299768135144"
"4695","-0,2749254720106","9,7250745279894","-25,2749254720106","-0,935409075852931","-1,04339185160649","-2,05299768135144"
"4695","-0,2749254720106","9,7250745279894","-25,2749254720106","0,0645909241470686","-0,0433918516064922","0,947002318648559"
"4707","0,7250745279894","3,7250745279894","-27,2749254720106","0,0645909241470686","-0,0433918516064922","0,947002318648559"
"4708","0,7250745279894","3,7250745279894","-27,2749254720106","2,06459092414707","-1,04339185160649","1,94700231864856"
"4716","1,7250745279894","3,7250745279894","-25,2749254720106","2,06459092414707","-1,04339185160649","1,94700231864856"
"4716","1,7250745279894","3,7250745279894","-25,2749254720106","2,06459092414707","-1,04339185160649","1,94700231864856"
"4728","-0,2749254720106","6,7250745279894","-26,2749254720106","2,06459092414707","-1,04339185160649","1,94700231864856"
"4728","-0,2749254720106","6,7250745279894","-26,2749254720106","-0,935409075852931","1,95660814839351","-1,05299768135144"
"4736","0,7250745279894","5,7250745279894","-27,2749254720106","-0,935409075852931","1,95660814839351","-1,05299768135144"
"4736","0,7250745279894","5,7250745279894","-27,2749254720106","2,06459092414707","-0,0433918516064922","-0,0529976813514409"
"4744","-0,2749254720106","0,7250745279894","-26,2749254720106","2,06459092414707","-0,0433918516064922","-0,0529976813514409"
"4748","-0,2749254720106","0,7250745279894","-26,2749254720106","-4,93540907585293","-0,0433918516064922","-3,05299768135144"
"4757","1,7250745279894","3,7250745279894","-24,2749254720106","-4,93540907585293","-0,0433918516064922","-3,05299768135144"
"4757","1,7250745279894","3,7250745279894","-24,2749254720106","1,06459092414707","0,956608148393508","-0,0529976813514409"
"4765","1,7250745279894","7,7250745279894","-24,2749254720106","1,06459092414707","0,956608148393508","-0,0529976813514409"
"4765","1,7250745279894","7,7250745279894","-24,2749254720106","1,06459092414707","0,956608148393508","-0,0529976813514409"
"4777","-0,2749254720106","4,7250745279894","-27,2749254720106","1,06459092414707","0,956608148393508","-0,0529976813514409"
"4777","-0,2749254720106","4,7250745279894","-27,2749254720106","2,06459092414707","-1,04339185160649","-3,05299768135144"
"4785","1,7250745279894","0,7250745279894","-23,2749254720106","2,06459092414707","-1,04339185160649","-3,05299768135144"
"4786","1,7250745279894","0,7250745279894","-23,2749254720106","-2,93540907585293","-1,04339185160649","-4,05299768135144"
"4797","-1,2749254720106","4,7250745279894","-25,2749254720106","-2,93540907585293","-1,04339185160649","-4,05299768135144"
"4798","-1,2749254720106","4,7250745279894","-25,2749254720106","0,0645909241470686","-1,04339185160649","-0,0529976813514409"
"4806","0,7250745279894","9,7250745279894","-26,2749254720106","0,0645909241470686","-1,04339185160649","-0,0529976813514409"
"4806","0,7250745279894","9,7250745279894","-26,2749254720106","-1,93540907585293","-1,04339185160649","-1,05299768135144"
"4818","-1,2749254720106","2,7250745279894","-27,2749254720106","-1,93540907585293","-1,04339185160649","-1,05299768135144"
"4818","-1,2749254720106","2,7250745279894","-27,2749254720106","-1,93540907585293","-1,04339185160649","-1,05299768135144"
"4826","1,7250745279894","3,7250745279894","-27,2749254720106","-1,93540907585293","-1,04339185160649","-1,05299768135144"
"4826","1,7250745279894","3,7250745279894","-27,2749254720106","-3,93540907585293","-0,0433918516064922","-2,05299768135144"
"4834","-0,2749254720106","8,7250745279894","-24,2749254720106","-3,93540907585293","-0,0433918516064922","-2,05299768135144"
"4838","-0,2749254720106","8,7250745279894","-24,2749254720106","-0,935409075852931","0,956608148393508","0,947002318648559"
"4847","-0,2749254720106","6,7250745279894","-27,2749254720106","-0,935409075852931","0,956608148393508","0,947002318648559"
"4847","-0,2749254720106","6,7250745279894","-27,2749254720106","0,0645909241470686","-0,0433918516064922","-0,0529976813514409"
"4855","-0,2749254720106","2,7250745279894","-23,2749254720106","0,0645909241470686","-0,0433918516064922","-0,0529976813514409"
"4859","-0,2749254720106","2,7250745279894","-23,2749254720106","-0,935409075852931","-1,04339185160649","-1,05299768135144"
"4867","-0,2749254720106","2,7250745279894","-24,2749254720106","-0,935409075852931","-1,04339185160649","-1,05299768135144"
"4867","-0,2749254720106","2,7250745279894","-24,2749254720106","-0,935409075852931","-1,04339185160649","-1,05299768135144"
"4875","1,7250745279894","8,7250745279894","-29,2749254720106","-0,935409075852931","-1,04339185160649","-1,05299768135144"
"4876","1,7250745279894","8,7250745279894","-29,2749254720106","2,06459092414707","0,956608148393508","0,947002318648559"
"4888","-0,2749254720106","5,7250745279894","-27,2749254720106","2,06459092414707","0,956608148393508","0,947002318648559"
"4888","-0,2749254720106","5,7250745279894","-27,2749254720106","-0,935409075852931","0,956608148393508","-0,0529976813514409"
"4896","-0,2749254720106","3,7250745279894","-26,2749254720106","-0,935409075852931","0,956608148393508","-0,0529976813514409"
"4896","-0,2749254720106","3,7250745279894","-26,2749254720106","-4,93540907585293","-1,04339185160649","-2,05299768135144"
"4904","-0,2749254720106","7,7250745279894","-27,2749254720106","-4,93540907585293","-1,04339185160649","-2,05299768135144"
"4908","-0,2749254720106","7,7250745279894","-27,2749254720106","1,06459092414707","0,956608148393508","0,947002318648559"
"4916","0,7250745279894","3,7250745279894","-26,2749254720106","1,06459092414707","0,956608148393508","0,947002318648559"
"4917","0,7250745279894","3,7250745279894","-26,2749254720106","2,06459092414707","0,956608148393508","1,94700231864856"
"4925","-0,2749254720106","3,7250745279894","-24,2749254720106","2,06459092414707","0,956608148393508","1,94700231864856"
"4929","-0,2749254720106","3,7250745279894","-24,2749254720106","0,0645909241470686","-1,04339185160649","0,947002318648559"
"4937","-0,2749254720106","8,7250745279894","-26,2749254720106","0,0645909241470686","-1,04339185160649","0,947002318648559"
"4937","-0,2749254720106","8,7250745279894","-26,2749254720106","1,06459092414707","-2,04339185160649","-1,05299768135144"
"4945","-0,2749254720106","3,7250745279894","-27,2749254720106","1,06459092414707","-2,04339185160649","-1,05299768135144"
"4949","-0,2749254720106","3,7250745279894","-27,2749254720106","1,06459092414707","-2,04339185160649","2,94700231864856"
"4957","-0,2749254720106","3,7250745279894","-25,2749254720106","1,06459092414707","-2,04339185160649","2,94700231864856"
"4958","-0,2749254720106","3,7250745279894","-25,2749254720106","2,06459092414707","-0,0433918516064922","1,94700231864856"
"4966","-0,2749254720106","7,7250745279894","-25,2749254720106","2,06459092414707","-0,0433918516064922","1,94700231864856"
"4966","-0,2749254720106","7,7250745279894","-25,2749254720106","2,06459092414707","-0,0433918516064922","1,94700231864856"
"4978","-0,2749254720106","6,7250745279894","-30,2749254720106","2,06459092414707","-0,0433918516064922","1,94700231864856"
"4978","-0,2749254720106","6,7250745279894","-30,2749254720106","3,06459092414707","-0,0433918516064922","-1,05299768135144"
"4986","0,7250745279894","3,7250745279894","-24,2749254720106","3,06459092414707","-0,0433918516064922","-1,05299768135144"
"4986","0,7250745279894","3,7250745279894","-24,2749254720106","-1,93540907585293","-1,04339185160649","-2,05299768135144"
"4998","-2,2749254720106","3,7250745279894","-24,2749254720106","-1,93540907585293","-1,04339185160649","-2,05299768135144"
"4998","-2,2749254720106","3,7250745279894","-24,2749254720106","0,0645909241470686","-1,04339185160649","0,947002318648559"
"5006","1,7250745279894","9,7250745279894","-26,2749254720106","0,0645909241470686","-1,04339185160649","0,947002318648559"
"5006","1,7250745279894","9,7250745279894","-26,2749254720106","3,06459092414707","1,95660814839351","-0,0529976813514409"
"5014","0,7250745279894","6,7250745279894","-26,2749254720106","3,06459092414707","1,95660814839351","-0,0529976813514409"
"5018","0,7250745279894","6,7250745279894","-26,2749254720106","3,06459092414707","1,95660814839351","-0,0529976813514409"
"5026","-0,2749254720106","2,7250745279894","-27,2749254720106","3,06459092414707","1,95660814839351","-0,0529976813514409"
"5026","-0,2749254720106","2,7250745279894","-27,2749254720106","1,06459092414707","-1,04339185160649","0,947002318648559"
"5034","-0,2749254720106","3,7250745279894","-27,2749254720106","1,06459092414707","-1,04339185160649","0,947002318648559"
"5038","-0,2749254720106","3,7250745279894","-27,2749254720106","2,06459092414707","-3,04339185160649","-0,0529976813514409"
"5047","-0,2749254720106","7,7250745279894","-26,2749254720106","2,06459092414707","-3,04339185160649","-0,0529976813514409"
"5047","-0,2749254720106","7,7250745279894","-26,2749254720106","3,06459092414707","-1,04339185160649","-1,05299768135144"
"5055","0,7250745279894","4,7250745279894","-25,2749254720106","3,06459092414707","-1,04339185160649","-1,05299768135144"
"5055","0,7250745279894","4,7250745279894","-25,2749254720106","-2,93540907585293","-1,04339185160649","-0,0529976813514409"
"5067","0,7250745279894","4,7250745279894","-23,2749254720106","-2,93540907585293","-1,04339185160649","-0,0529976813514409"
"5067","0,7250745279894","4,7250745279894","-23,2749254720106","4,06459092414707","-0,0433918516064922","0,947002318648559"
"5075","1,7250745279894","7,7250745279894","-27,2749254720106","4,06459092414707","-0,0433918516064922","0,947002318648559"
"5075","1,7250745279894","7,7250745279894","-27,2749254720106","0,0645909241470686","1,95660814839351","-0,0529976813514409"
"5087","1,7250745279894","4,7250745279894","-26,2749254720106","0,0645909241470686","1,95660814839351","-0,0529976813514409"
"5087","1,7250745279894","4,7250745279894","-26,2749254720106","-0,935409075852931","0,956608148393508","-1,05299768135144"
"5096","-0,2749254720106","3,7250745279894","-23,2749254720106","-0,935409075852931","0,956608148393508","-1,05299768135144"
"5096","-0,2749254720106","3,7250745279894","-23,2749254720106","-0,935409075852931","0,956608148393508","-1,05299768135144"
"5104","-0,2749254720106","7,7250745279894","-26,2749254720106","-0,935409075852931","0,956608148393508","-1,05299768135144"
"5108","-0,2749254720106","7,7250745279894","-26,2749254720106","2,06459092414707","-0,0433918516064922","-0,0529976813514409"
"5116","-0,2749254720106","4,7250745279894","-26,2749254720106","2,06459092414707","-0,0433918516064922","-0,0529976813514409"
"5116","-0,2749254720106","4,7250745279894","-26,2749254720106","2,06459092414707","-0,0433918516064922","-0,0529976813514409"
"5124","0,7250745279894","4,7250745279894","-26,2749254720106","2,06459092414707","-0,0433918516064922","-0,0529976813514409"
"5128","0,7250745279894","4,7250745279894","-26,2749254720106","-0,935409075852931","2,95660814839351","-1,05299768135144"
"5137","-0,2749254720106","6,7250745279894","-28,2749254720106","-0,935409075852931","2,95660814839351","-1,05299768135144"
"5137","-0,2749254720106","6,7250745279894","-28,2749254720106","1,06459092414707","1,95660814839351","0,947002318648559"
"5145","-1,2749254720106","4,7250745279894","-26,2749254720106","1,06459092414707","1,95660814839351","0,947002318648559"
"5149","-1,2749254720106","4,7250745279894","-26,2749254720106","-0,935409075852931","-0,0433918516064922","-1,05299768135144"
"5157","-0,2749254720106","2,7250745279894","-24,2749254720106","-0,935409075852931","-0,0433918516064922","-1,05299768135144"
"5157","-0,2749254720106","2,7250745279894","-24,2749254720106","-0,935409075852931","0,956608148393508","-1,05299768135144"
"5165","0,7250745279894","4,7250745279894","-25,2749254720106","-0,935409075852931","0,956608148393508","-1,05299768135144"
"5165","0,7250745279894","4,7250745279894","-25,2749254720106","2,06459092414707","3,95660814839351","-2,05299768135144"
"5177","0,7250745279894","7,7250745279894","-27,2749254720106","2,06459092414707","3,95660814839351","-2,05299768135144"
"5178","0,7250745279894","7,7250745279894","-27,2749254720106","1,06459092414707","-0,0433918516064922","-0,0529976813514409"
"5186","-0,2749254720106","3,7250745279894","-27,2749254720106","1,06459092414707","-0,0433918516064922","-0,0529976813514409"
"5186","-0,2749254720106","3,7250745279894","-27,2749254720106","-0,935409075852931","1,95660814839351","0,947002318648559"
"5194","-1,2749254720106","3,7250745279894","-25,2749254720106","-0,935409075852931","1,95660814839351","0,947002318648559"
"5198","-1,2749254720106","3,7250745279894","-25,2749254720106","-0,935409075852931","1,95660814839351","0,947002318648559"
"5206","-0,2749254720106","5,7250745279894","-25,2749254720106","-0,935409075852931","1,95660814839351","0,947002318648559"
"5206","-0,2749254720106","5,7250745279894","-25,2749254720106","2,06459092414707","-2,04339185160649","-0,0529976813514409"
"5214","0,7250745279894","4,7250745279894","-27,2749254720106","2,06459092414707","-2,04339185160649","-0,0529976813514409"
"5218","0,7250745279894","4,7250745279894","-27,2749254720106","-0,935409075852931","1,95660814839351","-0,0529976813514409"
"5227","0,7250745279894","4,7250745279894","-27,2749254720106","-0,935409075852931","1,95660814839351","-0,0529976813514409"
"5227","0,7250745279894","4,7250745279894","-27,2749254720106","-3,93540907585293","-0,0433918516064922","-1,05299768135144"
"5235","1,7250745279894","3,7250745279894","-27,2749254720106","-3,93540907585293","-0,0433918516064922","-1,05299768135144"
"5235","1,7250745279894","3,7250745279894","-27,2749254720106","-1,93540907585293","-0,0433918516064922","-0,0529976813514409"
"5247","-0,2749254720106","5,7250745279894","-26,2749254720106","-1,93540907585293","-0,0433918516064922","-0,0529976813514409"
"5247","-0,2749254720106","5,7250745279894","-26,2749254720106","3,06459092414707","0,956608148393508","-1,05299768135144"
"5255","2,7250745279894","5,7250745279894","-26,2749254720106","3,06459092414707","0,956608148393508","-1,05299768135144"
"5256","2,7250745279894","5,7250745279894","-26,2749254720106","0,0645909241470686","0,956608148393508","-1,05299768135144"
"5268","0,7250745279894","4,7250745279894","-22,2749254720106","0,0645909241470686","0,956608148393508","-1,05299768135144"
"5268","0,7250745279894","4,7250745279894","-22,2749254720106","2,06459092414707","-1,04339185160649","0,947002318648559"
"5276","-1,2749254720106","4,7250745279894","-27,2749254720106","2,06459092414707","-1,04339185160649","0,947002318648559"
"5276","-1,2749254720106","4,7250745279894","-27,2749254720106","2,06459092414707","-1,04339185160649","-0,0529976813514409"
"5284","0,7250745279894","4,7250745279894","-26,2749254720106","2,06459092414707","-1,04339185160649","-0,0529976813514409"
"5288","0,7250745279894","4,7250745279894","-26,2749254720106","2,06459092414707","-1,04339185160649","-0,0529976813514409"
"5296","1,7250745279894","5,7250745279894","-23,2749254720106","2,06459092414707","-1,04339185160649","-0,0529976813514409"
"5297","1,7250745279894","5,7250745279894","-23,2749254720106","-1,93540907585293","-1,04339185160649","-0,0529976813514409"
"5305","-0,2749254720106","7,7250745279894","-25,2749254720106","-1,93540907585293","-1,04339185160649","-0,0529976813514409"
"5308","-0,2749254720106","7,7250745279894","-25,2749254720106","-0,935409075852931","-0,0433918516064922","-0,0529976813514409"
"5317","0,7250745279894","3,7250745279894","-27,2749254720106","-0,935409075852931","-0,0433918516064922","-0,0529976813514409"
"5317","0,7250745279894","3,7250745279894","-27,2749254720106","-1,93540907585293","-0,0433918516064922","-1,05299768135144"
"5325","1,7250745279894","5,7250745279894","-25,2749254720106","-1,93540907585293","-0,0433918516064922","-1,05299768135144"
"5329","1,7250745279894","5,7250745279894","-25,2749254720106","-2,93540907585293","-1,04339185160649","0,947002318648559"
"5337","-0,2749254720106","4,7250745279894","-27,2749254720106","-2,93540907585293","-1,04339185160649","0,947002318648559"
"5337","-0,2749254720106","4,7250745279894","-27,2749254720106","2,06459092414707","-1,04339185160649","0,947002318648559"
"5346","-0,2749254720106","6,7250745279894","-27,2749254720106","2,06459092414707","-1,04339185160649","0,947002318648559"
"5346","-0,2749254720106","6,7250745279894","-27,2749254720106","0,0645909241470686","-1,04339185160649","-0,0529976813514409"
"5358","0,7250745279894","4,7250745279894","-25,2749254720106","0,0645909241470686","-1,04339185160649","-0,0529976813514409"
"5358","0,7250745279894","4,7250745279894","-25,2749254720106","-0,935409075852931","0,956608148393508","0,947002318648559"
"5366","-0,2749254720106","4,7250745279894","-25,2749254720106","-0,935409075852931","0,956608148393508","0,947002318648559"
"5366","-0,2749254720106","4,7250745279894","-25,2749254720106","1,06459092414707","1,95660814839351","-0,0529976813514409"
"5378","-1,2749254720106","7,7250745279894","-29,2749254720106","1,06459092414707","1,95660814839351","-0,0529976813514409"
"5378","-1,2749254720106","7,7250745279894","-29,2749254720106","1,06459092414707","-3,04339185160649","-1,05299768135144"
"5386","-0,2749254720106","3,7250745279894","-29,2749254720106","1,06459092414707","-3,04339185160649","-1,05299768135144"
"5387","-0,2749254720106","3,7250745279894","-29,2749254720106","-4,93540907585293","-1,04339185160649","-1,05299768135144"
"5395","-0,2749254720106","1,7250745279894","-23,2749254720106","-4,93540907585293","-1,04339185160649","-1,05299768135144"
"5399","-0,2749254720106","1,7250745279894","-23,2749254720106","-2,93540907585293","-0,0433918516064922","-1,05299768135144"
"5407","-0,2749254720106","3,7250745279894","-24,2749254720106","-2,93540907585293","-0,0433918516064922","-1,05299768135144"
"5407","-0,2749254720106","3,7250745279894","-24,2749254720106","1,06459092414707","1,95660814839351","-0,0529976813514409"
"5415","-0,2749254720106","7,7250745279894","-30,2749254720106","1,06459092414707","1,95660814839351","-0,0529976813514409"
"5419","-0,2749254720106","7,7250745279894","-30,2749254720106","2,06459092414707","-0,0433918516064922","-0,0529976813514409"
"5428","-0,2749254720106","4,7250745279894","-27,2749254720106","2,06459092414707","-0,0433918516064922","-0,0529976813514409"
"5428","-0,2749254720106","4,7250745279894","-27,2749254720106","-1,93540907585293","-1,04339185160649","-0,0529976813514409"
"5436","1,7250745279894","3,7250745279894","-25,2749254720106","-1,93540907585293","-1,04339185160649","-0,0529976813514409"
"5436","1,7250745279894","3,7250745279894","-25,2749254720106","0,0645909241470686","-1,04339185160649","-0,0529976813514409"
"5448","-0,2749254720106","7,7250745279894","-27,2749254720106","0,0645909241470686","-1,04339185160649","-0,0529976813514409"
"5448","-0,2749254720106","7,7250745279894","-27,2749254720106","1,06459092414707","-0,0433918516064922","0,947002318648559"
"5456","-0,2749254720106","6,7250745279894","-27,2749254720106","1,06459092414707","-0,0433918516064922","0,947002318648559"
"5456","-0,2749254720106","6,7250745279894","-27,2749254720106","-2,93540907585293","-0,0433918516064922","-1,05299768135144"
"5468","0,7250745279894","2,7250745279894","-26,2749254720106","-2,93540907585293","-0,0433918516064922","-1,05299768135144"
"5468","0,7250745279894","2,7250745279894","-26,2749254720106","0,0645909241470686","-0,0433918516064922","1,94700231864856"
"5477","-0,2749254720106","3,7250745279894","-27,2749254720106","0,0645909241470686","-0,0433918516064922","1,94700231864856"
"5477","-0,2749254720106","3,7250745279894","-27,2749254720106","1,06459092414707","0,956608148393508","0,947002318648559"
"5485","-0,2749254720106","5,7250745279894","-28,2749254720106","1,06459092414707","0,956608148393508","0,947002318648559"
"5489","-0,2749254720106","5,7250745279894","-28,2749254720106","0,0645909241470686","-0,0433918516064922","0,947002318648559"
"5497","0,7250745279894","4,7250745279894","-24,2749254720106","0,0645909241470686","-0,0433918516064922","0,947002318648559"
"5497","0,7250745279894","4,7250745279894","-24,2749254720106","0,0645909241470686","-1,04339185160649","0,947002318648559"
"5505","-0,2749254720106","4,7250745279894","-24,2749254720106","0,0645909241470686","-1,04339185160649","0,947002318648559"
"5509","-0,2749254720106","4,7250745279894","-24,2749254720106","-0,935409075852931","-1,04339185160649","-1,05299768135144"
"5517","-1,2749254720106","7,7250745279894","-28,2749254720106","-0,935409075852931","-1,04339185160649","-1,05299768135144"
"5517","-1,2749254720106","7,7250745279894","-28,2749254720106","2,06459092414707","-0,0433918516064922","-0,0529976813514409"
"5526","0,7250745279894","4,7250745279894","-28,2749254720106","2,06459092414707","-0,0433918516064922","-0,0529976813514409"
"5526","0,7250745279894","4,7250745279894","-28,2749254720106","-0,935409075852931","-0,0433918516064922","-0,0529976813514409"
"5538","0,7250745279894","3,7250745279894","-26,2749254720106","-0,935409075852931","-0,0433918516064922","-0,0529976813514409"
"5538","0,7250745279894","3,7250745279894","-26,2749254720106","-1,93540907585293","0,956608148393508","-1,05299768135144"
"5546","1,7250745279894","6,7250745279894","-26,2749254720106","-1,93540907585293","0,956608148393508","-1,05299768135144"
"5546","1,7250745279894","6,7250745279894","-26,2749254720106","2,06459092414707","1,95660814839351","-1,05299768135144"
"5558","0,7250745279894","7,7250745279894","-28,2749254720106","2,06459092414707","1,95660814839351","-1,05299768135144"
"5559","0,7250745279894","7,7250745279894","-28,2749254720106","-1,93540907585293","-1,04339185160649","-3,05299768135144"
"5567","-0,2749254720106","4,7250745279894","-26,2749254720106","-1,93540907585293","-1,04339185160649","-3,05299768135144"
"5567","-0,2749254720106","4,7250745279894","-26,2749254720106","1,06459092414707","-0,0433918516064922","0,947002318648559"
"5575","-0,2749254720106","3,7250745279894","-26,2749254720106","1,06459092414707","-0,0433918516064922","0,947002318648559"
"5579","-0,2749254720106","3,7250745279894","-26,2749254720106","0,0645909241470686","-1,04339185160649","-1,05299768135144"
"5587","-0,2749254720106","8,7250745279894","-27,2749254720106","0,0645909241470686","-1,04339185160649","-1,05299768135144"
"5587","-0,2749254720106","8,7250745279894","-27,2749254720106","-1,93540907585293","-1,04339185160649","-1,05299768135144"
"5595","0,7250745279894","4,7250745279894","-28,2749254720106","-1,93540907585293","-1,04339185160649","-1,05299768135144"
"5599","0,7250745279894","4,7250745279894","-28,2749254720106","-2,93540907585293","-1,04339185160649","0,947002318648559"
"5608","-0,2749254720106","2,7250745279894","-24,2749254720106","-2,93540907585293","-1,04339185160649","0,947002318648559"
"5608","-0,2749254720106","2,7250745279894","-24,2749254720106","0,0645909241470686","-1,04339185160649","0,947002318648559"
"5616","2,7250745279894","5,7250745279894","-23,2749254720106","0,0645909241470686","-1,04339185160649","0,947002318648559"
"5616","2,7250745279894","5,7250745279894","-23,2749254720106","1,06459092414707","0,956608148393508","0,947002318648559"
"5628","-0,2749254720106","4,7250745279894","-27,2749254720106","1,06459092414707","0,956608148393508","0,947002318648559"
"5628","-0,2749254720106","4,7250745279894","-27,2749254720106","-1,93540907585293","0,956608148393508","1,94700231864856"
"5636","-0,2749254720106","3,7250745279894","-27,2749254720106","-1,93540907585293","0,956608148393508","1,94700231864856"
"5636","-0,2749254720106","3,7250745279894","-27,2749254720106","0,0645909241470686","1,95660814839351","-0,0529976813514409"
"5649","-0,2749254720106","4,7250745279894","-26,2749254720106","0,0645909241470686","1,95660814839351","-0,0529976813514409"
"5649","-0,2749254720106","4,7250745279894","-26,2749254720106","1,06459092414707","-2,04339185160649","1,94700231864856"
"5657","-0,2749254720106","5,7250745279894","-25,2749254720106","1,06459092414707","-2,04339185160649","1,94700231864856"
"5657","-0,2749254720106","5,7250745279894","-25,2749254720106","1,06459092414707","-0,0433918516064922","-0,0529976813514409"
"5665","1,7250745279894","3,7250745279894","-26,2749254720106","1,06459092414707","-0,0433918516064922","-0,0529976813514409"
"5669","1,7250745279894","3,7250745279894","-26,2749254720106","-0,935409075852931","-0,0433918516064922","0,947002318648559"
"5677","-0,2749254720106","3,7250745279894","-26,2749254720106","-0,935409075852931","-0,0433918516064922","0,947002318648559"
"5678","-0,2749254720106","3,7250745279894","-26,2749254720106","0,0645909241470686","0,956608148393508","-2,05299768135144"
"5685","-1,2749254720106","7,7250745279894","-25,2749254720106","0,0645909241470686","0,956608148393508","-2,05299768135144"
"5689","-1,2749254720106","7,7250745279894","-25,2749254720106","5,06459092414707","-2,04339185160649","-0,0529976813514409"
"5698","1,7250745279894","6,7250745279894","-27,2749254720106","5,06459092414707","-2,04339185160649","-0,0529976813514409"
"5698","1,7250745279894","6,7250745279894","-27,2749254720106","3,06459092414707","-0,0433918516064922","0,947002318648559"
"5706","-0,2749254720106","4,7250745279894","-26,2749254720106","3,06459092414707","-0,0433918516064922","0,947002318648559"
"5710","-0,2749254720106","4,7250745279894","-26,2749254720106","0,0645909241470686","-2,04339185160649","0,947002318648559"
"5718","-0,2749254720106","5,7250745279894","-26,2749254720106","0,0645909241470686","-2,04339185160649","0,947002318648559"
"5718","-0,2749254720106","5,7250745279894","-26,2749254720106","0,0645909241470686","0,956608148393508","-1,05299768135144"
"5726","-1,2749254720106","6,7250745279894","-26,2749254720106","0,0645909241470686","0,956608148393508","-1,05299768135144"
"5727","-1,2749254720106","6,7250745279894","-26,2749254720106","-2,93540907585293","4,95660814839351","1,94700231864856"
"5739","-0,2749254720106","4,7250745279894","-26,2749254720106","-2,93540907585293","4,95660814839351","1,94700231864856"
"5739","-0,2749254720106","4,7250745279894","-26,2749254720106","1,06459092414707","3,95660814839351","-1,05299768135144"
"5747","-0,2749254720106","5,7250745279894","-27,2749254720106","1,06459092414707","3,95660814839351","-1,05299768135144"
"5747","-0,2749254720106","5,7250745279894","-27,2749254720106","2,06459092414707","0,956608148393508","-0,0529976813514409"
"5759","-0,2749254720106","3,7250745279894","-27,2749254720106","2,06459092414707","0,956608148393508","-0,0529976813514409"
"5759","-0,2749254720106","3,7250745279894","-27,2749254720106","2,06459092414707","-0,0433918516064922","1,94700231864856"
"5767","-1,2749254720106","3,7250745279894","-23,2749254720106","2,06459092414707","-0,0433918516064922","1,94700231864856"
"5768","-1,2749254720106","3,7250745279894","-23,2749254720106","1,06459092414707","-0,0433918516064922","-0,0529976813514409"
"5776","-2,2749254720106","5,7250745279894","-25,2749254720106","1,06459092414707","-0,0433918516064922","-0,0529976813514409"
"5780","-2,2749254720106","5,7250745279894","-25,2749254720106","2,06459092414707","-0,0433918516064922","-0,0529976813514409"
"5788","-2,2749254720106","5,7250745279894","-26,2749254720106","2,06459092414707","-0,0433918516064922","-0,0529976813514409"
"5788","-2,2749254720106","5,7250745279894","-26,2749254720106","4,06459092414707","0,956608148393508","-2,05299768135144"
"5796","0,7250745279894","4,7250745279894","-24,2749254720106","4,06459092414707","0,956608148393508","-2,05299768135144"
"5800","0,7250745279894","4,7250745279894","-24,2749254720106","-0,935409075852931","-0,0433918516064922","0,947002318648559"
"5808","-0,2749254720106","4,7250745279894","-23,2749254720106","-0,935409075852931","-0,0433918516064922","0,947002318648559"
"5809","-0,2749254720106","4,7250745279894","-23,2749254720106","0,0645909241470686","-0,0433918516064922","0,947002318648559"
"5816","-0,2749254720106","7,7250745279894","-26,2749254720106","0,0645909241470686","-0,0433918516064922","0,947002318648559"
"5817","-0,2749254720106","7,7250745279894","-26,2749254720106","2,06459092414707","1,95660814839351","0,947002318648559"
