Timer,AX,AY,AZ,GX,GY,GZ
"1001","-0,128128128128128","3,87187187187187","-28,1281281281281","-0,6996996996997","-2,1001001001001","-0,169169169169169"
"1005","-0,128128128128128","3,87187187187187","-28,1281281281281","-1,6996996996997","-1,1001001001001","0,830830830830831"
"1013","-1,12812812812813","1,87187187187187","-25,1281281281281","-1,6996996996997","-1,1001001001001","0,830830830830831"
"1014","-1,12812812812813","1,87187187187187","-25,1281281281281","0,3003003003003","-1,1001001001001","-1,16916916916917"
"1022","-1,12812812812813","4,87187187187187","-25,1281281281281","0,3003003003003","-1,1001001001001","-1,16916916916917"
"1022","-1,12812812812813","4,87187187187187","-25,1281281281281","0,3003003003003","1,8998998998999","1,83083083083083"
"1034","1,87187187187187","6,87187187187187","-26,1281281281281","0,3003003003003","1,8998998998999","1,83083083083083"
"1034","1,87187187187187","6,87187187187187","-26,1281281281281","-1,6996996996997","1,8998998998999","-1,16916916916917"
"1042","-1,12812812812813","3,87187187187187","-25,1281281281281","-1,6996996996997","1,8998998998999","-1,16916916916917"
"1042","-1,12812812812813","3,87187187187187","-25,1281281281281","-2,6996996996997","0,8998998998999","-0,169169169169169"
"1054","-0,128128128128128","3,87187187187187","-25,1281281281281","-2,6996996996997","0,8998998998999","-0,169169169169169"
"1054","-0,128128128128128","3,87187187187187","-25,1281281281281","-0,6996996996997","-0,1001001001001","-0,169169169169169"
"1062","-0,128128128128128","4,87187187187187","-25,1281281281281","-0,6996996996997","-0,1001001001001","-0,169169169169169"
"1062","-0,128128128128128","4,87187187187187","-25,1281281281281","-2,6996996996997","-2,1001001001001","-1,16916916916917"
"1071","0,871871871871872","3,87187187187187","-25,1281281281281","-2,6996996996997","-2,1001001001001","-1,16916916916917"
"1075","0,871871871871872","3,87187187187187","-25,1281281281281","-2,6996996996997","-0,1001001001001","2,83083083083083"
"1083","0,871871871871872","3,87187187187187","-25,1281281281281","-2,6996996996997","-0,1001001001001","2,83083083083083"
"1083","0,871871871871872","3,87187187187187","-25,1281281281281","-1,6996996996997","1,8998998998999","-0,169169169169169"
"1091","-1,12812812812813","6,87187187187187","-26,1281281281281","-1,6996996996997","1,8998998998999","-0,169169169169169"
"1095","-1,12812812812813","6,87187187187187","-26,1281281281281","0,3003003003003","-0,1001001001001","-2,16916916916917"
"1103","3,87187187187187","8,87187187187187","-31,1281281281281","0,3003003003003","-0,1001001001001","-2,16916916916917"
"1104","3,87187187187187","8,87187187187187","-31,1281281281281","0,3003003003003","0,8998998998999","0,830830830830831"
"1112","-0,128128128128128","2,87187187187187","-27,1281281281281","0,3003003003003","0,8998998998999","0,830830830830831"
"1112","-0,128128128128128","2,87187187187187","-27,1281281281281","2,3003003003003","-2,1001001001001","-1,16916916916917"
"1124","-1,12812812812813","6,87187187187187","-25,1281281281281","2,3003003003003","-2,1001001001001","-1,16916916916917"
"1124","-1,12812812812813","6,87187187187187","-25,1281281281281","-3,6996996996997","1,8998998998999","0,830830830830831"
"1132","-1,12812812812813","8,87187187187187","-27,1281281281281","-3,6996996996997","1,8998998998999","0,830830830830831"
"1132","-1,12812812812813","8,87187187187187","-27,1281281281281","-0,6996996996997","-1,1001001001001","-3,16916916916917"
"1144","0,871871871871872","3,87187187187187","-25,1281281281281","-0,6996996996997","-1,1001001001001","-3,16916916916917"
"1144","0,871871871871872","3,87187187187187","-25,1281281281281","-3,6996996996997","0,8998998998999","-0,169169169169169"
"1153","-1,12812812812813","0,871871871871872","-26,1281281281281","-3,6996996996997","0,8998998998999","-0,169169169169169"
"1153","-1,12812812812813","0,871871871871872","-26,1281281281281","-3,6996996996997","0,8998998998999","0,830830830830831"
"1161","-2,12812812812813","4,87187187187187","-27,1281281281281","-3,6996996996997","0,8998998998999","0,830830830830831"
"1165","-2,12812812812813","4,87187187187187","-27,1281281281281","1,3003003003003","-0,1001001001001","-1,16916916916917"
"1173","-0,128128128128128","5,87187187187187","-27,1281281281281","1,3003003003003","-0,1001001001001","-1,16916916916917"
"1175","-0,128128128128128","5,87187187187187","-27,1281281281281","2,3003003003003","2,8998998998999","-1,16916916916917"
"1181","-0,128128128128128","1,87187187187187","-24,1281281281281","2,3003003003003","2,8998998998999","-1,16916916916917"
"1185","-0,128128128128128","1,87187187187187","-24,1281281281281","-2,6996996996997","0,8998998998999","-0,169169169169169"
"1194","-0,128128128128128","4,87187187187187","-27,1281281281281","-2,6996996996997","0,8998998998999","-0,169169169169169"
"1194","-0,128128128128128","4,87187187187187","-27,1281281281281","-2,6996996996997","2,8998998998999","-1,16916916916917"
"1202","1,87187187187187","5,87187187187187","-28,1281281281281","-2,6996996996997","2,8998998998999","-1,16916916916917"
"1202","1,87187187187187","5,87187187187187","-28,1281281281281","1,3003003003003","0,8998998998999","-1,16916916916917"
"1214","-0,128128128128128","3,87187187187187","-26,1281281281281","1,3003003003003","0,8998998998999","-1,16916916916917"
"1214","-0,128128128128128","3,87187187187187","-26,1281281281281","-1,6996996996997","1,8998998998999","-0,169169169169169"
"1222","-1,12812812812813","3,87187187187187","-24,1281281281281","-1,6996996996997","1,8998998998999","-0,169169169169169"
"1222","-1,12812812812813","3,87187187187187","-24,1281281281281","-2,6996996996997","-1,1001001001001","-1,16916916916917"
"1234","0,871871871871872","6,87187187187187","-25,1281281281281","-2,6996996996997","-1,1001001001001","-1,16916916916917"
"1235","0,871871871871872","6,87187187187187","-25,1281281281281","2,3003003003003","-3,1001001001001","-0,169169169169169"
"1243","-1,12812812812813","3,87187187187187","-26,1281281281281","2,3003003003003","-3,1001001001001","-0,169169169169169"
"1243","-1,12812812812813","3,87187187187187","-26,1281281281281","1,3003003003003","-3,1001001001001","-0,169169169169169"
"1251","-0,128128128128128","3,87187187187187","-25,1281281281281","1,3003003003003","-3,1001001001001","-0,169169169169169"
"1255","-0,128128128128128","3,87187187187187","-25,1281281281281","-0,6996996996997","-1,1001001001001","0,830830830830831"
"1263","-1,12812812812813","3,87187187187187","-25,1281281281281","-0,6996996996997","-1,1001001001001","0,830830830830831"
"1263","-1,12812812812813","3,87187187187187","-25,1281281281281","-1,6996996996997","-3,1001001001001","0,830830830830831"
"1271","-0,128128128128128","3,87187187187187","-25,1281281281281","-1,6996996996997","-3,1001001001001","0,830830830830831"
"1272","-0,128128128128128","3,87187187187187","-25,1281281281281","0,3003003003003","-1,1001001001001","1,83083083083083"
"1284","0,871871871871872","3,87187187187187","-26,1281281281281","0,3003003003003","-1,1001001001001","1,83083083083083"
"1284","0,871871871871872","3,87187187187187","-26,1281281281281","0,3003003003003","-1,1001001001001","-0,169169169169169"
"1292","-3,12812812812813","4,87187187187187","-27,1281281281281","0,3003003003003","-1,1001001001001","-0,169169169169169"
"1292","-3,12812812812813","4,87187187187187","-27,1281281281281","-1,6996996996997","2,8998998998999","-1,16916916916917"
"1304","0,871871871871872","7,87187187187187","-27,1281281281281","-1,6996996996997","2,8998998998999","-1,16916916916917"
"1304","0,871871871871872","7,87187187187187","-27,1281281281281","0,3003003003003","-2,1001001001001","0,830830830830831"
"1312","-2,12812812812813","2,87187187187187","-24,1281281281281","0,3003003003003","-2,1001001001001","0,830830830830831"
"1313","-2,12812812812813","2,87187187187187","-24,1281281281281","-3,6996996996997","0,8998998998999","-1,16916916916917"
"1321","0,871871871871872","3,87187187187187","-25,1281281281281","-3,6996996996997","0,8998998998999","-1,16916916916917"
"1325","0,871871871871872","3,87187187187187","-25,1281281281281","-1,6996996996997","-0,1001001001001","-0,169169169169169"
"1333","-0,128128128128128","6,87187187187187","-27,1281281281281","-1,6996996996997","-0,1001001001001","-0,169169169169169"
"1333","-0,128128128128128","6,87187187187187","-27,1281281281281","1,3003003003003","2,8998998998999","2,83083083083083"
"1341","-1,12812812812813","3,87187187187187","-27,1281281281281","1,3003003003003","2,8998998998999","2,83083083083083"
"1345","-1,12812812812813","3,87187187187187","-27,1281281281281","2,3003003003003","-1,1001001001001","-1,16916916916917"
"1353","0,871871871871872","3,87187187187187","-26,1281281281281","2,3003003003003","-1,1001001001001","-1,16916916916917"
"1354","0,871871871871872","3,87187187187187","-26,1281281281281","-2,6996996996997","0,8998998998999","-1,16916916916917"
"1362","0,871871871871872","5,87187187187187","-25,1281281281281","-2,6996996996997","0,8998998998999","-1,16916916916917"
"1362","0,871871871871872","5,87187187187187","-25,1281281281281","0,3003003003003","-1,1001001001001","0,830830830830831"
"1374","0,871871871871872","9,87187187187187","-27,1281281281281","0,3003003003003","-1,1001001001001","0,830830830830831"
"1374","0,871871871871872","9,87187187187187","-27,1281281281281","1,3003003003003","-1,1001001001001","1,83083083083083"
"1382","-2,12812812812813","-0,128128128128128","-24,1281281281281","1,3003003003003","-1,1001001001001","1,83083083083083"
"1382","-2,12812812812813","-0,128128128128128","-24,1281281281281","-2,6996996996997","0,8998998998999","-0,169169169169169"
"1394","-3,12812812812813","3,87187187187187","-25,1281281281281","-2,6996996996997","0,8998998998999","-0,169169169169169"
"1394","-3,12812812812813","3,87187187187187","-25,1281281281281","-0,6996996996997","0,8998998998999","-1,16916916916917"
"1402","-0,128128128128128","6,87187187187187","-25,1281281281281","-0,6996996996997","0,8998998998999","-1,16916916916917"
"1403","-0,128128128128128","6,87187187187187","-25,1281281281281","1,3003003003003","0,8998998998999","-1,16916916916917"
"1411","-0,128128128128128","3,87187187187187","-24,1281281281281","1,3003003003003","0,8998998998999","-1,16916916916917"
"1415","-0,128128128128128","3,87187187187187","-24,1281281281281","0,3003003003003","1,8998998998999","-1,16916916916917"
"1423","-1,12812812812813","3,87187187187187","-25,1281281281281","0,3003003003003","1,8998998998999","-1,16916916916917"
"1423","-1,12812812812813","3,87187187187187","-25,1281281281281","-0,6996996996997","-0,1001001001001","0,830830830830831"
"1431","-0,128128128128128","3,87187187187187","-26,1281281281281","-0,6996996996997","-0,1001001001001","0,830830830830831"
"1435","-0,128128128128128","3,87187187187187","-26,1281281281281","4,3003003003003","-2,1001001001001","-1,16916916916917"
"1444","-1,12812812812813","4,87187187187187","-26,1281281281281","4,3003003003003","-2,1001001001001","-1,16916916916917"
"1444","-1,12812812812813","4,87187187187187","-26,1281281281281","2,3003003003003","-2,1001001001001","0,830830830830831"
"1452","-0,128128128128128","3,87187187187187","-26,1281281281281","2,3003003003003","-2,1001001001001","0,830830830830831"
"1456","-0,128128128128128","3,87187187187187","-26,1281281281281","0,3003003003003","-1,1001001001001","1,83083083083083"
"1464","0,871871871871872","3,87187187187187","-27,1281281281281","0,3003003003003","-1,1001001001001","1,83083083083083"
"1464","0,871871871871872","3,87187187187187","-27,1281281281281","-0,6996996996997","-0,1001001001001","-2,16916916916917"
"1472","-0,128128128128128","5,87187187187187","-25,1281281281281","-0,6996996996997","-0,1001001001001","-2,16916916916917"
"1472","-0,128128128128128","5,87187187187187","-25,1281281281281","4,3003003003003","1,8998998998999","0,830830830830831"
"1484","-1,12812812812813","3,87187187187187","-25,1281281281281","4,3003003003003","1,8998998998999","0,830830830830831"
"1485","-1,12812812812813","3,87187187187187","-25,1281281281281","-0,6996996996997","-2,1001001001001","-1,16916916916917"
"1493","-0,128128128128128","4,87187187187187","-27,1281281281281","-0,6996996996997","-2,1001001001001","-1,16916916916917"
"1493","-0,128128128128128","4,87187187187187","-27,1281281281281","-2,6996996996997","-2,1001001001001","0,830830830830831"
"1505","1,87187187187187","4,87187187187187","-30,1281281281281","-2,6996996996997","-2,1001001001001","0,830830830830831"
"1505","1,87187187187187","4,87187187187187","-30,1281281281281","1,3003003003003","1,8998998998999","2,83083083083083"
"1513","-0,128128128128128","4,87187187187187","-26,1281281281281","1,3003003003003","1,8998998998999","2,83083083083083"
"1513","-0,128128128128128","4,87187187187187","-26,1281281281281","4,3003003003003","1,8998998998999","-1,16916916916917"
"1521","-0,128128128128128","3,87187187187187","-24,1281281281281","4,3003003003003","1,8998998998999","-1,16916916916917"
"1525","-0,128128128128128","3,87187187187187","-24,1281281281281","1,3003003003003","0,8998998998999","0,830830830830831"
"1533","-1,12812812812813","5,87187187187187","-25,1281281281281","1,3003003003003","0,8998998998999","0,830830830830831"
"1534","-1,12812812812813","5,87187187187187","-25,1281281281281","2,3003003003003","-1,1001001001001","0,830830830830831"
"1542","-0,128128128128128","7,87187187187187","-28,1281281281281","2,3003003003003","-1,1001001001001","0,830830830830831"
"1545","-0,128128128128128","7,87187187187187","-28,1281281281281","-2,6996996996997","-0,1001001001001","0,830830830830831"
"1554","1,87187187187187","0,871871871871872","-28,1281281281281","-2,6996996996997","-0,1001001001001","0,830830830830831"
"1554","1,87187187187187","0,871871871871872","-28,1281281281281","-0,6996996996997","-0,1001001001001","-1,16916916916917"
"1562","-0,128128128128128","4,87187187187187","-26,1281281281281","-0,6996996996997","-0,1001001001001","-1,16916916916917"
"1562","-0,128128128128128","4,87187187187187","-26,1281281281281","0,3003003003003","-3,1001001001001","-1,16916916916917"
"1575","-0,128128128128128","6,87187187187187","-29,1281281281281","0,3003003003003","-3,1001001001001","-1,16916916916917"
"1575","-0,128128128128128","6,87187187187187","-29,1281281281281","2,3003003003003","0,8998998998999","0,830830830830831"
"1583","-0,128128128128128","3,87187187187187","-24,1281281281281","2,3003003003003","0,8998998998999","0,830830830830831"
"1583","-0,128128128128128","3,87187187187187","-24,1281281281281","-1,6996996996997","-0,1001001001001","-0,169169169169169"
"1595","-2,12812812812813","4,87187187187187","-25,1281281281281","-1,6996996996997","-0,1001001001001","-0,169169169169169"
"1595","-2,12812812812813","4,87187187187187","-25,1281281281281","-2,6996996996997","-0,1001001001001","0,830830830830831"
"1603","-1,12812812812813","6,87187187187187","-25,1281281281281","-2,6996996996997","-0,1001001001001","0,830830830830831"
"1604","-1,12812812812813","6,87187187187187","-25,1281281281281","1,3003003003003","0,8998998998999","-1,16916916916917"
"1611","-1,12812812812813","5,87187187187187","-26,1281281281281","1,3003003003003","0,8998998998999","-1,16916916916917"
"1615","-1,12812812812813","5,87187187187187","-26,1281281281281","3,3003003003003","0,8998998998999","0,830830830830831"
"1624","0,871871871871872","3,87187187187187","-28,1281281281281","3,3003003003003","0,8998998998999","0,830830830830831"
"1624","0,871871871871872","3,87187187187187","-28,1281281281281","-1,6996996996997","2,8998998998999","-1,16916916916917"
"1632","-0,128128128128128","3,87187187187187","-27,1281281281281","-1,6996996996997","2,8998998998999","-1,16916916916917"
"1636","-0,128128128128128","3,87187187187187","-27,1281281281281","-3,6996996996997","0,8998998998999","-1,16916916916917"
"1644","-0,128128128128128","3,87187187187187","-26,1281281281281","-3,6996996996997","0,8998998998999","-1,16916916916917"
"1644","-0,128128128128128","3,87187187187187","-26,1281281281281","-0,6996996996997","0,8998998998999","0,830830830830831"
"1652","-0,128128128128128","3,87187187187187","-27,1281281281281","-0,6996996996997","0,8998998998999","0,830830830830831"
"1653","-0,128128128128128","3,87187187187187","-27,1281281281281","1,3003003003003","1,8998998998999","0,830830830830831"
"1665","-0,128128128128128","3,87187187187187","-29,1281281281281","1,3003003003003","1,8998998998999","0,830830830830831"
"1665","-0,128128128128128","3,87187187187187","-29,1281281281281","-1,6996996996997","-0,1001001001001","0,830830830830831"
"1673","0,871871871871872","4,87187187187187","-28,1281281281281","-1,6996996996997","-0,1001001001001","0,830830830830831"
"1673","0,871871871871872","4,87187187187187","-28,1281281281281","1,3003003003003","1,8998998998999","-1,16916916916917"
"1685","-1,12812812812813","5,87187187187187","-26,1281281281281","1,3003003003003","1,8998998998999","-1,16916916916917"
"1685","-1,12812812812813","5,87187187187187","-26,1281281281281","0,3003003003003","1,8998998998999","-0,169169169169169"
"1693","-1,12812812812813","3,87187187187187","-24,1281281281281","0,3003003003003","1,8998998998999","-0,169169169169169"
"1693","-1,12812812812813","3,87187187187187","-24,1281281281281","1,3003003003003","0,8998998998999","1,83083083083083"
"1702","0,871871871871872","6,87187187187187","-30,1281281281281","1,3003003003003","0,8998998998999","1,83083083083083"
"1706","0,871871871871872","6,87187187187187","-30,1281281281281","1,3003003003003","-2,1001001001001","-0,169169169169169"
"1714","-1,12812812812813","4,87187187187187","-26,1281281281281","1,3003003003003","-2,1001001001001","-0,169169169169169"
"1714","-1,12812812812813","4,87187187187187","-26,1281281281281","-0,6996996996997","-2,1001001001001","-0,169169169169169"
"1722","-2,12812812812813","3,87187187187187","-23,1281281281281","-0,6996996996997","-2,1001001001001","-0,169169169169169"
"1726","-2,12812812812813","3,87187187187187","-23,1281281281281","1,3003003003003","-0,1001001001001","0,830830830830831"
"1734","-0,128128128128128","5,87187187187187","-25,1281281281281","1,3003003003003","-0,1001001001001","0,830830830830831"
"1735","-0,128128128128128","5,87187187187187","-25,1281281281281","2,3003003003003","-1,1001001001001","-0,169169169169169"
"1743","1,87187187187187","8,87187187187187","-26,1281281281281","2,3003003003003","-1,1001001001001","-0,169169169169169"
"1743","1,87187187187187","8,87187187187187","-26,1281281281281","2,3003003003003","-1,1001001001001","0,830830830830831"
"1755","-1,12812812812813","2,87187187187187","-28,1281281281281","2,3003003003003","-1,1001001001001","0,830830830830831"
"1755","-1,12812812812813","2,87187187187187","-28,1281281281281","-0,6996996996997","-1,1001001001001","-0,169169169169169"
"1763","-1,12812812812813","3,87187187187187","-26,1281281281281","-0,6996996996997","-1,1001001001001","-0,169169169169169"
"1763","-1,12812812812813","3,87187187187187","-26,1281281281281","-0,6996996996997","-1,1001001001001","-0,169169169169169"
"1775","-1,12812812812813","4,87187187187187","-25,1281281281281","-0,6996996996997","-1,1001001001001","-0,169169169169169"
"1775","-1,12812812812813","4,87187187187187","-25,1281281281281","3,3003003003003","-4,1001001001001","0,830830830830831"
"1783","0,871871871871872","2,87187187187187","-27,1281281281281","3,3003003003003","-4,1001001001001","0,830830830830831"
"1784","0,871871871871872","2,87187187187187","-27,1281281281281","2,3003003003003","0,8998998998999","-2,16916916916917"
"1791","-0,128128128128128","2,87187187187187","-26,1281281281281","2,3003003003003","0,8998998998999","-2,16916916916917"
"1796","-0,128128128128128","2,87187187187187","-26,1281281281281","-0,6996996996997","-1,1001001001001","-0,169169169169169"
"1804","-2,12812812812813","4,87187187187187","-29,1281281281281","-0,6996996996997","-1,1001001001001","-0,169169169169169"
"1804","-2,12812812812813","4,87187187187187","-29,1281281281281","-0,6996996996997","0,8998998998999","-0,169169169169169"
"1812","-1,12812812812813","5,87187187187187","-26,1281281281281","-0,6996996996997","0,8998998998999","-0,169169169169169"
"1816","-1,12812812812813","5,87187187187187","-26,1281281281281","1,3003003003003","1,8998998998999","-0,169169169169169"
"1824","1,87187187187187","2,87187187187187","-27,1281281281281","1,3003003003003","1,8998998998999","-0,169169169169169"
"1824","1,87187187187187","2,87187187187187","-27,1281281281281","1,3003003003003","-0,1001001001001","-1,16916916916917"
"1833","-0,128128128128128","3,87187187187187","-26,1281281281281","1,3003003003003","-0,1001001001001","-1,16916916916917"
"1833","-0,128128128128128","3,87187187187187","-26,1281281281281","1,3003003003003","0,8998998998999","1,83083083083083"
"1845","-2,12812812812813","4,87187187187187","-26,1281281281281","1,3003003003003","0,8998998998999","1,83083083083083"
"1845","-2,12812812812813","4,87187187187187","-26,1281281281281","2,3003003003003","0,8998998998999","-2,16916916916917"
"1853","2,87187187187187","2,87187187187187","-28,1281281281281","2,3003003003003","0,8998998998999","-2,16916916916917"
"1853","2,87187187187187","2,87187187187187","-28,1281281281281","3,3003003003003","-0,1001001001001","0,830830830830831"
"1865","0,871871871871872","3,87187187187187","-25,1281281281281","3,3003003003003","-0,1001001001001","0,830830830830831"
"1865","0,871871871871872","3,87187187187187","-25,1281281281281","-1,6996996996997","-0,1001001001001","-0,169169169169169"
"1874","-3,12812812812813","4,87187187187187","-25,1281281281281","-1,6996996996997","-0,1001001001001","-0,169169169169169"
"1874","-3,12812812812813","4,87187187187187","-25,1281281281281","0,3003003003003","-2,1001001001001","-0,169169169169169"
"1886","-0,128128128128128","7,87187187187187","-27,1281281281281","0,3003003003003","-2,1001001001001","-0,169169169169169"
"1886","-0,128128128128128","7,87187187187187","-27,1281281281281","1,3003003003003","1,8998998998999","-0,169169169169169"
"1894","-0,128128128128128","3,87187187187187","-25,1281281281281","1,3003003003003","1,8998998998999","-0,169169169169169"
"1894","-0,128128128128128","3,87187187187187","-25,1281281281281","-2,6996996996997","-2,1001001001001","0,830830830830831"
"1902","-0,128128128128128","3,87187187187187","-28,1281281281281","-2,6996996996997","-2,1001001001001","0,830830830830831"
"1906","-0,128128128128128","3,87187187187187","-28,1281281281281","-1,6996996996997","-1,1001001001001","-0,169169169169169"
"1915","-0,128128128128128","5,87187187187187","-25,1281281281281","-1,6996996996997","-1,1001001001001","-0,169169169169169"
"1915","-0,128128128128128","5,87187187187187","-25,1281281281281","0,3003003003003","0,8998998998999","-0,169169169169169"
"1923","-0,128128128128128","5,87187187187187","-25,1281281281281","0,3003003003003","0,8998998998999","-0,169169169169169"
"1927","-0,128128128128128","5,87187187187187","-25,1281281281281","0,3003003003003","0,8998998998999","1,83083083083083"
"1935","-0,128128128128128","3,87187187187187","-24,1281281281281","0,3003003003003","0,8998998998999","1,83083083083083"
"1935","-0,128128128128128","3,87187187187187","-24,1281281281281","0,3003003003003","-1,1001001001001","0,830830830830831"
"1943","-1,12812812812813","5,87187187187187","-25,1281281281281","0,3003003003003","-1,1001001001001","0,830830830830831"
"1943","-1,12812812812813","5,87187187187187","-25,1281281281281","2,3003003003003","-1,1001001001001","-2,16916916916917"
"1955","-0,128128128128128","4,87187187187187","-31,1281281281281","2,3003003003003","-1,1001001001001","-2,16916916916917"
"1956","-0,128128128128128","4,87187187187187","-31,1281281281281","0,3003003003003","-2,1001001001001","-1,16916916916917"
"1964","-0,128128128128128","3,87187187187187","-27,1281281281281","0,3003003003003","-2,1001001001001","-1,16916916916917"
"1964","-0,128128128128128","3,87187187187187","-27,1281281281281","-2,6996996996997","2,8998998998999","-1,16916916916917"
"1976","-2,12812812812813","3,87187187187187","-26,1281281281281","-2,6996996996997","2,8998998998999","-1,16916916916917"
"1976","-2,12812812812813","3,87187187187187","-26,1281281281281","0,3003003003003","1,8998998998999","1,83083083083083"
"1984","0,871871871871872","6,87187187187187","-25,1281281281281","0,3003003003003","1,8998998998999","1,83083083083083"
"1984","0,871871871871872","6,87187187187187","-25,1281281281281","2,3003003003003","-1,1001001001001","-0,169169169169169"
"1992","1,87187187187187","2,87187187187187","-25,1281281281281","2,3003003003003","-1,1001001001001","-0,169169169169169"
"1997","1,87187187187187","2,87187187187187","-25,1281281281281","-1,6996996996997","-0,1001001001001","-2,16916916916917"
"2005","-0,128128128128128","4,87187187187187","-28,1281281281281","-1,6996996996997","-0,1001001001001","-2,16916916916917"
"2005","-0,128128128128128","4,87187187187187","-28,1281281281281","-1,6996996996997","-1,1001001001001","-1,16916916916917"
"2013","-1,12812812812813","4,87187187187187","-26,1281281281281","-1,6996996996997","-1,1001001001001","-1,16916916916917"
"2017","-1,12812812812813","4,87187187187187","-26,1281281281281","-0,6996996996997","-0,1001001001001","-1,16916916916917"
"2025","-2,12812812812813","3,87187187187187","-24,1281281281281","-0,6996996996997","-0,1001001001001","-1,16916916916917"
"2025","-2,12812812812813","3,87187187187187","-24,1281281281281","2,3003003003003","-0,1001001001001","1,83083083083083"
"2033","0,871871871871872","3,87187187187187","-23,1281281281281","2,3003003003003","-0,1001001001001","1,83083083083083"
"2033","0,871871871871872","3,87187187187187","-23,1281281281281","0,3003003003003","-0,1001001001001","-3,16916916916917"
"2046","-0,128128128128128","3,87187187187187","-26,1281281281281","0,3003003003003","-0,1001001001001","-3,16916916916917"
"2046","-0,128128128128128","3,87187187187187","-26,1281281281281","-2,6996996996997","1,8998998998999","1,83083083083083"
"2054","-0,128128128128128","6,87187187187187","-28,1281281281281","-2,6996996996997","1,8998998998999","1,83083083083083"
"2054","-0,128128128128128","6,87187187187187","-28,1281281281281","1,3003003003003","-0,1001001001001","-1,16916916916917"
"2066","-0,128128128128128","3,87187187187187","-26,1281281281281","1,3003003003003","-0,1001001001001","-1,16916916916917"
"2066","-0,128128128128128","3,87187187187187","-26,1281281281281","-0,6996996996997","-1,1001001001001","-1,16916916916917"
"2074","-1,12812812812813","3,87187187187187","-25,1281281281281","-0,6996996996997","-1,1001001001001","-1,16916916916917"
"2074","-1,12812812812813","3,87187187187187","-25,1281281281281","0,3003003003003","-0,1001001001001","-0,169169169169169"
"2082","-1,12812812812813","6,87187187187187","-28,1281281281281","0,3003003003003","-0,1001001001001","-0,169169169169169"
"2086","-1,12812812812813","6,87187187187187","-28,1281281281281","3,3003003003003","0,8998998998999","-0,169169169169169"
"2095","0,871871871871872","4,87187187187187","-25,1281281281281","3,3003003003003","0,8998998998999","-0,169169169169169"
"2095","0,871871871871872","4,87187187187187","-25,1281281281281","3,3003003003003","-1,1001001001001","0,830830830830831"
"2103","-1,12812812812813","2,87187187187187","-27,1281281281281","3,3003003003003","-1,1001001001001","0,830830830830831"
"2107","-1,12812812812813","2,87187187187187","-27,1281281281281","-0,6996996996997","-1,1001001001001","-0,169169169169169"
"2115","-2,12812812812813","7,87187187187187","-28,1281281281281","-0,6996996996997","-1,1001001001001","-0,169169169169169"
"2115","-2,12812812812813","7,87187187187187","-28,1281281281281","-1,6996996996997","1,8998998998999","-0,169169169169169"
"2123","-0,128128128128128","4,87187187187187","-27,1281281281281","-1,6996996996997","1,8998998998999","-0,169169169169169"
"2127","-0,128128128128128","4,87187187187187","-27,1281281281281","2,3003003003003","0,8998998998999","-1,16916916916917"
"2135","0,871871871871872","3,87187187187187","-25,1281281281281","2,3003003003003","0,8998998998999","-1,16916916916917"
"2135","0,871871871871872","3,87187187187187","-25,1281281281281","-1,6996996996997","-0,1001001001001","0,830830830830831"
"2144","-1,12812812812813","4,87187187187187","-26,1281281281281","-1,6996996996997","-0,1001001001001","0,830830830830831"
"2144","-1,12812812812813","4,87187187187187","-26,1281281281281","0,3003003003003","-1,1001001001001","0,830830830830831"
"2156","0,871871871871872","6,87187187187187","-29,1281281281281","0,3003003003003","-1,1001001001001","0,830830830830831"
"2156","0,871871871871872","6,87187187187187","-29,1281281281281","0,3003003003003","-1,1001001001001","-2,16916916916917"
"2164","-1,12812812812813","3,87187187187187","-25,1281281281281","0,3003003003003","-1,1001001001001","-2,16916916916917"
"2164","-1,12812812812813","3,87187187187187","-25,1281281281281","1,3003003003003","0,8998998998999","-2,16916916916917"
"2176","0,871871871871872","3,87187187187187","-25,1281281281281","1,3003003003003","0,8998998998999","-2,16916916916917"
"2176","0,871871871871872","3,87187187187187","-25,1281281281281","-1,6996996996997","0,8998998998999","2,83083083083083"
"2185","-0,128128128128128","5,87187187187187","-26,1281281281281","-1,6996996996997","0,8998998998999","2,83083083083083"
"2185","-0,128128128128128","5,87187187187187","-26,1281281281281","0,3003003003003","-1,1001001001001","-1,16916916916917"
"2193","-0,128128128128128","3,87187187187187","-27,1281281281281","0,3003003003003","-1,1001001001001","-1,16916916916917"
"2197","-0,128128128128128","3,87187187187187","-27,1281281281281","-2,6996996996997","-1,1001001001001","1,83083083083083"
"2205","0,871871871871872","4,87187187187187","-25,1281281281281","-2,6996996996997","-1,1001001001001","1,83083083083083"
"2206","0,871871871871872","4,87187187187187","-25,1281281281281","-2,6996996996997","0,8998998998999","-1,16916916916917"
"2214","0,871871871871872","8,87187187187187","-28,1281281281281","-2,6996996996997","0,8998998998999","-1,16916916916917"
"2217","0,871871871871872","8,87187187187187","-28,1281281281281","-1,6996996996997","1,8998998998999","-3,16916916916917"
"2226","0,871871871871872","3,87187187187187","-26,1281281281281","-1,6996996996997","1,8998998998999","-3,16916916916917"
"2226","0,871871871871872","3,87187187187187","-26,1281281281281","1,3003003003003","0,8998998998999","0,830830830830831"
"2234","-0,128128128128128","3,87187187187187","-24,1281281281281","1,3003003003003","0,8998998998999","0,830830830830831"
"2234","-0,128128128128128","3,87187187187187","-24,1281281281281","-1,6996996996997","-2,1001001001001","-1,16916916916917"
"2246","-0,128128128128128","6,87187187187187","-27,1281281281281","-1,6996996996997","-2,1001001001001","-1,16916916916917"
"2246","-0,128128128128128","6,87187187187187","-27,1281281281281","-2,6996996996997","-0,1001001001001","0,830830830830831"
"2254","-0,128128128128128","6,87187187187187","-27,1281281281281","-2,6996996996997","-0,1001001001001","0,830830830830831"
"2255","-0,128128128128128","6,87187187187187","-27,1281281281281","2,3003003003003","0,8998998998999","-0,169169169169169"
"2267","0,871871871871872","3,87187187187187","-25,1281281281281","2,3003003003003","0,8998998998999","-0,169169169169169"
"2267","0,871871871871872","3,87187187187187","-25,1281281281281","-1,6996996996997","1,8998998998999","-1,16916916916917"
"2275","-1,12812812812813","5,87187187187187","-25,1281281281281","-1,6996996996997","1,8998998998999","-1,16916916916917"
"2275","-1,12812812812813","5,87187187187187","-25,1281281281281","-2,6996996996997","2,8998998998999","-0,169169169169169"
"2283","0,871871871871872","7,87187187187187","-25,1281281281281","-2,6996996996997","2,8998998998999","-0,169169169169169"
"2287","0,871871871871872","7,87187187187187","-25,1281281281281","-0,6996996996997","-1,1001001001001","-0,169169169169169"
"2296","-1,12812812812813","3,87187187187187","-25,1281281281281","-0,6996996996997","-1,1001001001001","-0,169169169169169"
"2296","-1,12812812812813","3,87187187187187","-25,1281281281281","-1,6996996996997","0,8998998998999","-1,16916916916917"
"2304","-1,12812812812813","2,87187187187187","-23,1281281281281","-1,6996996996997","0,8998998998999","-1,16916916916917"
"2308","-1,12812812812813","2,87187187187187","-23,1281281281281","-3,6996996996997","-1,1001001001001","0,830830830830831"
"2316","-1,12812812812813","3,87187187187187","-29,1281281281281","-3,6996996996997","-1,1001001001001","0,830830830830831"
"2316","-1,12812812812813","3,87187187187187","-29,1281281281281","-1,6996996996997","-1,1001001001001","-0,169169169169169"
"2324","-0,128128128128128","6,87187187187187","-27,1281281281281","-1,6996996996997","-1,1001001001001","-0,169169169169169"
"2324","-0,128128128128128","6,87187187187187","-27,1281281281281","-1,6996996996997","0,8998998998999","-1,16916916916917"
"2336","-0,128128128128128","2,87187187187187","-24,1281281281281","-1,6996996996997","0,8998998998999","-1,16916916916917"
"2337","-0,128128128128128","2,87187187187187","-24,1281281281281","1,3003003003003","-1,1001001001001","-1,16916916916917"
"2345","-1,12812812812813","1,87187187187187","-23,1281281281281","1,3003003003003","-1,1001001001001","-1,16916916916917"
"2345","-1,12812812812813","1,87187187187187","-23,1281281281281","0,3003003003003","-0,1001001001001","0,830830830830831"
"2357","-0,128128128128128","4,87187187187187","-28,1281281281281","0,3003003003003","-0,1001001001001","0,830830830830831"
"2357","-0,128128128128128","4,87187187187187","-28,1281281281281","1,3003003003003","-0,1001001001001","-0,169169169169169"
"2365","-0,128128128128128","6,87187187187187","-28,1281281281281","1,3003003003003","-0,1001001001001","-0,169169169169169"
"2365","-0,128128128128128","6,87187187187187","-28,1281281281281","-0,6996996996997","-0,1001001001001","-2,16916916916917"
"2377","-1,12812812812813","3,87187187187187","-24,1281281281281","-0,6996996996997","-0,1001001001001","-2,16916916916917"
"2377","-1,12812812812813","3,87187187187187","-24,1281281281281","3,3003003003003","0,8998998998999","-1,16916916916917"
"2386","0,871871871871872","3,87187187187187","-24,1281281281281","3,3003003003003","0,8998998998999","-1,16916916916917"
"2386","0,871871871871872","3,87187187187187","-24,1281281281281","0,3003003003003","-0,1001001001001","-0,169169169169169"
"2394","0,871871871871872","5,87187187187187","-29,1281281281281","0,3003003003003","-0,1001001001001","-0,169169169169169"
"2398","0,871871871871872","5,87187187187187","-29,1281281281281","2,3003003003003","0,8998998998999","1,83083083083083"
"2406","-0,128128128128128","1,87187187187187","-27,1281281281281","2,3003003003003","0,8998998998999","1,83083083083083"
"2406","-0,128128128128128","1,87187187187187","-27,1281281281281","-1,6996996996997","-0,1001001001001","0,830830830830831"
"2414","-0,128128128128128","3,87187187187187","-25,1281281281281","-1,6996996996997","-0,1001001001001","0,830830830830831"
"2414","-0,128128128128128","3,87187187187187","-25,1281281281281","-1,6996996996997","-1,1001001001001","0,830830830830831"
"2427","0,871871871871872","5,87187187187187","-26,1281281281281","-1,6996996996997","-1,1001001001001","0,830830830830831"
"2427","0,871871871871872","5,87187187187187","-26,1281281281281","3,3003003003003","-3,1001001001001","0,830830830830831"
"2435","1,87187187187187","3,87187187187187","-27,1281281281281","3,3003003003003","-3,1001001001001","0,830830830830831"
"2435","1,87187187187187","3,87187187187187","-27,1281281281281","4,3003003003003","0,8998998998999","-1,16916916916917"
"2447","-1,12812812812813","3,87187187187187","-26,1281281281281","4,3003003003003","0,8998998998999","-1,16916916916917"
"2447","-1,12812812812813","3,87187187187187","-26,1281281281281","-2,6996996996997","0,8998998998999","-1,16916916916917"
"2455","-1,12812812812813","4,87187187187187","-30,1281281281281","-2,6996996996997","0,8998998998999","-1,16916916916917"
"2455","-1,12812812812813","4,87187187187187","-30,1281281281281","-0,6996996996997","-0,1001001001001","-1,16916916916917"
"2463","-1,12812812812813","3,87187187187187","-28,1281281281281","-0,6996996996997","-0,1001001001001","-1,16916916916917"
"2467","-1,12812812812813","3,87187187187187","-28,1281281281281","0,3003003003003","-0,1001001001001","0,830830830830831"
"2476","-1,12812812812813","2,87187187187187","-24,1281281281281","0,3003003003003","-0,1001001001001","0,830830830830831"
"2476","-1,12812812812813","2,87187187187187","-24,1281281281281","1,3003003003003","-0,1001001001001","-1,16916916916917"
"2484","-2,12812812812813","5,87187187187187","-25,1281281281281","1,3003003003003","-0,1001001001001","-1,16916916916917"
"2488","-2,12812812812813","5,87187187187187","-25,1281281281281","2,3003003003003","-2,1001001001001","-1,16916916916917"
"2496","-1,12812812812813","8,87187187187187","-26,1281281281281","2,3003003003003","-2,1001001001001","-1,16916916916917"
"2496","-1,12812812812813","8,87187187187187","-26,1281281281281","2,3003003003003","-0,1001001001001","-0,169169169169169"
"2504","-1,12812812812813","2,87187187187187","-27,1281281281281","2,3003003003003","-0,1001001001001","-0,169169169169169"
"2508","-1,12812812812813","2,87187187187187","-27,1281281281281","2,3003003003003","-0,1001001001001","-0,169169169169169"
"2517","-0,128128128128128","3,87187187187187","-26,1281281281281","2,3003003003003","-0,1001001001001","-0,169169169169169"
"2517","-0,128128128128128","3,87187187187187","-26,1281281281281","-0,6996996996997","-0,1001001001001","0,830830830830831"
"2525","-1,12812812812813","6,87187187187187","-26,1281281281281","-0,6996996996997","-0,1001001001001","0,830830830830831"
"2525","-1,12812812812813","6,87187187187187","-26,1281281281281","0,3003003003003","-0,1001001001001","-0,169169169169169"
"2533","0,871871871871872","3,87187187187187","-25,1281281281281","0,3003003003003","-0,1001001001001","-0,169169169169169"
"2537","0,871871871871872","3,87187187187187","-25,1281281281281","0,3003003003003","-0,1001001001001","-0,169169169169169"
"2545","-0,128128128128128","3,87187187187187","-23,1281281281281","0,3003003003003","-0,1001001001001","-0,169169169169169"
"2545","-0,128128128128128","3,87187187187187","-23,1281281281281","-1,6996996996997","-1,1001001001001","-0,169169169169169"
"2557","-0,128128128128128","6,87187187187187","-27,1281281281281","-1,6996996996997","-1,1001001001001","-0,169169169169169"
"2558","-0,128128128128128","6,87187187187187","-27,1281281281281","-1,6996996996997","-0,1001001001001","-0,169169169169169"
"2566","0,871871871871872","3,87187187187187","-28,1281281281281","-1,6996996996997","-0,1001001001001","-0,169169169169169"
"2566","0,871871871871872","3,87187187187187","-28,1281281281281","2,3003003003003","-0,1001001001001","-0,169169169169169"
"2574","-2,12812812812813","3,87187187187187","-25,1281281281281","2,3003003003003","-0,1001001001001","-0,169169169169169"
"2578","-2,12812812812813","3,87187187187187","-25,1281281281281","0,3003003003003","-3,1001001001001","0,830830830830831"
"2586","-0,128128128128128","4,87187187187187","-25,1281281281281","0,3003003003003","-3,1001001001001","0,830830830830831"
"2587","-0,128128128128128","4,87187187187187","-25,1281281281281","-1,6996996996997","0,8998998998999","-0,169169169169169"
"2594","-1,12812812812813","4,87187187187187","-27,1281281281281","-1,6996996996997","0,8998998998999","-0,169169169169169"
"2598","-1,12812812812813","4,87187187187187","-27,1281281281281","4,3003003003003","-2,1001001001001","1,83083083083083"
"2607","0,871871871871872","4,87187187187187","-28,1281281281281","4,3003003003003","-2,1001001001001","1,83083083083083"
"2607","0,871871871871872","4,87187187187187","-28,1281281281281","1,3003003003003","-3,1001001001001","0,830830830830831"
"2615","-2,12812812812813","3,87187187187187","-27,1281281281281","1,3003003003003","-3,1001001001001","0,830830830830831"
"2615","-2,12812812812813","3,87187187187187","-27,1281281281281","2,3003003003003","1,8998998998999","-1,16916916916917"
"2627","-0,128128128128128","4,87187187187187","-25,1281281281281","2,3003003003003","1,8998998998999","-1,16916916916917"
"2627","-0,128128128128128","4,87187187187187","-25,1281281281281","3,3003003003003","1,8998998998999","0,830830830830831"
"2636","-0,128128128128128","4,87187187187187","-25,1281281281281","3,3003003003003","1,8998998998999","0,830830830830831"
"2636","-0,128128128128128","4,87187187187187","-25,1281281281281","3,3003003003003","1,8998998998999","0,830830830830831"
"2648","-1,12812812812813","3,87187187187187","-25,1281281281281","3,3003003003003","1,8998998998999","0,830830830830831"
"2648","-1,12812812812813","3,87187187187187","-25,1281281281281","0,3003003003003","-3,1001001001001","-0,169169169169169"
"2656","-1,12812812812813","5,87187187187187","-28,1281281281281","0,3003003003003","-3,1001001001001","-0,169169169169169"
"2656","-1,12812812812813","5,87187187187187","-28,1281281281281","2,3003003003003","-0,1001001001001","0,830830830830831"
"2664","2,87187187187187","4,87187187187187","-26,1281281281281","2,3003003003003","-0,1001001001001","0,830830830830831"
"2668","2,87187187187187","4,87187187187187","-26,1281281281281","-0,6996996996997","-1,1001001001001","-0,169169169169169"
"2676","-0,128128128128128","3,87187187187187","-25,1281281281281","-0,6996996996997","-1,1001001001001","-0,169169169169169"
"2677","-0,128128128128128","3,87187187187187","-25,1281281281281","2,3003003003003","-2,1001001001001","-0,169169169169169"
"2685","-2,12812812812813","3,87187187187187","-26,1281281281281","2,3003003003003","-2,1001001001001","-0,169169169169169"
"2688","-2,12812812812813","3,87187187187187","-26,1281281281281","2,3003003003003","-2,1001001001001","-0,169169169169169"
"2697","-0,128128128128128","7,87187187187187","-24,1281281281281","2,3003003003003","-2,1001001001001","-0,169169169169169"
"2697","-0,128128128128128","7,87187187187187","-24,1281281281281","-0,6996996996997","-0,1001001001001","0,830830830830831"
"2705","0,871871871871872","3,87187187187187","-27,1281281281281","-0,6996996996997","-0,1001001001001","0,830830830830831"
"2705","0,871871871871872","3,87187187187187","-27,1281281281281","2,3003003003003","-1,1001001001001","-0,169169169169169"
"2717","-1,12812812812813","2,87187187187187","-24,1281281281281","2,3003003003003","-1,1001001001001","-0,169169169169169"
"2718","-1,12812812812813","2,87187187187187","-24,1281281281281","1,3003003003003","-3,1001001001001","-1,16916916916917"
"2726","-1,12812812812813","6,87187187187187","-25,1281281281281","1,3003003003003","-3,1001001001001","-1,16916916916917"
"2726","-1,12812812812813","6,87187187187187","-25,1281281281281","0,3003003003003","0,8998998998999","-2,16916916916917"
"2734","-1,12812812812813","6,87187187187187","-25,1281281281281","0,3003003003003","0,8998998998999","-2,16916916916917"
"2734","-1,12812812812813","6,87187187187187","-25,1281281281281","0,3003003003003","0,8998998998999","-2,16916916916917"
"2746","-0,128128128128128","4,87187187187187","-24,1281281281281","0,3003003003003","0,8998998998999","-2,16916916916917"
"2746","-0,128128128128128","4,87187187187187","-24,1281281281281","1,3003003003003","-2,1001001001001","-0,169169169169169"
"2754","-0,128128128128128","5,87187187187187","-27,1281281281281","1,3003003003003","-2,1001001001001","-0,169169169169169"
"2758","-0,128128128128128","5,87187187187187","-27,1281281281281","-2,6996996996997","2,8998998998999","1,83083083083083"
"2767","-0,128128128128128","5,87187187187187","-26,1281281281281","-2,6996996996997","2,8998998998999","1,83083083083083"
"2767","-0,128128128128128","5,87187187187187","-26,1281281281281","-3,6996996996997","0,8998998998999","-0,169169169169169"
"2775","-0,128128128128128","1,87187187187187","-25,1281281281281","-3,6996996996997","0,8998998998999","-0,169169169169169"
"2779","-0,128128128128128","1,87187187187187","-25,1281281281281","-3,6996996996997","0,8998998998999","-0,169169169169169"
"2787","-0,128128128128128","1,87187187187187","-25,1281281281281","-3,6996996996997","0,8998998998999","-0,169169169169169"
"2787","-0,128128128128128","1,87187187187187","-25,1281281281281","0,3003003003003","-1,1001001001001","1,83083083083083"
"2795","0,871871871871872","4,87187187187187","-25,1281281281281","0,3003003003003","-1,1001001001001","1,83083083083083"
"2795","0,871871871871872","4,87187187187187","-25,1281281281281","1,3003003003003","-2,1001001001001","0,830830830830831"
"2807","2,87187187187187","4,87187187187187","-28,1281281281281","1,3003003003003","-2,1001001001001","0,830830830830831"
"2808","2,87187187187187","4,87187187187187","-28,1281281281281","5,3003003003003","-1,1001001001001","0,830830830830831"
"2816","0,871871871871872","3,87187187187187","-25,1281281281281","5,3003003003003","-1,1001001001001","0,830830830830831"
"2816","0,871871871871872","3,87187187187187","-25,1281281281281","1,3003003003003","0,8998998998999","1,83083083083083"
"2828","0,871871871871872","3,87187187187187","-25,1281281281281","1,3003003003003","0,8998998998999","1,83083083083083"
"2828","0,871871871871872","3,87187187187187","-25,1281281281281","1,3003003003003","0,8998998998999","1,83083083083083"
"2832","0,871871871871872","3,87187187187187","-25,1281281281281","1,3003003003003","0,8998998998999","1,83083083083083"
"2836","0,871871871871872","3,87187187187187","-25,1281281281281","-1,6996996996997","0,8998998998999","-0,169169169169169"
"2844","1,87187187187187","3,87187187187187","-27,1281281281281","-1,6996996996997","0,8998998998999","-0,169169169169169"
"2848","1,87187187187187","3,87187187187187","-27,1281281281281","1,3003003003003","0,8998998998999","0,830830830830831"
"2857","-1,12812812812813","3,87187187187187","-27,1281281281281","1,3003003003003","0,8998998998999","0,830830830830831"
"2857","-1,12812812812813","3,87187187187187","-27,1281281281281","4,3003003003003","-2,1001001001001","0,830830830830831"
"2865","-0,128128128128128","7,87187187187187","-29,1281281281281","4,3003003003003","-2,1001001001001","0,830830830830831"
"2869","-0,128128128128128","7,87187187187187","-29,1281281281281","-1,6996996996997","0,8998998998999","1,83083083083083"
"2877","-0,128128128128128","3,87187187187187","-25,1281281281281","-1,6996996996997","0,8998998998999","1,83083083083083"
"2877","-0,128128128128128","3,87187187187187","-25,1281281281281","2,3003003003003","1,8998998998999","-1,16916916916917"
"2885","-0,128128128128128","3,87187187187187","-25,1281281281281","2,3003003003003","1,8998998998999","-1,16916916916917"
"2885","-0,128128128128128","3,87187187187187","-25,1281281281281","2,3003003003003","-2,1001001001001","-1,16916916916917"
"2898","-1,12812812812813","7,87187187187187","-26,1281281281281","2,3003003003003","-2,1001001001001","-1,16916916916917"
"2898","-1,12812812812813","7,87187187187187","-26,1281281281281","3,3003003003003","0,8998998998999","-0,169169169169169"
"2906","-0,128128128128128","4,87187187187187","-29,1281281281281","3,3003003003003","0,8998998998999","-0,169169169169169"
"2906","-0,128128128128128","4,87187187187187","-29,1281281281281","2,3003003003003","0,8998998998999","-0,169169169169169"
"2918","0,871871871871872","2,87187187187187","-25,1281281281281","2,3003003003003","0,8998998998999","-0,169169169169169"
"2918","0,871871871871872","2,87187187187187","-25,1281281281281","2,3003003003003","-2,1001001001001","-1,16916916916917"
"2926","1,87187187187187","4,87187187187187","-26,1281281281281","2,3003003003003","-2,1001001001001","-1,16916916916917"
"2927","1,87187187187187","4,87187187187187","-26,1281281281281","-1,6996996996997","1,8998998998999","-3,16916916916917"
"2934","1,87187187187187","4,87187187187187","-26,1281281281281","-1,6996996996997","1,8998998998999","-3,16916916916917"
"2935","1,87187187187187","4,87187187187187","-26,1281281281281","-1,6996996996997","-0,1001001001001","-3,16916916916917"
"2947","-1,12812812812813","2,87187187187187","-27,1281281281281","-1,6996996996997","-0,1001001001001","-3,16916916916917"
"2947","-1,12812812812813","2,87187187187187","-27,1281281281281","0,3003003003003","-0,1001001001001","0,830830830830831"
"2955","-0,128128128128128","3,87187187187187","-27,1281281281281","0,3003003003003","-0,1001001001001","0,830830830830831"
"2959","-0,128128128128128","3,87187187187187","-27,1281281281281","-0,6996996996997","0,8998998998999","0,830830830830831"
"2967","-1,12812812812813","6,87187187187187","-28,1281281281281","-0,6996996996997","0,8998998998999","0,830830830830831"
"2967","-1,12812812812813","6,87187187187187","-28,1281281281281","-2,6996996996997","0,8998998998999","0,830830830830831"
"2975","-0,128128128128128","4,87187187187187","-25,1281281281281","-2,6996996996997","0,8998998998999","0,830830830830831"
"2979","-0,128128128128128","4,87187187187187","-25,1281281281281","-0,6996996996997","-1,1001001001001","-0,169169169169169"
"2984","-0,128128128128128","4,87187187187187","-25,1281281281281","-0,6996996996997","-1,1001001001001","-0,169169169169169"
"2984","-0,128128128128128","4,87187187187187","-25,1281281281281","1,3003003003003","-0,1001001001001","-1,16916916916917"
"2996","-2,12812812812813","3,87187187187187","-26,1281281281281","1,3003003003003","-0,1001001001001","-1,16916916916917"
"2996","-2,12812812812813","3,87187187187187","-26,1281281281281","0,3003003003003","-2,1001001001001","-1,16916916916917"
"3008","-2,12812812812813","7,87187187187187","-25,1281281281281","0,3003003003003","-2,1001001001001","-1,16916916916917"
"3008","-2,12812812812813","7,87187187187187","-25,1281281281281","0,3003003003003","-2,1001001001001","-1,16916916916917"
"3016","-1,12812812812813","3,87187187187187","-23,1281281281281","0,3003003003003","-2,1001001001001","-1,16916916916917"
"3017","-1,12812812812813","3,87187187187187","-23,1281281281281","0,3003003003003","1,8998998998999","1,83083083083083"
"3029","-2,12812812812813","3,87187187187187","-25,1281281281281","0,3003003003003","1,8998998998999","1,83083083083083"
"3029","-2,12812812812813","3,87187187187187","-25,1281281281281","2,3003003003003","0,8998998998999","1,83083083083083"
"3033","-2,12812812812813","3,87187187187187","-25,1281281281281","2,3003003003003","0,8998998998999","1,83083083083083"
"3037","-2,12812812812813","3,87187187187187","-25,1281281281281","-0,6996996996997","-1,1001001001001","-1,16916916916917"
"3045","0,871871871871872","4,87187187187187","-27,1281281281281","-0,6996996996997","-1,1001001001001","-1,16916916916917"
"3049","0,871871871871872","4,87187187187187","-27,1281281281281","4,3003003003003","-0,1001001001001","-1,16916916916917"
"3057","0,871871871871872","2,87187187187187","-25,1281281281281","4,3003003003003","-0,1001001001001","-1,16916916916917"
"3058","0,871871871871872","2,87187187187187","-25,1281281281281","1,3003003003003","3,8998998998999","0,830830830830831"
"3066","-1,12812812812813","3,87187187187187","-25,1281281281281","1,3003003003003","3,8998998998999","0,830830830830831"
"3069","-1,12812812812813","3,87187187187187","-25,1281281281281","1,3003003003003","1,8998998998999","-0,169169169169169"
"3078","0,871871871871872","5,87187187187187","-26,1281281281281","1,3003003003003","1,8998998998999","-0,169169169169169"
"3078","0,871871871871872","5,87187187187187","-26,1281281281281","2,3003003003003","0,8998998998999","0,830830830830831"
"3086","0,871871871871872","5,87187187187187","-26,1281281281281","2,3003003003003","0,8998998998999","0,830830830830831"
"3086","0,871871871871872","5,87187187187187","-26,1281281281281","2,3003003003003","0,8998998998999","0,830830830830831"
"3098","-1,12812812812813","3,87187187187187","-25,1281281281281","2,3003003003003","0,8998998998999","0,830830830830831"
"3098","-1,12812812812813","3,87187187187187","-25,1281281281281","0,3003003003003","-1,1001001001001","-1,16916916916917"
"3107","-2,12812812812813","4,87187187187187","-29,1281281281281","0,3003003003003","-1,1001001001001","-1,16916916916917"
"3107","-2,12812812812813","4,87187187187187","-29,1281281281281","0,3003003003003","-1,1001001001001","-1,16916916916917"
"3119","-1,12812812812813","4,87187187187187","-28,1281281281281","0,3003003003003","-1,1001001001001","-1,16916916916917"
"3119","-1,12812812812813","4,87187187187187","-28,1281281281281","0,3003003003003","0,8998998998999","1,83083083083083"
"3127","-1,12812812812813","3,87187187187187","-26,1281281281281","0,3003003003003","0,8998998998999","1,83083083083083"
"3127","-1,12812812812813","3,87187187187187","-26,1281281281281","-0,6996996996997","1,8998998998999","0,830830830830831"
"3135","-1,12812812812813","3,87187187187187","-26,1281281281281","-0,6996996996997","1,8998998998999","0,830830830830831"
"3135","-1,12812812812813","3,87187187187187","-26,1281281281281","-0,6996996996997","0,8998998998999","-2,16916916916917"
"3148","-2,12812812812813","5,87187187187187","-28,1281281281281","-0,6996996996997","0,8998998998999","-2,16916916916917"
"3148","-2,12812812812813","5,87187187187187","-28,1281281281281","-0,6996996996997","-2,1001001001001","1,83083083083083"
"3156","0,871871871871872","3,87187187187187","-26,1281281281281","-0,6996996996997","-2,1001001001001","1,83083083083083"
"3160","0,871871871871872","3,87187187187187","-26,1281281281281","-0,6996996996997","-2,1001001001001","1,83083083083083"
"3168","-0,128128128128128","2,87187187187187","-27,1281281281281","-0,6996996996997","-2,1001001001001","1,83083083083083"
"3168","-0,128128128128128","2,87187187187187","-27,1281281281281","0,3003003003003","1,8998998998999","-0,169169169169169"
"3176","-0,128128128128128","6,87187187187187","-24,1281281281281","0,3003003003003","1,8998998998999","-0,169169169169169"
"3180","-0,128128128128128","6,87187187187187","-24,1281281281281","2,3003003003003","-1,1001001001001","2,83083083083083"
"3184","-0,128128128128128","6,87187187187187","-24,1281281281281","2,3003003003003","-1,1001001001001","2,83083083083083"
"3185","-0,128128128128128","6,87187187187187","-24,1281281281281","2,3003003003003","-0,1001001001001","0,830830830830831"
"3197","-1,12812812812813","3,87187187187187","-27,1281281281281","2,3003003003003","-0,1001001001001","0,830830830830831"
"3197","-1,12812812812813","3,87187187187187","-27,1281281281281","-1,6996996996997","0,8998998998999","1,83083083083083"
"3209","-0,128128128128128","3,87187187187187","-28,1281281281281","-1,6996996996997","0,8998998998999","1,83083083083083"
"3209","-0,128128128128128","3,87187187187187","-28,1281281281281","-1,6996996996997","0,8998998998999","1,83083083083083"
"3217","-0,128128128128128","5,87187187187187","-27,1281281281281","-1,6996996996997","0,8998998998999","1,83083083083083"
"3217","-0,128128128128128","5,87187187187187","-27,1281281281281","0,3003003003003","0,8998998998999","1,83083083083083"
"3229","0,871871871871872","5,87187187187187","-26,1281281281281","0,3003003003003","0,8998998998999","1,83083083083083"
"3229","0,871871871871872","5,87187187187187","-26,1281281281281","0,3003003003003","1,8998998998999","-1,16916916916917"
"3234","0,871871871871872","5,87187187187187","-26,1281281281281","0,3003003003003","1,8998998998999","-1,16916916916917"
"3237","0,871871871871872","5,87187187187187","-26,1281281281281","-0,6996996996997","1,8998998998999","1,83083083083083"
"3246","-0,128128128128128","6,87187187187187","-29,1281281281281","-0,6996996996997","1,8998998998999","1,83083083083083"
"3250","-0,128128128128128","6,87187187187187","-29,1281281281281","0,3003003003003","-1,1001001001001","3,83083083083083"
"3258","-1,12812812812813","3,87187187187187","-26,1281281281281","0,3003003003003","-1,1001001001001","3,83083083083083"
"3258","-1,12812812812813","3,87187187187187","-26,1281281281281","0,3003003003003","-1,1001001001001","3,83083083083083"
"3266","0,871871871871872","5,87187187187187","-26,1281281281281","0,3003003003003","-1,1001001001001","3,83083083083083"
"3266","0,871871871871872","5,87187187187187","-26,1281281281281","0,3003003003003","-1,1001001001001","0,830830830830831"
"3279","-1,12812812812813","3,87187187187187","-28,1281281281281","0,3003003003003","-1,1001001001001","0,830830830830831"
"3279","-1,12812812812813","3,87187187187187","-28,1281281281281","4,3003003003003","-1,1001001001001","0,830830830830831"
"3286","-1,12812812812813","3,87187187187187","-28,1281281281281","4,3003003003003","-1,1001001001001","0,830830830830831"
"3287","-1,12812812812813","3,87187187187187","-28,1281281281281","-1,6996996996997","0,8998998998999","0,830830830830831"
"3299","-0,128128128128128","7,87187187187187","-25,1281281281281","-1,6996996996997","0,8998998998999","0,830830830830831"
"3299","-0,128128128128128","7,87187187187187","-25,1281281281281","-1,6996996996997","0,8998998998999","-0,169169169169169"
"3307","-2,12812812812813","9,87187187187187","-29,1281281281281","-1,6996996996997","0,8998998998999","-0,169169169169169"
"3307","-2,12812812812813","9,87187187187187","-29,1281281281281","-1,6996996996997","0,8998998998999","-0,169169169169169"
"3319","-2,12812812812813","3,87187187187187","-28,1281281281281","-1,6996996996997","0,8998998998999","-0,169169169169169"
"3320","-2,12812812812813","3,87187187187187","-28,1281281281281","-1,6996996996997","-0,1001001001001","-0,169169169169169"
"3328","-0,128128128128128","3,87187187187187","-26,1281281281281","-1,6996996996997","-0,1001001001001","-0,169169169169169"
"3328","-0,128128128128128","3,87187187187187","-26,1281281281281","-3,6996996996997","1,8998998998999","2,83083083083083"
"3336","-0,128128128128128","3,87187187187187","-26,1281281281281","-3,6996996996997","1,8998998998999","2,83083083083083"
"3336","-0,128128128128128","3,87187187187187","-26,1281281281281","-3,6996996996997","-0,1001001001001","-0,169169169169169"
"3348","2,87187187187187","4,87187187187187","-28,1281281281281","-3,6996996996997","-0,1001001001001","-0,169169169169169"
"3348","2,87187187187187","4,87187187187187","-28,1281281281281","-1,6996996996997","-2,1001001001001","-0,169169169169169"
"3356","1,87187187187187","2,87187187187187","-27,1281281281281","-1,6996996996997","-2,1001001001001","-0,169169169169169"
"3360","1,87187187187187","2,87187187187187","-27,1281281281281","-1,6996996996997","-2,1001001001001","-0,169169169169169"
"3369","-1,12812812812813","4,87187187187187","-27,1281281281281","-1,6996996996997","-2,1001001001001","-0,169169169169169"
"3369","-1,12812812812813","4,87187187187187","-27,1281281281281","-1,6996996996997","-3,1001001001001","-1,16916916916917"
"3377","0,871871871871872","6,87187187187187","-25,1281281281281","-1,6996996996997","-3,1001001001001","-1,16916916916917"
"3377","0,871871871871872","6,87187187187187","-25,1281281281281","1,3003003003003","-0,1001001001001","0,830830830830831"
"3385","0,871871871871872","6,87187187187187","-25,1281281281281","1,3003003003003","-0,1001001001001","0,830830830830831"
"3385","0,871871871871872","6,87187187187187","-25,1281281281281","1,3003003003003","-0,1001001001001","2,83083083083083"
"3397","0,871871871871872","3,87187187187187","-26,1281281281281","1,3003003003003","-0,1001001001001","2,83083083083083"
"3398","0,871871871871872","3,87187187187187","-26,1281281281281","-1,6996996996997","-0,1001001001001","-1,16916916916917"
"3410","-2,12812812812813","5,87187187187187","-30,1281281281281","-1,6996996996997","-0,1001001001001","-1,16916916916917"
"3410","-2,12812812812813","5,87187187187187","-30,1281281281281","-0,6996996996997","-0,1001001001001","-2,16916916916917"
"3418","-1,12812812812813","4,87187187187187","-27,1281281281281","-0,6996996996997","-0,1001001001001","-2,16916916916917"
"3418","-1,12812812812813","4,87187187187187","-27,1281281281281","1,3003003003003","-2,1001001001001","-0,169169169169169"
"3426","-1,12812812812813","1,87187187187187","-25,1281281281281","1,3003003003003","-2,1001001001001","-0,169169169169169"
"3430","-1,12812812812813","1,87187187187187","-25,1281281281281","1,3003003003003","-2,1001001001001","-0,169169169169169"
"3434","-1,12812812812813","1,87187187187187","-25,1281281281281","1,3003003003003","-2,1001001001001","-0,169169169169169"
"3434","-1,12812812812813","1,87187187187187","-25,1281281281281","2,3003003003003","-0,1001001001001","-2,16916916916917"
"3446","0,871871871871872","6,87187187187187","-27,1281281281281","2,3003003003003","-0,1001001001001","-2,16916916916917"
"3450","0,871871871871872","6,87187187187187","-27,1281281281281","3,3003003003003","-2,1001001001001","-1,16916916916917"
"3459","-1,12812812812813","4,87187187187187","-28,1281281281281","3,3003003003003","-2,1001001001001","-1,16916916916917"
"3459","-1,12812812812813","4,87187187187187","-28,1281281281281","3,3003003003003","-2,1001001001001","-1,16916916916917"
"3467","-2,12812812812813","4,87187187187187","-26,1281281281281","3,3003003003003","-2,1001001001001","-1,16916916916917"
"3467","-2,12812812812813","4,87187187187187","-26,1281281281281","2,3003003003003","-0,1001001001001","-3,16916916916917"
"3479","0,871871871871872","7,87187187187187","-27,1281281281281","2,3003003003003","-0,1001001001001","-3,16916916916917"
"3479","0,871871871871872","7,87187187187187","-27,1281281281281","0,3003003003003","0,8998998998999","-1,16916916916917"
"3483","0,871871871871872","7,87187187187187","-27,1281281281281","0,3003003003003","0,8998998998999","-1,16916916916917"
"3487","0,871871871871872","7,87187187187187","-27,1281281281281","-0,6996996996997","-0,1001001001001","-0,169169169169169"
"3500","-1,12812812812813","1,87187187187187","-25,1281281281281","-0,6996996996997","-0,1001001001001","-0,169169169169169"
"3500","-1,12812812812813","1,87187187187187","-25,1281281281281","-0,6996996996997","-1,1001001001001","-0,169169169169169"
"3508","0,871871871871872","3,87187187187187","-27,1281281281281","-0,6996996996997","-1,1001001001001","-0,169169169169169"
"3508","0,871871871871872","3,87187187187187","-27,1281281281281","-0,6996996996997","-1,1001001001001","-0,169169169169169"
"3516","-0,128128128128128","6,87187187187187","-25,1281281281281","-0,6996996996997","-1,1001001001001","-0,169169169169169"
"3520","-0,128128128128128","6,87187187187187","-25,1281281281281","1,3003003003003","-0,1001001001001","-2,16916916916917"
"3528","0,871871871871872","4,87187187187187","-25,1281281281281","1,3003003003003","-0,1001001001001","-2,16916916916917"
"3528","0,871871871871872","4,87187187187187","-25,1281281281281","2,3003003003003","-1,1001001001001","-3,16916916916917"
"3537","0,871871871871872","4,87187187187187","-25,1281281281281","2,3003003003003","-1,1001001001001","-3,16916916916917"
"3537","0,871871871871872","4,87187187187187","-25,1281281281281","1,3003003003003","-0,1001001001001","-1,16916916916917"
"3549","-0,128128128128128","4,87187187187187","-25,1281281281281","1,3003003003003","-0,1001001001001","-1,16916916916917"
"3549","-0,128128128128128","4,87187187187187","-25,1281281281281","1,3003003003003","-0,1001001001001","1,83083083083083"
"3557","-0,128128128128128","3,87187187187187","-28,1281281281281","1,3003003003003","-0,1001001001001","1,83083083083083"
"3561","-0,128128128128128","3,87187187187187","-28,1281281281281","1,3003003003003","-0,1001001001001","-1,16916916916917"
"3569","-0,128128128128128","1,87187187187187","-26,1281281281281","1,3003003003003","-0,1001001001001","-1,16916916916917"
"3569","-0,128128128128128","1,87187187187187","-26,1281281281281","1,3003003003003","-0,1001001001001","-1,16916916916917"
"3577","0,871871871871872","4,87187187187187","-26,1281281281281","1,3003003003003","-0,1001001001001","-1,16916916916917"
"3577","0,871871871871872","4,87187187187187","-26,1281281281281","3,3003003003003","-3,1001001001001","-0,169169169169169"
"3585","0,871871871871872","4,87187187187187","-26,1281281281281","3,3003003003003","-3,1001001001001","-0,169169169169169"
"3585","0,871871871871872","4,87187187187187","-26,1281281281281","2,3003003003003","1,8998998998999","-2,16916916916917"
"3597","-1,12812812812813","4,87187187187187","-27,1281281281281","2,3003003003003","1,8998998998999","-2,16916916916917"
"3597","-1,12812812812813","4,87187187187187","-27,1281281281281","1,3003003003003","1,8998998998999","-1,16916916916917"
"3605","-2,12812812812813","3,87187187187187","-29,1281281281281","1,3003003003003","1,8998998998999","-1,16916916916917"
"3609","-2,12812812812813","3,87187187187187","-29,1281281281281","1,3003003003003","0,8998998998999","0,830830830830831"
"3618","-1,12812812812813","5,87187187187187","-28,1281281281281","1,3003003003003","0,8998998998999","0,830830830830831"
"3618","-1,12812812812813","5,87187187187187","-28,1281281281281","3,3003003003003","-1,1001001001001","-0,169169169169169"
"3625","0,871871871871872","3,87187187187187","-25,1281281281281","3,3003003003003","-1,1001001001001","-0,169169169169169"
"3629","0,871871871871872","3,87187187187187","-25,1281281281281","3,3003003003003","-1,1001001001001","-0,169169169169169"
"3634","0,871871871871872","3,87187187187187","-25,1281281281281","3,3003003003003","-1,1001001001001","-0,169169169169169"
"3634","0,871871871871872","3,87187187187187","-25,1281281281281","5,3003003003003","-2,1001001001001","-0,169169169169169"
"3646","-0,128128128128128","4,87187187187187","-25,1281281281281","5,3003003003003","-2,1001001001001","-0,169169169169169"
"3650","-0,128128128128128","4,87187187187187","-25,1281281281281","-2,6996996996997","2,8998998998999","-3,16916916916917"
"3658","0,871871871871872","3,87187187187187","-27,1281281281281","-2,6996996996997","2,8998998998999","-3,16916916916917"
"3658","0,871871871871872","3,87187187187187","-27,1281281281281","-0,6996996996997","1,8998998998999","-1,16916916916917"
"3667","-1,12812812812813","4,87187187187187","-29,1281281281281","-0,6996996996997","1,8998998998999","-1,16916916916917"
"3667","-1,12812812812813","4,87187187187187","-29,1281281281281","1,3003003003003","0,8998998998999","-0,169169169169169"
"3679","0,871871871871872","4,87187187187187","-27,1281281281281","1,3003003003003","0,8998998998999","-0,169169169169169"
"3679","0,871871871871872","4,87187187187187","-27,1281281281281","-1,6996996996997","0,8998998998999","-2,16916916916917"
"3683","0,871871871871872","4,87187187187187","-27,1281281281281","-1,6996996996997","0,8998998998999","-2,16916916916917"
"3687","0,871871871871872","4,87187187187187","-27,1281281281281","0,3003003003003","1,8998998998999","-0,169169169169169"
"3699","-0,128128128128128","3,87187187187187","-26,1281281281281","0,3003003003003","1,8998998998999","-0,169169169169169"
"3700","-0,128128128128128","3,87187187187187","-26,1281281281281","0,3003003003003","0,8998998998999","-0,169169169169169"
"3708","-1,12812812812813","5,87187187187187","-28,1281281281281","0,3003003003003","0,8998998998999","-0,169169169169169"
"3708","-1,12812812812813","5,87187187187187","-28,1281281281281","1,3003003003003","0,8998998998999","-1,16916916916917"
"3716","-0,128128128128128","6,87187187187187","-26,1281281281281","1,3003003003003","0,8998998998999","-1,16916916916917"
"3720","-0,128128128128128","6,87187187187187","-26,1281281281281","1,3003003003003","0,8998998998999","-1,16916916916917"
"3728","-0,128128128128128","5,87187187187187","-26,1281281281281","1,3003003003003","0,8998998998999","-1,16916916916917"
"3728","-0,128128128128128","5,87187187187187","-26,1281281281281","4,3003003003003","0,8998998998999","-0,169169169169169"
"3736","-0,128128128128128","5,87187187187187","-26,1281281281281","4,3003003003003","0,8998998998999","-0,169169169169169"
"3736","-0,128128128128128","5,87187187187187","-26,1281281281281","4,3003003003003","1,8998998998999","-1,16916916916917"
"3749","-0,128128128128128","5,87187187187187","-27,1281281281281","4,3003003003003","1,8998998998999","-1,16916916916917"
"3749","-0,128128128128128","5,87187187187187","-27,1281281281281","1,3003003003003","-1,1001001001001","-2,16916916916917"
"3757","0,871871871871872","4,87187187187187","-30,1281281281281","1,3003003003003","-1,1001001001001","-2,16916916916917"
"3757","0,871871871871872","4,87187187187187","-30,1281281281281","0,3003003003003","-0,1001001001001","-0,169169169169169"
"3769","-1,12812812812813","3,87187187187187","-27,1281281281281","0,3003003003003","-0,1001001001001","-0,169169169169169"
"3769","-1,12812812812813","3,87187187187187","-27,1281281281281","0,3003003003003","0,8998998998999","-2,16916916916917"
"3777","-1,12812812812813","5,87187187187187","-28,1281281281281","0,3003003003003","0,8998998998999","-2,16916916916917"
"3778","-1,12812812812813","5,87187187187187","-28,1281281281281","0,3003003003003","0,8998998998999","-2,16916916916917"
"3786","-1,12812812812813","5,87187187187187","-28,1281281281281","0,3003003003003","0,8998998998999","-2,16916916916917"
"3786","-1,12812812812813","5,87187187187187","-28,1281281281281","-1,6996996996997","-0,1001001001001","-0,169169169169169"
"3798","-0,128128128128128","3,87187187187187","-26,1281281281281","-1,6996996996997","-0,1001001001001","-0,169169169169169"
"3798","-0,128128128128128","3,87187187187187","-26,1281281281281","-3,6996996996997","-0,1001001001001","-1,16916916916917"
"3806","-1,12812812812813","3,87187187187187","-28,1281281281281","-3,6996996996997","-0,1001001001001","-1,16916916916917"
"3810","-1,12812812812813","3,87187187187187","-28,1281281281281","-3,6996996996997","1,8998998998999","-3,16916916916917"
"3818","-2,12812812812813","7,87187187187187","-27,1281281281281","-3,6996996996997","1,8998998998999","-3,16916916916917"
"3818","-2,12812812812813","7,87187187187187","-27,1281281281281","-3,6996996996997","1,8998998998999","-3,16916916916917"
"3826","0,871871871871872","3,87187187187187","-26,1281281281281","-3,6996996996997","1,8998998998999","-3,16916916916917"
"3830","0,871871871871872","3,87187187187187","-26,1281281281281","1,3003003003003","-1,1001001001001","-0,169169169169169"
"3835","0,871871871871872","3,87187187187187","-26,1281281281281","1,3003003003003","-1,1001001001001","-0,169169169169169"
"3835","0,871871871871872","3,87187187187187","-26,1281281281281","3,3003003003003","0,8998998998999","-1,16916916916917"
"3847","-0,128128128128128","5,87187187187187","-24,1281281281281","3,3003003003003","0,8998998998999","-1,16916916916917"
"3847","-0,128128128128128","5,87187187187187","-24,1281281281281","1,3003003003003","0,8998998998999","-1,16916916916917"
"3859","1,87187187187187","3,87187187187187","-29,1281281281281","1,3003003003003","0,8998998998999","-1,16916916916917"
"3859","1,87187187187187","3,87187187187187","-29,1281281281281","3,3003003003003","-2,1001001001001","-0,169169169169169"
"3868","1,87187187187187","3,87187187187187","-29,1281281281281","3,3003003003003","-2,1001001001001","-0,169169169169169"
"3868","1,87187187187187","3,87187187187187","-29,1281281281281","3,3003003003003","-2,1001001001001","-0,169169169169169"
"3880","-1,12812812812813","4,87187187187187","-25,1281281281281","3,3003003003003","-2,1001001001001","-0,169169169169169"
"3880","-1,12812812812813","4,87187187187187","-25,1281281281281","-0,6996996996997","0,8998998998999","-1,16916916916917"
"3884","-1,12812812812813","4,87187187187187","-25,1281281281281","-0,6996996996997","0,8998998998999","-1,16916916916917"
"3888","-1,12812812812813","4,87187187187187","-25,1281281281281","1,3003003003003","-0,1001001001001","-0,169169169169169"
"3896","2,87187187187187","3,87187187187187","-25,1281281281281","1,3003003003003","-0,1001001001001","-0,169169169169169"
"3900","2,87187187187187","3,87187187187187","-25,1281281281281","1,3003003003003","-0,1001001001001","-3,16916916916917"
"3908","2,87187187187187","3,87187187187187","-25,1281281281281","1,3003003003003","-0,1001001001001","-3,16916916916917"
"3909","2,87187187187187","3,87187187187187","-25,1281281281281","0,3003003003003","0,8998998998999","-1,16916916916917"
"3917","-3,12812812812813","3,87187187187187","-26,1281281281281","0,3003003003003","0,8998998998999","-1,16916916916917"
"3920","-3,12812812812813","3,87187187187187","-26,1281281281281","1,3003003003003","-1,1001001001001","-1,16916916916917"
"3929","-1,12812812812813","3,87187187187187","-24,1281281281281","1,3003003003003","-1,1001001001001","-1,16916916916917"
"3929","-1,12812812812813","3,87187187187187","-24,1281281281281","1,3003003003003","-1,1001001001001","-1,16916916916917"
"3933","-1,12812812812813","3,87187187187187","-24,1281281281281","1,3003003003003","-1,1001001001001","-1,16916916916917"
"3937","-1,12812812812813","3,87187187187187","-24,1281281281281","-4,6996996996997","-3,1001001001001","1,83083083083083"
"3949","0,871871871871872","3,87187187187187","-23,1281281281281","-4,6996996996997","-3,1001001001001","1,83083083083083"
"3949","0,871871871871872","3,87187187187187","-23,1281281281281","-1,6996996996997","0,8998998998999","-1,16916916916917"
"3958","-0,128128128128128","3,87187187187187","-27,1281281281281","-1,6996996996997","0,8998998998999","-1,16916916916917"
"3958","-0,128128128128128","3,87187187187187","-27,1281281281281","3,3003003003003","-1,1001001001001","-1,16916916916917"
"3970","-0,128128128128128","3,87187187187187","-29,1281281281281","3,3003003003003","-1,1001001001001","-1,16916916916917"
"3970","-0,128128128128128","3,87187187187187","-29,1281281281281","-0,6996996996997","0,8998998998999","1,83083083083083"
"3978","-0,128128128128128","6,87187187187187","-25,1281281281281","-0,6996996996997","0,8998998998999","1,83083083083083"
"3978","-0,128128128128128","6,87187187187187","-25,1281281281281","-0,6996996996997","0,8998998998999","1,83083083083083"
"3986","-0,128128128128128","6,87187187187187","-25,1281281281281","-0,6996996996997","0,8998998998999","1,83083083083083"
"3986","-0,128128128128128","6,87187187187187","-25,1281281281281","-0,6996996996997","0,8998998998999","0,830830830830831"
"3999","-0,128128128128128","7,87187187187187","-25,1281281281281","-0,6996996996997","0,8998998998999","0,830830830830831"
"3999","-0,128128128128128","7,87187187187187","-25,1281281281281","-0,6996996996997","0,8998998998999","2,83083083083083"
"4007","0,871871871871872","3,87187187187187","-26,1281281281281","-0,6996996996997","0,8998998998999","2,83083083083083"
"4007","0,871871871871872","3,87187187187187","-26,1281281281281","-2,6996996996997","-0,1001001001001","1,83083083083083"
"4019","-2,12812812812813","3,87187187187187","-28,1281281281281","-2,6996996996997","-0,1001001001001","1,83083083083083"
"4019","-2,12812812812813","3,87187187187187","-28,1281281281281","-1,6996996996997","-0,1001001001001","-0,169169169169169"
"4027","-0,128128128128128","5,87187187187187","-26,1281281281281","-1,6996996996997","-0,1001001001001","-0,169169169169169"
"4027","-0,128128128128128","5,87187187187187","-26,1281281281281","4,3003003003003","-0,1001001001001","-0,169169169169169"
"4035","-0,128128128128128","5,87187187187187","-26,1281281281281","4,3003003003003","-0,1001001001001","-0,169169169169169"
"4036","-0,128128128128128","5,87187187187187","-26,1281281281281","0,3003003003003","-1,1001001001001","0,830830830830831"
"4047","-2,12812812812813","5,87187187187187","-25,1281281281281","0,3003003003003","-1,1001001001001","0,830830830830831"
"4047","-2,12812812812813","5,87187187187187","-25,1281281281281","0,3003003003003","-0,1001001001001","-0,169169169169169"
"4055","-2,12812812812813","4,87187187187187","-24,1281281281281","0,3003003003003","-0,1001001001001","-0,169169169169169"
"4055","-2,12812812812813","4,87187187187187","-24,1281281281281","2,3003003003003","-2,1001001001001","-0,169169169169169"
"4067","-1,12812812812813","7,87187187187187","-28,1281281281281","2,3003003003003","-2,1001001001001","-0,169169169169169"
"4067","-1,12812812812813","7,87187187187187","-28,1281281281281","2,3003003003003","-2,1001001001001","0,830830830830831"
"4075","-2,12812812812813","5,87187187187187","-25,1281281281281","2,3003003003003","-2,1001001001001","0,830830830830831"
"4075","-2,12812812812813","5,87187187187187","-25,1281281281281","2,3003003003003","-2,1001001001001","-1,16916916916917"
"4084","-1,12812812812813","5,87187187187187","-27,1281281281281","2,3003003003003","-2,1001001001001","-1,16916916916917"
"4084","-1,12812812812813","5,87187187187187","-27,1281281281281","-0,6996996996997","-1,1001001001001","0,830830830830831"
"4096","-0,128128128128128","3,87187187187187","-26,1281281281281","-0,6996996996997","-1,1001001001001","0,830830830830831"
"4096","-0,128128128128128","3,87187187187187","-26,1281281281281","-2,6996996996997","1,8998998998999","-0,169169169169169"
"4104","-1,12812812812813","4,87187187187187","-26,1281281281281","-2,6996996996997","1,8998998998999","-0,169169169169169"
"4104","-1,12812812812813","4,87187187187187","-26,1281281281281","-2,6996996996997","-0,1001001001001","0,830830830830831"
"4116","-1,12812812812813","4,87187187187187","-28,1281281281281","-2,6996996996997","-0,1001001001001","0,830830830830831"
"4116","-1,12812812812813","4,87187187187187","-28,1281281281281","-1,6996996996997","-0,1001001001001","2,83083083083083"
"4124","0,871871871871872","5,87187187187187","-28,1281281281281","-1,6996996996997","-0,1001001001001","2,83083083083083"
"4125","0,871871871871872","5,87187187187187","-28,1281281281281","-0,6996996996997","-1,1001001001001","-1,16916916916917"
"4133","0,871871871871872","3,87187187187187","-24,1281281281281","-0,6996996996997","-1,1001001001001","-1,16916916916917"
"4133","0,871871871871872","3,87187187187187","-24,1281281281281","2,3003003003003","0,8998998998999","1,83083083083083"
"4145","-0,128128128128128","5,87187187187187","-25,1281281281281","2,3003003003003","0,8998998998999","1,83083083083083"
"4145","-0,128128128128128","5,87187187187187","-25,1281281281281","3,3003003003003","1,8998998998999","-0,169169169169169"
"4153","1,87187187187187","4,87187187187187","-25,1281281281281","3,3003003003003","1,8998998998999","-0,169169169169169"
"4153","1,87187187187187","4,87187187187187","-25,1281281281281","2,3003003003003","-1,1001001001001","-1,16916916916917"
"4161","-0,128128128128128","3,87187187187187","-30,1281281281281","2,3003003003003","-1,1001001001001","-1,16916916916917"
"4165","-0,128128128128128","3,87187187187187","-30,1281281281281","2,3003003003003","-2,1001001001001","-2,16916916916917"
"4174","2,87187187187187","5,87187187187187","-28,1281281281281","2,3003003003003","-2,1001001001001","-2,16916916916917"
"4174","2,87187187187187","5,87187187187187","-28,1281281281281","0,3003003003003","-1,1001001001001","0,830830830830831"
"4182","-1,12812812812813","4,87187187187187","-25,1281281281281","0,3003003003003","-1,1001001001001","0,830830830830831"
"4182","-1,12812812812813","4,87187187187187","-25,1281281281281","0,3003003003003","-0,1001001001001","1,83083083083083"
"4194","-1,12812812812813","7,87187187187187","-27,1281281281281","0,3003003003003","-0,1001001001001","1,83083083083083"
"4194","-1,12812812812813","7,87187187187187","-27,1281281281281","1,3003003003003","-1,1001001001001","-2,16916916916917"
"4202","-1,12812812812813","4,87187187187187","-25,1281281281281","1,3003003003003","-1,1001001001001","-2,16916916916917"
"4203","-1,12812812812813","4,87187187187187","-25,1281281281281","0,3003003003003","-3,1001001001001","-1,16916916916917"
"4219","-0,128128128128128","4,87187187187187","-28,1281281281281","0,3003003003003","-3,1001001001001","-1,16916916916917"
"4219","-0,128128128128128","4,87187187187187","-28,1281281281281","2,3003003003003","-2,1001001001001","-0,169169169169169"
"4223","-0,128128128128128","4,87187187187187","-28,1281281281281","2,3003003003003","-2,1001001001001","-0,169169169169169"
"4227","-0,128128128128128","4,87187187187187","-28,1281281281281","1,3003003003003","-2,1001001001001","-2,16916916916917"
"4231","0,871871871871872","7,87187187187187","-27,1281281281281","1,3003003003003","-2,1001001001001","-2,16916916916917"
"4231","0,871871871871872","7,87187187187187","-27,1281281281281","3,3003003003003","-1,1001001001001","0,830830830830831"
"4243","0,871871871871872","3,87187187187187","-25,1281281281281","3,3003003003003","-1,1001001001001","0,830830830830831"
"4243","0,871871871871872","3,87187187187187","-25,1281281281281","0,3003003003003","-2,1001001001001","-0,169169169169169"
"4251","-0,128128128128128","6,87187187187187","-26,1281281281281","0,3003003003003","-2,1001001001001","-0,169169169169169"
"4252","-0,128128128128128","6,87187187187187","-26,1281281281281","4,3003003003003","-2,1001001001001","-1,16916916916917"
"4260","-0,128128128128128","6,87187187187187","-29,1281281281281","4,3003003003003","-2,1001001001001","-1,16916916916917"
"4264","-0,128128128128128","6,87187187187187","-29,1281281281281","4,3003003003003","-3,1001001001001","0,830830830830831"
"4272","-0,128128128128128","4,87187187187187","-24,1281281281281","4,3003003003003","-3,1001001001001","0,830830830830831"
"4272","-0,128128128128128","4,87187187187187","-24,1281281281281","-0,6996996996997","-3,1001001001001","2,83083083083083"
"4280","-1,12812812812813","4,87187187187187","-26,1281281281281","-0,6996996996997","-3,1001001001001","2,83083083083083"
"4284","-1,12812812812813","4,87187187187187","-26,1281281281281","-1,6996996996997","0,8998998998999","-0,169169169169169"
"4292","0,871871871871872","4,87187187187187","-27,1281281281281","-1,6996996996997","0,8998998998999","-0,169169169169169"
"4293","0,871871871871872","4,87187187187187","-27,1281281281281","-0,6996996996997","-1,1001001001001","-1,16916916916917"
"4301","-2,12812812812813","4,87187187187187","-28,1281281281281","-0,6996996996997","-1,1001001001001","-1,16916916916917"
"4301","-2,12812812812813","4,87187187187187","-28,1281281281281","1,3003003003003","-0,1001001001001","-0,169169169169169"
"4313","-0,128128128128128","3,87187187187187","-28,1281281281281","1,3003003003003","-0,1001001001001","-0,169169169169169"
"4313","-0,128128128128128","3,87187187187187","-28,1281281281281","0,3003003003003","-3,1001001001001","-1,16916916916917"
"4321","-0,128128128128128","5,87187187187187","-27,1281281281281","0,3003003003003","-3,1001001001001","-1,16916916916917"
"4321","-0,128128128128128","5,87187187187187","-27,1281281281281","-0,6996996996997","-0,1001001001001","-1,16916916916917"
"4333","-1,12812812812813","4,87187187187187","-26,1281281281281","-0,6996996996997","-0,1001001001001","-1,16916916916917"
"4333","-1,12812812812813","4,87187187187187","-26,1281281281281","1,3003003003003","-3,1001001001001","-0,169169169169169"
"4342","0,871871871871872","3,87187187187187","-25,1281281281281","1,3003003003003","-3,1001001001001","-0,169169169169169"
"4342","0,871871871871872","3,87187187187187","-25,1281281281281","3,3003003003003","-1,1001001001001","-0,169169169169169"
"4350","-0,128128128128128","4,87187187187187","-26,1281281281281","3,3003003003003","-1,1001001001001","-0,169169169169169"
"4354","-0,128128128128128","4,87187187187187","-26,1281281281281","0,3003003003003","0,8998998998999","0,830830830830831"
"4362","-1,12812812812813","6,87187187187187","-28,1281281281281","0,3003003003003","0,8998998998999","0,830830830830831"
"4362","-1,12812812812813","6,87187187187187","-28,1281281281281","0,3003003003003","-1,1001001001001","-0,169169169169169"
"4370","-0,128128128128128","3,87187187187187","-26,1281281281281","0,3003003003003","-1,1001001001001","-0,169169169169169"
"4374","-0,128128128128128","3,87187187187187","-26,1281281281281","-3,6996996996997","0,8998998998999","-2,16916916916917"
"4382","-0,128128128128128","3,87187187187187","-26,1281281281281","-3,6996996996997","0,8998998998999","-2,16916916916917"
"4383","-0,128128128128128","3,87187187187187","-26,1281281281281","-1,6996996996997","-1,1001001001001","0,830830830830831"
"4391","-1,12812812812813","6,87187187187187","-28,1281281281281","-1,6996996996997","-1,1001001001001","0,830830830830831"
"4391","-1,12812812812813","6,87187187187187","-28,1281281281281","0,3003003003003","-0,1001001001001","-0,169169169169169"
"4403","0,871871871871872","4,87187187187187","-25,1281281281281","0,3003003003003","-0,1001001001001","-0,169169169169169"
"4403","0,871871871871872","4,87187187187187","-25,1281281281281","-0,6996996996997","-2,1001001001001","0,830830830830831"
"4411","-0,128128128128128","3,87187187187187","-26,1281281281281","-0,6996996996997","-2,1001001001001","0,830830830830831"
"4411","-0,128128128128128","3,87187187187187","-26,1281281281281","-2,6996996996997","-0,1001001001001","0,830830830830831"
"4423","1,87187187187187","5,87187187187187","-29,1281281281281","-2,6996996996997","-0,1001001001001","0,830830830830831"
"4424","1,87187187187187","5,87187187187187","-29,1281281281281","1,3003003003003","0,8998998998999","-1,16916916916917"
"4432","-0,128128128128128","5,87187187187187","-26,1281281281281","1,3003003003003","0,8998998998999","-1,16916916916917"
"4432","-0,128128128128128","5,87187187187187","-26,1281281281281","-1,6996996996997","-0,1001001001001","0,830830830830831"
"4440","-1,12812812812813","3,87187187187187","-26,1281281281281","-1,6996996996997","-0,1001001001001","0,830830830830831"
"4444","-1,12812812812813","3,87187187187187","-26,1281281281281","-1,6996996996997","0,8998998998999","1,83083083083083"
"4452","-0,128128128128128","2,87187187187187","-26,1281281281281","-1,6996996996997","0,8998998998999","1,83083083083083"
"4452","-0,128128128128128","2,87187187187187","-26,1281281281281","0,3003003003003","-1,1001001001001","-1,16916916916917"
"4460","-1,12812812812813","5,87187187187187","-27,1281281281281","0,3003003003003","-1,1001001001001","-1,16916916916917"
"4464","-1,12812812812813","5,87187187187187","-27,1281281281281","-1,6996996996997","0,8998998998999","1,83083083083083"
"4473","-2,12812812812813","3,87187187187187","-25,1281281281281","-1,6996996996997","0,8998998998999","1,83083083083083"
"4473","-2,12812812812813","3,87187187187187","-25,1281281281281","0,3003003003003","-1,1001001001001","-0,169169169169169"
"4481","-0,128128128128128","3,87187187187187","-25,1281281281281","0,3003003003003","-1,1001001001001","-0,169169169169169"
"4481","-0,128128128128128","3,87187187187187","-25,1281281281281","3,3003003003003","0,8998998998999","-0,169169169169169"
"4493","-0,128128128128128","3,87187187187187","-23,1281281281281","3,3003003003003","0,8998998998999","-0,169169169169169"
"4493","-0,128128128128128","3,87187187187187","-23,1281281281281","3,3003003003003","-0,1001001001001","0,830830830830831"
"4501","-0,128128128128128","7,87187187187187","-27,1281281281281","3,3003003003003","-0,1001001001001","0,830830830830831"
"4501","-0,128128128128128","7,87187187187187","-27,1281281281281","0,3003003003003","-0,1001001001001","-1,16916916916917"
"4513","-2,12812812812813","3,87187187187187","-29,1281281281281","0,3003003003003","-0,1001001001001","-1,16916916916917"
"4514","-2,12812812812813","3,87187187187187","-29,1281281281281","-2,6996996996997","0,8998998998999","-0,169169169169169"
"4522","-1,12812812812813","5,87187187187187","-29,1281281281281","-2,6996996996997","0,8998998998999","-0,169169169169169"
"4522","-1,12812812812813","5,87187187187187","-29,1281281281281","-0,6996996996997","0,8998998998999","0,830830830830831"
"4530","-0,128128128128128","5,87187187187187","-25,1281281281281","-0,6996996996997","0,8998998998999","0,830830830830831"
"4534","-0,128128128128128","5,87187187187187","-25,1281281281281","-2,6996996996997","-1,1001001001001","-1,16916916916917"
"4542","0,871871871871872","5,87187187187187","-26,1281281281281","-2,6996996996997","-1,1001001001001","-1,16916916916917"
"4542","0,871871871871872","5,87187187187187","-26,1281281281281","-3,6996996996997","-1,1001001001001","-1,16916916916917"
"4550","-1,12812812812813","3,87187187187187","-25,1281281281281","-3,6996996996997","-1,1001001001001","-1,16916916916917"
"4554","-1,12812812812813","3,87187187187187","-25,1281281281281","0,3003003003003","-0,1001001001001","-1,16916916916917"
"4563","-0,128128128128128","3,87187187187187","-27,1281281281281","0,3003003003003","-0,1001001001001","-1,16916916916917"
"4563","-0,128128128128128","3,87187187187187","-27,1281281281281","0,3003003003003","-2,1001001001001","-0,169169169169169"
"4571","-1,12812812812813","4,87187187187187","-27,1281281281281","0,3003003003003","-2,1001001001001","-0,169169169169169"
"4571","-1,12812812812813","4,87187187187187","-27,1281281281281","-0,6996996996997","0,8998998998999","-2,16916916916917"
"4583","-0,128128128128128","3,87187187187187","-25,1281281281281","-0,6996996996997","0,8998998998999","-2,16916916916917"
"4583","-0,128128128128128","3,87187187187187","-25,1281281281281","-0,6996996996997","-0,1001001001001","-0,169169169169169"
"4591","-0,128128128128128","6,87187187187187","-26,1281281281281","-0,6996996996997","-0,1001001001001","-0,169169169169169"
"4591","-0,128128128128128","6,87187187187187","-26,1281281281281","1,3003003003003","2,8998998998999","1,83083083083083"
"4604","1,87187187187187","4,87187187187187","-28,1281281281281","1,3003003003003","2,8998998998999","1,83083083083083"
"4604","1,87187187187187","4,87187187187187","-28,1281281281281","-1,6996996996997","-0,1001001001001","0,830830830830831"
"4612","-2,12812812812813","5,87187187187187","-26,1281281281281","-1,6996996996997","-0,1001001001001","0,830830830830831"
"4612","-2,12812812812813","5,87187187187187","-26,1281281281281","-1,6996996996997","0,8998998998999","0,830830830830831"
"4620","-2,12812812812813","5,87187187187187","-25,1281281281281","-1,6996996996997","0,8998998998999","0,830830830830831"
"4624","-2,12812812812813","5,87187187187187","-25,1281281281281","-1,6996996996997","-3,1001001001001","0,830830830830831"
"4632","-1,12812812812813","6,87187187187187","-26,1281281281281","-1,6996996996997","-3,1001001001001","0,830830830830831"
"4633","-1,12812812812813","6,87187187187187","-26,1281281281281","-2,6996996996997","-1,1001001001001","-1,16916916916917"
"4641","0,871871871871872","4,87187187187187","-25,1281281281281","-2,6996996996997","-1,1001001001001","-1,16916916916917"
"4644","0,871871871871872","4,87187187187187","-25,1281281281281","-2,6996996996997","-1,1001001001001","1,83083083083083"
"4653","-1,12812812812813","3,87187187187187","-27,1281281281281","-2,6996996996997","-1,1001001001001","1,83083083083083"
"4653","-1,12812812812813","3,87187187187187","-27,1281281281281","-2,6996996996997","1,8998998998999","1,83083083083083"
"4661","-0,128128128128128","4,87187187187187","-28,1281281281281","-2,6996996996997","1,8998998998999","1,83083083083083"
"4661","-0,128128128128128","4,87187187187187","-28,1281281281281","-3,6996996996997","0,8998998998999","0,830830830830831"
"4673","-1,12812812812813","7,87187187187187","-28,1281281281281","-3,6996996996997","0,8998998998999","0,830830830830831"
"4673","-1,12812812812813","7,87187187187187","-28,1281281281281","0,3003003003003","-0,1001001001001","-0,169169169169169"
"4682","-0,128128128128128","3,87187187187187","-25,1281281281281","0,3003003003003","-0,1001001001001","-0,169169169169169"
"4682","-0,128128128128128","3,87187187187187","-25,1281281281281","0,3003003003003","0,8998998998999","0,830830830830831"
"4694","-0,128128128128128","2,87187187187187","-26,1281281281281","0,3003003003003","0,8998998998999","0,830830830830831"
"4694","-0,128128128128128","2,87187187187187","-26,1281281281281","-0,6996996996997","-1,1001001001001","-1,16916916916917"
"4702","-1,12812812812813","7,87187187187187","-25,1281281281281","-0,6996996996997","-1,1001001001001","-1,16916916916917"
"4702","-1,12812812812813","7,87187187187187","-25,1281281281281","2,3003003003003","-1,1001001001001","1,83083083083083"
"4710","2,87187187187187","3,87187187187187","-29,1281281281281","2,3003003003003","-1,1001001001001","1,83083083083083"
"4714","2,87187187187187","3,87187187187187","-29,1281281281281","-3,6996996996997","-0,1001001001001","-0,169169169169169"
"4723","-0,128128128128128","3,87187187187187","-25,1281281281281","-3,6996996996997","-0,1001001001001","-0,169169169169169"
"4723","-0,128128128128128","3,87187187187187","-25,1281281281281","-0,6996996996997","1,8998998998999","0,830830830830831"
"4731","-0,128128128128128","4,87187187187187","-26,1281281281281","-0,6996996996997","1,8998998998999","0,830830830830831"
"4731","-0,128128128128128","4,87187187187187","-26,1281281281281","3,3003003003003","-0,1001001001001","0,830830830830831"
"4743","0,871871871871872","6,87187187187187","-27,1281281281281","3,3003003003003","-0,1001001001001","0,830830830830831"
"4743","0,871871871871872","6,87187187187187","-27,1281281281281","-2,6996996996997","1,8998998998999","-1,16916916916917"
"4751","0,871871871871872","3,87187187187187","-28,1281281281281","-2,6996996996997","1,8998998998999","-1,16916916916917"
"4751","0,871871871871872","3,87187187187187","-28,1281281281281","-2,6996996996997","-0,1001001001001","0,830830830830831"
"4763","0,871871871871872","3,87187187187187","-28,1281281281281","-2,6996996996997","-0,1001001001001","0,830830830830831"
"4764","0,871871871871872","3,87187187187187","-28,1281281281281","0,3003003003003","1,8998998998999","-0,169169169169169"
"4772","-1,12812812812813","5,87187187187187","-28,1281281281281","0,3003003003003","1,8998998998999","-0,169169169169169"
"4772","-1,12812812812813","5,87187187187187","-28,1281281281281","0,3003003003003","0,8998998998999","-1,16916916916917"
"4780","-1,12812812812813","3,87187187187187","-25,1281281281281","0,3003003003003","0,8998998998999","-1,16916916916917"
"4784","-1,12812812812813","3,87187187187187","-25,1281281281281","0,3003003003003","0,8998998998999","-0,169169169169169"
"4792","-1,12812812812813","3,87187187187187","-25,1281281281281","0,3003003003003","0,8998998998999","-0,169169169169169"
"4792","-1,12812812812813","3,87187187187187","-25,1281281281281","0,3003003003003","0,8998998998999","-2,16916916916917"
"4800","-1,12812812812813","6,87187187187187","-27,1281281281281","0,3003003003003","0,8998998998999","-2,16916916916917"
"4804","-1,12812812812813","6,87187187187187","-27,1281281281281","1,3003003003003","-2,1001001001001","-1,16916916916917"
"4813","-0,128128128128128","4,87187187187187","-27,1281281281281","1,3003003003003","-2,1001001001001","-1,16916916916917"
"4813","-0,128128128128128","4,87187187187187","-27,1281281281281","-1,6996996996997","0,8998998998999","-0,169169169169169"
"4821","-1,12812812812813","3,87187187187187","-26,1281281281281","-1,6996996996997","0,8998998998999","-0,169169169169169"
"4825","-1,12812812812813","3,87187187187187","-26,1281281281281","-2,6996996996997","-0,1001001001001","-1,16916916916917"
"4833","-0,128128128128128","5,87187187187187","-26,1281281281281","-2,6996996996997","-0,1001001001001","-1,16916916916917"
"4833","-0,128128128128128","5,87187187187187","-26,1281281281281","0,3003003003003","0,8998998998999","-0,169169169169169"
"4841","0,871871871871872","5,87187187187187","-26,1281281281281","0,3003003003003","0,8998998998999","-0,169169169169169"
"4841","0,871871871871872","5,87187187187187","-26,1281281281281","-1,6996996996997","-1,1001001001001","0,830830830830831"
"4853","-1,12812812812813","3,87187187187187","-27,1281281281281","-1,6996996996997","-1,1001001001001","0,830830830830831"
"4853","-1,12812812812813","3,87187187187187","-27,1281281281281","-1,6996996996997","0,8998998998999","-0,169169169169169"
"4862","-0,128128128128128","4,87187187187187","-29,1281281281281","-1,6996996996997","0,8998998998999","-0,169169169169169"
"4862","-0,128128128128128","4,87187187187187","-29,1281281281281","1,3003003003003","1,8998998998999","-0,169169169169169"
"4870","0,871871871871872","5,87187187187187","-27,1281281281281","1,3003003003003","1,8998998998999","-0,169169169169169"
"4874","0,871871871871872","5,87187187187187","-27,1281281281281","1,3003003003003","-1,1001001001001","0,830830830830831"
"4882","-2,12812812812813","6,87187187187187","-23,1281281281281","1,3003003003003","-1,1001001001001","0,830830830830831"
"4882","-2,12812812812813","6,87187187187187","-23,1281281281281","0,3003003003003","-0,1001001001001","0,830830830830831"
"4890","-0,128128128128128","3,87187187187187","-25,1281281281281","0,3003003003003","-0,1001001001001","0,830830830830831"
"4894","-0,128128128128128","3,87187187187187","-25,1281281281281","0,3003003003003","0,8998998998999","0,830830830830831"
"4903","0,871871871871872","6,87187187187187","-28,1281281281281","0,3003003003003","0,8998998998999","0,830830830830831"
"4903","0,871871871871872","6,87187187187187","-28,1281281281281","3,3003003003003","-2,1001001001001","-0,169169169169169"
"4911","-0,128128128128128","5,87187187187187","-26,1281281281281","3,3003003003003","-2,1001001001001","-0,169169169169169"
"4915","-0,128128128128128","5,87187187187187","-26,1281281281281","4,3003003003003","-1,1001001001001","-1,16916916916917"
"4923","-1,12812812812813","3,87187187187187","-26,1281281281281","4,3003003003003","-1,1001001001001","-1,16916916916917"
"4923","-1,12812812812813","3,87187187187187","-26,1281281281281","-1,6996996996997","0,8998998998999","-0,169169169169169"
"4931","2,87187187187187","4,87187187187187","-27,1281281281281","-1,6996996996997","0,8998998998999","-0,169169169169169"
"4931","2,87187187187187","4,87187187187187","-27,1281281281281","2,3003003003003","-0,1001001001001","-3,16916916916917"
"4944","0,871871871871872","6,87187187187187","-28,1281281281281","2,3003003003003","-0,1001001001001","-3,16916916916917"
"4944","0,871871871871872","6,87187187187187","-28,1281281281281","2,3003003003003","-3,1001001001001","-1,16916916916917"
"4952","0,871871871871872","3,87187187187187","-24,1281281281281","2,3003003003003","-3,1001001001001","-1,16916916916917"
"4952","0,871871871871872","3,87187187187187","-24,1281281281281","3,3003003003003","-0,1001001001001","-0,169169169169169"
"4960","-1,12812812812813","3,87187187187187","-27,1281281281281","3,3003003003003","-0,1001001001001","-0,169169169169169"
"4964","-1,12812812812813","3,87187187187187","-27,1281281281281","1,3003003003003","-2,1001001001001","-1,16916916916917"
"4972","-0,128128128128128","6,87187187187187","-28,1281281281281","1,3003003003003","-2,1001001001001","-1,16916916916917"
"4973","-0,128128128128128","6,87187187187187","-28,1281281281281","0,3003003003003","-0,1001001001001","-1,16916916916917"
"4981","-1,12812812812813","5,87187187187187","-26,1281281281281","0,3003003003003","-0,1001001001001","-1,16916916916917"
"4985","-1,12812812812813","5,87187187187187","-26,1281281281281","1,3003003003003","-1,1001001001001","0,830830830830831"
"4993","-2,12812812812813","3,87187187187187","-25,1281281281281","1,3003003003003","-1,1001001001001","0,830830830830831"
"4993","-2,12812812812813","3,87187187187187","-25,1281281281281","0,3003003003003","-2,1001001001001","0,830830830830831"
"5001","-0,128128128128128","5,87187187187187","-25,1281281281281","0,3003003003003","-2,1001001001001","0,830830830830831"
"5001","-0,128128128128128","5,87187187187187","-25,1281281281281","-0,6996996996997","-1,1001001001001","-0,169169169169169"
"5013","-0,128128128128128","4,87187187187187","-28,1281281281281","-0,6996996996997","-1,1001001001001","-0,169169169169169"
"5013","-0,128128128128128","4,87187187187187","-28,1281281281281","1,3003003003003","-2,1001001001001","-2,16916916916917"
"5022","-0,128128128128128","3,87187187187187","-28,1281281281281","1,3003003003003","-2,1001001001001","-2,16916916916917"
"5022","-0,128128128128128","3,87187187187187","-28,1281281281281","-0,6996996996997","-0,1001001001001","1,83083083083083"
"5034","-0,128128128128128","3,87187187187187","-25,1281281281281","-0,6996996996997","-0,1001001001001","1,83083083083083"
"5034","-0,128128128128128","3,87187187187187","-25,1281281281281","0,3003003003003","-2,1001001001001","-0,169169169169169"
"5042","-0,128128128128128","6,87187187187187","-28,1281281281281","0,3003003003003","-2,1001001001001","-0,169169169169169"
"5042","-0,128128128128128","6,87187187187187","-28,1281281281281","1,3003003003003","-1,1001001001001","-1,16916916916917"
"5050","-1,12812812812813","2,87187187187187","-25,1281281281281","1,3003003003003","-1,1001001001001","-1,16916916916917"
"5054","-1,12812812812813","2,87187187187187","-25,1281281281281","0,3003003003003","0,8998998998999","-1,16916916916917"
"5062","1,87187187187187","3,87187187187187","-28,1281281281281","0,3003003003003","0,8998998998999","-1,16916916916917"
"5063","1,87187187187187","3,87187187187187","-28,1281281281281","1,3003003003003","-0,1001001001001","0,830830830830831"
"5071","-1,12812812812813","6,87187187187187","-26,1281281281281","1,3003003003003","-0,1001001001001","0,830830830830831"
"5075","-1,12812812812813","6,87187187187187","-26,1281281281281","0,3003003003003","-2,1001001001001","-0,169169169169169"
"5083","-0,128128128128128","5,87187187187187","-26,1281281281281","0,3003003003003","-2,1001001001001","-0,169169169169169"
"5083","-0,128128128128128","5,87187187187187","-26,1281281281281","-0,6996996996997","0,8998998998999","3,83083083083083"
"5091","-0,128128128128128","5,87187187187187","-28,1281281281281","-0,6996996996997","0,8998998998999","3,83083083083083"
"5091","-0,128128128128128","5,87187187187187","-28,1281281281281","1,3003003003003","0,8998998998999","1,83083083083083"
"5103","-1,12812812812813","4,87187187187187","-27,1281281281281","1,3003003003003","0,8998998998999","1,83083083083083"
"5104","-1,12812812812813","4,87187187187187","-27,1281281281281","-0,6996996996997","-1,1001001001001","-2,16916916916917"
"5112","0,871871871871872","3,87187187187187","-26,1281281281281","-0,6996996996997","-1,1001001001001","-2,16916916916917"
"5112","0,871871871871872","3,87187187187187","-26,1281281281281","-0,6996996996997","-0,1001001001001","-1,16916916916917"
"5124","-2,12812812812813","4,87187187187187","-26,1281281281281","-0,6996996996997","-0,1001001001001","-1,16916916916917"
"5124","-2,12812812812813","4,87187187187187","-26,1281281281281","-2,6996996996997","-0,1001001001001","-0,169169169169169"
"5132","-0,128128128128128","3,87187187187187","-24,1281281281281","-2,6996996996997","-0,1001001001001","-0,169169169169169"
"5132","-0,128128128128128","3,87187187187187","-24,1281281281281","-0,6996996996997","-1,1001001001001","-0,169169169169169"
"5140","-0,128128128128128","5,87187187187187","-28,1281281281281","-0,6996996996997","-1,1001001001001","-0,169169169169169"
"5144","-0,128128128128128","5,87187187187187","-28,1281281281281","-0,6996996996997","0,8998998998999","0,830830830830831"
"5153","-0,128128128128128","4,87187187187187","-26,1281281281281","-0,6996996996997","0,8998998998999","0,830830830830831"
"5153","-0,128128128128128","4,87187187187187","-26,1281281281281","0,3003003003003","-1,1001001001001","1,83083083083083"
"5161","1,87187187187187","5,87187187187187","-28,1281281281281","0,3003003003003","-1,1001001001001","1,83083083083083"
"5165","1,87187187187187","5,87187187187187","-28,1281281281281","-0,6996996996997","-1,1001001001001","-1,16916916916917"
"5173","-0,128128128128128","4,87187187187187","-28,1281281281281","-0,6996996996997","-1,1001001001001","-1,16916916916917"
"5173","-0,128128128128128","4,87187187187187","-28,1281281281281","3,3003003003003","-2,1001001001001","0,830830830830831"
"5181","-0,128128128128128","3,87187187187187","-25,1281281281281","3,3003003003003","-2,1001001001001","0,830830830830831"
"5181","-0,128128128128128","3,87187187187187","-25,1281281281281","2,3003003003003","-1,1001001001001","1,83083083083083"
"5193","0,871871871871872","4,87187187187187","-23,1281281281281","2,3003003003003","-1,1001001001001","1,83083083083083"
"5194","0,871871871871872","4,87187187187187","-23,1281281281281","-0,6996996996997","-2,1001001001001","-2,16916916916917"
"5202","-1,12812812812813","3,87187187187187","-26,1281281281281","-0,6996996996997","-2,1001001001001","-2,16916916916917"
"5202","-1,12812812812813","3,87187187187187","-26,1281281281281","2,3003003003003","-3,1001001001001","-0,169169169169169"
"5214","0,871871871871872","5,87187187187187","-27,1281281281281","2,3003003003003","-3,1001001001001","-0,169169169169169"
"5214","0,871871871871872","5,87187187187187","-27,1281281281281","-1,6996996996997","-3,1001001001001","-1,16916916916917"
"5222","-0,128128128128128","2,87187187187187","-27,1281281281281","-1,6996996996997","-3,1001001001001","-1,16916916916917"
"5222","-0,128128128128128","2,87187187187187","-27,1281281281281","1,3003003003003","-4,1001001001001","-1,16916916916917"
"5230","-2,12812812812813","4,87187187187187","-24,1281281281281","1,3003003003003","-4,1001001001001","-1,16916916916917"
"5234","-2,12812812812813","4,87187187187187","-24,1281281281281","1,3003003003003","-2,1001001001001","0,830830830830831"
"5243","0,871871871871872","4,87187187187187","-25,1281281281281","1,3003003003003","-2,1001001001001","0,830830830830831"
"5243","0,871871871871872","4,87187187187187","-25,1281281281281","4,3003003003003","-1,1001001001001","-0,169169169169169"
"5251","-1,12812812812813","3,87187187187187","-27,1281281281281","4,3003003003003","-1,1001001001001","-0,169169169169169"
"5255","-1,12812812812813","3,87187187187187","-27,1281281281281","2,3003003003003","-1,1001001001001","2,83083083083083"
"5263","-0,128128128128128","4,87187187187187","-29,1281281281281","2,3003003003003","-1,1001001001001","2,83083083083083"
"5263","-0,128128128128128","4,87187187187187","-29,1281281281281","1,3003003003003","-1,1001001001001","1,83083083083083"
"5271","0,871871871871872","5,87187187187187","-27,1281281281281","1,3003003003003","-1,1001001001001","1,83083083083083"
"5272","0,871871871871872","5,87187187187187","-27,1281281281281","-0,6996996996997","-2,1001001001001","-0,169169169169169"
"5284","1,87187187187187","6,87187187187187","-27,1281281281281","-0,6996996996997","-2,1001001001001","-0,169169169169169"
"5284","1,87187187187187","6,87187187187187","-27,1281281281281","-1,6996996996997","-1,1001001001001","-0,169169169169169"
"5292","-0,128128128128128","3,87187187187187","-22,1281281281281","-1,6996996996997","-1,1001001001001","-0,169169169169169"
"5292","-0,128128128128128","3,87187187187187","-22,1281281281281","-1,6996996996997","-1,1001001001001","0,830830830830831"
"5304","-1,12812812812813","3,87187187187187","-25,1281281281281","-1,6996996996997","-1,1001001001001","0,830830830830831"
"5304","-1,12812812812813","3,87187187187187","-25,1281281281281","4,3003003003003","-0,1001001001001","-0,169169169169169"
"5312","1,87187187187187","6,87187187187187","-31,1281281281281","4,3003003003003","-0,1001001001001","-0,169169169169169"
"5313","1,87187187187187","6,87187187187187","-31,1281281281281","0,3003003003003","-3,1001001001001","0,830830830830831"
"5321","-0,128128128128128","2,87187187187187","-26,1281281281281","0,3003003003003","-3,1001001001001","0,830830830830831"
"5324","-0,128128128128128","2,87187187187187","-26,1281281281281","1,3003003003003","-0,1001001001001","-0,169169169169169"
"5333","-1,12812812812813","3,87187187187187","-27,1281281281281","1,3003003003003","-0,1001001001001","-0,169169169169169"
"5333","-1,12812812812813","3,87187187187187","-27,1281281281281","0,3003003003003","0,8998998998999","0,830830830830831"
"5341","0,871871871871872","5,87187187187187","-25,1281281281281","0,3003003003003","0,8998998998999","0,830830830830831"
"5345","0,871871871871872","5,87187187187187","-25,1281281281281","0,3003003003003","-5,1001001001001","-1,16916916916917"
"5353","-1,12812812812813","5,87187187187187","-25,1281281281281","0,3003003003003","-5,1001001001001","-1,16916916916917"
"5354","-1,12812812812813","5,87187187187187","-25,1281281281281","1,3003003003003","-0,1001001001001","-0,169169169169169"
"5362","0,871871871871872","2,87187187187187","-27,1281281281281","1,3003003003003","-0,1001001001001","-0,169169169169169"
"5362","0,871871871871872","2,87187187187187","-27,1281281281281","0,3003003003003","-0,1001001001001","0,830830830830831"
"5374","-0,128128128128128","4,87187187187187","-27,1281281281281","0,3003003003003","-0,1001001001001","0,830830830830831"
"5374","-0,128128128128128","4,87187187187187","-27,1281281281281","1,3003003003003","-2,1001001001001","1,83083083083083"
"5382","0,871871871871872","7,87187187187187","-28,1281281281281","1,3003003003003","-2,1001001001001","1,83083083083083"
"5382","0,871871871871872","7,87187187187187","-28,1281281281281","4,3003003003003","-0,1001001001001","-1,16916916916917"
"5390","0,871871871871872","3,87187187187187","-28,1281281281281","4,3003003003003","-0,1001001001001","-1,16916916916917"
"5394","0,871871871871872","3,87187187187187","-28,1281281281281","-1,6996996996997","-1,1001001001001","0,830830830830831"
"5402","-0,128128128128128","2,87187187187187","-24,1281281281281","-1,6996996996997","-1,1001001001001","0,830830830830831"
"5403","-0,128128128128128","2,87187187187187","-24,1281281281281","0,3003003003003","-1,1001001001001","1,83083083083083"
"5411","-1,12812812812813","6,87187187187187","-27,1281281281281","0,3003003003003","-1,1001001001001","1,83083083083083"
"5415","-1,12812812812813","6,87187187187187","-27,1281281281281","-0,6996996996997","-0,1001001001001","0,830830830830831"
"5423","0,871871871871872","5,87187187187187","-28,1281281281281","-0,6996996996997","-0,1001001001001","0,830830830830831"
"5423","0,871871871871872","5,87187187187187","-28,1281281281281","2,3003003003003","2,8998998998999","-2,16916916916917"
"5431","-0,128128128128128","4,87187187187187","-24,1281281281281","2,3003003003003","2,8998998998999","-2,16916916916917"
"5435","-0,128128128128128","4,87187187187187","-24,1281281281281","2,3003003003003","2,8998998998999","-2,16916916916917"
"5443","-0,128128128128128","6,87187187187187","-25,1281281281281","2,3003003003003","2,8998998998999","-2,16916916916917"
"5444","-0,128128128128128","6,87187187187187","-25,1281281281281","0,3003003003003","-1,1001001001001","-1,16916916916917"
"5452","-1,12812812812813","6,87187187187187","-31,1281281281281","0,3003003003003","-1,1001001001001","-1,16916916916917"
"5452","-1,12812812812813","6,87187187187187","-31,1281281281281","0,3003003003003","-0,1001001001001","-0,169169169169169"
"5464","-1,12812812812813","4,87187187187187","-28,1281281281281","0,3003003003003","-0,1001001001001","-0,169169169169169"
"5464","-1,12812812812813","4,87187187187187","-28,1281281281281","-0,6996996996997","-0,1001001001001","-0,169169169169169"
"5472","0,871871871871872","5,87187187187187","-28,1281281281281","-0,6996996996997","-0,1001001001001","-0,169169169169169"
"5472","0,871871871871872","5,87187187187187","-28,1281281281281","-2,6996996996997","-1,1001001001001","-2,16916916916917"
"5484","-0,128128128128128","6,87187187187187","-25,1281281281281","-2,6996996996997","-1,1001001001001","-2,16916916916917"
"5484","-0,128128128128128","6,87187187187187","-25,1281281281281","-2,6996996996997","-1,1001001001001","-0,169169169169169"
"5492","-1,12812812812813","5,87187187187187","-25,1281281281281","-2,6996996996997","-1,1001001001001","-0,169169169169169"
"5493","-1,12812812812813","5,87187187187187","-25,1281281281281","1,3003003003003","-1,1001001001001","0,830830830830831"
"5501","-1,12812812812813","4,87187187187187","-23,1281281281281","1,3003003003003","-1,1001001001001","0,830830830830831"
"5505","-1,12812812812813","4,87187187187187","-23,1281281281281","-0,6996996996997","0,8998998998999","2,83083083083083"
"5513","-1,12812812812813","2,87187187187187","-28,1281281281281","-0,6996996996997","0,8998998998999","2,83083083083083"
"5513","-1,12812812812813","2,87187187187187","-28,1281281281281","-2,6996996996997","-0,1001001001001","0,830830830830831"
"5521","-1,12812812812813","5,87187187187187","-27,1281281281281","-2,6996996996997","-0,1001001001001","0,830830830830831"
"5525","-1,12812812812813","5,87187187187187","-27,1281281281281","-1,6996996996997","-0,1001001001001","-0,169169169169169"
"5533","-2,12812812812813","3,87187187187187","-27,1281281281281","-1,6996996996997","-0,1001001001001","-0,169169169169169"
"5534","-2,12812812812813","3,87187187187187","-27,1281281281281","0,3003003003003","-0,1001001001001","-0,169169169169169"
"5542","-0,128128128128128","3,87187187187187","-23,1281281281281","0,3003003003003","-0,1001001001001","-0,169169169169169"
"5542","-0,128128128128128","3,87187187187187","-23,1281281281281","0,3003003003003","-0,1001001001001","-2,16916916916917"
"5554","0,871871871871872","4,87187187187187","-25,1281281281281","0,3003003003003","-0,1001001001001","-2,16916916916917"
"5554","0,871871871871872","4,87187187187187","-25,1281281281281","-0,6996996996997","-2,1001001001001","-1,16916916916917"
"5562","0,871871871871872","3,87187187187187","-29,1281281281281","-0,6996996996997","-2,1001001001001","-1,16916916916917"
"5562","0,871871871871872","3,87187187187187","-29,1281281281281","-2,6996996996997","0,8998998998999","0,830830830830831"
"5574","0,871871871871872","2,87187187187187","-25,1281281281281","-2,6996996996997","0,8998998998999","0,830830830830831"
"5575","0,871871871871872","2,87187187187187","-25,1281281281281","0,3003003003003","2,8998998998999","-1,16916916916917"
"5583","1,87187187187187","6,87187187187187","-27,1281281281281","0,3003003003003","2,8998998998999","-1,16916916916917"
"5583","1,87187187187187","6,87187187187187","-27,1281281281281","2,3003003003003","-0,1001001001001","-3,16916916916917"
"5591","-1,12812812812813","3,87187187187187","-26,1281281281281","2,3003003003003","-0,1001001001001","-3,16916916916917"
"5595","-1,12812812812813","3,87187187187187","-26,1281281281281","-0,6996996996997","-3,1001001001001","0,830830830830831"
"5603","-1,12812812812813","4,87187187187187","-29,1281281281281","-0,6996996996997","-3,1001001001001","0,830830830830831"
"5603","-1,12812812812813","4,87187187187187","-29,1281281281281","1,3003003003003","-0,1001001001001","0,830830830830831"
"5611","-1,12812812812813","5,87187187187187","-27,1281281281281","1,3003003003003","-0,1001001001001","0,830830830830831"
"5615","-1,12812812812813","5,87187187187187","-27,1281281281281","-1,6996996996997","-0,1001001001001","-2,16916916916917"
"5624","-0,128128128128128","4,87187187187187","-26,1281281281281","-1,6996996996997","-0,1001001001001","-2,16916916916917"
"5624","-0,128128128128128","4,87187187187187","-26,1281281281281","0,3003003003003","-1,1001001001001","-0,169169169169169"
"5632","0,871871871871872","3,87187187187187","-26,1281281281281","0,3003003003003","-1,1001001001001","-0,169169169169169"
"5636","0,871871871871872","3,87187187187187","-26,1281281281281","-1,6996996996997","-1,1001001001001","-2,16916916916917"
"5644","-1,12812812812813","5,87187187187187","-25,1281281281281","-1,6996996996997","-1,1001001001001","-2,16916916916917"
"5644","-1,12812812812813","5,87187187187187","-25,1281281281281","-1,6996996996997","-0,1001001001001","-2,16916916916917"
"5652","-1,12812812812813","4,87187187187187","-27,1281281281281","-1,6996996996997","-0,1001001001001","-2,16916916916917"
"5652","-1,12812812812813","4,87187187187187","-27,1281281281281","-0,6996996996997","-0,1001001001001","-0,169169169169169"
"5664","-0,128128128128128","4,87187187187187","-28,1281281281281","-0,6996996996997","-0,1001001001001","-0,169169169169169"
"5665","-0,128128128128128","4,87187187187187","-28,1281281281281","2,3003003003003","-0,1001001001001","-1,16916916916917"
"5673","-0,128128128128128","5,87187187187187","-26,1281281281281","2,3003003003003","-0,1001001001001","-1,16916916916917"
"5673","-0,128128128128128","5,87187187187187","-26,1281281281281","0,3003003003003","-1,1001001001001","0,830830830830831"
"5685","-0,128128128128128","3,87187187187187","-26,1281281281281","0,3003003003003","-1,1001001001001","0,830830830830831"
"5685","-0,128128128128128","3,87187187187187","-26,1281281281281","0,3003003003003","-1,1001001001001","-0,169169169169169"
"5693","-1,12812812812813","4,87187187187187","-27,1281281281281","0,3003003003003","-1,1001001001001","-0,169169169169169"
"5693","-1,12812812812813","4,87187187187187","-27,1281281281281","-1,6996996996997","0,8998998998999","-0,169169169169169"
"5701","-2,12812812812813","4,87187187187187","-23,1281281281281","-1,6996996996997","0,8998998998999","-0,169169169169169"
"5705","-2,12812812812813","4,87187187187187","-23,1281281281281","1,3003003003003","0,8998998998999","-0,169169169169169"
"5714","-0,128128128128128","6,87187187187187","-28,1281281281281","1,3003003003003","0,8998998998999","-0,169169169169169"
"5714","-0,128128128128128","6,87187187187187","-28,1281281281281","2,3003003003003","-0,1001001001001","0,830830830830831"
"5722","0,871871871871872","6,87187187187187","-26,1281281281281","2,3003003003003","-0,1001001001001","0,830830830830831"
"5722","0,871871871871872","6,87187187187187","-26,1281281281281","-1,6996996996997","-0,1001001001001","2,83083083083083"
"5734","0,871871871871872","4,87187187187187","-26,1281281281281","-1,6996996996997","-0,1001001001001","2,83083083083083"
"5734","0,871871871871872","4,87187187187187","-26,1281281281281","2,3003003003003","2,8998998998999","2,83083083083083"
"5742","-2,12812812812813","5,87187187187187","-24,1281281281281","2,3003003003003","2,8998998998999","2,83083083083083"
"5743","-2,12812812812813","5,87187187187187","-24,1281281281281","-0,6996996996997","1,8998998998999","2,83083083083083"
"5755","-0,128128128128128","5,87187187187187","-27,1281281281281","-0,6996996996997","1,8998998998999","2,83083083083083"
"5755","-0,128128128128128","5,87187187187187","-27,1281281281281","-0,6996996996997","-0,1001001001001","0,830830830830831"
"5763","-0,128128128128128","3,87187187187187","-25,1281281281281","-0,6996996996997","-0,1001001001001","0,830830830830831"
"5763","-0,128128128128128","3,87187187187187","-25,1281281281281","-4,6996996996997","0,8998998998999","-1,16916916916917"
"5771","-2,12812812812813","3,87187187187187","-26,1281281281281","-4,6996996996997","0,8998998998999","-1,16916916916917"
"5775","-2,12812812812813","3,87187187187187","-26,1281281281281","-4,6996996996997","1,8998998998999","1,83083083083083"
"5783","-0,128128128128128","6,87187187187187","-26,1281281281281","-4,6996996996997","1,8998998998999","1,83083083083083"
"5784","-0,128128128128128","6,87187187187187","-26,1281281281281","-0,6996996996997","-0,1001001001001","-1,16916916916917"
"5791","0,871871871871872","6,87187187187187","-27,1281281281281","-0,6996996996997","-0,1001001001001","-1,16916916916917"
"5796","0,871871871871872","6,87187187187187","-27,1281281281281","-0,6996996996997","-3,1001001001001","-1,16916916916917"
"5804","-1,12812812812813","2,87187187187187","-26,1281281281281","-0,6996996996997","-3,1001001001001","-1,16916916916917"
"5804","-1,12812812812813","2,87187187187187","-26,1281281281281","-4,6996996996997","-1,1001001001001","-0,169169169169169"
"5812","-2,12812812812813","3,87187187187187","-28,1281281281281","-4,6996996996997","-1,1001001001001","-0,169169169169169"
"5812","-2,12812812812813","3,87187187187187","-28,1281281281281","0,3003003003003","-1,1001001001001","1,83083083083083"
"5824","-0,128128128128128","6,87187187187187","-28,1281281281281","0,3003003003003","-1,1001001001001","1,83083083083083"
"5825","-0,128128128128128","6,87187187187187","-28,1281281281281","0,3003003003003","-0,1001001001001","-2,16916916916917"
"5833","-3,12812812812813","4,87187187187187","-25,1281281281281","0,3003003003003","-0,1001001001001","-2,16916916916917"
"5833","-3,12812812812813","4,87187187187187","-25,1281281281281","-0,6996996996997","-1,1001001001001","1,83083083083083"
"5845","0,871871871871872","5,87187187187187","-24,1281281281281","-0,6996996996997","-1,1001001001001","1,83083083083083"
"5845","0,871871871871872","5,87187187187187","-24,1281281281281","0,3003003003003","-2,1001001001001","-1,16916916916917"
"5853","0,871871871871872","4,87187187187187","-27,1281281281281","0,3003003003003","-2,1001001001001","-1,16916916916917"
