Timer,AX,AY,AZ,GX,GY,GZ
"1008","0,725074172703056","8,72505978263837","-27,2748924693907","3,06458574499716","1,95660656354219","-0,0529976474329465"
"1010","0,725074440064991","8,72507132906098","-27,2749179516375","-0,366386706758875","-5,06454008166856","-1,79596951790305"
"1019","0,725074504810784","-0,136628123360201","-20,2363332256003","0,621602329467835","-2,82979967897466","-1,25747051314588"
"1019","0,72507452185294","2,84377101305937","-22,5423951980083","-5,82565409913421","2,96698706077244","0,613853114143548"
"1027","0,725074526364308","12,3826946199636","-30,1338292369706","-3,83782045494946","1,48218939701386","0,131519463077486"
"1027","0,725074527559026","9,55991466284254","-27,9642644088001","5,22156541624098","-2,38310672592374","-0,00194042133882671"
"1039","-2,74526237443679","12,4591304086209","-27,4411389890963","3,05036197636238","-1,39364585751034","-0,0388697277788648"
"1039","-1,66431711127641","11,1208674025887","-27,3150029037848","5,74789586082711","0,603598768952246","-1,77238029015314"
"1047","-1,37804867430142","-1,58685869330207","-27,2845889492595","4,590206369304","0,125756884742905","-1,25205665896859"
"1047","-1,30223575241659","2,51264225006365","-27,2772555313087","-4,21002422251722","0,000830265548342085","4,06179686292644"
"1059","5,65851559071423","3,44834062202313","-21,9988478128603","-1,95791443010718","-0,0318304548859655","2,53218304884721"
"1059","3,50194235405408","3,66191087249652","-23,726117234933","-1,2546884881557","-0,0403692488292063","-1,33765729450615"
"1068","-2,2746916051527","14,3411762340838","-31,1781160466562","-1,03510473289463","-0,0426016246321824","-0,408473371659721"
"1068","-0,804526692990675","10,778685421334","-28,974943283251","4,09670454234301","-0,0431852552665366","-0,151360675802435"
"1076","4,79032466638096","2,87854553598806","-24,9259542315557","2,69912260562436","-0,0433378392162921","-0,0802155163290609"
"1080","3,27201798142357","5,07536311668442","-25,9496612942414","3,95047268557891","-1,78193849018692","-1,78382099976981"
"1088","1,13475400407825","2,03327370920106","-17,4020985783798","3,34120933693565","-1,23647692384221","-1,25522239593572"
"1088","1,56873901202498","3,33892623977222","-20,341108784581","1,46321766470834","-1,09387186623621","0,614337030547007"
"1096","-1,78666489711593","12,4957028912807","-29,8441625706316","1,87681087971928","-1,05658930828976","0,131659223053181"
"1100","-0,675281809719722","9,58570875384992","-27,1355405357942","2,00595621678045","0,691718574880909","-0,00190162455065739"
"1109","-0,380952472750289","8,921511619996","-30,0001967800067","2,04628211546377","0,148794859949559","-0,0388589897655142"
"1109","-0,303004769943487","8,76991068481018","-28,6909231868581","2,05887396075701","1,74541405582817","-1,77237731486029"
"1117","-0,282361756795638","1,64829583201616","-24,8574712570098","2,06280579050082","1,16283296570462","-1,25205583589817"
"1117","-0,276894835045828","4,02280933608338","-25,9331486676272","-1,31146234977075","-0,728037351543101","4,06179709060273"
"1129","-2,01061544337661","2,79303157423938","-24,4336363622729","-0,365084557520424","-0,222385051095169","2,53218311185082"
"1129","-1,46975940815995","3,51233861538166","-25,0720736970145","3,3059197282937","-1,82874845726725","2,10892657024693"
"1137","2,14381319289177","10,7635306255993","-23,4671339892794","2,45219841139999","-1,24871488608171","1,99180806682121"
"1138","1,1008013276044","8,41859270571166","-24,080150650606","3,87337009507626","-1,0970713497889","-1,48718341628471"
"1149","-0,91058957255903","2,56810859322172","-29,5046008169857","3,31713389353532","-1,05742577883965","-0,449848457179727"
"1150","-0,443269398935043","4,232753745186","-27,8125451751045","-3,6075437356679","0,691499888655679","-3,60939334344422"
"1158","3,15082858384013","1,06919763186521","-25,6456765995735","-1,76978865170137","0,148737686788936","-2,48366493103374"
"1158","2,10265922466062","2,34712576366933","-26,1232008755422","-1,19594582464134","0,00683834898178947","-0,448874863894298"
"1166","-1,64526596459501","11,4975744071719","-27,9972214390021","-1,01676221468092","-0,0302597061164729","-0,885832018659508"
"1170","-0,637834907270835","8,58613592154585","-27,4490855999391","-0,960811761761708","-0,0399585934639542","-1,00674159239778"
"1178","-0,37103535047775","6,14985601728056","-27,3169189920442","-0,943341117083011","-0,0424942632053995","-1,04019824795804"
"1179","-0,300378402801299","6,59378268748767","-27,2850509567917","2,4376099901061","-6,99740022493145","-1,04945597475891"
"1187","1,45350221000487","1,37984826546654","-27,2773669306445","1,49331896810202","-4,8156855570449","-1,05201766253326"
"1187","0,917985180589031","3,18978390943788","-27,2755141569368","-3,86478165050721","2,70894330678543","2,39385734508963"
"1199","2,51133178240562","14,2334147195003","-23,7573077601886","-2,53785965392564","0,676176561698435","1,34735878975857"
"1199","1,93330027751192","10,7540891899515","-24,9089972280272","2,93971827811231","1,88329232736659","-0,665507736039703"
"1207","-1,690117561843","9,95994393214989","-28,7044524464473","1,65010331983287","1,19887975629174","-0,222484160323408"
"1207","-0,649713026552773","9,77868274082625","-27,6196132622279","2,93516631217558","1,01994745354776","1,62339596474607"
"1219","-0,374181051552694","2,65029802658726","-27,3580366513374","2,33642989017343","0,973167528224382","1,1341659033091"
"1219","-0,301211483781378","5,02326633078259","-27,2949652538803","-4,60151852079658","-0,777623339459694","-4,17108377685772"
"1228","1,45328158385419","3,79313588186169","-25,5208776398491","-2,76790726589236","-0,235348774113607","-2,63908921036242"
"1228","0,917926751817363","4,51236242327285","-26,0931093288852","4,55563336645698","-1,83213768316674","1,23140990641562"
"1236","-0,959020535069057","9,9917829572598","-29,7488455879072","2,8424240804218","-1,24960096272662","0,302408271496649"
"1240","-0,456095447168118","8,2424436946961","-28,6303173441405","2,30747093643593","-1,09730300499394","1,76863793984065"
"1248","1,41226341939965","6,07140933277863","-30,1194974492276","2,14043071047344","-1,0574863426005","1,17435553084141"
"1248","0,907063846591862","6,57587747512442","-29,4785688125786","-1,28722380791279","0,691484054912042","-0,713379135015297"
"1256","2,5084394682876","-0,395991646122727","-27,565148161536","-0,357516022678686","0,148733547227026","-0,23573056304567"
"1260","1,93253430139953","2,01270085659639","-28,1037838446969","1,62053508783463","1,74539802627656","-0,103561345529196"
"1268","-5,16065726019654","18,508255369325","-26,4747799455486","1,23818563943928","1,16282877495082","-0,0669890555987917"
"1269","-3,03915837560668","13,2733145107702","-27,0819942448981","6,18204002650871","4,4876438314455","3,38971463971433"
"1277","2,72818678758871","6,76319619352305","-27,2284058613096","4,72576878710383","3,35688095448977","2,34621246972332"
"1277","1,25556190891984","8,27728188471173","-27,2637086554685","0,895549217508253","-0,415866352280761","-4,8357007030302"
"1289","-0,869604083573142","-2,00765136810002","-21,9955813878254","1,69955523264417","0,597789457384719","-2,8229940815069"
"1289","-0,432415147205474","1,64484452509524","-23,7253296339662","3,63835570538267","-4,35288341626324","1,1805219432916"
"1297","-3,78697055492638","4,25026848356928","-25,9012866567263","3,24375016413735","-2,64718357212214","0,288327161111716"
"1297","-2,67536275756004","3,84494841897997","-25,4259537887184","3,12053376749268","-0,462685940876231","3,48803350653286"
"1309","4,55969977708715","14,3829539862099","-28,8291011013726","3,08205919272067","-0,891572539373783","2,37341809422865"
"1309","2,47577280618474","10,7882210636448","-27,6496685673659","1,38229749602712","-2,74226108546771","0,341703083970983"
"1318","1,92388313772179","1,10896891434518","-29,1241634195037","1,8515433896346","-2,22610369328894","0,779511131810586"
"1318","1,77772532585554","3,89970964034186","-28,479693872135","-4,75292533376096","-5,56828141579663","-0,822635769124913"
"1326","0,00384970003395413","0,99318134817616","-21,2887799526408","-2,81518435648275","-4,44205782105573","-0,265962756097574"
"1330","0,534071418597704","2,3297752827515","-23,5549055502148","1,16537513486604","2,80662425829771","1,61136508614742"
"1338","-2,7958459705941","15,0371204185643","-32,8957132835735","0,408313071332551","0,701714195469344","1,13083686203538"
"1338","-1,6777132478981","10,9375325223328","-30,147970452575","5,23516266909033","-1,58715265213456","0,99787082151405"
"1346","0,353572027485181","8,23006120123147","-31,2443140558647","3,74235644215422","-1,18555226228918","0,961078044222787"
"1350","-0,108479487352934","8,61208927189456","-30,5086646142623","-3,47476711512798","2,39656335767835","-2,49568666172382"
"1359","1,50432310262921","-0,159479518270812","-18,0191258995216","-1,72832887723912","1,33306894460724","-1,45220137386783"
"1359","0,931444157785958","2,83843711843618","-22,0076461741295","-1,18299992429028","-2,42209174605831","2,28312328014347"
"1367","-0,955440699113838","15,9249740068951","-28,24599835295","-1,01271983051281","-1,40383810483606","1,31671777966195"
"1367","-0,455147393562563","11,9119354517942","-26,7501909044491","2,41594634330154","0,600934113260744","-0,673986351000664"
"1379","3,14768291577761","9,22421874929382","-28,1484013827295","1,48655444956785","0,125060239257895","-0,224830261559287"
"1379","2,10182615242328","9,61075575036551","-27,4855381340014","1,19634990795086","0,000648135083211752","-1,82383706773293"
"1387","5,29518709895139","-0,931536992839462","-23,8079487777011","1,10573293943309","-0,0318780709364101","-1,26629516512451"
"1387","4,14088991803759","2,66221739510995","-24,9212077988893","-9,0490499831927","-3,51750321661066","-1,11201881777454"
"1399","-4,84064653527035","5,25423378725226","-25,1896370057632","-6,21990195979187","-2,42878240722856","-1,0693293064745"
"1399","-2,21924100845266","4,84585348724358","-25,2543607023438","3,10224501928665","3,0715342128668","-1,05751677392276"
"1408","3,68049521973388","13,6114074628164","-32,3054862024732","1,01310469989082","1,50953281232122","-1,05424815076365"
"1408","2,24293167574018","10,6121179633391","-30,0056547971526","0,360766312982551","1,10116435256309","4,11653207464166"
"1416","0,127051031841428","1,06877392804562","-25,9333593970757","0,157072302061761","0,994400812615573","2,54732872399276"
"1420","0,566699021731022","3,89053525942058","-26,9514468290266","-4,96977536763168","0,966488633822733","-4,78005021119051"
"1428","2,4183001145714","2,76284042661042","-20,161408934651","-3,57064415931697","0,959191294999513","-2,80759514096254"
"1428","1,90866255410104","3,50544757960087","-22,5241938284259","-8,19700633825394","0,957283484280182","4,63136680182642"
"1436","0,0385260128293925","12,533710870478","-31,8883080679277","-6,64159750000698","0,956784707694776","2,68978765098531"
"1440","0,543254801239902","9,59438395718511","-29,1461849057034","3,97056971441776","4,43377582700052","2,15253701909336"
"1449","-1,05824549903074","5,37998550340959","-28,4850036966792","1,28424088240356","3,34279774432251","2,00387543022985"
"1449","-0,482373350966419","6,41806213115582","-28,3255795697147","2,13317707804167","-2,15810901558884","-4,93042812668852"
"1457","1,40530420066615","-2,20376561119137","-21,2516198855053","1,39825916147528","-0,596261900748521","-2,84920592468408"
"1457","0,905220825711947","0,828328955120978","-23,5459455084288","-2,2067163406718","1,55062698221071","-2,27331493273042"
"1469","-2,6975538873769","5,06390133789427","-25,8580335254897","-1,33237739947254","1,11190798112639","-2,11396124416513"
"1469","-1,65168240037959","4,03065759375142","-25,4155245862671","7,3793763994266","2,73577037824565","1,37671705577464"
"1477","3,83080266160508","16,197094631621","-28,8265864102818","5,09963954669059","2,16031172996219","0,342615933274296"
"1478","2,28273783277931","11,9740461401563","-27,6490622246171","4,38778699792584","2,00986425803807","1,77976372458529"
"1489","0,137592959230368","2,15138291155209","-22,0884979067701","4,16550956683781","1,97053138524891","1,17743412533587"
"1490","0,569490856998226","4,90939050361844","-23,7477336810128","-2,65488874537146","-1,51687329021565","-2,43581918671446"
"1498","0,683871058865727","1,99539097518497","-29,4244483800406","-0,784572228932365","-0,428617719750299","-1,43563556002263"
"1498","0,714162548235935","3,33027962326107","-27,7932188057074","-3,57605788946069","5,07157726863603","-2,88216859635309"
"1506","0,7221846911705","14,2654824303042","-29,1587762776896","-2,44770506220456","3,50954406878883","-2,28243597019899"
"1510","0,724309207944042","10,7614085454551","-28,4880397304605","6,34336509813964","1,36260653590674","-0,39319318523773"
"1518","2,46004026891943","9,96161455233589","-24,8085519630701","4,08839494336074","1,80131281799218","-0,870424448471042"
"1518","1,91971666504944","9,77906405470075","-25,9213532390494","-5,05446380833649","-1,5611136639112","2,44410565402927"
"1527","0,0414534904769539","-2,66487424695424","-22,6719124186869","-2,90934036901534","-0,440183889446988","1,36126290266461"
"1530","0,544030089765318","1,49483544197606","-23,8884066885806","-3,92726906820991","1,59143189893809","1,06163156795531"
"1539","0,67712824369841","13,0747948878219","-25,9406078242142","-3,24511941050394","1,12257598756268","0,978721157716579"
"1539","0,71237683785397","9,71788470547573","-25,4354349153935","-1,3443688374789","2,7385594137456","-0,767512746068737"
"1547","0,721711778671917","14,2669396781401","-30,5902670200854","-1,75085553863036","2,16104089328491","-0,250709770425629"
"1547","0,724183965780713","12,3052473625862","-28,8332010247462","-1,87778185203639","0,27149413040464","-0,107706213188409"
"1559","-1,01032974285121","1,22697856304747","-26,6506571415957","-1,91741485599251","0,777492459901106","-0,0681359739554582"
"1559","-0,469683745638925","4,69839807895982","-27,1244017846922","-1,92979034347366","-0,828780480699345","-0,0571865691769772"
"1568","-0,326503612974248","-1,59627359599049","-23,7208715189739","-1,93365461504303","-0,248723258263473","-0,0541567804436509"
"1568","-0,288584992480281","0,966987122897155","-24,9002117152718","-1,93486124183527","-3,57419505768314","3,39326543388758"
"1580","1,45662547747201","15,7260682490145","-26,9434542542826","-1,93523801354752","-2,4436038790989","2,34719500314848"
"1580","0,918812320441352","11,0947827272297","-26,4361212471017","4,81563606319294","3,0676592985185","-6,55872075175575"
"1588","2,51155083515807","6,49419997022673","-28,0726728528722","2,92361046039153","1,50851975765715","-4,02305956834532"
"1588","1,93335828959805","7,44413122886596","-27,467278457843","-2,73042224181911","6,31658177893726","5,2950379782651"
"1596","0,0450662234347552","2,34569078431733","-27,3213056570745","-1,49590565058952","4,57359786187157","2,87343082554025"
"1600","0,544986855535983","4,18198757033631","-27,2861086702191","-7,86141701540069","-1,09776880815844","-2,96652320232117"
"1608","-1,05778679635805","9,91637592203753","-27,2776219666882","-5,84906110853083","0,419513397251362","-1,58248564728731"
"1609","-0,48225187201371","8,22523227285066","-27,2755756512716","3,21804084231747","4,29331202367654","0,52378064580859"
"1617","-0,329832049716528","11,3827401863898","-25,5162024155296","1,04926218519965","3,30607499426919","0,106601540031869"
"1617","-0,289466467635527","10,1034315717495","-26,0919820379922","5,43530035594099","-2,16770978347043","-0,00883528781703318"
"1629","3,19156045686098","2,72442093973927","-24,4719342918838","3,80484984893384","-0,59877191821133","-0,0407775903899454"
"1629","2,11344631087393","5,04018465574936","-25,0813081003965","-3,45525341956979","1,54997076515169","-3,4962001308079"
"1637","-1,64240920352946","0,253491232214095","-23,4693605902129","-1,72223568542961","1,1117364202369","-2,45234345491035"
"1637","-0,637078346729433","2,16094330861019","-24,0806875290065","2,19439854970186","-2,47995675311907","3,00637588883107"
"1649","1,36433343248983","11,4550788394202","-31,2636100970144","1,41737569266095","-1,41896628833131","1,51684761772011"
"1649","0,894370472517609","8,5764364400455","-28,995557623394","-2,2007471642593","0,596979012458185","-2,34190073215283"
"1658","-0,96525898169146","2,60413593588637","-26,6898045926168","-1,33051351178824","0,124026220708126","-1,40964756512802"
"1658","-0,457747584832362","4,24097687437737","-27,1338410248229","-2,74652918451847","-3,47674371701845","-1,1516855846183"
"1670","1,41182588117469","2,84282763800836","-25,4820273379959","-2,18868300789248","-2,41812627461359","-1,08030542122248"
"1670","0,906947972653246","3,52370441244879","-26,0837417374129","-2,0144943851252","3,07432014408391","5,83261374111787"
"1678","-0,9619280624813","8,99437173110163","-26,2288272170057","-1,96010362729107","1,5102611640626","3,74547430442605"
"1678","-0,45686545224123","7,24303457429404","-26,2638102528265","-0,255372069507736","-2,37576674678825","-0,27863788147434"
"1686","3,14722791958638","6,84329730163049","-28,0311251962634","-0,723066113707889","-1,39172693221252","0,607857776587039"
"1690","2,1017056550639","6,75205850929666","-27,4572604797276","0,818643384510364","-4,61158182958355","-2,59342556250576"
"1699","-1,6455184999362","3,18772733317366","-25,56001029265","0,300045364938223","-3,45337824834784","-1,47924651708683"
"1699","-0,63790178660378","4,37417980026445","-26,1025450008665","-6,61287966407643","3,80366465438477","2,27563967058898"
"1707","-0,37105306223704","8,18849009984144","-27,9922408909436","-4,77145480638632","1,70094043887028","1,31464700445805"
"1707","-0,300383093434463","7,0590945921396","-27,4478846893337","2,55452563959831","-4,06447646154951","1,04873257243569"
"1719","1,45350096777709","1,48605426411188","-29,0755092560887","0,842078190418434","-2,57178267693803","0,975151901479621"
"1719","0,917984851607886","3,2140250991334","-28,4679623718749","-1,380384999555","-2,18153394764789","0,954791535563528"
"1727","2,51133169528103","3,60842908134134","-21,2859512512781","-1,0743537286299","-2,07950761627129","0,949157657877299"
"1727","1,93330025443858","3,69845056667477","-23,5542234932552","0,708953099979668","-0,31427317015044","-0,775693205239155"
"1739","-1,69011756795355","7,26250389625153","-27,6189093424328","0,265794346657672","-0,852771617320474","-0,252973369546257"
"1740","-0,649713028171039","6,07598801154856","-26,5989870942588","0,127417109091384","-0,9935562423382","5,06154320163199"
"1748","1,36098736986417","9,34867564676546","-28,1119430939816","0,0842085303756571","-1,03036286777146","3,53211285872212"
"1748","0,893484329471851","8,09565644626268","-27,476747305141","0,0707165622783837","-1,03998556396868","-3,78426056399941"
"1756","-0,965493660352739","4,26615249630215","-27,3235887871654","0,0665036673267711","-1,04250131435367","-1,80876017958901"
"1760","-0,457809735152588","5,39208010044098","-27,2866591789398","-4,99805561120316","-2,78171978976221","2,18446057891012"
"1768","-0,323359000038127","-3,20969592909494","-22,0011152219965","-3,57947472388054","-2,23641974696928","1,28941701339712"
"1768","-0,287752199673723","-0,173024621542195","-23,7266639530144","-1,44877197582117","-2,09385691795798","2,76504315380269"
"1776","1,45684602730525","16,4658641051377","-25,901608387965","-1,78345563457512","-2,05658540022326","2,17336082451199"
"1780","0,91887072900175","11,2636388362348","-25,42603136461","4,86303042504633","-2,04684116293585","0,286345621709765"
"1789","-0,958770540101574","2,98923464841154","-30,5879996343013","2,93840944793341","-2,04429363694055","0,764193274917196"
"1789","-0,456029240606349","5,10062756319132","-28,8326543122956","-2,72580122734185","-3,78218837321798","-2,5501662674991"
"1797","1,41228095298788","-3,27621906651494","-26,6505253181955","-1,49446272925868","-3,23654225307205","-1,4672763207817"
"1801","0,907068490039706","-0,18820832127581","-27,1243699994112","-1,10997473574281","5,59891485183303","2,278951920582"
"1809","-0,961896145671649","16,4623984727797","-27,2386235105343","-0,989917564308638","2,90885004646785","1,31556353078198"
"1809","-0,456856999662161","11,2628478164009","-27,2661723368088","-0,952429464144651","-1,2715599721159","1,0489861826717"
"1817","1,4120617362508","10,0760665102557","-29,03169474236","-0,940723727310131","-0,364483192191258","0,975222077480167"
"1818","0,907010434525267","9,80518735901826","-28,4573978087805","-2,62481651788758","-3,60445924688507","0,954810953829644"
"1829","0,773256901240275","-0,887158581372357","-19,5245240941894","-2,1506779759283","-2,45151612573703","0,949163031068361"
"1830","0,737834741936662","2,67234662984699","-22,3706280460327","-5,37812309751015","3,06559072676709","-4,22227556575291"
"1838","-1,00671458625879","1,71303954882231","-23,0568811209536","-4,38589951391502","1,50797895182962","-2,65325439179203"
"1838","-0,46872633801328","2,49408068374882","-23,2223505805401","-0,700579784904128","-0,637802647082312","-0,495801637348338"
"1850","-0,326250061201811","18,6181288214317","-35,5744073998414","-1,54983107504274","-0,19879415849769","-0,898817035870839"
"1850","-0,288517843964243","13,2983927853403","-31,5527374669331","1,56048431485753","3,39310140639133","2,43624919578754"
"1858","-0,278525161325947","4,99716712947364","-25,3063922367954","0,531686730217674","2,33216385469224","1,3590889572177"
"1858","-0,275878783412849","7,10243812738388","-26,8002723993864","-3,16505330628659","-3,16088913161693","-2,3855538276265"
"1866","1,4599904828717","0,495947291561673","-23,6427173857792","-2,31936803079002","-1,5969887321713","-1,42172672920284"
"1870","0,919703480131851","2,98803625437331","-24,881367177219","-10,4940407095052","0,550436959955593","5,73813970776499"
"1879","-0,958550001305579","10,6438602383036","-28,6977902838389","-8,04659916583636","0,111858301852338","3,71933257639285"
"1879","-0,455970834968961","8,39127831107884","-27,6180068804326","4,53185503748519","-1,74136412894341","-5,4557472797293"
"1887","3,14746484249044","6,10538037222098","-29,1165291480987","1,45950338576235","-1,2258691936565","-2,99456597698678"
"1891","2,10176839973048","6,58363125948481","-28,4778530952993","0,500155226190456","4,12458368930264","6,30292238511795"
"1899","0,0896665386783102","1,37753123351885","-24,806095759846","0,200596778589617","2,52340202714748","3,87561250459359"
"1899","0,556798427408125","3,18925505408421","-25,9207609989051","-4,95618475978902","2,10479030955306","-1,96591951410713"
"1907","-1,05465871913867","3,60277539540587","-26,1895292732741","-3,56640046390079","1,99534878005698","-0,582318601882898"
"1907","-0,48142345838711","3,69716013040009","-26,2543347258674","1,93080635115011","1,9667364697106","1,52382686862111"
"1920","1,405555762217","9,03396246059209","-28,0288404555716","0,647320552201228","1,9592560890258","1,1066143302574"
"1920","0,905287447154463","7,25207103547329","-27,4567095826586","0,246549456103618","0,218739664442504","-7,62529136695613"
"1928","-0,962367822069709","1,53010053860944","-25,5598774602539","0,121407852200546","0,763700372389023","-5,04148019521822"
"1928","-0,456981914467037","3,22407852463757","-26,1025129722963","0,0823321274790721","2,64473524549451","4,28994084203812"
"1940","-0,323139766979544","3,61072374452275","-24,4744735125765","0,0701306515918759","2,13651157400044","1,87202040678004"
"1940","-0,287694139836835","3,69897431642693","-25,0819203577271","5,12956450886806","2,00364196334057","-0,520329629264027"
"1948","-0,278307018461953","19,6648951574251","-34,0227871847042","3,70938319815508","1,96890463324927","-0,182312205670764"
"1949","-0,275821012293914","14,3090670564421","-31,1786105334956","-3,48506307878433","-1,51729858702285","1,63451186904084"
"1957","-2,01033106120256","4,2278503963198","-23,4573028583701","-1,73154381319191","-0,428728909024545","1,13724176380329"
"1961","-1,46968409478","6,92684396978266","-25,5955398222612","-1,18400379469285","-0,144134079219462","-2,44694073775772"
"1969","0,408664716407605","-4,85939083739489","-20,8344724037148","-1,0130332911229","-0,0697298230760068","-1,43871298301774"
"1969","-0,0938892036008292","-0,549562366320487","-22,6864830079771","-2,6473953287878","-3,52739914994017","-4,60631206780971"
"1977","-0,226981351344427","18,1516736354859","-33,686319090661","-2,1577282563447","-2,43136959252188","-3,48281231718024"
"1981","-0,262228354871344","12,4201727338698","-30,3386014609093","11,4971547490614","-0,406263697968608","3,72123683222364"
"1989","-0,271562874440597","12,8837285369973","-27,772519381785","7,76092021778957","-0,876821551042891","1,71465541421718"
"1990","-0,274034949989437","11,9895337109178","-28,1537852290293","-0,156718468901421","2,47727768033366","1,15941813002014"
"1998","1,46047878818708","-0,616835200887286","-26,4868362879482","1,37098247054904","1,35417083581659","1,00577948919748"
"1998","0,919832798799143","3,5058002052037","-27,0849012722534","-6,59072940608922","1,06054663542915","-0,760025487215674"
"2010","0,776652668206599","4,44677894651069","-25,4702269764297","-4,07679041138185","0,983781747498804","-0,248637985431335"
"2010","0,738734048261399","4,66155442490577","-26,0808964322002","1,7714360341145","-0,774848366034499","-3,55371678086717"
"2018","-1,00647642154557","11,7975886711935","-27,9870209843393","0,59755684098908","-0,234623287169023","-2,4682587765058"
"2018","-0,468663264476416","9,4263663489563","-27,4466260645545","3,60650649656612","5,1222950257438","4,72526391446761"
"2030","3,14410348635336","1,79812980075844","-23,798566292816","2,54605725167047","3,52280368068498","2,71576974039817"
"2030","2,10087820647996","4,05700847460138","-24,9189454925184","-1,1605660812321","-2,11104840030771","-3,01014929790458"
"2039","1,82459920924035","2,80083742150614","-25,1890915180615","-0,317966885483227","-0,583958409233781","-1,59455734027444"
"2039","1,75143180639042","3,51412027580331","-25,2542291742552","-5,11810733674084","6,76952587630343","-1,20285161279561"
"2047","-1,73828207606667","14,3074434888966","-30,5465746605814","-3,61696112355208","4,69201522265841","-1,09446347445341"
"2051","-0,662468510865674","10,7709860268981","-28,8226659154996","0,227270749448367","0,671750896241803","2,3821122461245"
"2059","6,56311458078833","4,64854127551157","-28,4069967420566","-0,572359894959628","1,62069604428977","1,3441088260175"
"2059","4,47667715403801","6,25111225538295","-28,3067705193846","0,865701713107323","-3,34689473558122","2,78017682006445"
"2067","-3,01655104979077","6,61689410969549","-24,7648442996838","0,314739425400575","-1,64561789599327","2,17754843219126"
"2071","-1,00099450048304","6,70038268313456","-25,9108144397279","-9,98378727554039","2,2762841478404","0,287504366575164"
"2079","-0,46721147867011","4,94768558858889","-19,1516116459471","-7,19952354430684","1,30162323934392","0,76451390897987"
"2080","-0,325848878611277","5,54763791435573","-21,5218315044867","2,10860822168231","6,26249091033536","2,61979822551427"
"2088","-0,288411598145664","9,22808137624341","-32,6466182917892","0,0150916230035517","4,5594563862684","2,13317037980709"
"2088","-0,27849702407814","8,06813117814971","-29,3290287974495","2,73688259607875","-1,10146594479913","0,275224601068207"
"2100","4,92963393375519","2,48811683683343","-32,0468507029725","1,58676745847556","0,418546820656137","0,761115998688528"
"2100","3,30891147455385","4,21449587495814","-30,7021723887966","2,91538955843258","-2,66118371552914","-2,5510177746847"
"2108","-4,06098069944873","2,83678343204601","-25,1013038387018","2,33025455790149","-1,46634612773491","-1,46751193969702"
"2108","-2,01276087471882","3,52232484118953","-26,7508214495252","-1,22795091883096","0,58459206323133","0,55559479926563"
"2120","3,73517767940818","12,5375630530753","-27,1485534198668","-0,339007940434494","0,120787786110624","0,115404773235366"
"2120","2,2574133178331","9,59526320591187","-27,2444546210385","1,62631427480635","3,47665266725487","-0,00639936209171719"
"2129","-1,60428219387427","7,15193929162046","-27,2675783351776","1,23999020252764","2,35400743287199","-0,040103550068385"
"2129","-0,626981110592135","7,59425818839257","-27,2731539291124","-2,2561361505424","0,321943155948732","3,39715407623109"
"2141","-0,368160922374361","0,608203694656095","-25,5156184894656","-1,3478088373482","0,790681814821366","2,34827102189093"
"2141","-0,299617163470386","3,01365843011346","-26,0918412416391","-2,75192968570649","-0,825332265766818","-1,38854723770074"
"2149","-0,281464611627201","10,6497084204256","-27,9896599986757","-2,19036932556142","-0,247821759570565","-0,422555029946184"
"2156","-0,276657242675037","8,39261314050469","-27,4472623841457","8,11146664542454","3,3802836676052","1,56803473928099"
"2157","-2,0105525214141","13,1926974525634","-29,0753592057546","5,32823624060902","2,32881279479956","1,11884700510681"
"2161","-1,46974274443731","11,2883018049286","-28,4679261917125","-0,604077004824733","0,31535628890738","-4,17532263971093"
"2170","0,408649184126299","1,9948638945011","-26,5625820109603","0,54354591105488","0,788959749305055","-2,6402621379484"
"2170","-0,0938933170393999","4,87366552356377","-27,1031650940283","-2,4736023214132","-0,825782481267427","-2,2154984994395"
"2178","-0,226982440712855","0,215483756904484","-23,7157509244644","-1,41571309911364","-0,247939463569088","-2,09796297012834"
"2182","-0,262228643370504","2,1522682202858","-24,898977036642","-1,08538500080662","-1,83542938345486","3,10443583106769"
"2190","1,46360547100115","16,7683580846742","-30,4609162039915","-0,982239368701647","-1,25046154234978","1,54398159570246"
"2190","0,920660843143182","12,1044352510184","-28,8020119336976","2,42546393056243","2,37959352480042","-0,611100617642309"
"2198","-0,958296461348421","2,18114382158499","-26,6431368225918","1,4895263358808","1,32863236438887","-0,207429271252439"
"2198","-0,455903689581982","4,9161833390027","-27,1225884840791","-2,178217976643","-2,42325164222084","-3,54231399683826"
"2210","-2,05802264082706","1,99694141878722","-25,4793141234342","-1,3234787263449","-1,4041413472078","-2,46510353407223"
"2211","-1,48231433107664","3,33063350720317","-26,0830875266506","5,6944070973992","2,33941559334409","3,00284507187223"
"2219","0,405319830996701","10,7220569983825","-26,2286694735941","3,88575646501446","1,31812827650563","1,51587061215152"
"2219","-0,0947750348829452","8,40912647896791","-26,2637722177079","5,00874949429619","-0,687437063440083","-0,618879153824728"
"2231","3,24312089625002","9,65296036600278","-29,7899958530455","4,35940639102524","-0,211770542611006","-0,20958165503622"
"2231","2,12710114340767","8,93686159182736","-28,640239503156","-0,906596129748247","-0,0874126486925809","3,35025811582362"
"2239","1,83154387101076","-0,0853512438252473","-24,8452503984687","0,449083688422283","-0,0549006153611804","2,33529453089844"
"2239","1,75327097212683","2,85535666710158","-25,9302019721116","-0,815350414739288","5,16928158455492","0,331153986098639"
"2247","-3,47296342874764","3,52656412446904","-27,9506855101756","-0,210172579411672","3,53508781093245","0,776592111231203"
"2251","-1,85703533293691","3,67976514424789","-27,4378648487677","-0,0212045482913776","4,8464061915287","-2,54673540935379"
"2260","0,306081876706385","12,5734983138029","-29,0730932704062","0,037801110377779","4,18923627295473","-1,46632697462411"
"2260","-0,12105637893048","9,60346531768679","-28,4673798289911","1,74397368049452","0,540304749511339","-1,16736923498808"
"2268","1,50099234458445","0,0667989885195821","-24,8035704440705","1,27672959537675","1,58633086352699","-1,0846452139463"
"2272","0,930562067876514","2,89008448560085","-25,9201520943305","1,13083166312761","3,59836389581663","-2,78504673287625"
"2280","-2,69084272622206","5,30624374371812","-20,912742970649","1,08527473193777","3,12438828356148","-2,25556156618571"
"2280","-1,6499050729797","4,85772459845035","-22,7053556205532","-0,616698445199781","1,26191169995762","3,0608270267187"
"2288","2,09610493217985","13,6141170071202","-30,1731100026222","-0,148143090936227","1,77498723656326","1,53191468733954"
"2289","1,08816667362905","10,6127364084204","-27,9737362250515","-1,68958364330524","5,38624683423011","-0,614439628642788"
"2300","2,55640121578011","-0,702838016200054","-29,202302668924","-1,17090164483525","4,33037180055273","-0,208353202563261"
"2301","1,94523608667902","2,71441722700835","-28,4985348214095","0,678805813398665","-8,11560068304481","1,62730611488473"
"2309","0,0482118391807078","-0,0491110703129185","-23,0522027133904","0,256380794051689","-4,36946627595885","1,13524787343217"
"2309","0,545819913918251","1,32012216944007","-24,7389821777357","1,81222563893645","3,56416329625045","-4,17078438698631"
"2321","-2,79273459803742","12,2631640229822","-26,9045785604308","1,29804141060523","1,63832538571019","-2,63900636676702"
"2321","-1,67688925819368","8,7608793761765","-26,4267475331064","2,82523425264603","-2,34228573395043","1,23143282990754"
"2329","2,08895866782442","9,73324687350654","-31,5881723169725","2,30210337714929","-1,38297368164633","0,302414614612001"
"2330","1,08627411716189","8,95518673808288","-29,832695949571","-2,92448911438397","2,34494965175083","-5,12452799960634"
"2337","-0,914436836626702","-0,0811685860446643","-24,1327757021497","-1,55650343304863","1,31957509653215","-3,62620685079665"
"2341","-0,444288275949662","2,85631134576365","-25,7584099506587","-4,50484293609943","-0,687058807911264","0,234974559349791"
"2350","-0,319778090658464","1,75502892449507","-27,9092629883831","-3,42546804568244","-0,211671651772851","-0,696605360247116"
"2350","-0,286803861791478","2,50366462847758","-27,4278770431809","8,7258045147979","1,65117396479173","4,21549472322252"
"2358","3,19226559896866","18,6203163270827","-29,0706850090033","5,52006451131109","1,13819490788304","2,57471248811112"
"2362","2,11363305477113","13,2988920767186","-28,466799148587","2,83131763181487","1,00408205287228","-3,0491809788388"
"2370","0,092808673996984","1,45377488634815","-31,838949741577","2,99175085600231","0,969019689922171","-1,60535772162209"
"2370","0,557630564063344","4,75016363613648","-30,6520432731878","-2,02139733119369","4,43697453146111","2,24074368177706"
"2379","0,680730078770407","1,95904793667032","-16,2948175586328","-0,586763224238762","3,34363401118715","1,30499100252191"
"2379","0,713330717520339","3,32198443747136","-20,8330008222604","-5,20203954962415","-0,419329623076234","-2,40052316860432"
"2391","-1,0132040257161","16,0353421822996","-34,2394071469018","-3,64316913067042","0,596884022498439","-1,4258688667489"
"2391","-0,470444946506099","11,9371266454222","-30,4719621482627","0,21908724500449","-2,6145593729335","2,29040969753357"
"2399","4,87880006253511","9,22996856108582","-31,322434989315","-0,574915211152902","-1,45415669501969","1,31873399020138"
"2399","3,29544906021493","9,61206812706872","-30,527501147187","-2,51059205190422","2,32633961880075","-0,673428449260802"
"2411","-2,32937755003844","-2,70299054934528","-19,7825475954002","-2,11501115010848","1,31470970365272","-0,224675885642063"
"2411","-0,819009258077641","1,48613551420796","-23,1917225448885","-1,99149019511405","-2,4268915720689","-0,10050242701028"
"2419","-2,15418446156848","0,670537439382193","-22,2548635678967","-1,95292052136722","-1,40509296770261","-0,0661426281397401"
"2420","-1,5077810178218","1,48437970912837","-23,0289679700527","1,43461880129973","2,33916680240472","3,38994885302829"
"2428","2,13374387000104","15,8441615016543","-30,2511394680542","0,492384963208831","1,3180632327914","2,34627727843888"
"2432","1,0981346529323","11,1217371457703","-27,9925507031919","-1,4895774332239","4,52822821019676","2,05748492470305"
"2440","4,29420947331544","2,95684602780121","-25,6890795634999","-1,10844929194886","3,3674913036451","1,97757374803897"
"2440","3,14063101189757","5,09323496102001","-26,1336662056775","-6,05268503469335","-0,413092390656564","1,95546168006616"
"2448","-2,37037825810114","-3,27790640502561","-26,2408650133898","-4,59653287438698","0,598514679804818","1,94934309227349"
"2452","-0,829867540299339","-0,188593451056043","-26,2667128083633","-0,766350487486269","-0,875572295587169","-1,49893381770366"
"2461","-0,421891655739865","16,4623105681022","-28,0318250609543","-1,57036811299558","-0,260956474807551","-0,453099888152591"
"2461","-0,313846758382975","11,262827752431","-27,4574292312224","-0,13367634885365","-1,83883254098612","1,55958273032461"
"2469","3,18510378598647","2,98904952104964","-27,3189308098559","-0,685066373160025","-1,25135126126992","1,11650826596727"
"2473","2,1117363805366","5,1005853084453","-27,2855360466489","-2,54498698013028","2,37936091736171","0,993905983259385"
"2481","0,0923063747662103","2,03903059622073","-23,7597242399616","-2,12575103760599","1,32857155167677","0,959980941456338"
"2481","0,557497539365353","3,34024023137419","-24,9095798900461","-1,99484374720466","-0,68470678151141","0,950593608399248"
"2489","-2,78964199406116","14,2677559082041","-26,9457131101972","-1,95396767494561","-0,211056739777328","0,947996057527053"
"2489","-1,67607023900205","10,7619274597324","-26,4366659028288","3,12203975655022","-5,30290831123799","4,39386114154113"
"2501","-1,38116127372139","8,18997989049303","-31,5905638359877","1,70703357867604","-3,63411811862237","3,34735984026736"
"2502","-1,30306006703418","8,60294083706744","-29,8332725930477","-0,422552958962416","-1,45927011863697","-0,388799369014996"
"2510","2,18796044247943","-0,161567620137844","-25,8917945703405","-0,0875207611952401","-1,890679509402","0,577375203282863"
"2510","1,11249291338388","2,83796051566319","-26,9414247108474","-6,73389798878872","1,47365466622591","-2,60186033672667"
"2522","0,827675150399515","1,75084040445656","-23,6767520554228","-4,80924302864991","0,353223637760077","-1,48158048723587"
"2522","0,752246412741912","2,50270861177333","-24,8895736226237","-4,20826553546982","0,0602990006886921","0,55170191853925"
"2530","-1,00289792073559","15,0765919144023","-28,6997690233679","-4,02060906987509","-0,0162829939396539","0,114327581698146"
"2530","-0,467715564459483","10,9465417688008","-27,6184839944486","4,47672670535411","-5,25198681106439","1,71659449396973"
"2538","3,14435446724447","4,68861132895378","-29,1166441899124","2,13003738112239","-3,62080524029383","1,15995468904834"
"2542","2,10094467414544","6,26025812076713","-28,4778808342012","-7,04146087099229","0,282771149700294","1,00592795941402"
"2551","-1,64572003171378","1,30372231784479","-24,8061024482548","-4,90528017492812","-0,696680803816962","0,963307519351897"
"2551","-0,637955158582486","3,17240839806763","-25,9207626116154","-0,862757470840807","-0,952747978612854","-2,49506974794959"
"2559","-0,37106719682239","14,2294488129361","-27,9484094899474","-1,60047139300235","-1,01969398629856","-1,4520306688441"
"2563","-0,300386836719008","10,7531839840821","-27,4373160543784","3,23241970192777","0,701364459838863","2,28317051560221"
"2571","4,92383682012801","8,18798421930175","-25,5552012893757","1,74149994498285","0,151316672786544","1,31673085009488"
"2571","3,30737621580322","8,60248533130943","-26,101385453169","-2,09953869589818","-1,73104816241653","-4,12056658162543"
"2579","-0,591050440755667","1,61008151450284","-26,2330814727868","-1,29891095815448","-1,22317219520309","-2,62511069444758"
"2579","0,376523075468015","4,0140870366677","-26,2648360397129","-1,04891329064272","0,648167271452436","1,23527787466451"
"2591","-1,10240132509534","1,01928763404118","-22,754733050725","-0,970851001747441","0,13740884026012","0,303478569550145"
"2592","-0,494067208067827","2,33573396150761","-23,908376413638","0,741272040583254","1,74243730348869","0,0456421762965893"
"2600","-0,332961123810166","16,8102335709209","-31,2220624112076","0,275886002725095","1,16205472583394","-0,0257032360911595"
"2600","-0,290295145265908","12,113993200839","-28,9855396382385","3,50606411182039","4,4874414646323","-0,045445087908689"
"2612","-0,278995846834523","-1,36018081085477","-24,9285092264948","2,51469390923055","3,35682804786384","-0,0509078177485156"
"2612","-0,2760034357989","2,56438077347973","-25,950277355061","-2,85810728091767","-2,15444094368756","-6,9455870938523"
"2620","1,45995747098359","3,46014977947835","-20,9200067787035","-1,53577556821285","-0,595302922816692","-4,85340053332728"
"2620","0,919694737541422","3,66460627604874","-22,707107071202","-1,12287475517748","-3,66480458194326","4,34198400347872"
"2628","0,776616105225835","12,5700383491656","-31,9324121405206","-0,993945622065683","-2,46729276430003","1,88642116986894"
"2632","0,738724365229501","9,60267559149257","-29,156819287281","0,734060697608926","3,06146609436414","-0,516344821811862"
"2641","4,19902627961812","5,38187804321616","-24,9698082049635","0,27363424596197","1,50690061106701","-0,181209577266088"
"2641","3,11542349649692","6,41849409749523","-25,9602353718604","1,81761306499072","-2,37664532721094","-1,8117668720935"
"2649","1,09328283950482","3,11159229103581","-26,1990473408779","1,29972364553661","-1,39195662761091","-1,26295524450807"
"2653","1,55775613806309","4,35680221309912","-26,2566297239669","-5,61298012162518","-1,13452036189665","0,612197288893921"
"2661","-1,78957350895993","9,95627682190026","-28,0293938259085","-3,77148617446375","-1,06721642012112","0,13106713925649"
"2661","-0,676052101984607","8,23433952945511","-27,4568430114095","0,179019982607687","-1,04962052870328","-1,72535738257863"
"2669","4,82434879506986","6,06955958220488","-25,5599096326173","-0,587426296730591","-1,04502027221575","-1,23904504088685"
"2673","3,28102864511959","6,57545527529465","-26,1025207297021","2,54874512910556","-1,04381758465373","-1,1044784883167"
"2682","-2,33319653132579","3,14741819290954","-26,2333552108599","1,52802114517968","-1,043503154931","-1,06724283641525"
"2682","-0,820020644918911","4,36497936405492","-26,2649020434842","-0,478449961676582","-1,04342095066311","-1,05693943080632"
"2690","-2,15445230874178","2,87113082156985","-20,9958691377493","-0,10497471593683","-1,04339945924175","-1,05408839526052"
"2690","-1,50785195221141","3,53016452628843","-22,7253990162774","0,0116437022202107","4,17228843807521","-1,05329949069906"
"2702","3,86889350618013","14,3111055392939","-35,4545823530995","0,0480580445590527","2,53587392043297","-1,05308119443544"
"2702","2,29282549126136","10,7718218785401","-31,5238452310308","0,059428498291196","-3,10763132675535","2,39356305722285"
"2710","-1,59490393209938","-0,66652725119466","-23,5405459080835","0,0629789459931419","-1,58306505211965","1,34727735792906"
"2711","-0,624497450725945","2,72270504646971","-25,6156114007412","-8,37465207497536","4,03119867537011","-0,665530268884599"
"2722","3,10283367287847","-1,81897250364992","-24,3570717218066","-6,00931981770386","2,49898752003449","-0,222490395343574"
"2723","2,08994865664726","0,144403685711936","-25,0536124177221","-0,207496133421108","-1,37871411972019","-1,82318960785348"
"2731","0,086536297464199","18,3100692338904","-28,7393220858868","-1,39586468473713","-0,392497491153202","-1,26611600774676"
"2731","0,555969440687387","12,4563260377964","-27,6280210356935","8,35955236325527","3,34245975422705","-1,11196924348118"
"2739","2,41545858269068","4,03321490437198","-29,1189437629395","5,4057015192608","2,31892413961471","-1,06931558886715"
"2743","1,90791002672869","6,1106659201692","-28,4784353076455","-5,64313210466481","0,312771006406667","-2,78080490180957"
"2751","0,038326719817769","-0,502174740261119","-28,3239957986199","-3,09315326242688","0,788283855011691","-2,25438781727109"
"2752","0,543202022157118","1,98846489478351","-28,2867573176117","-7,36016088670771","2,65116233251928","-0,385432034796148"
"2760","-1,05825947659852","14,9592173813977","-28,2777783686592","-5,69254284530856","2,13819186675057","-0,868276875462163"
"2760","-0,482377052667755","10,9197513957872","-28,2756133629417","4,95466192494763","-4,95016178035387","2,44469990482536"
"2772","-0,329865201506693","8,2260027142619","-26,516211508574","2,27927364223023","-2,80333557397396","1,36142733665926"
"2772","-0,289475247276435","8,61116293483487","-27,0919842305086","-3,61936567746616","4,7121720769792","-2,38490677914947"
"2780","1,45638970988939","-0,159690951830801","-23,7130549927274","-2,46122800860781","2,67702068892552","-1,42154768566346"
"2780","0,918749881740368","2,83838885938207","-24,8983269931173","-5,47509298770453","0,406391496270299","4,0148973268988"
"2792","-0,958802544272521","-1,79256803225208","-25,1841199819358","-4,41617856274711","0,812759924773254","2,51920556845548"
"2792","-0,456037716321448","0,150430424390818","-25,2530304366085","0,977713450576163","2,65756133760722","0,382043655518822"
"2801","-0,322889713494557","20,0831979207132","-34,0640452763864","-0,33803260895791","2,13986481778047","0,790673693762063"
"2801","-0,287627917777783","13,6327902619963","-31,188558691666","6,0021146863213","0,265957873308807","0,90374492557927"
"2809","1,45687894107589","3,30173921366324","-28,7363410434302","3,98183879626492","0,776045065050973","0,935032648624854"
"2813","0,918879445607571","5,94370886310739","-29,1450619018559","-5,08773618571886","-0,829158886509612","-2,50289363303725"
"2821","-0,958768231669098","-4,08378837539867","-18,6903337787162","-2,91972973768948","-0,248822188391095","-1,45419560103621"
"2821","-0,456028629260533","-0,372533510611944","-22,1694879335319","-2,24276523895098","-3,57422092190056","-1,1640123859392"
"2829","1,41228111489156","18,1920799225841","-30,04390149366","-2,03138167366277","-2,44361064102026","-1,08371634670342"
"2833","0,907068532916912","12,4293953435428","-27,942581447123","6,4733629375342","1,32909677114822","-2,78478970780829"
"2841","5,97877755306533","9,34232736420917","-27,4359107956891","4,12898703766139","0,315430531468282","-2,25549044527359"
"2842","4,32192625681198","9,63771367529779","-27,313742280975","3,39695081269786","0,0504183996850918","3,06084670644948"
"2850","-4,79270239596941","-0,925383930108387","-27,2842849876717","3,16837098695919","-0,0188661707613364","1,53192013287999"
"2853","-2,20654388637832","2,66362181258895","-27,2771822400384","-8,71723905438396","-1,77554063577323","1,10885380184179"
"2862","1,94868939676541","1,71104813635118","-16,7221906574077","-5,42854537967316","-1,23480427364371","0,991787931215806"
"2862","1,04912638474074","2,49362615003047","-20,1771692696072","5,72484361089267","-4,57055608891615","-5,93377283528847"
"2870","4,28123053630764","16,8462719731039","-35,0812729300026","3,20751239820046","-3,4426525098684","-3,85013143256669"
"2871","3,13719377952703","12,1222188543311","-30,6749529708395","4,10921845010737","3,80646878330622","0,173012819082866"
"2878","2,83421671976199","11,0439683859529","-29,61250034359","3,39077803033531","1,70167354820566","-0,713750674203083"
"2882","2,75397882687978","10,7978610617279","-29,3563215831707","3,16644352289575","1,15139748061439","-0,959125294599167"
"2890","-2,47277596645631","-6,97584319566679","-22,259032405083","3,09639460882697","1,0075337234593","-1,02702243379173"
"2891","-0,85698568700245","-1,03263605097873","-24,5477328164257","-5,36421796512256","0,969922092058764","5,84735757407151"
"2903","1,30609502451756","19,8131666680754","-28,6173443093181","-3,00606174531542","0,960088935712897","3,74955404208053"
"2903","0,878947103025102","13,5711564663312","-27,5986097332047","9,54451293090984","6,17320044140258","3,16907486220313"
"2911","0,765824844870812","10,3746839006835","-27,3529722768028","6,46345583917183","4,53611235389018","3,00845158498357"
"2911","0,735866498719403","10,6450989543646","-27,2937441310205","-6,31284612990771","-1,1075689908934","-5,65245379136914"
"2919","2,46310100447466","-5,23895757032395","-25,5205832024949","-3,30227285236574","0,416951244920751","-3,04899625742629"
"2923","1,92052724447685","0,135555806879443","-26,0930383340996","-2,36221511794376","0,815520657439891","1,11798531594419"
"2932","0,0416681575059332","11,9927904257463","-27,9899486418159","-2,06868014550552","0,919722341920003","0,271022771257596"
"2932","0,54408694037338","8,69916744141899","-27,4473319818293","3,08622055029176","-2,53015676791212","0,0366613947849648"
"2940","-1,05802512231077","13,2626675206879","-25,5576163315273","1,69584895741626","-1,43209054206995","-0,028188290867275"
"2944","-0,482314988251883","11,3042722559017","-26,1019677685484","-2,11379331121218","2,33210857706783","1,67715920102417"
"2952","3,14048807880138","3,7702622028055","-33,2687411920369","-1,30336199127734","1,31621793572032","1,14904262499745"
"2952","2,09992073239229","6,05064778182553","-30,9967948339093","-4,42579899718753","-0,687936501484015","-0,720383420497966"
"2960","-1,6459912038242","-4,05937989897035","-25,1723432533965","-3,40078641222491","-0,211901115313869","-0,237668705407719"
"2960","-0,63802697352044","-0,366962351592447","-26,7679504854282","-1,39297618082235","3,38967473355655","-0,104097645173873"
"2972","4,83441904985056","19,965104624763","-28,9115634037695","-1,76603328215203","2,33126798794901","-0,0671374540418121"
"2973","3,28369556658558","13,6058358335703","-28,4284317197349","4,86847059063517","-1,42256258679914","3,38967357666663"
"2981","2,87301501923117","12,1543524610828","-28,3119389248931","2,94010815089357","-0,403961201081717","2,34620110724638"
"2981","2,76425384175792","11,8230558844189","-28,2838501621428","2,33797298953719","-0,137658828466921","2,0574638475189"
"2993","-2,47005481805057","-2,42658635071884","-21,2415580835664","2,14995503965934","-0,0680369384374662","1,97756791581189"
"2993","-0,856265040975766","2,3209770174402","-23,5435194050128","-4,65974567866337","-0,0498350443886849","-1,4911237810773"
"3001","3,04145429618753","6,9480998321358","-29,3752081986491","-2,78608881640116","-0,0450763550336144","-0,450938787941563"
"3001","2,07369345945205","6,00422625932659","-27,7813460046919","6,23770407081697","-0,0438322469030335","-0,16311119945278"
"3009","1,81739982978321","7,56054314703888","-25,6381538502316","4,05540206897944","-0,0435069882183227","-0,0834669811243407"
"3013","1,74952518336705","6,91576764831558","-26,1213869889256","1,6862258228668","5,17226032578125","-0,0614287826790402"
"3022","-1,73878701005089","8,5403527435111","-26,2379042465323","1,94644563848099","3,53586657077619","-0,0553306351812322"
"3022","-0,66260223332958","7,91115925134941","-26,2659989077488","0,339951883147851","-3,84619400778273","-1,77693515217743"
"3030","3,09274232316631","0,680535379116818","-26,2727730972988","0,83832088440513","-1,77615431848051","-1,25331702629446"
"3034","2,08727614857728","3,03016791268859","-26,2744064910495","0,99393763611249","-1,23496471438459","-1,1084276619444"
"3042","0,0858285329343953","8,88172355618729","-29,7925599908647","1,04252928878522","-1,0934765153442","-1,06833560465291"
"3042","0,555782002289998","7,21732297785143","-28,6408577685085","1,0577021328625","-2,79504670759153","0,666050115056312"
"3050","2,41540894308409","3,29392250467699","-26,6042793025333","1,06243988481639","-2,23990392624427","0,145968651189381"
"3054","1,90789688059334","4,3984185186984","-27,113219152152","-3,9993245356995","-0,356207059602573","-3,44452593753668"
"3063","-1,69684518353944","8,19402251212538","-27,2359348163231","-2,57987094817978","-0,863734781528428","-2,43804478829383"
"3063","-0,651494713223867","7,06035734807956","-27,2655240383977","2,9266001645652","-0,99642244366178","1,2870405217052"
"3071","4,83085236709073","10,3451079963215","-27,2726585967191","1,646007161738","-1,03111220526851","0,317801712039063"
"3071","3,28275099636152","9,09484214111718","-27,27437888265","-0,441608583907543","2,43694004888264","1,77289742916141"
"3079","2,87276486720805","8,80947283851257","-27,2747936782899","-0,0934709195081238","1,34362499608802","1,17553416593754"
"3079","2,76418759360286","8,74433818052758","-27,274893693886","0,0152357864550282","1,05778953910049","1,01023892649442"
"3091","-2,47007236265403","-0,129294115166558","-23,7571581540309","0,0491796802929593","0,98306093432876","0,964500398759882"
"3091","-0,856269687340787","2,84532684304702","-24,9089611549647","0,0597787313696361","-0,77503681488219","0,951844178735814"
"3099","1,30628464383791","12,3830403603292","-28,7044437485042","0,0630883069964744","-0,234672555092629","0,948342100439213"
"3103","0,87899732020896","9,55999388068637","-27,6196111649784","0,0641217288330636","-0,0934001334408119","0,947373047090567"
"3112","0,765838143966864","5,3721360751411","-27,3580361456482","0,0644444169395626","-0,0564659788260316","0,947104902202592"
"3112","0,735870020739999","6,41627052350574","-27,2949651319484","1,75229310809019","-0,046809941496463","2,67032262800602"
"3120","2,46310193721693","1,33933166475438","-22,0031179548161","1,27932735385538","-0,0442854744311546","2,14715089002883"
"3124","1,92052749149645","3,18053612102471","-23,7271468522967","-3,93160097477831","3,43349603939836","-3,1674907261612"
"3132","0,041668222924526","1,82903222356802","-22,3839651690903","-2,55872412617033","2,34272459686431","-1,63809498421599"
"3132","0,544086957698289","2,5205556519019","-23,0600969703617","-2,13004048987748","2,05755413941133","-1,21489883049907"
"3140","2,41231172596828","11,5371592411091","-30,2586452979686","-1,99618313755079","1,98299939161282","-1,09779703688939"
"3140","1,90707663969667","8,59517103708339","-27,9943605101932","3,1088578910131","-4,99073518317919","2,38118982247548"
"3152","-1,69706240923057","2,60841204953774","-27,4483957722921","1,7029175138904","-2,81394305359155","1,34385358394401"
"3152","-0,651552241446465","4,24195288405201","-27,3167526606832","-7,17482993319447","2,97083810602608","1,05681426886173"
"3160","4,83083713180075","2,8430504091886","-22,0083713674961","-4,9469249405251","1,48320689863137","0,977388172151238"
"3160","3,28274696157563","3,52375525927955","-23,7284135560666","-4,25125699729996","1,09428172568357","0,955410329719248"
"3172","-2,33274146686696","14,3096426439834","-29,419789908187","-4,03403324277565","0,992601423871811","0,949328883217778"
"3172","-0,819900129480119","10,771487977224","-27,7920955541719","7,84803084183648","-0,772542556542426","-4,22222967312369"
"3176","-0,419251970602496","9,96391515136654","-27,3996256112696","4,55822993480027","-0,234020458086767","-2,65324169293088"
"3180","-0,313147686402214","9,77958915929207","-27,30499319106","3,53098279538076","-0,0932296496948921","-2,21909004713046"
"3193","3,18528892232237","-0,893001291043575","-23,7644157499722","3,21022275084778","-0,0564214076849873","-2,09895678038099"
"3193","2,11178541048462","2,67101304949105","-24,9107111077477","-8,70417075452355","-3,52391980792859","4,82745275940399"
"3201","-1,64284906240071","-1,83077104159018","-23,4282262139714","-5,42446477600503","-2,43045995598907","2,74404621910397"
"3201","-0,637194835248474","0,141710706031054","-24,0707692011244","2,35062192558676","3,07109563579302","-4,72561689153578"
"3209","3,09947100449693","16,5377014672162","-33,0200984159041","0,778408833866374","1,50941815106417","-2,79253300179206"
"3213","2,08905811587297","11,2800354912598","-30,1779622170996","0,287482043259252","1,10113437561114","-2,25763307725638"
"3221","1,82146887599097","-0,550529070781835","-25,9749061918418","0,134189137224431","0,994392975464022","-2,10962194810346"
"3222","1,75060279529584","2,74918127127423","-26,9614645993343","5,14956690353603","2,70504734442248","4,82450162135966"
"3230","1,73183521930772","3,50232991977178","-27,1993437324181","3,71562898727267","2,15227952333479","2,74322961537271"
"3230","1,72686497254065","3,67423376221034","-27,2567011899461","-3,48311281821059","-3,20791795457791","2,16732484225485"
"3242","-0,00961972759992913","16,1157419978471","-27,2705312299813","-1,73093484029291","-1,60928391192601","2,00796734033013"
"3242","0,530504288820584","11,9554776538872","-27,2738659316159","3,87943015172008","-1,19133824203951","1,96387183252212"
"3250","2,40871460633385","3,91889781458512","-30,792429651081","2,6312782276381","-1,08207084355029","1,95167024938131"
"3250","1,90612400882707","6,08457339908461","-29,6408263409574","0,553792275947391","0,685056701656608","-1,49828987453701"
"3262","-1,69731469596716","-2,27988337966559","-25,8453918969004","0,905092989466519","0,147053184873749","-0,452921703877676"
"3262","-0,651619054941065","0,810955310615781","-26,9302360902378","-2,36070849818229","1,74495871361922","-1,88695181196657"
"3270","-2,10985424990421","13,9187013695202","-23,6740542532949","-1,38046176924621","1,16271392138336","-1,28375952459012"
"3270","-1,49604097790683","9,91050374177371","-24,8889231281101","-6,13762149349013","1,01049228513866","-4,56343519440591"
"3278","-1,33348384039154","8,99564506834018","-25,181852520386","-4,62305445936947","0,970695576177074","-3,47094794002118"
"3278","-1,29043357712308","8,78683141440188","-25,2524837058892","2,60086395497657","4,43741267389069","2,00122787754474"
"3291","2,19130433572914","1,65215793605031","-28,7872739651321","0,856547425263627","3,34374855881115","0,515423121420089"
"3291","1,11337848191038","4,02369084934732","-27,6395832010737","3,68737684232582","-2,15786043537111","-1,6190029781242"
"3299","-0,907258744935482","-2,52202653034329","-25,603971978614","2,57130918444484","-0,596196912125204","-1,20961591821993"
"3303","-0,442387290598938","-0,0160662147142149","-26,1131450501556","-4,52817697522368","-3,66503830582906","2,35024863492397"
"3311","-0,319274649707983","18,2734424769626","-27,9947967766534","-2,7450062165525","-2,46735386889521","1,33529190745694"
"3311","-0,286670534730055","12,4479660941591","-27,4485009649361","-3,87595538911604","3,06145011922519","-4,11543058714793"
"3319","1,45713248633932","0,487800568339225","-27,3167780247517","-3,22909660804512","1,50689643453882","-2,62368952329561"
"3323","0,918946592399818","3,7579298924891","-27,2850169667338","5,41162604022519","-2,3766464191193","-0,487620799459436"
"3328","0,776417972767295","4,50432676542221","-27,2773587349559","3,10970956375053","-1,39195691307861","-0,896553331955748"
"3328","0,738671893497822","4,674689536035","-27,2755121807909","-0,984564480657104","-2,87308119606781","5,88345942826241"
"3340","0,72867553975574","13,572339821975","-27,2750669393327","-0,263010021577806","-2,2603052036413","3,75954371670602"
"3340","0,726028189618433","10,6032008955212","-27,2749595826357","-0,0377031489219866","1,37702000546901","-0,274744761467108"
"3352","0,725327087703643","8,15375104464777","-30,7926933524032","0,0326493881972758","0,327959545449556","0,608935034335203"
"3352","0,725141413777101","8,59467171540024","-29,6408899246656","6,8056088379507","0,0536939755840853","2,57674829439213"
"3361","0,725092241458113","-0,163455021504121","-20,5687677447659","4,92047943856453","-0,0180098066862302","2,1212581161797"
"3361","0,725079219075274","2,83752972215684","-23,3812960826777","-4,10689577210584","-5,25243826767727","-3,17465546580411"
"3373","-1,01009265150836","1,75074207717524","-24,0594533997863","-1,92571235817767","-3,6209232687678","-1,64007752554006"
"3373","-0,469620956364432","2,50268616887642","-24,2229708088551","-2,9323812556975","5,49842257104179","3,95442835528356"
"3377","-0,326486984391593","2,67431507496324","-24,2623981546848","-2,24671570162343","2,88257742090557","2,50247331564155"
"3381","-0,288580588706494","2,71348884031316","-24,2719048831","3,03062857956006","0,460132092150871","0,377413706029836"
"3389","-0,278541778115058","4,49418323313771","-24,2741971470924","1,67849024954227","0,826809825342209","0,789392549345412"
"3393","-0,275883184063333","3,90062120384375","-24,2747498581809","1,25628225858467","-0,815886986136871","-2,54319342474689"
"3402","1,45998931744049","3,7651425121342","-24,2748831279737","1,12444693991124","-0,245352392838167","-1,46534687887711"
"3402","0,919703171488863","3,73421992106286","-24,2749152620091","-5,66771063558286","-3,57331378118665","0,556193889080266"
"3410","0,776618338801446","10,8141743452527","-29,5515624936225","-3,7885758906778","-2,44337347884102","0,115570546225529"
"3414","0,738724956750855","8,43015197760464","-27,8238685826612","0,173683683363307","3,06771953418692","-1,72964541502606"
"3422","2,46385801442622","4,3425000635864","-27,4072867293697","-0,589092567209802","1,50853550562455","-1,24023157409666"
"3422","1,92072772461699","5,40950619581164","-27,3068404411755","0,860476901579344","4,5780251365352","0,618485112020856"
"3430","1,77688967282327","5,65304703519432","-27,2826208148709","0,313107967191465","3,38051017424433","0,132807030698313"
"3430","1,73879681456806","5,70863447621823","-27,2767809744061","-1,54555704613259","-0,409688747015438","3,44499983041395"
"3443","-1,74162822089095","7,49307523959331","-27,2753728710677","-1,12592904189461","0,599404525813155","2,36151032849193"
"3443","-0,663354675680223","6,90036830775469","-27,2750333489483","0,692848601709721","0,863221104616074","-3,10817573829866"
"3451","1,35737463082569","13,8520971990536","-34,310470794582","0,260765683754636","0,932193110599409","-1,62168204802639"
"3451","0,892527562090828","11,4388077513322","-32,0068566828602","0,12584689869622","0,950225099456784","0,512934685160612"
"3463","0,769421379277252","0,257463307418758","-22,6570097125152","0,083718228931193","0,954939368927663","0,103600375124902"
"3463","0,736818974602148","3,70535612728619","-25,4025730011353","1,75831139575975","-2,52094965511993","1,71362618927434"
"3471","-1,00698359352503","-0,822932340629979","-26,0645836940284","1,28120657663131","-1,42968344149472","1,15913333516608"
"3471","-0,468797579632133","1,1434998652063","-26,2242078262861","-7,3065100458222","-1,14438363146346","-2,44088316315785"
"3479","-0,326268928232162","1,59233191549615","-26,2626964245408","-4,98804232812323","-1,06979506582513","-1,43703680320292"
"3480","-0,288522840549666","1,69477643851073","-26,271976801979","-0,888600124400796","0,688266071661145","-1,15926440799844"
"3492","3,19181035911132","12,3486776975639","-24,5153346603685","-1,60854081504176","0,147892240130094","-1,08240254286093"
"3492","2,11351249288127","8,7803976071007","-25,0917728047184","3,22990000820131","-3,47050420302794","-2,78442616767435"
"3500","1,82794516724686","0,878936337077387","-30,5074031527864","1,74071316540382","-2,41649502081506","-2,25538985078245"
"3504","1,75231792172972","3,07545231582063","-28,8132208747953","-0,412036438327703","-0,40237490123939","4,78416646541717"
"3512","-1,73804740474293","10,6638126831279","-26,6458395243993","-0,0842369558696506","-0,875804866979695","2,73206855196297"
"3512","-0,662406362488662","8,39583239470918","-27,1232401600043","-1,66962882041669","2,47754348144293","0,440944562209266"
"3520","3,09279419595023","7,87817293009773","-23,7205914278291","-1,16467071010421","1,35424032665671","0,806972050347083"
"3524","2,08728988612851","7,76001876329557","-24,9001441796467","2,36849936678126","-0,677995956477083","-2,5383290348417"
"3529","1,8210005929172","7,73305044128645","-25,1845581422646","1,47173903298738","-0,209302266777485","-1,46400086290387"
"3529","1,75047877915039","7,72689500545485","-25,2531360859025","1,19172376347231","-0,0867673445334162","-1,16672558108862"
"3541","-1,73853446777467","0,638477636655873","-23,510791783664","1,10428841624874","-0,0547319075319419","-1,08446710971395"
"3541","-0,662535352160017","3,02056836345252","-24,0906774255052","-3,98625724518023","-5,26203886583052","5,83146216830107"
"3553","-0,377576808278872","15,9665448985231","-29,5071390347619","-2,5757906596805","-3,62343324185696","3,74515565492714"
"3553","-0,302110787394201","11,9214238788381","-27,8131571906118","4,6156221742125","3,75920560604509","-0,278726054364208"
"3561","1,45304341985917","2,13937204366238","-27,4047039966744","2,861155709753","1,68931709904072","0,607833378436298"
"3562","0,917863678470701","4,90664906028533","-27,3062176922233","2,31331992644806","1,14816701992991","0,853151533647998"
"3574","4,24646802665331","1,99476524924929","-20,2469513462707","2,14225706970557","1,00668915427161","0,921033048468014"
"3574","3,12798756923466","3,33013680325752","-22,5448198294447","-1,28665352346404","-0,768859471006879","-4,23005935912574"
"3578","2,83177862456144","3,63493121758077","-23,0988822737629","-0,357337950179715","-0,2330575550018","-2,65540823028286"
"3582","2,75333314228013","3,70449959705075","-23,2324779057374","1,62059069134084","-1,83153866858242","2,95018622546523"
"3590","0,997389879563042","7,26388456866823","-30,3002098187876","1,23820300174914","-1,24944435680867","1,50129948405993"
"3594","1,5323606541478","6,07630314574425","-28,0043825546098","1,11880165456056","0,641298697476997","-2,34620302630862"
"3602","1,67403780864765","2,26173516550082","-30,9685719450003","1,08151833687408","0,135613125496928","-1,41083804466772"
"3602","1,71155839306229","3,39107185838998","-29,683297801196","-7,36886311181704","0,00340707364621922","-1,15201499992165"
"3610","-1,74884181504476","10,735851864536","-25,855632622706","-5,00751220198102","-0,031156776134018","-1,08039657309739"
"3614","-0,665265063204144","8,41227511437001","-26,9327053358073","-0,894679632793689","3,43692839630941","0,662712747679236"
"3623","-0,378299721962594","11,4254321346817","-25,4335294660282","-1,6104391541152","2,34362194964813","0,145045174682429"
"3623","-0,302302237765931","10,1131758764989","-26,0720479221735","-1,83393654546713","2,05778874264156","-1,7214895472849"
"3631","-0,282175704090352","9,81365745673457","-26,2260076022617","-1,90372406830566","1,98306072610314","-1,23797477962312"
"3631","-0,276845562414267","9,74529330665432","-26,2631303868339","3,13772842667145","0,224963130679462","4,06569343259744"
"3643","-2,01060239442784","-0,900829213008112","-22,7543217834091","1,71193239837934","0,76532743067505","2,53326126114894"
"3643","-1,46975595238625","2,66922635058812","-23,908277248792","-8,85976294798387","-0,831960896700395","-1,3373589444539"
"3651","2,14381410808977","15,8863521740962","-36,498677984012","-6,16079669143609","-0,249554743807138","-0,4083908157907"
"3652","1,10080156997773","11,9031201382789","-32,5344775771489","-0,254795100631203","-0,0972909215547348","5,01853793905195"
"3664","-0,910589508370918","3,90694737408236","-26,3019894090266","-1,41063388510429","-0,0574831835153314","3,52021295524108"
"3664","-0,443269381936004","6,0818457481151","-27,7992107887967","6,66719271876317","1,69148488082087","-3,78755336340028"
"3672","-0,319508255348855","1,2630002472965","-19,3658219266018","4,18951078786035","1,148733763152","-1,809671323777"
"3672","-0,286732400880593","3,16311371180182","-22,3323617520581","0,040353616670203","4,48395884226652","-1,26237538936453"
"3680","-0,278052319616399","3,59680871513125","-23,0476543455616","0,744770705865155","3,35591755371771","-1,11093418416431"
"3680","-0,275753559996692","3,69579825413854","-23,2201258188689","-4,09851739404587","-5,63180050166296","0,654262744064876"
"3692","-0,275144775858807","12,5771578213941","-30,297231481475","-2,61084412341637","-2,98154268354203","0,14270699043723"
"3693","-0,274983550594816","9,60430058894115","-28,0036644174042","2,91692872651785","2,92702098607023","3,44773922922916"
"3701","-0,274940853053715","0,0669896365920311","-27,4506391320008","1,64298723519869","1,47175138407091","2,36226834226841"
"3705","-0,274929545396521","2,89012800043191","-27,3172935799624","1,24519636890447","2,82984756419648","-4,83125791342428"
"3713","1,46024187107361","10,6215129830937","-25,5262614496787","1,12098534792324","2,18490719800191","-2,82176472574146"
"3713","0,919770055666091","8,38617761940767","-26,0944074740382","-5,66879152484273","0,27773371898247","1,18086211596059"
"3721","0,776636051843655","13,1912285648386","-24,4725191134409","-3,78891340058542","0,779123733199685","0,288421289636577"
"3725","0,738729647723777","11,2879665358626","-25,081449112671","3,54907415743993","-2,56691476138588","1,76476762899635"
"3729","0,728690834898545","10,8535528824608","-25,2282744189332","1,84037595383603","-1,44170052396461","1,17328458457284"
"3730","0,72603224025524","10,7543993138041","-25,26367696206","4,68232726691575","4,06815691023914","-2,4369673981567"
"3742","2,46049658228561","-5,21401010237716","-25,2722132293545","3,56973244407608","2,50864985288744","-1,43595327940205"
"3742","1,91983751123834","0,141249989040856","-25,2742714955944","-1,84092138454413","-4,85330952583542","4,01091118276685"
"3754","-1,69368292748156","17,3093494124093","-32,3102870963701","-0,530409236514681","-2,7780145941157","2,51810257018072"
"3754","-0,65065724796153","12,2279148431933","-30,0068123895157","-1,80894703812421","1,24167045564369","-1,34155347667155"
"3762","-0,374431111198502","11,0680931674977","-27,692518343762","-1,20817311181581","0,292573861946447","-0,409551476731796"
"3762","-0,301277707472011","10,8033674682704","-28,1344953649663","2,35491565184564","0,0444427693658284","-0,151658996183022"
"3774","3,18843246757512","-1,65932706820628","-26,4821851126039","1,46749748989568","-0,0204284350132822","-0,0802980639877063"
"3774","2,1126179205349","2,49610156831562","-27,0837797800536","1,19039933286669","-0,0373883134139669","5,1093238532646"
"3778","1,8277082562406","3,4445652627302","-27,2288363898538","1,10387486005205","-0,041822291141358","3,54533415092167"
"3779","1,75225518021405","3,66104915845064","-27,2638124645852","2,76460534552885","1,69557925262807","-0,334018278349015"
"3791","-0,00289559883210866","12,5692264481095","-30,7900055573795","2,28317187546812","1,14980419260744","0,592533573500877"
"3795","0,532285050453881","9,60249027759537","-29,6402418430667","-1,24265258382911","-0,731443584085768","-2,59766589326318"
"3803","0,674017786402074","1,83832954106048","-24,086371134852","-0,343598565746122","-0,223275573943959","-1,48041985085377"
"3803","0,711553090539399","4,06618394060897","-25,7472208734017","-3,43836295080998","5,12526176327034","3,99860692331899"
"3811","-1,01367479747484","2,80293169315625","-22,6299255926992","-2,40470953273681","3,52357930229057","2,5146978822181"
"3815","-0,470569621733914","3,51459828681014","-23,878282817869","1,29354674780313","-2,11084562238426","-3,06578750498779"
"3824","-0,326738220938533","10,7640463885924","-29,4559264103978","0,448334922643617","-0,583905395127492","-1,60995288152747"
"3824","-0,288647124077711","8,41871042701473","-27,8008087938071","-4,87882801176811","-3,66182482096106","-1,20711168339995"
"3832","-0,27855939878242","7,88339476999428","-27,4017265491107","-3,54224565928956","-2,46651373785208","-1,09564227039541"
"3832","-0,275887850572479","7,76121063205164","-27,305499769554","8,68934046335041","-0,415451756630398","0,658494140107432"
"3844","3,19515650344694","0,646310071965215","-14,9701387571839","5,50867853580693","-0,879223670120743","0,1438778518964"
"3844","2,1143986575664","3,0223560925124","-18,9958343859343","2,8277623374075","0,738088912607751","-1,72181255492749"
"3852","0,093011429793497","10,6516936348844","-34,0375494316285","2,99064070796813","0,160917885824799","-1,23806415844654"
"3852","0,557684260200915","8,39306625954594","-29,6644103533831","-3,7094919083359","1,74858349050509","-2,82749899388309"
"3860","2,41591272104869","7,87754156832842","-25,0921986502209","-1,8016221795353","1,16366158029924","-2,26730844966522"
"3864","1,90803029690674","7,75987465693048","-25,9897461770945","-1,20588590956718","-0,727820719172847","3,05757656918809"
"3873","-1,69680985068661","0,646005139788562","-27,9650428191336","-1,01986602676384","-0,22232841489283","1,53101525948902"
"3873","-0,651485355968691","3,02228649268911","-27,4413266855758","-0,961780933506008","1,64838786873587","-0,614688507593113"
"3881","-0,374650420348921","3,5646653392735","-27,315048161277","-0,943643742965267","1,13746651304635","-0,208422069378847"
"3881","-0,30133578746042","3,68846162832116","-27,284599861755","4,12526342567004","-5,95035141627536","-0,0960048647788945"
"3893","-0,281919757530735","14,3472363617293","-25,5183783347151","2,70804017602809","-3,80338515224524","-0,0648981163464721"
"3893","-0,276777779682961","10,7800686266681","-26,0925066960009","0,577761353143287","-3,24208392288117","-0,0562906278265304"
"3901","4,9300892439616","2,87886124831428","-29,7487002809624","0,912577383410039","-3,09533775580623","-0,0539088662360549"
"3905","3,30903205507436","5,0754351770434","-28,6302823077049","1,01712438155443","3,89727048880924","-3,49983366088717"
"3914","-2,32578034407375","3,80504325917122","-23,0839696899707","1,04976939802002","1,72541267712496","-2,45334888202891"
"3914","-0,818056604345065","4,5150802452021","-24,7466418365985","6,12320666531529","1,15760382044827","1,28280575536763"
"3922","-0,418763746931613","6,44889708684977","-30,4241851143274","4,70739794835213","1,00915630423151","0,316629917992043"
"3922","-0,313018389356962","5,89028478145003","-28,7931553270333","0,889812885101004","-2,50677522073395","1,77257318428479"
"3930","-0,285013679427948","5,76278325579073","-28,3998811438844","1,69776405098223","-1,42597768813488","1,17544444476147"
"3930","-0,277597147901687","5,73368142812186","-28,3050548051281","5,32554433632477","5,81082823603506","1,01021409992038"
"3942","-0,275633016153154","2,18353282140888","-23,0055507785505","4,45832623585861","3,70281328021591","0,964493529046338"
"3943","-0,275112852042486","3,37322241596726","-24,7277334551744","-5,93895199691124","-0,325426067791908","-0,771449645828965"
"3954","4,93053016937614","16,0470370919297","-30,4196259221427","-3,18552363579616","0,621434096668589","-0,251799142385027"
"3955","3,30914882604774","11,9397959722628","-28,7920560138287","-2,32575993353","-4,34670177972788","5,06186811977096"
"3963","-2,32574941943259","9,23057782665582","-26,6407362494788","-2,05729693875098","-2,64556744976153","3,53220276619532"
"3963","-0,818048414523542","9,61220719004488","-27,1220096574767","6,46527084239488","3,01485809600361","-0,337651838556329"
"3971","3,05157526568261","0,840547396181168","-25,4791745566642","4,12646026421258","1,49471545137621","0,591528138045644"
"3975","2,07637381177589","3,83844326157634","-26,083053874287","5,08390975358265","-2,3798310061054","-2,59794410537389"
"3979","1,81810967171915","4,52270369213034","-26,2286613593303","4,38287533748486","-1,39278948908144","-1,48049683439173"
"3979","1,74971317192719","4,67888401254325","-26,2637702611952","-5,96251169602716","-2,87329886410561","0,552001774033171"
"3991","-0,00356880289840156","11,8015440958082","-29,7899953812908","-3,19288020058726","-2,26036211060777","0,114410554135049"
"3995","0,532106764758584","9,42726916235322","-28,6402393894065","-0,640309104984078","-0,361555631783783","-0,00667447054642666"
"4004","-1,06119785112541","3,57008896753217","-26,6041301988578","-0,843263499423228","-0,865133108177036","-0,0401796747996727"
"4004","-0,483155227030919","5,23320575947841","-27,113183200248","4,15660736439055","0,741772738419987","-0,0494508354159819"
"4012","1,40509713519406","-1,47420540210845","-21,9592866641447","2,71782738574035","0,161880982447142","-0,0520162404355641"
"4012","0,905165988236194","0,994848809444319","-23,7165782439429","-2,79467843261906","-5,20540775640026","-1,77601803238313"
"4024","-2,69756841007215","13,9606744901135","-31,1758160035062","-1,51596977910504","-3,60862764762103","-1,25306325184041"
"4024","-1,65168624644789","9,92008397633103","-28,9743886964506","2,25880550569075","3,76307636935671","5,78481025413484"
"4028","-1,37470362249156","8,99783172715601","-28,4435801651237","1,43748689791863","1,69032906846091","3,73224669350061"
"4032","-1,30134987706782","8,78733051249267","-28,3155915206536","-0,506719467688177","-0,590129171092196","-2,00558999190766"
"4045","0,453244932941736","-1,89123435119244","-23,0080913932123","-0,113801927675116","-0,186330441144684","-0,593295743482588"
"4045","-0,0820829545016232","1,67141634803029","-24,7283460486191","-6,7421043373946","-5,29644388650405","1,52078940488534"
"4053","3,24648215992747","9,57159272696769","-25,1431341473304","-4,81180547798003","-3,63242806432991","1,10577383951013"
"4053","2,12799131217196","7,37478347582036","-25,2431479251114","0,854178127790775","0,279732487412287","4,43751952808293"
"4061","-1,63855722788144","10,4168747844974","-30,5439027478799","-0,376606769077186","-0,697475229377557","3,35944046842347"
"4065","-0,636058221939555","9,11122268786785","-28,8220216634489","2,61457396277527","4,26272660598807","-0,385456561636935"
"4073","3,09977201559328","-0,0455538645947948","-28,4068413998912","1,54857633468488","2,55951800636082","0,578300185082023"
"4074","2,08913783311665","2,86444029544287","-28,3067330632549","2,90346430101615","-1,36288907535028","0,844979460526747"
"4082","1,82148998763442","3,52863743445674","-28,2825949238882","2,3265308716013","-0,388360203572867","0,918771769834919"
"4082","1,75060838632569","3,68023837082031","-28,2767747315679","2,14638221466151","-0,133580115527769","0,939190697792302"
"4094","-1,73850014370189","16,1171125311335","-26,5164915379771","2,09013042382642","-0,0669706028245944","0,944840780068323"
"4094","-0,662526262061656","11,9557904738578","-27,0920517512465","-2,99067810760526","1,68900449712272","-0,776887720193473"
"4102","3,09276244275709","7,4624754196065","-27,2308309289721","-1,57717108311894","1,1480852935219","-0,253303901481426"
"4102","2,08728147688026","8,43689019860967","-27,2642933882008","3,92744320301614","-0,731892971757121","-3,55500787752175"
"4114","-1,64933847780815","-0,199468163207542","-25,5134820343153","2,64627040223845","-0,22339306151543","-2,46861603337746"
"4114","-0,638913437372126","2,82930983429081","-26,0913260992054","0,558473613483334","-7,04469426936198","-3,8912945596919"
"4123","-2,106489401152","8,83587832293847","-24,4717761318106","0,906554746797234","-4,82805007609916","-3,28496119795923"
"4123","-1,49514985970153","7,20685894559341","-25,0812699648124","1,01524380081198","-0,771410782762179","0,329399987505973"
"4131","-1,33324784415091","6,83504032661145","-25,2282312227707","1,0491821827925","-1,71084608708668","-0,670477081664396"
"4131","-1,29037107786624","6,75017388036514","-25,2636665465939","-0,627968418341481","3,25923093910428","-0,947151142051447"
"4143","0,456152465660533","4,95905027488373","-30,5488502014247","-0,151662163365924","1,55860410186582","-1,02370908907445"
"4143","-0,0813129480231682","5,55023186874453","-28,8232145942995","6,74805717465693","-0,624567246308608","-1,04489329132375"
"4151","-0,223650761732519","5,68516723345156","-28,4071290395833","4,90250881263367","-0,195333905372212","-1,05075513117697"
"4155","-0,261346309568237","5,7159658118202","-28,306802418987","-5,80025506835357","-0,0831154667371326","-1,05237714960657"
"4164","-2,00649770283641","14,5817610038667","-24,7648519913215","-3,14221523290697","-0,053777163374624","-1,05282597520601"
"4164","-1,46866890043425","11,6053512510596","-25,9108162943369","-2,31223679512804","-0,0461069796271064","-1,05295016887424"
"4172","5,61443883746462","9,1542418566281","-27,9460112322127","-2,05307431080725","-0,0441016926139568","-1,05298453426527"
"4176","3,4902694379312","9,59478374171204","-27,4367377860605","1,40334557334109","5,17210484671576","-1,05299404344652"
"4180","2,92772230358513","9,69533606023792","-27,3139416850357","0,482619833078245","3,5358259224474","-1,05299667471377"
"4180","2,77874205820993","9,71828681498625","-27,2843330680132","0,195121315811735","-3,84620463485094","-1,05299740280667"
"4192","-2,46621788082294","7,95177215113796","-29,036073660995","0,105349308995846","-1,77615709681315","-1,05299760427585"
"4192","-0,855248898834492","8,54857065957933","-28,4584536543958","-4,98592597922509","-2,97352620028846","2,39358618729512"
"4204","-0,428613440976437","8,68478806761337","-28,3191778189479","-3,57568722120066","-2,28656546925288","1,34728375820686"
"4205","-0,315626899375192","8,71587926839396","-28,2855956055236","6,99115033533538","-0,368406217965494","-0,66552849787604"
"4213","1,44946392659273","8,72297573851427","-28,2774982564405","4,29066722386388","-0,866924120225097","-0,222489905291202"
"4213","0,916915715619956","8,72459548580302","-28,2755458222353","3,4474357853362","-2,73581702148691","1,62339437506708"
"4225","-2,69445671122622","-0,133800323987371","-22,9984355675144","3,18413502411277","-2,22441896209632","1,13416546343208"
"4225","-1,65086217033178","2,84429831486381","-24,7260178342642","-5,33682083892533","1,38640207720154","-4,17108389857524"
"4229","-1,37448538111321","3,52404008987839","-25,1425727678843","-2,99750693597902","0,330412387157263","-2,63908924404264"
"4233","-1,30129207985917","3,67918904118318","-25,2430125652027","-5,64254719227199","0,0543352446571198","1,23140989709603"
"4241","2,18842866131315","14,3451199224825","-28,784990282059","-4,46846648456566","-0,0178421537868447","0,302408268917843"
"4245","1,11261691251654","10,7795855559761","-27,6390325590179","2,64913436993275","1,70184860152419","3,49192986278664"
"4254","0,827707989285505","4,6505040913443","-18,5683198964411","0,871619962199305","1,15144324642103","2,37449624747237"
"4254","0,752255109515914","6,2515602620073","-21,3811880974126","2,00433534204546","-4,20813659017906","-1,38129050597851"
"4262","0,732272804290226","6,61699636581759","-29,0949466736262","1,3580280628526","-2,60934107185151","-0,420547033670806"
"4266","0,726980858862141","6,70040602277719","-26,9548894697056","-3,90702651557175","1,28576833319038","-3,60128540291103"
"4274","-1,00958903724252","4,94769091578991","-28,1977583360299","-2,55105070044152","0,304102777558207","-2,48142139840572"
"4274","-0,469487583403629","5,54763913027283","-27,4974390910796","-0,439896515696495","0,0474568803067094","-0,448254060296591"
"4282","-0,3264516630199","5,68457544893915","-27,3285779941537","-0,780684253788938","-0,0196404281382321","-0,885660237290201"
"4282","-0,288571234491886","5,7158307388412","-27,2878621773878","0,800652001065141","-1,77574305703377","2,43988978821359"
"4295","1,45662912102179","5,72296466179441","-23,7602851170059","0,294427518235471","-1,23485719450432","1,36009633854465"
"4295","0,91881328536839","5,72459295757608","-24,9097151288156","-1,55139005496668","0,645112354110332","2,7846006939013"
"4303","-0,958785752989651","12,8119770207037","-28,704625546809","-1,12775041097083","0,136610164990528","2,17877255381062"
"4303","-0,456033269459507","10,4296504450933","-27,6196550002169","4,06777573769103","0,00366773889413579","3,73442693823278"
"4315","1,41227988602034","4,57063248792987","-29,1169265430249","2,69008952652161","-0,031088628009588","3,16488907039681"
"4315","0,907068207473008","6,23332981632296","-28,4779489152323","2,25990415681896","-1,77873606571279","-2,16258242839379"
"4323","4,24360904503207","3,06932911831502","-23,0472390361484","2,12557788512816","-1,23563968442006","-0,636736818582665"
"4323","3,12723042061999","4,34715577504357","-24,7377853350244","-1,29186163335554","2,38346854007979","1,50876890856024"
"4331","-2,37392715783738","4,638815745091","-25,1454101496938","-0,358964193268281","1,32964544544029","1,10244767109535"
"4332","-0,830807401017201","4,70538622840354","-25,2436967151931","1,62008289357194","2,79269549553585","-0,733276620559387"
"4344","1,31302786130841","6,49233383710702","-27,0262754166061","1,23804444084522","2,17519418938971","-0,241236357994587"
"4344","0,880783137133512","5,90019908493734","-26,4560911000216","2,80650007471205","-3,20192716168909","-0,105084843458236"
"4352","-0,968857337164146","7,53679926722019","-28,0774879872468","2,29625359133067","-1,60771768358339","-0,0674106197800449"
"4352","-0,458700542990955","6,91034818141037","-27,4684394838725","-4,6140636532301","2,28619275058617","1,66630606584113"
"4364","3,14674192960707","3,22385645975308","-23,8038259482379","-2,77182450944908","1,3042137369198","1,14603947483869"
"4364","2,10157694957071","4,38242616131859","-24,9202137015393","-2,19658152543501","1,04748588943793","-0,721214416401359"
"4372","-1,64555258521507","8,1903723061684","-30,4660367922882","-2,01696071356893","0,980367155987","-0,237898648685594"
"4373","-0,637910813461977","7,05952419989434","-28,8032466108294","-0,273125812328384","-4,25286259332322","-0,104161272335961"
"4381","3,09928139085673","5,02965852558264","-23,1256748725217","-0,728609756633969","-2,62103420414239","-0,0671550601914365"
"4381","2,08900790019339","5,56634798291034","-24,7566977973961","5,8801561639029","-2,19441022951176","-0,0569151424162789"
"4393","3,55662399913873","5,688845686511","-26,9088501536936","3,94375699532244","-2,08287398162174","-0,0540816744668308"
"4393","2,94529508674747","5,71680540731892","-26,4277775004095","-0,0363835134844299","3,16196824892661","5,11657813997751"
"4401","-0,686940957583487","9,26669333168419","-28,0706610072331","0,720809378214593","1,53317581802055","3,54734147064322"
"4401","0,351128238566447","8,07694423718869","-27,4667933612761","2,64499235630927","-0,63121519752335","-3,78004668408938"
"4409","0,626041742016476","7,80538769746765","-27,3211886905068","2,2458224721196","-0,197071940688418","-1,80759416498517"
"4413","0,698847518991147","7,74340575975789","-27,2860804672202","-4,6298108745396","5,13211242124599","0,461491300908567"
"4422","-1,01703963403932","2,41399926751909","-23,7598555107435","-2,77674161188206","3,52537033310838","0,0893655752280771"
"4422","-0,471460736711518","4,19757876970573","-24,9096115420797","1,17737896140096","1,36674414242978","-3,46018846580088"
"4430","-0,326974216324369","2,83292215525606","-23,4279610865082","0,412061291002536","1,80239455069889","-2,44237873636044"
"4430","-0,288709623108179","3,52144351674151","-24,0707052735449","1,86083719619334","-3,29939161607267","-0,437450640386833"
"4442","1,45659247134614","12,5373618935043","-27,743443518226","1,31322046993009","-1,63319871650941","-0,882670843749074"
"4442","0,918803579376948","9,59521729186386","-26,6290147961688","2,82997394532385","2,27953100869182","-1,00586686976934"
"4450","0,776380098402752","5,38017570946466","-29,8780632064528","2,30358335599378","1,30247209617879","-1,03995620514219"
"4450","0,738661863170089","6,4181055450978","-28,6614743185733","-2,92402698792788","1,04703055620544","4,12048677142174"
"4458","0,728672883408217","3,11150360515655","-24,8503705408184","-1,55635913310663","0,980248114012542","2,54842302053128"
"4462","0,726027486133727","4,35678197082232","-25,9314365417165","2,2461938463431","-0,775772196489216","-4,77974741050039"
"4470","2,46049532324411","8,18451909924659","-26,1921033619949","1,43354888119534","-0,23486481270142","-2,80751135356607"
"4471","1,91983717780439","7,05818822357352","-26,254955390583","4,55529467180802","5,12223188149206","2,90809806281617"
"4479","-3,42885143763083","10,3446129003825","-28,0289901103547","3,53006625343873","3,52278717229977","1,4896533495366"
"4479","-1,8453530847139","9,0947291370051","-27,4567456674457","8,27318035209549","-5,5881742353248","-4,07271752944893"
"4491","2,04434412678511","3,49418773842422","-23,8010063332076","6,75422754232654","-2,97013706560642","-2,6118704752651"
"4491","1,07445877784981","5,21588153941177","-24,9195338354777","-3,84655620178286","1,19144210262161","1,23894155024482"
"4499","0,817602510262282","2,06534660324186","-25,1892333794172","-1,15667285761168","0,279442199482732","0,304492338172308"
"4500","0,749578859558185","3,34624677833355","-25,2542633798897","1,37099671276863","-1,69755112203338","1,76921461792144"
"4508","-1,00360437305505","14,2691268839127","-34,0643425638827","1,16026676556042","-1,21441475440762","1,17451510232381"
"4511","-0,467902655342136","10,7622403806846","-31,1886303736783","1,09446590357005","-1,08810394941631","2,73324886702176"
"4520","1,40913649782532","2,8747920064792","-23,4597188439602","1,07391944827959","-1,05508134849732","2,16456308857822"
"4520","0,906235739016568","5,07450638521903","-25,5961223651226","-3,9957400182583","-1,04644794479501","-3,16267263019574"
"4528","-4,43245352813018","0,261325060485237","-20,8346128665498","-2,57875167519283","-1,04419083428848","-1,63676177814976"
"4528","-2,8463070320255","2,16273135560927","-22,6865168764001","-2,13629413349431","-2,78216149657071","0,50876200204644"
"4536","1,0440914914131","14,998993160434","-28,4096877735718","-1,99813585070817","-2,2365352264618","0,102445760007202"
"4540","0,0743918720255433","10,9288300939512","-26,7896597257341","6,48374401453334","-3,83244786836749","-1,73327714937291"
"4549","-0,182415208512746","9,99982800136871","-28,1579181117136","4,13222855043156","-3,24968205730991","-1,24123650432156"
"4549","-0,250425832932968","9,78778615588844","-27,4878328093326","-1,66528081159869","-1,3587634467615","-1,10508488394809"
"4557","3,20189964976141","-2,66288345441774","-27,3262617258448","-0,47556510423351","-1,86440312144558","-1,06741063098391"
"4561","2,11618445564659","1,49528983419625","-27,2873036783744","-3,47956977547536","3,219085104674","-1,05698586091863"
"4569","-1,6416840563281","9,53139239660292","-25,519030279444","-2,41757644899048","1,54810840540468","-1,05410124284758"
"4569","-0,636886304851702","7,36560787513278","-26,0926638930262","2,97727695770461","-0,627311233219521","0,669988877929399"
"4577","-0,37078413060205","10,414780482107","-27,9898583565198","1,6618310952399","-0,196051291226037","0,147058538687154"
"4577","-0,300311871845153","9,11074466984464","-27,4473102122232","8,00207212767509","8,60950077814361","0,00235949045537869"
"4589","-0,281648592342447","3,49784323410799","-23,7987312546197","5,98182550723959","5,91161762300207","-0,0376799048291286"
"4589","-0,276705966578206","5,21671589496072","-24,9189852681369","-3,08774033524451","-1,74795793808626","3,39782471844298"
"4598","3,19493984049403","2,06553704230739","-19,9124616253163","-0,919731033387453","0,249528444966834","2,3484565940073"
"4598","2,11434127837466","3,34629024545943","-21,7052877825181","-0,24276564353535","2,51031052732273","0,334796035262161"
"4610","-3,37734060971927","10,7256306003158","-32,6908533011362","-0,0313817999950769","2,10136767778238","0,777599895649178"
"4610","-1,83171139086604","8,40994214252238","-29,3396947505198","6,7856149669649","0,255893210267774","0,900127300052991"
"4618","2,04795687809554","7,88139343626177","-28,5316628237806","4,91423631098433","0,773413767190026","0,934031622424557"
"4618","1,07541554848083","7,76075383383617","-28,3368300264753","-0,733349339365481","0,908713948514891","2,66670514590718"
"4626","2,55302431518386","2,4179589116065","-21,2543325975765","0,503180357145814","0,94408672515474","2,14614990351607"
"4630","1,94434177676485","4,19848254618421","-23,5465995980305","-4,1739544802545","-4,26234772160362","2,00210806376509"
"4639","-1,68719342417066","8,14838774668374","-27,6170710675035","-2,63439950965516","-2,62351398887569","1,96225052337506"
"4639","-0,648938622558265","7,04994135444556","-26,5985438490913","2,90957350843156","-0,456497783010245","0,227929696386516"
"4647","1,36119245692474","13,8862367829229","-28,1118362186305","1,64069055313419","-0,889954712081445","0,748029116593353"
"4647","0,893538643001759","11,4466000054351","-27,4767215353379","6,3077230185436","0,735283397148187","2,61523675032412"
"4659","0,769689145430536","2,03099496765972","-30,8413422291788","4,76501356138953","0,160184413993948","2,13190818278195"
"4659","0,736889887535099","4,88191232891858","-29,6526201502103","-5,84318824501548","-1,72872978689066","-4,89500043002126"
"4667","0,728203608304351","1,98911916705848","-25,8482356222182","-3,15562120614317","-1,2225660808665","-2,83940279489011"
"4668","0,725903207267381","3,32884810251396","-26,930921769776","4,43456888648074","4,12544725260162","1,17598151977611"
"4680","4,19563083212124","10,7216494853013","-27,191979240096","2,80462144608156","2,52362779648045","0,287070789254974"
"4680","3,11452427477778","8,4090334653714","-27,2549254622894","0,60791905453237","-1,3722721845614","1,76439393463366"
"4688","-0,642123724647605","7,88118603352115","-23,7523434105902","0,921994188061392","-0,390813316518188","1,1731811803246"
"4688","0,362997257093377","7,76070649480407","-24,9078002231972","-0,667683132832741","-3,61134297459035","1,00958783637181"
"4696","2,36435345476954","5,96145431145285","-21,668644513171","-0,164063165130728","-2,45331580227984","0,96432023686453"
"4700","1,89437577504954","6,55078058263311","-22,8876187306399","-6,75779851277449","1,32655946115996","0,951794326484321"
"4708","-3,43559442110443","6,68529247569429","-33,7348169707418","-4,81670601671174","0,314767179072136","0,948328305918601"
"4708","-1,84713883966869","6,71599439797355","-30,3502952781049","2,54039585555496","1,78880573287718","-0,775922693624255"
"4716","0,308702780636805","10,2665082213172","-27,7753389970007","0,837666136118093","1,17417725279465","-0,253036870835841"
"4720","-0,120362280806396","9,07690198632171","-28,1544650951356","-1,38176267263828","-2,4636322692814","1,61494178299319"
"4729","-0,233992258159384","-0,0533874582455809","-21,2103607339316","-1,07478390990039","-1,41469842767587","1,13182656293923"
"4729","-0,264085064387444","2,86265230199515","-23,5359970946972","-0,978929156133811","-1,14046596083236","2,72143660340686"
"4737","-0,27205458975192","10,6152417401665","-27,6145145900742","-0,948998310958383","-1,06877083299096","2,16129453983611"
"4737","-0,274165171731338","8,38474622766557","-26,5979274308134","-0,939652342629081","2,42709460585406","0,283006783288529"
"4749","-0,274724120487771","7,87564254686393","-31,6294472433819","-0,936734044682586","1,34105101094063","0,763269391360444"
"4749","-0,274872147769045","7,75944121117276","-29,8426481669337","4,12742099325413","1,0571165983786","-2,55042191354085"
"4757","1,46025707177788","4,18941241197266","-27,6529350381466","2,70871388096996","0,982885001217552","-1,46734706010613"
"4758","0,919774081292591","5,3745644142725","-28,1249510315008","-2,79752414333835","-2,51364357023985","2,27893234643961"
"4770","-0,958531303888761","2,10156547712841","-21,2032442978262","-1,51685835816457","-1,42777334421292","1,31555811445869"
"4770","-0,455965883302558","3,35451362393211","-23,5342811783981","2,25852804504105","0,594676502457796","-0,674307239728258"
"4778","1,41229773200263","7,18400135610626","-29,3729806758571","1,43740026025673","0,12342425424247","-0,224919054061819"
"4778","0,907072933652662","6,058070050308","-27,7808089040128","2,8687493417662","1,73878118394207","1,62272220998362"
"4786","0,773273452982817","5,80107972286772","-25,6380243444234","2,31569105375448","1,16109887271664","1,13397946992486"
"4790","0,73783912536076","5,74242247792059","-26,1213557624628","-1,23249840313098","-0,728490711496767","-2,44784344082128"
"4798","-1,00671342538967","3,95728104132384","-22,7201370615695","-0,340427901815366","-0,222503577177111","-1,43896276824596"
"4799","-0,468726030578478","4,54982804667339","-23,900034622776","-0,0618770421943314","3,38690283398","-1,15979733808059"
"4807","-0,326249979783367","8,22858126715021","-36,4966905206078","0,0251010400101447","2,33054330462908","-1,08255000891878"
"4811","-0,288517822402068","7,06824527669831","-32,5339983596307","0,0522601261255527","-1,42275204745588","-2,78446697272354"
"4819","3,19181168807527","8,5751552891403","-24,5429940321997","0,0607406069539307","-0,404010733531911","-2,25540114186912"
"4819","2,11351284483289","7,91910282441727","-26,6162016928496","1,75113658575945","-0,137671778193078","-2,10900435355594"
"4827","-1,6423915832361","2,45410157744207","-25,3572140531415","1,2789662273649","-0,0680403240040368","-2,06849517987938"
"4827","-0,637073680319337","4,20673199753157","-26,053646736678","1,13153005609323","-1,78839668904733","1,38929788296192"
"4839","-0,370833753542851","2,83501135111018","-26,2215707052466","1,08549280658617","-1,23816535044702","0,346097149764061"
"4840","-0,300325013566878","3,52192036921366","-26,2620605614617","1,07111758018213","-6,30999556582144","0,0574350816439426"
"4848","1,45351634916008","8,99396452876806","-26,2718234825639","1,06662888599687","-4,63597100507762","-0,0224400439380285"
"4848","0,917988925083818","7,24294163162471","-26,2741775197811","1,06522728195096","2,7559277427516","-0,0445421362852669"
"4860","0,776164352220652","6,84327608775457","-31,5513846090894","1,06478962818788","0,688460136950933","-0,05065796374177"
"4860","0,738604726768202","6,7520536672953","-29,823825691112","-0,623094961226868","-1,59061778312664","-1,77564218625205"
"4868","0,728657751884735","4,95947933041865","-25,8895167317192","-0,150140416299297","-1,18645818350385","-1,25295925218048"
"4868","0,726023478828483","5,55032979933927","-26,9408754780069","-6,7534511056474","2,39632651432407","0,614963260702003"
"4876","-1,00984258170773","9,22869579063956","-27,1943792799385","-4,81534852984205","1,33300702446058","0,131832505994716"
"4880","-0,469554729984483","8,06827141632946","-27,2555041603094","-0,834676128605059","-0,683547174875723","5,16802209521743"
"4889","3,14386739813599","4,25990194817966","-25,5113627741728","-1,59170293579236","-0,210753573099261","3,56157642853701"
"4889","2,10081568286477","5,39065343222383","-26,090815102835","1,54740973971068","-5,30282905157195","1,39376801470487"
"4897","-1,6457541926782","3,87699084797775","-24,4716529202778","0,527604167078366","-3,63409739703548","1,79391791863876"
"4901","-0,637964205484606","4,53150205913578","-25,0812402560264","1,89691569829216","0,279296058337666","0,181350705144557"
"4909","1,36409882911768","11,7679046221832","-28,7459837150159","1,32448605685247","-0,697589329063342","0,735140333528912"
"4909","0,894308342136321","9,41959105686198","-27,6296272888561","6,20898751039104","0,785575256775488","0,888378396296434"
"4917","4,24022982975791","7,11184266860805","-25,6015714073458","4,73418319469715","0,173332679576296","0,930780605866971"
"4917","3,12633549770601","7,58510625858642","-26,1125662239981","-4,16506715967768","-1,72529231432343","-4,22736213126886"
"4929","-2,37416416168502","4,14962099990451","-26,2357773821742","-1,94387649429649","-1,22166739064942","-2,65466188555113"
"4930","-0,830870167120199","5,36548214791749","-26,2654860778486","-2,93805304477999","0,648560686411991","-2,21948302589844"
"4938","-0,422157182983134","2,09949247800985","-17,478250304583","-2,24848672949868","0,137511694368332","-2,09906552077992"
"4938","-0,313917078381853","3,3540404683146","-20,3594705019152","1,34232764132019","0,00390343404992238","3,10413074639782"
"4950","4,92025358487562","14,2709057694716","-31,6074697788932","0,463566857566048","-0,0310270080470788","1,54389717631034"
"4950","3,30642726195643","10,7626464057946","-28,3195893012792","6,94016370927686","1,6984015632408","1,11216794648965"
"4958","-2,32647017554594","-0,668621524382679","-32,803454477847","4,96249447551377","1,15054205535038","0,992704981806029"
"4958","-0,818239293502505","2,72222703511185","-30,8846048212691","-2,40602855877267","-4,20837219688808","0,959648614654498"
"4966","4,78669313674681","3,49617769899099","-19,8686524947823","-0,706865120805472","-2,60940266869056","0,950501650889194"
"4970","3,27105623769945","3,67282953690388","-23,2124841730533","-3,55179368418152","1,28575222935956","0,947970612141341"
"4979","-0,600669117875428","10,800162180527","-27,5365090987038","-2,44012851390645","0,30409856738491","0,94727025327828"
"4979","0,37397574602663","8,42695374447756","-26,5791187333029","8,03347882214245","0,0474557796022003","-0,776215465335025"
"4987","2,36726090531949","6,11352317921418","-28,1071524313669","5,30388438144188","-0,019640715905583","-0,253117883132735"
"4991","1,89514575976709","6,58548982991863","-27,4755921797464","-5,67492471659603","1,70137838680994","-1,83166448108276"
"4999","1,77011476069978","-0,393797655962479","-25,564430435315","-3,10308057127745","1,15132031384328","-1,26846107361526"
"4999","1,73700260389854","2,01320162804379","-26,103610786427","-3,98776484719114","4,48463506811466","0,610673781513011"
"5007","-0,00693496268866911","4,33434484952003","-26,2336180455251","-3,26400934264923","3,35609434568983","0,130645572459828"
"5008","0,531215299349007","3,8641385886683","-26,264965418224","0,337480673249538","-0,416072002687958","-0,00218210985642544"
"5020","-1,0614339393167","14,3873340829054","-29,7902835577594","-0,5379466182418","0,597735692298461","-0,038936602314915"
"5020","-0,483217750639202","10,7892208071267","-28,6403088745662","5,93969112332467","-4,35289747256655","1,67418505643959"
"5028","4,87541742065908","2,88095020511007","-26,6041469531314","3,96234690957247","-2,6471872469914","1,14821965517069"
"5028","3,29455322982857","5,07591197495123","-27,1131872400414","3,34491708794396","-0,46268690163126","-0,720611142895614"
"5040","-4,06478321605886","0,261645881980886","-25,4770472938531","3,15212334875334","-0,891572790552848","-0,237731718034312"
"5040","-2,01376790119364","2,16280458212033","-26,0825409483117","-3,65906861966279","2,47342112748031","1,619176842383"
"5048","0,264574143306738","14,999009874158","-26,2285376825309","-1,78587740332748","1,35316258156781","1,13299843807617"
"5048","-0,132048937472328","10,9288339088068","-26,263740440224","0,486778360499511","1,06028303820416","0,99846894706216"
"5056","-0,237087253887574","8,22807576968089","-29,7899881908531","0,196419824602513","0,983712832840514","0,961243550392615"
"5060","-0,264904716990522","8,61163610330278","-28,6402376556469","3,48125063329577","4,44081589558567","2,67423490614873"
"5068","4,93323360589197","-0,159582952595969","-24,845249952997","2,50694584922518","3,34463829450621","2,14823344898781"
"5069","3,30986478140667","2,83841350987236","-25,9302018646993","0,514969233559405","-3,89618858308548","-4,89048309701369"
"5077","-5,79589665553587","10,6097093110633","-24,4329258286436","0,892970414160723","-1,78922486227485","-2,8381528123634"
"5080","-3,20738982718035","8,38348346788666","-25,0719023730234","1,0110020648419","-1,2383818674266","-2,27025644728259"
"5089","0,948465364927785","9,64710742827879","-30,5026119908747","1,0478576919602","-1,09436989324004","-2,11311493654035"
"5089","0,0490670540356281","8,93552567695011","-28,8120656290102","2,74711386889948","0,681841247447325","6,54682700690817"
"5097","-0,189122020027493","7,00135624741572","-30,1633206269695","2,27771012570287","0,146212538967535","3,9431028832997"
"5097","-0,252202008410804","7,5598880757242","-29,4891354647414","-1,24435802649301","5,2218604548694","-3,67053630490343"
"5109","1,46626084056111","0,600358823069954","-22,2910565110757","-0,344131093746277","3,54883399085178","-1,77729175862132"
"5109","0,921364068854329","3,01186786251198","-24,5554544743767","-3,43852923377976","-3,84280381532743","-1,25341570217756"
"5118","-0,95811022497354","10,6492997289256","-28,6192061568128","-2,40476145493815","-1,77526798913998","-1,1084549663582"
"5118","-0,455854368308912","8,39251985793775","-27,5990586621932","2,98127846611012","2,24238852596239","2,3782406873144"
"5130","-0,322841157151046","9,6491699562733","-25,5942006948215","1,66308057451815","1,29276159370517","1,34303753442671"
"5130","-0,287615058524701","8,93599644256604","-26,1107889965251","1,25147055567764","1,04449184981424","-0,666703462289956"
"5138","4,92721919030304","3,45795749337348","-19,1998295455144","1,12294447572369","0,979584396541872","-0,222815027433945"
"5138","3,30827197423458","5,20761209838026","-21,5334578127327","-2,29268392089029","0,962615041258066","-1,82327943617473"
"5146","-0,590813215636645","3,83521223139846","-30,8905418014189","-1,35922095425222","0,95817858590155","-1,26614086396873"
"5150","0,376585900170664","4,52196621951624","-28,1467235039074","0,620002719423499","-0,781542037155893","4,05789964958013"
"5159","0,632783734715245","8,2222218915406","-29,2440133913873","0,238019406301503","-0,236373275462898","2,5311046584428"
"5159","0,700633011557469","7,06679376894485","-28,5085921179918","1,80649225762398","-3,57096628756004","-3,0612476174997"
"5167","0,718601642620241","5,03131778216519","-21,2957479026576","1,29625115042875","-2,44275975189029","-1,60869665799384"
"5171","0,723360303541872","5,5667267030776","-23,5565856635227","-3,926316484285","1,32931922695608","2,23981977111661"
"5179","-1,01054787462178","5,68893212821423","-24,1017192537016","-2,55707403308083","0,315488690145723","1,30473534898034"
"5179","-0,469741513819973","5,71682513736951","-24,2331619588287","-2,12952524489644","0,0504336046455484","-0,677301986344456"
"5188","4,8789863537235","5,72319163017346","-27,782615102154","-1,99602225123948","-0,0188621955880234","-0,225747724637114"
"5188","3,29549839600434","5,72464476240445","-26,6384598552302","-0,266587734146885","-1,77553959650694","1,62249291014281"
"5200","-0,594196062518038","9,26848264016152","-24,6037011172708","-0,726568228195308","-1,23480400193872","1,133916020807"
"5200","0,375690015492409","8,07735264129746","-25,1130797400219","-0,870198089105556","4,12224777981167","-0,724569074045068"
"5208","-1,10262194568338","4,26197470960487","-30,5125406846955","-0,915046810327473","2,52279132874437","-0,238826909548965"
"5208","-0,49412563536633","5,39112653358856","-28,8144596373738","0,758697014806216","-4,84961238912838","-3,55100197693293"
"5216","-0,332976597203836","12,7358643439804","-23,1283785594127","0,281326986976364","-2,77704801750313","-2,46750756833151"
"5220","-0,290299243109173","10,4122779627645","-24,7573497108448","8,57100686377491","-0,496637602839565","3,00217985617689"
"5228","1,45617148977261","4,56666727273499","-26,9090073431766","6,15947655564345","-0,900448836089876","1,51568654159611"
"5229","0,918692090162457","6,23242476825648","-26,4278154019647","3,71872329664508","-1,00602093820058","-2,34222201129359"
"5237","-0,958817849307303","1,29736944148489","-24,5529104904299","3,95659304190157","-1,03362162839031","-1,40973646566103"
"5241","-0,456041769577963","3,17095837374775","-25,1008330953327","0,655372499737895","5,91340550628507","2,29487366320535"
"5249","-2,05805920877031","12,4573647469669","-28,750707943803","1,62455955562399","3,72963100383867","1,31996920555527"
"5249","-1,48232401542276","9,5769581913512","-27,6307663957147","-3,1360535744109","-0,318414862497072","-0,673086655196361"
"5257","2,14048568812147","5,37600812641999","-27,3607258968041","-1,62256487339314","0,623267100855589","-0,224581308463987"
"5257","1,09992009926476","6,41715430719743","-27,2956136852102","7,28876476033235","-2,60766180096677","5,06939951423741"
"5270","0,824345472194504","1,33953338564014","-25,5210339897231","5,07134587491896","-1,45235339904369","3,5342867638703"
"5270","0,751364608808132","3,18058216319106","-26,0931470279937","1,00345637813544","2,32681107113104","-0,33707517956859"
"5278","-1,003131450263","5,37254893738321","-19,1955757110244","1,73324946679678","1,31483295979187","0,591687704244846"
"5278","-0,467777410452772","4,87285855319806","-21,5324321274281","1,96112886858432","4,52738369007728","2,57197581886082"
"5290","3,14433808847246","10,074065080506","-30,8902944880016","2,03228468324721","3,36727051294651","2,11993753365605"
"5290","2,1009403365294","8,2612243340536","-28,1466638716536","0,366755302466633","-0,413150114009105","-1,45172895799432"
"5298","-1,64572118045148","0,760436648196261","-25,7262393572152","0,84669030754043","0,598499588655373","-0,4400379222285"
"5298","-0,637955462804504","3,04840512946893","-26,1426261815364","-4,06669278756352","-2,61413700054451","-7,05326253650911"
"5306","-0,371067277389987","0,0271206322540349","-28,0019052721281","-2,60090682420103","-1,45404627030313","-4,88319519793395"
"5310","-0,300386858055852","1,33752181904847","-27,4502149665889","2,9200316687569","0,587807728616077","2,61044765549064"
"5319","-0,281668451058966","17,5823947462747","-27,3171913051253","1,64395613533244","0,12162848722639","0,683999154244048"
"5319","-0,276711225793442","12,2902365935477","-27,2851166169687","7,99649063446287","3,47687245951604","1,87422721895474"
"5327","1,45977002584233","5,76705860641767","-25,5185029348213","5,98008267443665","2,35406489519381","1,20357293714724"
"5331","0,919645096148846","7,27816346847211","-26,0925367395999","-6,46378040063649","0,321958178854504","-4,15187829003987"
"5339","5,9821082241538","0,536056055491816","-19,1954285581818","-3,34940239066543","0,790685742398441","-2,63377489704987"
"5339","4,32280832369265","2,99719095530626","-21,5323966459093","-4,06467934490489","-0,825331238944051","4,67946426714853"
"5347","-3,05730037495993","7,10244356555626","-30,8902859326917","-3,28802605368707","-0,247821491118801","2,70309660809144"
"5348","-1,01178620857633","6,03945473764122","-28,1466618087958","-1,35776652558145","3,38028373778902","2,15621971501229"
"5360","-0,470069463755437","9,34033704033756","-25,7262388598186","-1,75503899445857","2,32881281314837","2,00489446193332"
"5360","-0,326605763311766","8,09375318521534","-26,142626061604","-0,191340213652033","-1,42320446583422","-4,93014615238613"
"5368","3,18172479857549","2,49396498045602","-28,00190524321","-0,703072034242834","-0,404129013449115","-2,84912790011729"
"5368","2,11084151796799","4,21583069559661","-27,4502149596162","0,824886577188643","-0,137702701204794","-2,27329334270263"
"5380","3,5624062305908","2,83708810071558","-25,5583114756276","0,301994814768421","-0,0680484084927326","-2,11395527003007"
"5380","2,94682640422818","3,52239438086815","-26,1021353818136","1,8264687112751","-1,78839880264992","3,10001063252562"
"5388","-2,42170383820385","12,5375789252912","-31,5099017791598","1,30248883941016","-1,23816590302568","1,54275710752646"
"5388","-0,843460174677639","9,5952668286959","-29,8138233440167","-3,92436875299554","0,644247327867601","1,11185248024957"
"5396","-0,425491414553549","3,60843391367611","-22,3693453084325","-2,55646584995608","0,136384013186649","0,992617689749585"
"5400","-0,314800088190578","5,24195787447376","-24,5743314826754","-0,4415874073357","-3,47351290513909","-5,93354323440076"
"5409","-0,285485529541851","2,0712984458201","-21,5882384730385","-0,781212238201529","-2,41728161360977","-3,85006790014673"
"5409","-0,277722108712004","3,34760526793693","-22,8682312123986","-5,95050458764713","4,8131017311539","3,6196142463357"
"5417","1,45950231212368","10,7259307501165","-31,9712624211888","-4,56462681839789","2,70340766105297","1,68653562396338"
"5421","0,919574197102242","8,41001065078321","-29,1661868736451","5,99460396899317","-1,32527067331732","1,15163715695191"
"5429","0,776584182311095","11,4249152778933","-32,0075862302661","3,29174562811868","-0,378525277118003","1,00362643110772"
"5430","0,738715911033611","10,1130579055405","-30,6927049323769","4,13552045041762","-0,131008879825417","0,962670667881617"
"5437","-2,74164964670166","4,49837122297895","-25,0990210439797","3,39899088434783","-0,0662983809155245","0,951337877424269"
"5438","-1,66336034991149","6,21683640678247","-26,7502710216687","-5,26973165205632","1,68918024230805","-0,775089920882313"
"5450","0,357373128110067","1,29381144634004","-20,1129013893417","-2,97655819857981","1,14813124020967","-0,252806435892389"
"5450","-0,107472835875721","3,17014627239433","-22,5124976807488","-2,26051004343515","1,00667980004873","1,61500554620311"
"5458","-0,230578726116857","17,7724386946028","-31,8854878907859","-2,03692252557479","0,969698842970891","1,13184420673439"
"5458","-0,26318105330954","13,1053666375748","-29,1455049041054","4,78388486393955","-0,778530189897766","-0,725142361731636"
"5470","-0,27181517907149","3,18135640767695","-26,7259599067604","2,91369608273529","-0,235585860403348","-0,238985542881905"
"5470","-0,274101768223012","5,91623186111866","-27,1425588003946","-4,42126595787569","-1,83219966682625","1,61882989892135"
"5478","4,9307979362997","-0,546553711023916","-23,7252495417264","-2,71162303019971","-1,24961716768749","1,1329024360183"
"5479","3,30921973918469","1,97833553238897","-24,9012673448717","-2,17778348898986","-2,8358680011453","0,998442382517401"
"5487","-2,32573063939462","14,9569053858567","-25,1848289600571","-2,01109098779808","-2,25057621422562","0,961236199768536"
"5491","-0,818043440976449","10,9192236899777","-25,2532013855352","3,10420288393086","1,3795635450723","2,67423287217169"
"5499","-0,418760260855928","8,22588226704806","-32,3052066678047","1,70146397829833","0,328624526511524","2,14823288616994"
"5499","-0,313017466134037","8,61113544313199","-30,0055873957052","1,26345585291859","-1,68469293181085","0,279392518228736"
"5507","1,45015498691607","5,15556208052366","-25,9333431452271","1,1266869095833","-1,21105311892213","0,762269295028364"
"5511","0,917098730215987","6,3668381811371","-26,9514429103781","-10,7302549937839","4,12845719262781","-2,55069864827306"
"5519","-0,959239821336495","1,32804888596847","-21,9202878176022","-7,43260963367918","2,52441471291473","-1,46742363484154"
"5519","-0,456153521096391","3,17796086177071","-23,7071748353496","3,72357453917084","0,366494305812184","5,725495004911"
"5528","1,41224803958957","21,3177285552174","-25,8969091685579","1,20711612792977","0,802329233603345","3,71583368499022"
"5528","0,907059773532489","15,4580742541269","-25,4248982880175","5,48459057613906","0,916273586091573","-2,01013160391952"
"5540","5,97877523330372","1,71835462207537","-25,311086943229","3,82024082216615","0,946063111060951","-0,594552444205876"
"5540","4,32192564246585","5,58230624239639","-25,2836447321772","-0,0749516940924029","0,953851261842648","-0,202850258013895"
"5548","-4,79270255866766","1,14898190489595","-25,2770278615233","0,708766384026884","0,955887390067613","-0,094463099574367"
"5548","-2,20654392946596","3,13708937888131","-25,2754324005319","-5,7975077491502","0,95641971388423","1,658820426197"
"5560","-1,52164745833643","12,4496342539644","-27,0339275305193","-3,82910530792363","0,956558884218525","1,14396813789258"
"5560","-1,3402652450147","9,57519373030659","-26,4579361790459","1,84877622009964","-2,52052625027237","-0,721787572063168"
"5569","0,442938914633898","10,690864700911","-28,0779328730188","0,621706474070369","-1,42957274685297","-0,238057245486216"
"5569","-0,0848123135945777","9,94551313867511","-27,4685467548064","0,238551407214849","0,594206067998299","-0,104205157351575"
"5577","-1,95974592608477","0,916623444902051","-27,3216114690567","0,118910444888038","0,123301264214692","-0,0671672035296873"
"5581","-1,45628755361559","3,85580738367727","-27,2861824076569","-6,66943941760819","1,73874902952262","-0,0569185025760466"
"5589","-1,32295587829945","6,29842010154592","-25,5187599184555","-4,78911570644185","1,16109046628964","-0,0540826042501763"
"5589","-1,28764544030748","5,85593887639675","-26,0925987035381","7,61225478038304","1,01006785027204","-0,0532978882797276"
"5597","0,456874300556696","9,29845011435119","-27,9898426380192","4,48460837181948","0,970584612247919","-0,0530807510330712"
"5597","-0,0811217833484503","8,08419262430965","-27,4473064221756","1,82024637890418","2,69882290402664","-0,053020667403247"
"5609","-3,69393697898089","9,57879522175727","-25,5576101685792","1,98829383437587","2,15065221036541","-0,0530040417776188"
"5610","-2,65072452882103","8,91993362774451","-26,1019662825373","-4,71022472447048","-1,46978263850592","-0,0529994413327333"
"5618","1,09588791439616","-0,089214999109557","-26,2332215224641","-2,80185100288943","-0,416306375534482","-0,0529981683524787"
"5618","0,0881092004669086","2,85447477694491","-26,2648698085152","1,16953850211063","1,59767441803948","-0,0529978161085612"
"5630","1,55638599507188","10,6133752454439","-26,2725008486972","0,409613091368176","1,12420802701511","-0,0529977186398244"
"5630","0,945232055754841","8,38432020603577","-26,2743408464198","1,86007274079248","1,00042533336175","-0,0529976916694377"
"5638","-2,68695765018074","7,87554530874863","-24,5159046791711","1,31298176714961","0,968063679950756","-0,0529976842065139"
"5638","-1,64887618216043","7,75941901687462","-25,0919102477502","4,51764734100857","2,69816383340161","1,6702942415181"
"5650","2,09637741495927","0,645901141359397","-19,9541573261755","3,51831079650885","2,15047990344179","1,14714303525837"
"5650","1,08823883567354","3,0222627553703","-21,7153414570886","1,51851796186142","-3,20838844583586","-2,44420097598006"
"5659","-2,64908493896807","8,87991922855448","-37,9699169283289","1,89407851191492","-1,60940691680313","-1,43795486880661"
"5659","-1,63884629228098","7,21691114566702","-32,8892229647259","2,01134807065816","2,28575111873624","5,73364925047265"
"5667","0,363865224679325","12,1525940173425","-24,6286458501441","2,04796573299218","1,30409827702439","3,71809003059359"
"5671","-0,105753523695752","10,279148320257","-26,6368540739402","-1,31609618843009","-0,691105055848129","-3,73279917852762"
"5679","1,50504502388654","6,30803394727309","-25,362193758826","-0,366531483228653","-0,212729499760183","-1,79452039860929"
"5679","0,931635345331839","7,40163941169138","-26,0548474441701","-1,75777587061754","1,6508974018174","-1,2581830060066"
"5687","-0,955390066614339","2,33599215887456","-20,9452207365947","-1,19219480889493","1,1381226034691","-1,10977411783006"
"5691","-0,455133984477815","4,17977388916818","-22,7131866650702","4,04765284111162","1,00406314966122","4,10116759110777"
"5700","-0,322650376764179","9,91587065617866","-28,4161183976081","2,68380611043287","0,969014747881028","2,54307724731013"
"5700","-0,287564533853766","8,22511694748592","-26,791210278909","-1,11755371509792","0,959851720340232","0,388649141853708"
"5708","1,45689572714052","4,29570145406592","-21,1227726700965","-0,304536185170484","0,957456145379641","0,792501485179082"
"5708","0,918883891087557","5,39882455837738","-22,7559980178476","-0,0506697794163759","2,69539060762017","0,904250690226225"
"5720","0,776401367479817","5,65060898458884","-26,6675612505448","0,0286005309990232","2,14975487339986","0,935172597787394"
"5720","0,738667495893333","5,70807799873137","-25,6107180507198","-3,3221430128167","-1,47001723760063","-2,5028549079737"
"5728","2,46384279697664","7,49294822533336","-28,8736514920397","-2,36841961665351","-0,416367708943616","-1,45418488549837"
"5728","1,92072369455581","6,90033931714391","-27,6604105652344","1,30487834917956","-0,140902376459114","-2,8873013445229"
"5740","-1,69344823815506","6,76507817236949","-27,3678737040629","0,45187323861711","-0,0688849291609446","-2,2838562430714"
"5741","-0,650595094816818","6,73420523571118","-27,2973371657272","1,87326855920206","-0,0500567424393494","-0,393586186212131"
"5749","1,36075377076233","4,95540548128285","-23,7625697278257","1,31710218874854","-0,0451343156035919","-0,870533195014669"
"5749","0,893422465053056","5,5493999559128","-24,9102659945699","4,51893395117748","-1,78240815960912","4,16736748664193"
"5757","2,50482679968647","5,68497735192866","-28,7047583716545","3,51871254319594","-1,23659971385922","2,56139529305732"
"5761","1,93157755267254","5,71592247195169","-27,6196870269665","1,51864340809563","2,38321755071239","0,393717893054731"
"5769","-1,69057379378094","7,49473870200907","-23,8402947818711","1,89411768276108","1,32957982697071","0,793904049573365"
"5769","-0,649833851176902","6,90074798789034","-24,9290070729843","0,323612370714142","1,05411758075431","-2,54194505619741"
"5778","3,09612379396229","1,44991214294915","-25,1915175680759","0,833218837843243","0,982100940327729","-1,46500144521722"
"5781","2,08817166882466","3,20577577210593","-25,2548141438524","-4,0708992818473","-0,775287794984667","0,556289473363798"
"5790","-3,38427114871609","5,37829930045696","-25,2700762251023","-2,60222031074386","-0,234738171139992","0,115596995168753"
"5790","-1,83354681644603","4,87417105572962","-25,2737562207611","-0,455874332377093","1,6451434714883","-0,00634617273029905"
"5798","0,312302377597175","13,6178708599705","-28,7924031975808","-0,785673360103612","1,13661830029419","-0,0400888321425052"
