Timer,AX,AY,AZ,GX,GY,GZ,A
"5.22222","0.728917719358143","-0.212359166951178","-1.77637418914305","-1.03823830658928","0.99726869238648","0","359.9375"
"10.44444","0.728917719358143","0.787640833048822","-0.776374189143052","-1.03823830658928","0.99726869238648","0","359.9375"
"15.66667","0.728917719358143","0.787640833048822","-0.776374189143052","-3.03823830658928","1.99726869238648","0","359.9375"
"20.88889","-0.271082280641857","0.787640833048822","-0.776374189143052","-3.03823830658928","1.99726869238648","0","359.9375"
"26.11111","-0.271082280641857","0.787640833048822","-0.776374189143052","-1.03823830658928","1.99726869238648","0","359.9375"
"31.33333","0.728917719358143","-0.212359166951178","-0.776374189143052","-1.03823830658928","1.99726869238648","0","359.9375"
"36.55556","0.728917719358143","-0.212359166951178","-0.776374189143052","-2.03823830658928","0.99726869238648","0","359.9375"
"41.77778","0.728917719358143","-1.21235916695118","-1.77637418914305","-2.03823830658928","0.99726869238648","0","359.9375"
"47","0.728917719358143","-1.21235916695118","-1.77637418914305","-2.03823830658928","-2.00273130761352","0","359.9375"
"52.22222","-1.27108228064186","-0.212359166951178","3.22362581085695","-2.03823830658928","-2.00273130761352","0","359.9375"
"57.44444","-1.27108228064186","-0.212359166951178","3.22362581085695","1.96176169341072","-0.00273130761351997","0","359.9375"
"62.66667","0.728917719358143","-0.212359166951178","-0.776374189143052","1.96176169341072","-0.00273130761351997","0","359.9375"
"67.88889","0.728917719358143","-0.212359166951178","-0.776374189143052","-2.03823830658928","-1.00273130761352","0","359.9375"
"73.11111","0.728917719358143","-0.212359166951178","0.223625810856948","-2.03823830658928","-1.00273130761352","0","359.9375"
"78.33333","0.728917719358143","-0.212359166951178","0.223625810856948","-6.03823830658928","-3.00273130761352","0","359.9375"
"83.55556","0.728917719358143","-0.212359166951178","0.223625810856948","-6.03823830658928","-3.00273130761352","0","359.9375"
"88.77778","0.728917719358143","-0.212359166951178","0.223625810856948","-0.0382383065892796","-1.00273130761352","0","359.9375"
"94","-1.27108228064186","-0.212359166951178","-2.77637418914305","-0.0382383065892796","-1.00273130761352","0","359.9375"
"100","-1.27108228064186","-0.212359166951178","-2.77637418914305","-3.03823830658928","3.99726869238648","0","359.9375"
"100","-0.271082280641857","-0.212359166951178","-1.77637418914305","-3.03823830658928","3.99726869238648","0","359.9375"
"102.91176","-0.271082280641857","-0.212359166951178","-1.77637418914305","2.96176169341072","2.99726869238648","0","359.9375"
"105.82353","-0.271082280641857","-0.212359166951178","0.223625810856948","2.96176169341072","2.99726869238648","0","359.9375"
"108.73529","-0.271082280641857","-0.212359166951178","0.223625810856948","3.96176169341072","-1.00273130761352","0","359.9375"
"111.64706","-1.27108228064186","-0.212359166951178","-0.776374189143052","3.96176169341072","-1.00273130761352","0","359.9375"
"114.55882","-1.27108228064186","-0.212359166951178","-0.776374189143052","3.96176169341072","-0.00273130761351997","0","359.9375"
"117.47059","-0.271082280641857","-0.212359166951178","3.22362581085695","3.96176169341072","-0.00273130761351997","0","359.9375"
"120.38235","-0.271082280641857","-0.212359166951178","3.22362581085695","0.96176169341072","0.99726869238648","0","359.9375"
"123.29412","0.728917719358143","-0.212359166951178","-1.77637418914305","0.96176169341072","0.99726869238648","0","359.9375"
"126.20588","0.728917719358143","-0.212359166951178","-1.77637418914305","2.96176169341072","1.99726869238648","0","359.9375"
"129.11765","-2.27108228064186","-1.21235916695118","-2.77637418914305","2.96176169341072","1.99726869238648","0","359.9375"
"132.02941","-2.27108228064186","-1.21235916695118","-2.77637418914305","-0.0382383065892796","-1.00273130761352","0","359.9375"
"134.94118","-0.271082280641857","-1.21235916695118","-0.776374189143052","-0.0382383065892796","-1.00273130761352","0","359.9375"
"137.85294","-0.271082280641857","-1.21235916695118","-0.776374189143052","-0.0382383065892796","-1.00273130761352","0","359.9375"
"140.76471","0.728917719358143","-0.212359166951178","0.223625810856948","-0.0382383065892796","-1.00273130761352","0","359.9375"
"143.67647","0.728917719358143","-0.212359166951178","0.223625810856948","0.96176169341072","-0.00273130761351997","0","359.9375"
"146.58824","-0.271082280641857","-0.212359166951178","0.223625810856948","0.96176169341072","-0.00273130761351997","0","359.9375"
"149.5","-0.271082280641857","-0.212359166951178","0.223625810856948","-1.03823830658928","0.99726869238648","0","359.9375"
"152.41176","-0.271082280641857","-0.212359166951178","-0.776374189143052","-1.03823830658928","0.99726869238648","0","359.9375"
"155.32353","-0.271082280641857","-0.212359166951178","-0.776374189143052","2.96176169341072","1.99726869238648","0","359.9375"
"158.23529","-0.271082280641857","-0.212359166951178","1.22362581085695","2.96176169341072","1.99726869238648","0","359.9375"
"161.14706","-0.271082280641857","-0.212359166951178","1.22362581085695","0.96176169341072","-2.00273130761352","0","359.9375"
"164.05882","0.728917719358143","-0.212359166951178","2.22362581085695","0.96176169341072","-2.00273130761352","0","359.9375"
"166.97059","0.728917719358143","-0.212359166951178","2.22362581085695","-0.0382383065892796","-2.00273130761352","0","359.9375"
"169.88235","-0.271082280641857","0.787640833048822","0.223625810856948","-0.0382383065892796","-2.00273130761352","0","359.9375"
"172.79412","-0.271082280641857","0.787640833048822","0.223625810856948","-1.03823830658928","-0.00273130761351997","0","359.9375"
"175.70588","-2.27108228064186","-0.212359166951178","-0.776374189143052","-1.03823830658928","-0.00273130761351997","0","359.9375"
"178.61765","-2.27108228064186","-0.212359166951178","-0.776374189143052","-0.0382383065892796","-3.00273130761352","0","359.9375"
"181.52941","-0.271082280641857","-0.212359166951178","0.223625810856948","-0.0382383065892796","-3.00273130761352","0","359.9375"
"184.44118","-0.271082280641857","-0.212359166951178","0.223625810856948","1.96176169341072","-1.00273130761352","0","359.9375"
"187.35294","-1.27108228064186","0.787640833048822","1.22362581085695","1.96176169341072","-1.00273130761352","0","359.9375"
"190.26471","-1.27108228064186","0.787640833048822","1.22362581085695","-0.0382383065892796","-2.00273130761352","0","359.9375"
"193.17647","-3.27108228064186","-1.21235916695118","0.223625810856948","-0.0382383065892796","-2.00273130761352","0","359.9375"
"196.08824","-3.27108228064186","-1.21235916695118","0.223625810856948","-0.0382383065892796","-0.00273130761351997","0","359.9375"
"199","-1.27108228064186","-0.212359166951178","2.22362581085695","-0.0382383065892796","-0.00273130761351997","0","359.9375"
"203.3","-1.27108228064186","-0.212359166951178","2.22362581085695","-2.03823830658928","-2.00273130761352","0","359.9375"
"206.6","0.728917719358143","-0.212359166951178","-0.776374189143052","-2.03823830658928","-2.00273130761352","0","359.9375"
"209.9","0.728917719358143","-0.212359166951178","-0.776374189143052","-2.03823830658928","-4.00273130761352","0","359.9375"
"213.2","0.728917719358143","-0.212359166951178","-2.77637418914305","-2.03823830658928","-4.00273130761352","0","359.9375"
"216.5","0.728917719358143","-0.212359166951178","-2.77637418914305","-3.03823830658928","-0.00273130761351997","0","359.9375"
"219.8","0.728917719358143","-1.21235916695118","-0.776374189143052","-3.03823830658928","-0.00273130761351997","0","359.9375"
"223.1","0.728917719358143","-1.21235916695118","-0.776374189143052","-2.03823830658928","-0.00273130761351997","0","359.9375"
"226.4","0.728917719358143","-0.212359166951178","-0.776374189143052","-2.03823830658928","-0.00273130761351997","0","359.9375"
"229.7","0.728917719358143","-0.212359166951178","-0.776374189143052","-2.03823830658928","-1.00273130761352","0","359.9375"
"233","-0.271082280641857","-0.212359166951178","0.223625810856948","-2.03823830658928","-1.00273130761352","0","359.9375"
"236.3","-0.271082280641857","-0.212359166951178","0.223625810856948","-1.03823830658928","-0.00273130761351997","0","359.9375"
"239.6","0.728917719358143","-0.212359166951178","2.22362581085695","-1.03823830658928","-0.00273130761351997","0","359.9375"
"242.9","0.728917719358143","-0.212359166951178","2.22362581085695","-1.03823830658928","-1.00273130761352","0","359.9375"
"246.2","0.728917719358143","-0.212359166951178","-1.77637418914305","-1.03823830658928","-1.00273130761352","0","359.9375"
"249.5","0.728917719358143","-0.212359166951178","-1.77637418914305","-4.03823830658928","-1.00273130761352","0","359.9375"
"252.8","0.728917719358143","-0.212359166951178","0.223625810856948","-4.03823830658928","-1.00273130761352","0","359.9375"
"256.1","0.728917719358143","-0.212359166951178","0.223625810856948","-2.03823830658928","-0.00273130761351997","0","359.9375"
"259.4","-0.271082280641857","-0.212359166951178","-0.776374189143052","-2.03823830658928","-0.00273130761351997","0","359.9375"
"262.7","-0.271082280641857","-0.212359166951178","-0.776374189143052","-0.0382383065892796","-1.00273130761352","0","359.9375"
"266","0.728917719358143","-1.21235916695118","0.223625810856948","-0.0382383065892796","-1.00273130761352","0","359.9375"
"269.3","0.728917719358143","-1.21235916695118","0.223625810856948","-1.03823830658928","-3.00273130761352","0","359.9375"
"272.6","0.728917719358143","0.787640833048822","1.22362581085695","-1.03823830658928","-3.00273130761352","0","359.9375"
"275.9","0.728917719358143","0.787640833048822","1.22362581085695","-1.03823830658928","-0.00273130761351997","0","359.9375"
"279.2","0.728917719358143","0.787640833048822","-0.776374189143052","-1.03823830658928","-0.00273130761351997","0","359.9375"
"282.5","0.728917719358143","0.787640833048822","-0.776374189143052","-2.03823830658928","0.99726869238648","0","359.9375"
"285.8","0.728917719358143","0.787640833048822","-0.776374189143052","-2.03823830658928","0.99726869238648","0","359.9375"
"289.1","0.728917719358143","0.787640833048822","-0.776374189143052","-2.03823830658928","-1.00273130761352","0","359.9375"
"292.4","0.728917719358143","1.78764083304882","1.22362581085695","-2.03823830658928","-1.00273130761352","0","359.9375"
"295.7","0.728917719358143","1.78764083304882","1.22362581085695","-1.03823830658928","0.99726869238648","0","359.9375"
"299","-0.271082280641857","0.787640833048822","-0.776374189143052","-1.03823830658928","0.99726869238648","0","359.9375"
"302.79412","-0.271082280641857","0.787640833048822","-0.776374189143052","-0.0382383065892796","-0.00273130761351997","0","359.9375"
"305.58824","0.728917719358143","-2.21235916695118","1.22362581085695","-0.0382383065892796","-0.00273130761351997","0","359.9375"
"308.38235","0.728917719358143","-2.21235916695118","1.22362581085695","-1.03823830658928","-2.00273130761352","0","359.9375"
"311.17647","0.728917719358143","0.787640833048822","-1.77637418914305","-1.03823830658928","-2.00273130761352","0","359.9375"
"313.97059","0.728917719358143","0.787640833048822","-1.77637418914305","-4.03823830658928","-3.00273130761352","0","359.9375"
"316.76471","-0.271082280641857","-0.212359166951178","-1.77637418914305","-4.03823830658928","-3.00273130761352","0","359.9375"
"319.55882","-0.271082280641857","-0.212359166951178","-1.77637418914305","-1.03823830658928","-0.00273130761351997","0","359.9375"
"322.35294","-0.271082280641857","0.787640833048822","-0.776374189143052","-1.03823830658928","-0.00273130761351997","0","359.9375"
"325.14706","-0.271082280641857","0.787640833048822","-0.776374189143052","-0.0382383065892796","-1.00273130761352","0","359.9375"
"327.94118","0.728917719358143","-1.21235916695118","0.223625810856948","-0.0382383065892796","-1.00273130761352","0","359.9375"
"330.73529","0.728917719358143","-1.21235916695118","0.223625810856948","1.96176169341072","-1.00273130761352","0","359.9375"
"333.52941","-2.27108228064186","1.78764083304882","-2.77637418914305","1.96176169341072","-1.00273130761352","0","359.9375"
"336.32353","-2.27108228064186","1.78764083304882","-2.77637418914305","0.96176169341072","-1.00273130761352","0","359.9375"
"339.11765","0.728917719358143","-1.21235916695118","0.223625810856948","0.96176169341072","-1.00273130761352","0","359.9375"
"341.91176","0.728917719358143","-1.21235916695118","0.223625810856948","0.96176169341072","-2.00273130761352","0","359.9375"
"344.70588","-1.27108228064186","-0.212359166951178","0.223625810856948","0.96176169341072","-2.00273130761352","0","359.9375"
"347.5","-1.27108228064186","-0.212359166951178","0.223625810856948","-1.03823830658928","-2.00273130761352","0","359.9375"
"350.29412","-0.271082280641857","-0.212359166951178","-1.77637418914305","-1.03823830658928","-2.00273130761352","0","359.9375"
"353.08824","-0.271082280641857","-0.212359166951178","-1.77637418914305","-2.03823830658928","0.99726869238648","0","359.9375"
"355.88235","0.728917719358143","-0.212359166951178","-2.77637418914305","-2.03823830658928","0.99726869238648","0","359.9375"
"358.67647","0.728917719358143","-0.212359166951178","-2.77637418914305","1.96176169341072","-1.00273130761352","0","359.9375"
"361.47059","0.728917719358143","-0.212359166951178","0.223625810856948","1.96176169341072","-1.00273130761352","0","359.9375"
"364.26471","0.728917719358143","-0.212359166951178","0.223625810856948","-0.0382383065892796","-1.00273130761352","0","359.9375"
"367.05882","0.728917719358143","0.787640833048822","-1.77637418914305","-0.0382383065892796","-1.00273130761352","0","359.9375"
"369.85294","0.728917719358143","0.787640833048822","-1.77637418914305","-2.03823830658928","-1.00273130761352","0","359.9375"
"372.64706","-0.271082280641857","-1.21235916695118","-0.776374189143052","-2.03823830658928","-1.00273130761352","0","359.9375"
"375.44118","-0.271082280641857","-1.21235916695118","-0.776374189143052","-3.03823830658928","2.99726869238648","0","359.9375"
"378.23529","-0.271082280641857","-0.212359166951178","1.22362581085695","-3.03823830658928","2.99726869238648","0","359.9375"
"381.02941","-0.271082280641857","-0.212359166951178","1.22362581085695","0.96176169341072","-0.00273130761351997","0","359.9375"
"383.82353","-0.271082280641857","0.787640833048822","-1.77637418914305","0.96176169341072","-0.00273130761351997","0","359.9375"
"386.61765","-0.271082280641857","0.787640833048822","-1.77637418914305","1.96176169341072","-1.00273130761352","0","359.9375"
"389.41176","-0.271082280641857","-0.212359166951178","1.22362581085695","1.96176169341072","-1.00273130761352","0","359.9375"
"392.20588","-0.271082280641857","-0.212359166951178","1.22362581085695","1.96176169341072","-2.00273130761352","0","359.9375"
"395","0.728917719358143","0.787640833048822","-1.77637418914305","1.96176169341072","-2.00273130761352","0","359.9375"
"403.26667","0.728917719358143","0.787640833048822","-1.77637418914305","0.96176169341072","-0.00273130761351997","0","359.9375"
"406.53333","0.728917719358143","0.787640833048822","-0.776374189143052","0.96176169341072","-0.00273130761351997","0","359.9375"
"409.8","0.728917719358143","0.787640833048822","-0.776374189143052","0.96176169341072","-2.00273130761352","0","359.9375"
"413.06667","-0.271082280641857","-0.212359166951178","1.22362581085695","0.96176169341072","-2.00273130761352","0","359.9375"
"416.33333","-0.271082280641857","-0.212359166951178","1.22362581085695","0.96176169341072","-0.00273130761351997","0","359.9375"
"419.6","1.72891771935814","-2.21235916695118","2.22362581085695","0.96176169341072","-0.00273130761351997","0","359.9375"
"422.86667","1.72891771935814","-2.21235916695118","2.22362581085695","0.96176169341072","0.99726869238648","0","359.9375"
"426.13333","-0.271082280641857","0.787640833048822","0.223625810856948","0.96176169341072","0.99726869238648","0","359.9375"
"429.4","-0.271082280641857","0.787640833048822","0.223625810856948","-0.0382383065892796","-1.00273130761352","0","359.9375"
"432.66667","0.728917719358143","0.787640833048822","-2.77637418914305","-0.0382383065892796","-1.00273130761352","0","359.9375"
"435.93333","0.728917719358143","0.787640833048822","-2.77637418914305","0.96176169341072","-2.00273130761352","0","359.9375"
"439.2","-1.27108228064186","-0.212359166951178","1.22362581085695","0.96176169341072","-2.00273130761352","0","359.9375"
"442.46667","-1.27108228064186","-0.212359166951178","1.22362581085695","0.96176169341072","-2.00273130761352","0","359.9375"
"445.73333","0.728917719358143","-0.212359166951178","1.22362581085695","0.96176169341072","-2.00273130761352","0","359.9375"
"449","0.728917719358143","-0.212359166951178","1.22362581085695","-1.03823830658928","-2.00273130761352","0","359.9375"
"452.26667","1.72891771935814","-0.212359166951178","0.223625810856948","-1.03823830658928","-2.00273130761352","0","359.9375"
"455.53333","1.72891771935814","-0.212359166951178","0.223625810856948","-2.03823830658928","-1.00273130761352","0","359.9375"
"458.8","-1.27108228064186","-0.212359166951178","-2.77637418914305","-2.03823830658928","-1.00273130761352","0","359.9375"
"462.06667","-1.27108228064186","-0.212359166951178","-2.77637418914305","-0.0382383065892796","-3.00273130761352","0","359.9375"
"465.33333","0.728917719358143","-0.212359166951178","-2.77637418914305","-0.0382383065892796","-3.00273130761352","0","359.9375"
"468.6","0.728917719358143","-0.212359166951178","-2.77637418914305","-2.03823830658928","0.99726869238648","0","359.9375"
"471.86667","0.728917719358143","-0.212359166951178","-0.776374189143052","-2.03823830658928","0.99726869238648","0","359.9375"
"475.13333","0.728917719358143","-0.212359166951178","-0.776374189143052","2.96176169341072","-0.00273130761351997","0","359.9375"
"478.4","0.728917719358143","-1.21235916695118","1.22362581085695","2.96176169341072","-0.00273130761351997","0","359.9375"
"481.66667","0.728917719358143","-1.21235916695118","1.22362581085695","-2.03823830658928","-0.00273130761351997","0","359.9375"
"484.93333","-0.271082280641857","0.787640833048822","-1.77637418914305","-2.03823830658928","-0.00273130761351997","0","359.9375"
"488.2","-0.271082280641857","0.787640833048822","-1.77637418914305","0.96176169341072","-1.00273130761352","0","359.9375"
"491.46667","-1.27108228064186","-0.212359166951178","-0.776374189143052","0.96176169341072","-1.00273130761352","0","359.9375"
"494.73333","-1.27108228064186","-0.212359166951178","-0.776374189143052","1.96176169341072","-2.00273130761352","0","359.9375"
"498","0.728917719358143","-0.212359166951178","2.22362581085695","1.96176169341072","-2.00273130761352","0","359.9375"
"502.9375","0.728917719358143","-0.212359166951178","2.22362581085695","-2.03823830658928","0.99726869238648","0","359.9375"
"505.875","0.728917719358143","-1.21235916695118","0.223625810856948","-2.03823830658928","0.99726869238648","0","359.9375"
"508.8125","0.728917719358143","-1.21235916695118","0.223625810856948","-0.0382383065892796","0.99726869238648","0","359.9375"
"511.75","-1.27108228064186","1.78764083304882","-0.776374189143052","-0.0382383065892796","0.99726869238648","0","359.9375"
"514.6875","-1.27108228064186","1.78764083304882","-0.776374189143052","-1.03823830658928","0.99726869238648","0","359.9375"
"517.625","-0.271082280641857","-0.212359166951178","2.22362581085695","-1.03823830658928","0.99726869238648","0","359.9375"
"520.5625","-0.271082280641857","-0.212359166951178","2.22362581085695","1.96176169341072","-0.00273130761351997","0","359.9375"
"523.5","0.728917719358143","-1.21235916695118","-1.77637418914305","1.96176169341072","-0.00273130761351997","0","359.9375"
"526.4375","0.728917719358143","-1.21235916695118","-1.77637418914305","-1.03823830658928","0.99726869238648","0","359.9375"
"529.375","-0.271082280641857","-0.212359166951178","-2.77637418914305","-1.03823830658928","0.99726869238648","0","359.9375"
"532.3125","-0.271082280641857","-0.212359166951178","-2.77637418914305","1.96176169341072","-1.00273130761352","0","359.9375"
"535.25","-0.271082280641857","1.78764083304882","-0.776374189143052","1.96176169341072","-1.00273130761352","0","359.9375"
"538.1875","-0.271082280641857","1.78764083304882","-0.776374189143052","-1.03823830658928","-0.00273130761351997","0","359.9375"
"541.125","0.728917719358143","-2.21235916695118","-0.776374189143052","-1.03823830658928","-0.00273130761351997","0","359.9375"
"544.0625","0.728917719358143","-2.21235916695118","-0.776374189143052","-0.0382383065892796","-1.00273130761352","0","359.9375"
"547","0.728917719358143","-0.212359166951178","0.223625810856948","-0.0382383065892796","-1.00273130761352","0","359.9375"
"549.9375","0.728917719358143","-0.212359166951178","0.223625810856948","1.96176169341072","-1.00273130761352","0","359.9375"
"552.875","-0.271082280641857","1.78764083304882","-1.77637418914305","1.96176169341072","-1.00273130761352","0","359.9375"
"555.8125","-0.271082280641857","1.78764083304882","-1.77637418914305","0.96176169341072","1.99726869238648","0","359.9375"
"558.75","-0.271082280641857","-0.212359166951178","0.223625810856948","0.96176169341072","1.99726869238648","0","359.9375"
"561.6875","-0.271082280641857","-0.212359166951178","0.223625810856948","-2.03823830658928","-1.00273130761352","0","359.9375"
"564.625","0.728917719358143","-0.212359166951178","-1.77637418914305","-2.03823830658928","-1.00273130761352","0","359.9375"
"567.5625","0.728917719358143","-0.212359166951178","-1.77637418914305","0.96176169341072","-1.00273130761352","0","359.9375"
"570.5","-1.27108228064186","-0.212359166951178","1.22362581085695","0.96176169341072","-1.00273130761352","0","359.9375"
"573.4375","-1.27108228064186","-0.212359166951178","1.22362581085695","-2.03823830658928","0.99726869238648","0","359.9375"
"576.375","0.728917719358143","-0.212359166951178","0.223625810856948","-2.03823830658928","0.99726869238648","0","359.9375"
"579.3125","0.728917719358143","-0.212359166951178","0.223625810856948","0.96176169341072","0.99726869238648","0","359.9375"
"582.25","0.728917719358143","-0.212359166951178","0.223625810856948","0.96176169341072","0.99726869238648","0","359.9375"
"585.1875","0.728917719358143","-0.212359166951178","0.223625810856948","0.96176169341072","-2.00273130761352","0","359.9375"
"588.125","-0.271082280641857","0.787640833048822","1.22362581085695","0.96176169341072","-2.00273130761352","0","359.9375"
"591.0625","-0.271082280641857","0.787640833048822","1.22362581085695","-1.03823830658928","-0.00273130761351997","0","359.9375"
"594","0.728917719358143","-0.212359166951178","-0.776374189143052","-1.03823830658928","-0.00273130761351997","0","359.9375"
"600","0.728917719358143","-0.212359166951178","-0.776374189143052","-1.03823830658928","-1.00273130761352","0","359.9375"
"600","0.728917719358143","-0.212359166951178","0.223625810856948","-1.03823830658928","-1.00273130761352","0","359.9375"
"603.0625","0.728917719358143","-0.212359166951178","0.223625810856948","1.96176169341072","-1.00273130761352","0","359.9375"
"606.125","0.728917719358143","-0.212359166951178","2.22362581085695","1.96176169341072","-1.00273130761352","0","359.9375"
"609.1875","0.728917719358143","-0.212359166951178","2.22362581085695","-0.0382383065892796","-0.00273130761351997","0","359.9375"
"612.25","0.728917719358143","-0.212359166951178","1.22362581085695","-0.0382383065892796","-0.00273130761351997","0","359.9375"
"615.3125","0.728917719358143","-0.212359166951178","1.22362581085695","0.96176169341072","-2.00273130761352","0","359.9375"
"618.375","0.728917719358143","0.787640833048822","-2.77637418914305","0.96176169341072","-2.00273130761352","0","359.9375"
"621.4375","0.728917719358143","0.787640833048822","-2.77637418914305","0.96176169341072","-1.00273130761352","0","359.9375"
"624.5","-0.271082280641857","-0.212359166951178","1.22362581085695","0.96176169341072","-1.00273130761352","0","359.9375"
"627.5625","-0.271082280641857","-0.212359166951178","1.22362581085695","-1.03823830658928","-0.00273130761351997","0","359.9375"
"630.625","0.728917719358143","-0.212359166951178","0.223625810856948","-1.03823830658928","-0.00273130761351997","0","359.9375"
"633.6875","0.728917719358143","-0.212359166951178","0.223625810856948","-1.03823830658928","-2.00273130761352","0","359.9375"
"636.75","0.728917719358143","-1.21235916695118","0.223625810856948","-1.03823830658928","-2.00273130761352","0","359.9375"
"639.8125","0.728917719358143","-1.21235916695118","0.223625810856948","2.96176169341072","-1.00273130761352","0","359.9375"
"642.875","-0.271082280641857","-0.212359166951178","3.22362581085695","2.96176169341072","-1.00273130761352","0","359.9375"
"645.9375","-0.271082280641857","-0.212359166951178","3.22362581085695","-0.0382383065892796","0.99726869238648","0","359.9375"
"649","-0.271082280641857","-0.212359166951178","1.22362581085695","-0.0382383065892796","0.99726869238648","0","359.9375"
"652.0625","-0.271082280641857","-0.212359166951178","1.22362581085695","-2.03823830658928","-1.00273130761352","0","359.9375"
"655.125","-0.271082280641857","-0.212359166951178","-0.776374189143052","-2.03823830658928","-1.00273130761352","0","359.9375"
"658.1875","-0.271082280641857","-0.212359166951178","-0.776374189143052","-2.03823830658928","-0.00273130761351997","0","359.9375"
"661.25","-1.27108228064186","0.787640833048822","-0.776374189143052","-2.03823830658928","-0.00273130761351997","0","359.9375"
"664.3125","-1.27108228064186","0.787640833048822","-0.776374189143052","-3.03823830658928","2.99726869238648","0","359.9375"
"667.375","0.728917719358143","-2.21235916695118","-0.776374189143052","-3.03823830658928","2.99726869238648","0","359.9375"
"670.4375","0.728917719358143","-2.21235916695118","-0.776374189143052","-0.0382383065892796","-1.00273130761352","0","359.9375"
"673.5","1.72891771935814","1.78764083304882","0.223625810856948","-0.0382383065892796","-1.00273130761352","0","359.9375"
"676.5625","1.72891771935814","1.78764083304882","0.223625810856948","-0.0382383065892796","-2.00273130761352","0","359.9375"
"679.625","0.728917719358143","-0.212359166951178","-2.77637418914305","-0.0382383065892796","-2.00273130761352","0","359.9375"
"682.6875","0.728917719358143","-0.212359166951178","-2.77637418914305","-1.03823830658928","0.99726869238648","0","359.9375"
"685.75","-1.27108228064186","1.78764083304882","-0.776374189143052","-1.03823830658928","0.99726869238648","0","359.9375"
"688.8125","-1.27108228064186","1.78764083304882","-0.776374189143052","-2.03823830658928","-0.00273130761351997","0","359.9375"
"691.875","0.728917719358143","-1.21235916695118","0.223625810856948","-2.03823830658928","-0.00273130761351997","0","359.9375"
"694.9375","0.728917719358143","-1.21235916695118","0.223625810856948","-1.03823830658928","0.99726869238648","0","359.9375"
"698","-2.27108228064186","-0.212359166951178","0.223625810856948","-1.03823830658928","0.99726869238648","0","359.9375"
"702.82857","-2.27108228064186","-0.212359166951178","0.223625810856948","-1.03823830658928","1.99726869238648","0","359.9375"
"705.65714","-1.27108228064186","-0.212359166951178","1.22362581085695","-1.03823830658928","1.99726869238648","0","359.9375"
"708.48571","-1.27108228064186","-0.212359166951178","1.22362581085695","-2.03823830658928","1.99726869238648","0","359.9375"
"711.31429","-1.27108228064186","2.78764083304882","-1.77637418914305","-2.03823830658928","1.99726869238648","0","359.9375"
"714.14286","-1.27108228064186","2.78764083304882","-1.77637418914305","-3.03823830658928","-0.00273130761351997","0","359.9375"
"716.97143","-0.271082280641857","0.787640833048822","0.223625810856948","-3.03823830658928","-0.00273130761351997","0","359.9375"
"719.8","-0.271082280641857","0.787640833048822","0.223625810856948","1.96176169341072","-1.00273130761352","0","359.9375"
"722.62857","-0.271082280641857","-0.212359166951178","1.22362581085695","1.96176169341072","-1.00273130761352","0","359.9375"
"725.45714","-0.271082280641857","-0.212359166951178","1.22362581085695","-0.0382383065892796","-1.00273130761352","0","359.9375"
"728.28571","0.728917719358143","-0.212359166951178","2.22362581085695","-0.0382383065892796","-1.00273130761352","0","359.9375"
"731.11429","0.728917719358143","-0.212359166951178","2.22362581085695","-0.0382383065892796","-1.00273130761352","0","359.9375"
"733.94286","-0.271082280641857","1.78764083304882","1.22362581085695","-0.0382383065892796","-1.00273130761352","0","359.9375"
"736.77143","-0.271082280641857","1.78764083304882","1.22362581085695","-1.03823830658928","-2.00273130761352","0","359.9375"
"739.6","-0.271082280641857","-0.212359166951178","-0.776374189143052","-1.03823830658928","-2.00273130761352","0","359.9375"
"742.42857","-0.271082280641857","-0.212359166951178","-0.776374189143052","-4.03823830658928","2.99726869238648","0","359.9375"
"745.25714","-1.27108228064186","-0.212359166951178","0.223625810856948","-4.03823830658928","2.99726869238648","0","359.9375"
"748.08571","-1.27108228064186","-0.212359166951178","0.223625810856948","-0.0382383065892796","0.99726869238648","0","359.9375"
"750.91429","-0.271082280641857","-0.212359166951178","0.223625810856948","-0.0382383065892796","0.99726869238648","0","359.9375"
"753.74286","-0.271082280641857","-0.212359166951178","0.223625810856948","-1.03823830658928","-2.00273130761352","0","359.9375"
"756.57143","-0.271082280641857","-0.212359166951178","0.223625810856948","-1.03823830658928","-2.00273130761352","0","359.9375"
"759.4","-0.271082280641857","-0.212359166951178","0.223625810856948","-1.03823830658928","-2.00273130761352","0","359.9375"
"762.22857","0.728917719358143","1.78764083304882","1.22362581085695","-1.03823830658928","-2.00273130761352","0","359.9375"
"765.05714","0.728917719358143","1.78764083304882","1.22362581085695","-0.0382383065892796","-0.00273130761351997","0","359.9375"
"767.88571","-1.27108228064186","0.787640833048822","-0.776374189143052","-0.0382383065892796","-0.00273130761351997","0","359.9375"
"770.71429","-1.27108228064186","0.787640833048822","-0.776374189143052","-1.03823830658928","0.99726869238648","0","359.9375"
"773.54286","-0.271082280641857","-1.21235916695118","-0.776374189143052","-1.03823830658928","0.99726869238648","0","359.9375"
"776.37143","-0.271082280641857","-1.21235916695118","-0.776374189143052","0.96176169341072","-1.00273130761352","0","359.9375"
"779.2","-0.271082280641857","-0.212359166951178","-0.776374189143052","0.96176169341072","-1.00273130761352","0","359.9375"
"782.02857","-0.271082280641857","-0.212359166951178","-0.776374189143052","1.96176169341072","0.99726869238648","0","359.9375"
"784.85714","0.728917719358143","0.787640833048822","0.223625810856948","1.96176169341072","0.99726869238648","0","359.9375"
"787.68571","0.728917719358143","0.787640833048822","0.223625810856948","2.96176169341072","0.99726869238648","0","359.9375"
"790.51429","-0.271082280641857","-0.212359166951178","0.223625810856948","2.96176169341072","0.99726869238648","0","359.9375"
"793.34286","-0.271082280641857","-0.212359166951178","0.223625810856948","2.96176169341072","-0.00273130761351997","0","359.9375"
"796.17143","0.728917719358143","-0.212359166951178","-0.776374189143052","2.96176169341072","-0.00273130761351997","0","359.9375"
"799","0.728917719358143","-0.212359166951178","-0.776374189143052","-0.0382383065892796","-0.00273130761351997","0","359.9375"
"800","-0.271082280641857","-0.212359166951178","-0.776374189143052","-0.0382383065892796","-0.00273130761351997","0","359.9375"
"803.16667","-0.271082280641857","-0.212359166951178","-0.776374189143052","-1.03823830658928","-0.00273130761351997","0","359.9375"
"806.33333","-0.271082280641857","-0.212359166951178","1.22362581085695","-1.03823830658928","-0.00273130761351997","0","359.9375"
"809.5","-0.271082280641857","-0.212359166951178","1.22362581085695","1.96176169341072","-0.00273130761351997","0","359.9375"
"812.66667","-1.27108228064186","-0.212359166951178","0.223625810856948","1.96176169341072","-0.00273130761351997","0","359.9375"
"815.83333","-1.27108228064186","-0.212359166951178","0.223625810856948","1.96176169341072","-0.00273130761351997","0","359.9375"
"819","-0.271082280641857","-0.212359166951178","1.22362581085695","1.96176169341072","-0.00273130761351997","0","359.9375"
"822.16667","-0.271082280641857","-0.212359166951178","1.22362581085695","1.96176169341072","-0.00273130761351997","0","359.9375"
"825.33333","-0.271082280641857","-0.212359166951178","-1.77637418914305","1.96176169341072","-0.00273130761351997","0","359.9375"
"828.5","-0.271082280641857","-0.212359166951178","-1.77637418914305","-0.0382383065892796","-1.00273130761352","0","359.9375"
"831.66667","0.728917719358143","-1.21235916695118","-2.77637418914305","-0.0382383065892796","-1.00273130761352","0","359.9375"
"834.83333","0.728917719358143","-1.21235916695118","-2.77637418914305","0.96176169341072","-0.00273130761351997","0","359.9375"
"838","0.728917719358143","2.78764083304882","-0.776374189143052","0.96176169341072","-0.00273130761351997","0","359.9375"
"841.16667","0.728917719358143","2.78764083304882","-0.776374189143052","0.96176169341072","-0.00273130761351997","0","359.9375"
"844.33333","-0.271082280641857","-0.212359166951178","1.22362581085695","0.96176169341072","-0.00273130761351997","0","359.9375"
"847.5","-0.271082280641857","-0.212359166951178","1.22362581085695","0.96176169341072","-0.00273130761351997","0","359.9375"
"850.66667","0.728917719358143","-0.212359166951178","1.22362581085695","0.96176169341072","-0.00273130761351997","0","359.9375"
"853.83333","0.728917719358143","-0.212359166951178","1.22362581085695","1.96176169341072","-1.00273130761352","0","359.9375"
"857","0.728917719358143","0.787640833048822","1.22362581085695","1.96176169341072","-1.00273130761352","0","359.9375"
"860.16667","0.728917719358143","0.787640833048822","1.22362581085695","-1.03823830658928","1.99726869238648","0","359.9375"
"863.33333","-0.271082280641857","-0.212359166951178","-0.776374189143052","-1.03823830658928","1.99726869238648","0","359.9375"
"866.5","-0.271082280641857","-0.212359166951178","-0.776374189143052","0.96176169341072","-0.00273130761351997","0","359.9375"
"869.66667","0.728917719358143","-2.21235916695118","1.22362581085695","0.96176169341072","-0.00273130761351997","0","359.9375"
"872.83333","0.728917719358143","-2.21235916695118","1.22362581085695","-0.0382383065892796","-1.00273130761352","0","359.9375"
"876","0.728917719358143","-2.21235916695118","1.22362581085695","-0.0382383065892796","-1.00273130761352","0","359.9375"
"879.16667","0.728917719358143","-2.21235916695118","1.22362581085695","-0.0382383065892796","-1.00273130761352","0","359.9375"
"882.33333","0.728917719358143","0.787640833048822","0.223625810856948","-0.0382383065892796","-1.00273130761352","0","359.9375"
"885.5","0.728917719358143","0.787640833048822","0.223625810856948","-0.0382383065892796","-3.00273130761352","0","359.9375"
"888.66667","0.728917719358143","-1.21235916695118","-1.77637418914305","-0.0382383065892796","-3.00273130761352","0","359.9375"
"891.83333","0.728917719358143","-1.21235916695118","-1.77637418914305","-0.0382383065892796","-1.00273130761352","0","359.9375"
"895","0.728917719358143","-1.21235916695118","0.223625810856948","-0.0382383065892796","-1.00273130761352","0","359.9375"
"902.82353","0.728917719358143","-1.21235916695118","0.223625810856948","-0.0382383065892796","-1.00273130761352","0","359.9375"
"905.64706","0.728917719358143","-0.212359166951178","0.223625810856948","-0.0382383065892796","-1.00273130761352","0","359.9375"
"908.47059","0.728917719358143","-0.212359166951178","0.223625810856948","1.96176169341072","0.99726869238648","0","359.9375"
"911.29412","0.728917719358143","-2.21235916695118","-0.776374189143052","1.96176169341072","0.99726869238648","0","359.9375"
"914.11765","0.728917719358143","-2.21235916695118","-0.776374189143052","-0.0382383065892796","-0.00273130761351997","0","359.9375"
"916.94118","-0.271082280641857","1.78764083304882","-0.776374189143052","-0.0382383065892796","-0.00273130761351997","0","359.9375"
"919.76471","-0.271082280641857","1.78764083304882","-0.776374189143052","-0.0382383065892796","-0.00273130761351997","0","359.9375"
"922.58824","-0.271082280641857","-0.212359166951178","-2.77637418914305","-0.0382383065892796","-0.00273130761351997","0","359.9375"
"925.41176","-0.271082280641857","-0.212359166951178","-2.77637418914305","-0.0382383065892796","0.99726869238648","0","359.9375"
"928.23529","0.728917719358143","-0.212359166951178","0.223625810856948","-0.0382383065892796","0.99726869238648","0","359.9375"
"931.05882","0.728917719358143","-0.212359166951178","0.223625810856948","2.96176169341072","-1.00273130761352","0","359.9375"
"933.88235","0.728917719358143","-0.212359166951178","-1.77637418914305","2.96176169341072","-1.00273130761352","0","359.9375"
"936.70588","0.728917719358143","-0.212359166951178","-1.77637418914305","2.96176169341072","-1.00273130761352","0","359.9375"
"939.52941","0.728917719358143","-0.212359166951178","-1.77637418914305","2.96176169341072","-1.00273130761352","0","359.9375"
"942.35294","0.728917719358143","-0.212359166951178","-1.77637418914305","2.96176169341072","-0.00273130761351997","0","359.9375"
"945.17647","0.728917719358143","-0.212359166951178","2.22362581085695","2.96176169341072","-0.00273130761351997","0","359.9375"
"948","0.728917719358143","-0.212359166951178","2.22362581085695","1.96176169341072","-0.00273130761351997","0","359.9375"
"950.82353","0.728917719358143","-0.212359166951178","1.22362581085695","1.96176169341072","-0.00273130761351997","0","359.9375"
"953.64706","0.728917719358143","-0.212359166951178","1.22362581085695","0.96176169341072","-1.00273130761352","0","359.9375"
"956.47059","-1.27108228064186","0.787640833048822","-0.776374189143052","0.96176169341072","-1.00273130761352","0","359.9375"
"959.29412","-1.27108228064186","0.787640833048822","-0.776374189143052","0.96176169341072","0.99726869238648","0","359.9375"
"962.11765","-1.27108228064186","-0.212359166951178","-0.776374189143052","0.96176169341072","0.99726869238648","0","359.9375"
"964.94118","-1.27108228064186","-0.212359166951178","-0.776374189143052","-0.0382383065892796","0.99726869238648","0","359.9375"
"967.76471","-1.27108228064186","-0.212359166951178","-0.776374189143052","-0.0382383065892796","0.99726869238648","0","359.9375"
"970.58824","-1.27108228064186","-0.212359166951178","-0.776374189143052","-0.0382383065892796","-1.00273130761352","0","359.9375"
"973.41176","0.728917719358143","-0.212359166951178","-0.776374189143052","-0.0382383065892796","-1.00273130761352","0","359.9375"
"976.23529","0.728917719358143","-0.212359166951178","-0.776374189143052","5.96176169341072","-1.00273130761352","0","359.9375"
"979.05882","0.728917719358143","-0.212359166951178","-0.776374189143052","5.96176169341072","-1.00273130761352","0","359.9375"
"981.88235","0.728917719358143","-0.212359166951178","-0.776374189143052","3.96176169341072","-0.00273130761351997","0","359.9375"
"984.70588","-0.271082280641857","-0.212359166951178","0.223625810856948","3.96176169341072","-0.00273130761351997","0","359.9375"
"987.52941","-0.271082280641857","-0.212359166951178","0.223625810856948","-1.03823830658928","0.99726869238648","0","359.9375"
"990.35294","0.728917719358143","0.787640833048822","0.223625810856948","-1.03823830658928","0.99726869238648","0","359.9375"
"993.17647","0.728917719358143","0.787640833048822","0.223625810856948","1.96176169341072","-0.00273130761351997","0","359.9375"
"996","0.728917719358143","0.787640833048822","0.223625810856948","1.96176169341072","-0.00273130761351997","0","359.9375"
"1003","0.728917719358143","0.787640833048822","0.223625810856948","-0.0382383065892796","-1.00273130761352","0","359.9375"
"1006","0.728917719358143","-0.212359166951178","0.223625810856948","-0.0382383065892796","-1.00273130761352","0","359.9375"
"1009","0.728917719358143","-0.212359166951178","0.223625810856948","0.96176169341072","-0.00273130761351997","0","359.9375"
"1012","-0.271082280641857","-0.212359166951178","1.22362581085695","0.96176169341072","-0.00273130761351997","0","359.9375"
"1015","-0.271082280641857","-0.212359166951178","1.22362581085695","-1.03823830658928","-1.00273130761352","0","359.9375"
"1018","-0.271082280641857","-0.212359166951178","-0.776374189143052","-1.03823830658928","-1.00273130761352","0","359.9375"
"1021","-0.271082280641857","-0.212359166951178","-0.776374189143052","0.96176169341072","0.99726869238648","0","359.9375"
"1024","0.728917719358143","-0.212359166951178","0.223625810856948","0.96176169341072","0.99726869238648","0","359.9375"
"1027","0.728917719358143","-0.212359166951178","0.223625810856948","1.96176169341072","-0.00273130761351997","0","359.9375"
"1030","0.728917719358143","-0.212359166951178","0.223625810856948","1.96176169341072","-0.00273130761351997","0","359.9375"
"1033","0.728917719358143","-0.212359166951178","0.223625810856948","1.96176169341072","-0.00273130761351997","0","359.9375"
"1036","0.728917719358143","-1.21235916695118","0.223625810856948","1.96176169341072","-0.00273130761351997","0","359.9375"
"1039","0.728917719358143","-1.21235916695118","0.223625810856948","-0.0382383065892796","0.99726869238648","0","359.9375"
"1042","0.728917719358143","-0.212359166951178","-0.776374189143052","-0.0382383065892796","0.99726869238648","0","359.9375"
"1045","0.728917719358143","-0.212359166951178","-0.776374189143052","-3.03823830658928","1.99726869238648","0","359.9375"
"1048","-1.27108228064186","0.787640833048822","-3.77637418914305","-3.03823830658928","1.99726869238648","0","359.9375"
"1051","-1.27108228064186","0.787640833048822","-3.77637418914305","1.96176169341072","-2.00273130761352","0","359.9375"
"1054","-0.271082280641857","-1.21235916695118","3.22362581085695","1.96176169341072","-2.00273130761352","0","359.9375"
"1057","-0.271082280641857","-1.21235916695118","3.22362581085695","1.96176169341072","2.99726869238648","0","359.9375"
"1060","-0.271082280641857","-1.21235916695118","3.22362581085695","1.96176169341072","2.99726869238648","0","359.9375"
"1063","-0.271082280641857","-1.21235916695118","3.22362581085695","0.96176169341072","1.99726869238648","0","359.9375"
"1066","0.728917719358143","-1.21235916695118","-0.776374189143052","0.96176169341072","1.99726869238648","0","359.9375"
"1069","0.728917719358143","-1.21235916695118","-0.776374189143052","-1.03823830658928","-1.00273130761352","0","359.9375"
"1072","0.728917719358143","-0.212359166951178","-2.77637418914305","-1.03823830658928","-1.00273130761352","0","359.9375"
"1075","0.728917719358143","-0.212359166951178","-2.77637418914305","-1.03823830658928","-1.00273130761352","0","359.9375"
"1078","-0.271082280641857","-0.212359166951178","-1.77637418914305","-1.03823830658928","-1.00273130761352","0","359.9375"
"1081","-0.271082280641857","-0.212359166951178","-1.77637418914305","0.96176169341072","-1.00273130761352","0","359.9375"
"1084","-0.271082280641857","-1.21235916695118","-0.776374189143052","0.96176169341072","-1.00273130761352","0","359.9375"
"1087","-0.271082280641857","-1.21235916695118","-0.776374189143052","0.96176169341072","-2.00273130761352","0","359.9375"
"1090","-0.271082280641857","-1.21235916695118","-0.776374189143052","0.96176169341072","-2.00273130761352","0","359.9375"
"1093","-0.271082280641857","-1.21235916695118","-0.776374189143052","1.96176169341072","0.99726869238648","0","359.9375"
"1096","-0.271082280641857","-0.212359166951178","0.223625810856948","1.96176169341072","0.99726869238648","0","359.9375"
"1102.85294","-0.271082280641857","-0.212359166951178","0.223625810856948","4.96176169341072","0.99726869238648","0","359.9375"
"1105.70588","0.728917719358143","-0.212359166951178","-0.776374189143052","4.96176169341072","0.99726869238648","0","359.9375"
"1108.55882","0.728917719358143","-0.212359166951178","-0.776374189143052","-2.03823830658928","0.99726869238648","0","359.9375"
"1111.41176","0.728917719358143","-0.212359166951178","1.22362581085695","-2.03823830658928","0.99726869238648","0","359.9375"
"1114.26471","0.728917719358143","-0.212359166951178","1.22362581085695","-1.03823830658928","-1.00273130761352","0","359.9375"
"1117.11765","-1.27108228064186","-1.21235916695118","1.22362581085695","-1.03823830658928","-1.00273130761352","0","359.9375"
"1119.97059","-1.27108228064186","-1.21235916695118","1.22362581085695","-2.03823830658928","0.99726869238648","0","359.9375"
"1122.82353","-1.27108228064186","-1.21235916695118","1.22362581085695","-2.03823830658928","0.99726869238648","0","359.9375"
"1125.67647","-1.27108228064186","-1.21235916695118","1.22362581085695","0.96176169341072","-1.00273130761352","0","359.9375"
"1128.52941","0.728917719358143","-0.212359166951178","0.223625810856948","0.96176169341072","-1.00273130761352","0","359.9375"
"1131.38235","0.728917719358143","-0.212359166951178","0.223625810856948","-0.0382383065892796","-1.00273130761352","0","359.9375"
"1134.23529","-0.271082280641857","-0.212359166951178","-1.77637418914305","-0.0382383065892796","-1.00273130761352","0","359.9375"
"1137.08824","-0.271082280641857","-0.212359166951178","-1.77637418914305","-2.03823830658928","-2.00273130761352","0","359.9375"
"1139.94118","0.728917719358143","-0.212359166951178","0.223625810856948","-2.03823830658928","-2.00273130761352","0","359.9375"
"1142.79412","0.728917719358143","-0.212359166951178","0.223625810856948","0.96176169341072","-0.00273130761351997","0","359.9375"
"1145.64706","0.728917719358143","-0.212359166951178","-1.77637418914305","0.96176169341072","-0.00273130761351997","0","359.9375"
"1148.5","0.728917719358143","-0.212359166951178","-1.77637418914305","0.96176169341072","-1.00273130761352","0","359.9375"
"1151.35294","0.728917719358143","-0.212359166951178","-1.77637418914305","0.96176169341072","-1.00273130761352","0","359.9375"
"1154.20588","0.728917719358143","-0.212359166951178","-1.77637418914305","0.96176169341072","-0.00273130761351997","0","359.9375"
"1157.05882","0.728917719358143","0.787640833048822","-0.776374189143052","0.96176169341072","-0.00273130761351997","0","359.9375"
"1159.91176","0.728917719358143","0.787640833048822","-0.776374189143052","0.96176169341072","-1.00273130761352","0","359.9375"
"1162.76471","0.728917719358143","-0.212359166951178","-0.776374189143052","0.96176169341072","-1.00273130761352","0","359.9375"
"1165.61765","0.728917719358143","-0.212359166951178","-0.776374189143052","1.96176169341072","0.99726869238648","0","359.9375"
"1168.47059","0.728917719358143","-0.212359166951178","-1.77637418914305","1.96176169341072","0.99726869238648","0","359.9375"
"1171.32353","0.728917719358143","-0.212359166951178","-1.77637418914305","-2.03823830658928","-0.00273130761351997","0","359.9375"
"1174.17647","-1.27108228064186","-1.21235916695118","-0.776374189143052","-2.03823830658928","-0.00273130761351997","0","359.9375"
"1177.02941","-1.27108228064186","-1.21235916695118","-0.776374189143052","1.96176169341072","-4.00273130761352","0","359.9375"
"1179.88235","-1.27108228064186","-1.21235916695118","-0.776374189143052","1.96176169341072","-4.00273130761352","0","359.9375"
"1182.73529","-1.27108228064186","-1.21235916695118","-0.776374189143052","-1.03823830658928","-2.00273130761352","0","359.9375"
"1185.58824","-0.271082280641857","0.787640833048822","3.22362581085695","-1.03823830658928","-2.00273130761352","0","359.9375"
"1188.44118","-0.271082280641857","0.787640833048822","3.22362581085695","-1.03823830658928","-0.00273130761351997","0","359.9375"
"1191.29412","0.728917719358143","-0.212359166951178","-1.77637418914305","-1.03823830658928","-0.00273130761351997","0","359.9375"
"1194.14706","0.728917719358143","-0.212359166951178","-1.77637418914305","-1.03823830658928","-0.00273130761351997","0","359.9375"
"1197","0.728917719358143","-0.212359166951178","0.223625810856948","-1.03823830658928","-0.00273130761351997","0","359.9375"
"1203.2","0.728917719358143","-0.212359166951178","0.223625810856948","-4.03823830658928","-3.00273130761352","0","359.9375"
"1206.4","0.728917719358143","-0.212359166951178","0.223625810856948","-4.03823830658928","-3.00273130761352","0","359.9375"
"1209.6","0.728917719358143","-0.212359166951178","0.223625810856948","-2.03823830658928","-2.00273130761352","0","359.9375"
"1212.8","0.728917719358143","-0.212359166951178","0.223625810856948","-2.03823830658928","-2.00273130761352","0","359.9375"
"1216","0.728917719358143","-0.212359166951178","0.223625810856948","0.96176169341072","-0.00273130761351997","0","359.9375"
"1219.2","0.728917719358143","-0.212359166951178","-2.77637418914305","0.96176169341072","-0.00273130761351997","0","359.9375"
"1222.4","0.728917719358143","-0.212359166951178","-2.77637418914305","-0.0382383065892796","-0.00273130761351997","0","359.9375"
"1225.6","0.728917719358143","1.78764083304882","1.22362581085695","-0.0382383065892796","-0.00273130761351997","0","359.9375"
"1228.8","0.728917719358143","1.78764083304882","1.22362581085695","-0.0382383065892796","-0.00273130761351997","0","359.9375"
"1232","0.728917719358143","-1.21235916695118","0.223625810856948","-0.0382383065892796","-0.00273130761351997","0","359.9375"
"1235.2","0.728917719358143","-1.21235916695118","0.223625810856948","-0.0382383065892796","-1.00273130761352","0","359.9375"
"1238.4","-1.27108228064186","0.787640833048822","-1.77637418914305","-0.0382383065892796","-1.00273130761352","0","359.9375"
"1241.6","-1.27108228064186","0.787640833048822","-1.77637418914305","-1.03823830658928","-2.00273130761352","0","359.9375"
"1244.8","-1.27108228064186","0.787640833048822","-1.77637418914305","-1.03823830658928","-2.00273130761352","0","359.9375"
"1248","-1.27108228064186","0.787640833048822","-1.77637418914305","-0.0382383065892796","-3.00273130761352","0","359.9375"
"1251.2","0.728917719358143","-0.212359166951178","1.22362581085695","-0.0382383065892796","-3.00273130761352","0","359.9375"
"1254.4","0.728917719358143","-0.212359166951178","1.22362581085695","0.96176169341072","-0.00273130761351997","0","359.9375"
"1257.6","0.728917719358143","-0.212359166951178","-1.77637418914305","0.96176169341072","-0.00273130761351997","0","359.9375"
"1260.8","0.728917719358143","-0.212359166951178","-1.77637418914305","-0.0382383065892796","-0.00273130761351997","0","359.9375"
"1264","-1.27108228064186","-0.212359166951178","0.223625810856948","-0.0382383065892796","-0.00273130761351997","0","359.9375"
"1267.2","-1.27108228064186","-0.212359166951178","0.223625810856948","0.96176169341072","2.99726869238648","0","359.9375"
"1270.4","0.728917719358143","0.787640833048822","0.223625810856948","0.96176169341072","2.99726869238648","0","359.9375"
"1273.6","0.728917719358143","0.787640833048822","0.223625810856948","-1.03823830658928","1.99726869238648","0","359.9375"
"1276.8","0.728917719358143","0.787640833048822","0.223625810856948","-1.03823830658928","1.99726869238648","0","359.9375"
"1280","0.728917719358143","0.787640833048822","0.223625810856948","0.96176169341072","1.99726869238648","0","359.9375"
"1283.2","-2.27108228064186","0.787640833048822","1.22362581085695","0.96176169341072","1.99726869238648","0","359.9375"
"1286.4","-2.27108228064186","0.787640833048822","1.22362581085695","1.96176169341072","-1.00273130761352","0","359.9375"
"1289.6","-1.27108228064186","0.787640833048822","-0.776374189143052","1.96176169341072","-1.00273130761352","0","359.9375"
"1292.8","-1.27108228064186","0.787640833048822","-0.776374189143052","-1.03823830658928","-0.00273130761351997","0","359.9375"
"1296","0.728917719358143","-0.212359166951178","-0.776374189143052","-1.03823830658928","-0.00273130761351997","0","359.9375"
"1302.82353","0.728917719358143","-0.212359166951178","-0.776374189143052","0.96176169341072","-3.00273130761352","0","359.9375"
"1305.64706","-0.271082280641857","0.787640833048822","0.223625810856948","0.96176169341072","-3.00273130761352","0","359.9375"
"1308.47059","-0.271082280641857","0.787640833048822","0.223625810856948","-1.03823830658928","-2.00273130761352","0","359.9375"
"1311.29412","-0.271082280641857","0.787640833048822","0.223625810856948","-1.03823830658928","-2.00273130761352","0","359.9375"
"1314.11765","-0.271082280641857","0.787640833048822","0.223625810856948","1.96176169341072","-1.00273130761352","0","359.9375"
"1316.94118","-1.27108228064186","-0.212359166951178","-0.776374189143052","1.96176169341072","-1.00273130761352","0","359.9375"
"1319.76471","-1.27108228064186","-0.212359166951178","-0.776374189143052","0.96176169341072","-0.00273130761351997","0","359.9375"
"1322.58824","-0.271082280641857","-0.212359166951178","0.223625810856948","0.96176169341072","-0.00273130761351997","0","359.9375"
"1325.41176","-0.271082280641857","-0.212359166951178","0.223625810856948","2.96176169341072","-3.00273130761352","0","359.9375"
"1328.23529","0.728917719358143","-1.21235916695118","-0.776374189143052","2.96176169341072","-3.00273130761352","0","359.9375"
"1331.05882","0.728917719358143","-1.21235916695118","-0.776374189143052","-1.03823830658928","1.99726869238648","0","359.9375"
"1333.88235","0.728917719358143","0.787640833048822","2.22362581085695","-1.03823830658928","1.99726869238648","0","359.9375"
"1336.70588","0.728917719358143","0.787640833048822","2.22362581085695","-1.03823830658928","1.99726869238648","0","359.9375"
"1339.52941","0.728917719358143","0.787640833048822","2.22362581085695","-1.03823830658928","1.99726869238648","0","359.9375"
"1342.35294","0.728917719358143","0.787640833048822","2.22362581085695","-1.03823830658928","0.99726869238648","0","359.9375"
"1345.17647","0.728917719358143","-0.212359166951178","0.223625810856948","-1.03823830658928","0.99726869238648","0","359.9375"
"1348","0.728917719358143","-0.212359166951178","0.223625810856948","-1.03823830658928","-1.00273130761352","0","359.9375"
"1350.82353","-0.271082280641857","-0.212359166951178","-1.77637418914305","-1.03823830658928","-1.00273130761352","0","359.9375"
"1353.64706","-0.271082280641857","-0.212359166951178","-1.77637418914305","0.96176169341072","0.99726869238648","0","359.9375"
"1356.47059","-0.271082280641857","-0.212359166951178","-0.776374189143052","0.96176169341072","0.99726869238648","0","359.9375"
"1359.29412","-0.271082280641857","-0.212359166951178","-0.776374189143052","0.96176169341072","0.99726869238648","0","359.9375"
"1362.11765","0.728917719358143","-1.21235916695118","-2.77637418914305","0.96176169341072","0.99726869238648","0","359.9375"
"1364.94118","0.728917719358143","-1.21235916695118","-2.77637418914305","-0.0382383065892796","1.99726869238648","0","359.9375"
"1367.76471","0.728917719358143","-1.21235916695118","-2.77637418914305","-0.0382383065892796","1.99726869238648","0","359.9375"
"1370.58824","0.728917719358143","-1.21235916695118","-2.77637418914305","0.96176169341072","2.99726869238648","0","359.9375"
"1373.41176","0.728917719358143","-0.212359166951178","-3.77637418914305","0.96176169341072","2.99726869238648","0","359.9375"
"1376.23529","0.728917719358143","-0.212359166951178","-3.77637418914305","1.96176169341072","-0.00273130761351997","0","359.9375"
"1379.05882","-1.27108228064186","-0.212359166951178","1.22362581085695","1.96176169341072","-0.00273130761351997","0","359.9375"
"1381.88235","-1.27108228064186","-0.212359166951178","1.22362581085695","-2.03823830658928","0.99726869238648","0","359.9375"
"1384.70588","-0.271082280641857","-0.212359166951178","-1.77637418914305","-2.03823830658928","0.99726869238648","0","359.9375"
"1387.52941","-0.271082280641857","-0.212359166951178","-1.77637418914305","1.96176169341072","-0.00273130761351997","0","359.9375"
"1390.35294","-0.271082280641857","0.787640833048822","-0.776374189143052","1.96176169341072","-0.00273130761351997","0","359.9375"
"1393.17647","-0.271082280641857","0.787640833048822","-0.776374189143052","-1.03823830658928","0.99726869238648","0","359.9375"
"1396","-0.271082280641857","0.787640833048822","-0.776374189143052","-1.03823830658928","0.99726869238648","0","359.9375"
"1403.03125","-0.271082280641857","0.787640833048822","-0.776374189143052","-0.0382383065892796","-1.00273130761352","0","359.9375"
"1406.0625","0.728917719358143","-0.212359166951178","-0.776374189143052","-0.0382383065892796","-1.00273130761352","0","359.9375"
"1409.09375","0.728917719358143","-0.212359166951178","-0.776374189143052","0.96176169341072","-0.00273130761351997","0","359.9375"
"1412.125","0.728917719358143","0.787640833048822","-0.776374189143052","0.96176169341072","-0.00273130761351997","0","359.9375"
"1415.15625","0.728917719358143","0.787640833048822","-0.776374189143052","2.96176169341072","2.99726869238648","0","359.9375"
"1418.1875","-2.27108228064186","-0.212359166951178","0.223625810856948","2.96176169341072","2.99726869238648","0","359.9375"
"1421.21875","-2.27108228064186","-0.212359166951178","0.223625810856948","-0.0382383065892796","2.99726869238648","0","359.9375"
"1424.25","0.728917719358143","-0.212359166951178","1.22362581085695","-0.0382383065892796","2.99726869238648","0","359.9375"
"1427.28125","0.728917719358143","-0.212359166951178","1.22362581085695","-1.03823830658928","0.99726869238648","0","359.9375"
"1430.3125","0.728917719358143","-0.212359166951178","1.22362581085695","-1.03823830658928","0.99726869238648","0","359.9375"
"1433.34375","0.728917719358143","-0.212359166951178","1.22362581085695","1.96176169341072","1.99726869238648","0","359.9375"
"1436.375","-0.271082280641857","-0.212359166951178","-1.77637418914305","1.96176169341072","1.99726869238648","0","359.9375"
"1439.40625","-0.271082280641857","-0.212359166951178","-1.77637418914305","-0.0382383065892796","0.99726869238648","0","359.9375"
"1442.4375","0.728917719358143","-0.212359166951178","-2.77637418914305","-0.0382383065892796","0.99726869238648","0","359.9375"
"1445.46875","0.728917719358143","-0.212359166951178","-2.77637418914305","0.96176169341072","0.99726869238648","0","359.9375"
"1448.5","-0.271082280641857","-0.212359166951178","-1.77637418914305","0.96176169341072","0.99726869238648","0","359.9375"
"1451.53125","-0.271082280641857","-0.212359166951178","-1.77637418914305","-0.0382383065892796","-1.00273130761352","0","359.9375"
"1454.5625","-0.271082280641857","-0.212359166951178","2.22362581085695","-0.0382383065892796","-1.00273130761352","0","359.9375"
"1457.59375","-0.271082280641857","-0.212359166951178","2.22362581085695","0.96176169341072","1.99726869238648","0","359.9375"
"1460.625","-0.271082280641857","-0.212359166951178","2.22362581085695","0.96176169341072","1.99726869238648","0","359.9375"
"1463.65625","-0.271082280641857","-0.212359166951178","2.22362581085695","-0.0382383065892796","-0.00273130761351997","0","359.9375"
"1466.6875","-0.271082280641857","0.787640833048822","2.22362581085695","-0.0382383065892796","-0.00273130761351997","0","359.9375"
"1469.71875","-0.271082280641857","0.787640833048822","2.22362581085695","-3.03823830658928","-1.00273130761352","0","359.9375"
"1472.75","0.728917719358143","-0.212359166951178","-0.776374189143052","-3.03823830658928","-1.00273130761352","0","359.9375"
"1475.78125","0.728917719358143","-0.212359166951178","-0.776374189143052","-1.03823830658928","-0.00273130761351997","0","359.9375"
"1478.8125","-0.271082280641857","-0.212359166951178","-0.776374189143052","-1.03823830658928","-0.00273130761351997","0","359.9375"
"1481.84375","-0.271082280641857","-0.212359166951178","-0.776374189143052","1.96176169341072","-1.00273130761352","0","359.9375"
"1484.875","-0.271082280641857","-0.212359166951178","1.22362581085695","1.96176169341072","-1.00273130761352","0","359.9375"
"1487.90625","-0.271082280641857","-0.212359166951178","1.22362581085695","2.96176169341072","-0.00273130761351997","0","359.9375"
"1490.9375","-0.271082280641857","-0.212359166951178","1.22362581085695","2.96176169341072","-0.00273130761351997","0","359.9375"
"1493.96875","-0.271082280641857","-0.212359166951178","1.22362581085695","1.96176169341072","-0.00273130761351997","0","359.9375"
"1497","-0.271082280641857","0.787640833048822","1.22362581085695","1.96176169341072","-0.00273130761351997","0","359.9375"
"1502.77143","-0.271082280641857","0.787640833048822","1.22362581085695","1.96176169341072","-0.00273130761351997","0","359.9375"
"1505.54286","-0.271082280641857","-0.212359166951178","-2.77637418914305","1.96176169341072","-0.00273130761351997","0","359.9375"
"1508.31429","-0.271082280641857","-0.212359166951178","-2.77637418914305","1.96176169341072","-1.00273130761352","0","359.9375"
"1511.08571","0.728917719358143","-1.21235916695118","-2.77637418914305","1.96176169341072","-1.00273130761352","0","359.9375"
"1513.85714","0.728917719358143","-1.21235916695118","-2.77637418914305","-1.03823830658928","-0.00273130761351997","0","359.9375"
"1516.62857","-0.271082280641857","-0.212359166951178","1.22362581085695","-1.03823830658928","-0.00273130761351997","0","359.9375"
"1519.4","-0.271082280641857","-0.212359166951178","1.22362581085695","-1.03823830658928","-2.00273130761352","0","359.9375"
"1522.17143","-0.271082280641857","-0.212359166951178","1.22362581085695","-1.03823830658928","-2.00273130761352","0","359.9375"
"1524.94286","-0.271082280641857","-0.212359166951178","1.22362581085695","0.96176169341072","-1.00273130761352","0","359.9375"
"1527.71429","-0.271082280641857","-0.212359166951178","1.22362581085695","0.96176169341072","-1.00273130761352","0","359.9375"
"1530.48571","-0.271082280641857","-0.212359166951178","1.22362581085695","-1.03823830658928","-2.00273130761352","0","359.9375"
"1533.25714","-0.271082280641857","-0.212359166951178","1.22362581085695","-1.03823830658928","-2.00273130761352","0","359.9375"
"1536.02857","-0.271082280641857","-0.212359166951178","1.22362581085695","1.96176169341072","-1.00273130761352","0","359.9375"
"1538.8","0.728917719358143","0.787640833048822","-0.776374189143052","1.96176169341072","-1.00273130761352","0","359.9375"
"1541.57143","0.728917719358143","0.787640833048822","-0.776374189143052","0.96176169341072","0.99726869238648","0","359.9375"
"1544.34286","-0.271082280641857","-0.212359166951178","2.22362581085695","0.96176169341072","0.99726869238648","0","359.9375"
"1547.11429","-0.271082280641857","-0.212359166951178","2.22362581085695","0.96176169341072","-2.00273130761352","0","359.9375"
"1549.88571","-0.271082280641857","-0.212359166951178","2.22362581085695","0.96176169341072","-2.00273130761352","0","359.9375"
"1552.65714","-0.271082280641857","-0.212359166951178","2.22362581085695","1.96176169341072","-2.00273130761352","0","359.9375"
"1555.42857","0.728917719358143","-1.21235916695118","1.22362581085695","1.96176169341072","-2.00273130761352","0","359.9375"
"1558.2","0.728917719358143","-1.21235916695118","1.22362581085695","-0.0382383065892796","-4.00273130761352","0","359.9375"
"1560.97143","-0.271082280641857","1.78764083304882","-0.776374189143052","-0.0382383065892796","-4.00273130761352","0","359.9375"
"1563.74286","-0.271082280641857","1.78764083304882","-0.776374189143052","1.96176169341072","-3.00273130761352","0","359.9375"
"1566.51429","-1.27108228064186","-0.212359166951178","0.223625810856948","1.96176169341072","-3.00273130761352","0","359.9375"
"1569.28571","-1.27108228064186","-0.212359166951178","0.223625810856948","3.96176169341072","-1.00273130761352","0","359.9375"
"1572.05714","0.728917719358143","-0.212359166951178","0.223625810856948","3.96176169341072","-1.00273130761352","0","359.9375"
"1574.82857","0.728917719358143","-0.212359166951178","0.223625810856948","1.96176169341072","-1.00273130761352","0","359.9375"
"1577.6","0.728917719358143","-0.212359166951178","0.223625810856948","1.96176169341072","-1.00273130761352","0","359.9375"
"1580.37143","0.728917719358143","0.787640833048822","0.223625810856948","1.96176169341072","-1.00273130761352","0","359.9375"
"1583.14286","0.728917719358143","0.787640833048822","0.223625810856948","0.96176169341072","1.99726869238648","0","359.9375"
"1585.91429","-0.271082280641857","0.787640833048822","-1.77637418914305","0.96176169341072","1.99726869238648","0","359.9375"
"1588.68571","-0.271082280641857","0.787640833048822","-1.77637418914305","0.96176169341072","-2.00273130761352","0","359.9375"
"1591.45714","0.728917719358143","-0.212359166951178","-2.77637418914305","0.96176169341072","-2.00273130761352","0","359.9375"
"1594.22857","0.728917719358143","-0.212359166951178","-2.77637418914305","1.96176169341072","-0.00273130761351997","0","359.9375"
"1597","-0.271082280641857","-0.212359166951178","3.22362581085695","1.96176169341072","-0.00273130761351997","0","359.9375"
"1602.82857","-0.271082280641857","-0.212359166951178","3.22362581085695","-1.03823830658928","-1.00273130761352","0","359.9375"
"1605.65714","0.728917719358143","-0.212359166951178","0.223625810856948","-1.03823830658928","-1.00273130761352","0","359.9375"
"1608.48571","0.728917719358143","-0.212359166951178","0.223625810856948","-1.03823830658928","-1.00273130761352","0","359.9375"
"1611.31429","0.728917719358143","-0.212359166951178","0.223625810856948","0.96176169341072","1.99726869238648","0","359.9375"
"1614.14286","-0.271082280641857","0.787640833048822","-1.77637418914305","0.96176169341072","1.99726869238648","0","359.9375"
"1616.97143","-0.271082280641857","0.787640833048822","-1.77637418914305","0.96176169341072","-2.00273130761352","0","359.9375"
"1619.8","0.728917719358143","-0.212359166951178","-2.77637418914305","0.96176169341072","-2.00273130761352","0","359.9375"
"1622.62857","0.728917719358143","-0.212359166951178","-2.77637418914305","1.96176169341072","-0.00273130761351997","0","359.9375"
"1625.45714","-0.271082280641857","-0.212359166951178","3.22362581085695","1.96176169341072","-0.00273130761351997","0","359.9375"
"1628.28571","-0.271082280641857","-0.212359166951178","3.22362581085695","-1.03823830658928","-1.00273130761352","0","359.9375"
"1631.11429","0.728917719358143","-0.212359166951178","0.223625810856948","-1.03823830658928","-1.00273130761352","0","359.9375"
"1633.94286","0.728917719358143","-0.212359166951178","0.223625810856948","-1.03823830658928","-2.00273130761352","0","359.9375"
"1636.77143","0.728917719358143","-0.212359166951178","0.223625810856948","-1.03823830658928","-2.00273130761352","0","359.9375"
"1639.6","0.728917719358143","-0.212359166951178","0.223625810856948","-3.03823830658928","-3.00273130761352","0","359.9375"
"1642.42857","0.728917719358143","-0.212359166951178","-0.776374189143052","-3.03823830658928","-3.00273130761352","0","359.9375"
"1645.25714","0.728917719358143","-0.212359166951178","-0.776374189143052","-2.03823830658928","-0.00273130761351997","0","359.9375"
"1648.08571","0.728917719358143","-0.212359166951178","-0.776374189143052","-2.03823830658928","-0.00273130761351997","0","359.9375"
"1650.91429","0.728917719358143","-0.212359166951178","-0.776374189143052","2.96176169341072","-2.00273130761352","0","359.9375"
"1653.74286","-0.271082280641857","-0.212359166951178","0.223625810856948","2.96176169341072","-2.00273130761352","0","359.9375"
"1656.57143","-0.271082280641857","-0.212359166951178","0.223625810856948","-0.0382383065892796","0.99726869238648","0","359.9375"
"1659.4","0.728917719358143","1.78764083304882","2.22362581085695","-0.0382383065892796","0.99726869238648","0","359.9375"
"1662.22857","0.728917719358143","1.78764083304882","2.22362581085695","-1.03823830658928","0.99726869238648","0","359.9375"
"1665.05714","-0.271082280641857","-0.212359166951178","-1.77637418914305","-1.03823830658928","0.99726869238648","0","359.9375"
"1667.88571","-0.271082280641857","-0.212359166951178","-1.77637418914305","-3.03823830658928","-1.00273130761352","0","359.9375"
"1670.71429","-1.27108228064186","0.787640833048822","-2.77637418914305","-3.03823830658928","-1.00273130761352","0","359.9375"
"1673.54286","-1.27108228064186","0.787640833048822","-2.77637418914305","1.96176169341072","-1.00273130761352","0","359.9375"
"1676.37143","-0.271082280641857","0.787640833048822","-0.776374189143052","1.96176169341072","-1.00273130761352","0","359.9375"
"1679.2","-0.271082280641857","0.787640833048822","-0.776374189143052","0.96176169341072","0.99726869238648","0","359.9375"
"1682.02857","0.728917719358143","-0.212359166951178","1.22362581085695","0.96176169341072","0.99726869238648","0","359.9375"
"1684.85714","0.728917719358143","-0.212359166951178","1.22362581085695","0.96176169341072","-1.00273130761352","0","359.9375"
"1687.68571","0.728917719358143","-0.212359166951178","1.22362581085695","0.96176169341072","-1.00273130761352","0","359.9375"
"1690.51429","0.728917719358143","-0.212359166951178","1.22362581085695","-1.03823830658928","-0.00273130761351997","0","359.9375"
"1693.34286","0.728917719358143","-0.212359166951178","0.223625810856948","-1.03823830658928","-0.00273130761351997","0","359.9375"
"1696.17143","0.728917719358143","-0.212359166951178","0.223625810856948","2.96176169341072","-0.00273130761351997","0","359.9375"
"1699","0.728917719358143","0.787640833048822","-3.77637418914305","2.96176169341072","-0.00273130761351997","0","359.9375"
"1702.9375","0.728917719358143","0.787640833048822","-3.77637418914305","-0.0382383065892796","-0.00273130761351997","0","359.9375"
"1705.875","0.728917719358143","-0.212359166951178","0.223625810856948","-0.0382383065892796","-0.00273130761351997","0","359.9375"
"1708.8125","0.728917719358143","-0.212359166951178","0.223625810856948","-0.0382383065892796","0.99726869238648","0","359.9375"
"1711.75","-0.271082280641857","0.787640833048822","2.22362581085695","-0.0382383065892796","0.99726869238648","0","359.9375"
"1714.6875","-0.271082280641857","0.787640833048822","2.22362581085695","0.96176169341072","-1.00273130761352","0","359.9375"
"1717.625","0.728917719358143","0.787640833048822","2.22362581085695","0.96176169341072","-1.00273130761352","0","359.9375"
"1720.5625","0.728917719358143","0.787640833048822","2.22362581085695","2.96176169341072","1.99726869238648","0","359.9375"
"1723.5","0.728917719358143","-0.212359166951178","0.223625810856948","2.96176169341072","1.99726869238648","0","359.9375"
"1726.4375","0.728917719358143","-0.212359166951178","0.223625810856948","-0.0382383065892796","1.99726869238648","0","359.9375"
"1729.375","0.728917719358143","-0.212359166951178","0.223625810856948","-0.0382383065892796","1.99726869238648","0","359.9375"
"1732.3125","0.728917719358143","-0.212359166951178","0.223625810856948","0.96176169341072","-0.00273130761351997","0","359.9375"
"1735.25","-0.271082280641857","-0.212359166951178","-0.776374189143052","0.96176169341072","-0.00273130761351997","0","359.9375"
"1738.1875","-0.271082280641857","-0.212359166951178","-0.776374189143052","-0.0382383065892796","-3.00273130761352","0","359.9375"
"1741.125","-1.27108228064186","-0.212359166951178","0.223625810856948","-0.0382383065892796","-3.00273130761352","0","359.9375"
"1744.0625","-1.27108228064186","-0.212359166951178","0.223625810856948","2.96176169341072","-0.00273130761351997","0","359.9375"
"1747","0.728917719358143","1.78764083304882","3.22362581085695","2.96176169341072","-0.00273130761351997","0","359.9375"
"1749.9375","0.728917719358143","1.78764083304882","3.22362581085695","4.96176169341072","-1.00273130761352","0","359.9375"
"1752.875","0.728917719358143","-0.212359166951178","0.223625810856948","4.96176169341072","-1.00273130761352","0","359.9375"
"1755.8125","0.728917719358143","-0.212359166951178","0.223625810856948","2.96176169341072","-0.00273130761351997","0","359.9375"
"1758.75","0.728917719358143","-0.212359166951178","-1.77637418914305","2.96176169341072","-0.00273130761351997","0","359.9375"
"1761.6875","0.728917719358143","-0.212359166951178","-1.77637418914305","1.96176169341072","-1.00273130761352","0","359.9375"
"1764.625","-1.27108228064186","-0.212359166951178","0.223625810856948","1.96176169341072","-1.00273130761352","0","359.9375"
"1767.5625","-1.27108228064186","-0.212359166951178","0.223625810856948","1.96176169341072","-2.00273130761352","0","359.9375"
"1770.5","0.728917719358143","-0.212359166951178","0.223625810856948","1.96176169341072","-2.00273130761352","0","359.9375"
"1773.4375","0.728917719358143","-0.212359166951178","0.223625810856948","0.96176169341072","0.99726869238648","0","359.9375"
"1776.375","0.728917719358143","0.787640833048822","3.22362581085695","0.96176169341072","0.99726869238648","0","359.9375"
"1779.3125","0.728917719358143","0.787640833048822","3.22362581085695","-0.0382383065892796","-0.00273130761351997","0","359.9375"
"1782.25","-0.271082280641857","-0.212359166951178","0.223625810856948","-0.0382383065892796","-0.00273130761351997","0","359.9375"
"1785.1875","-0.271082280641857","-0.212359166951178","0.223625810856948","1.96176169341072","1.99726869238648","0","359.9375"
"1788.125","-0.271082280641857","-0.212359166951178","-1.77637418914305","1.96176169341072","1.99726869238648","0","359.9375"
"1791.0625","-0.271082280641857","-0.212359166951178","-1.77637418914305","-1.03823830658928","2.99726869238648","0","359.9375"
"1794","0.728917719358143","0.787640833048822","-1.77637418914305","-1.03823830658928","2.99726869238648","0","359.9375"
"1800","0.728917719358143","0.787640833048822","-1.77637418914305","2.96176169341072","0.99726869238648","0","359.9375"
"1800","-1.27108228064186","0.787640833048822","0.223625810856948","2.96176169341072","0.99726869238648","0","359.9375"
"1802.96875","-1.27108228064186","0.787640833048822","0.223625810856948","-5.03823830658928","0.99726869238648","0","359.9375"
"1805.9375","-0.271082280641857","0.787640833048822","-2.77637418914305","-5.03823830658928","0.99726869238648","0","359.9375"
"1808.90625","-0.271082280641857","0.787640833048822","-2.77637418914305","-1.03823830658928","0.99726869238648","0","359.9375"
"1811.875","0.728917719358143","-0.212359166951178","0.223625810856948","-1.03823830658928","0.99726869238648","0","359.9375"
"1814.84375","0.728917719358143","-0.212359166951178","0.223625810856948","1.96176169341072","2.99726869238648","0","359.9375"
"1817.8125","0.728917719358143","0.787640833048822","-0.776374189143052","1.96176169341072","2.99726869238648","0","359.9375"
"1820.78125","0.728917719358143","0.787640833048822","-0.776374189143052","3.96176169341072","0.99726869238648","0","359.9375"
"1823.75","0.728917719358143","0.787640833048822","-0.776374189143052","3.96176169341072","0.99726869238648","0","359.9375"
"1826.71875","0.728917719358143","0.787640833048822","-0.776374189143052","-3.03823830658928","-1.00273130761352","0","359.9375"
"1829.6875","-1.27108228064186","-0.212359166951178","-0.776374189143052","-3.03823830658928","-1.00273130761352","0","359.9375"
"1832.65625","-1.27108228064186","-0.212359166951178","-0.776374189143052","-1.03823830658928","-1.00273130761352","0","359.9375"
"1835.625","0.728917719358143","-1.21235916695118","0.223625810856948","-1.03823830658928","-1.00273130761352","0","359.9375"
"1838.59375","0.728917719358143","-1.21235916695118","0.223625810856948","1.96176169341072","-0.00273130761351997","0","359.9375"
"1841.5625","-1.27108228064186","1.78764083304882","-1.77637418914305","1.96176169341072","-0.00273130761351997","0","359.9375"
"1844.53125","-1.27108228064186","1.78764083304882","-1.77637418914305","2.96176169341072","-2.00273130761352","0","359.9375"
"1847.5","-0.271082280641857","1.78764083304882","-2.77637418914305","2.96176169341072","-2.00273130761352","0","359.9375"
"1850.46875","-0.271082280641857","1.78764083304882","-2.77637418914305","2.96176169341072","1.99726869238648","0","359.9375"
"1853.4375","0.728917719358143","0.787640833048822","2.22362581085695","2.96176169341072","1.99726869238648","0","359.9375"
"1856.40625","0.728917719358143","0.787640833048822","2.22362581085695","0.96176169341072","-2.00273130761352","0","359.9375"
"1859.375","-0.271082280641857","-0.212359166951178","0.223625810856948","0.96176169341072","-2.00273130761352","0","359.9375"
"1862.34375","-0.271082280641857","-0.212359166951178","0.223625810856948","-0.0382383065892796","-0.00273130761351997","0","359.9375"
"1865.3125","0.728917719358143","-0.212359166951178","1.22362581085695","-0.0382383065892796","-0.00273130761351997","0","359.9375"
"1868.28125","0.728917719358143","-0.212359166951178","1.22362581085695","0.96176169341072","-2.00273130761352","0","359.9375"
"1871.25","-3.27108228064186","0.787640833048822","-0.776374189143052","0.96176169341072","-2.00273130761352","0","359.9375"
"1874.21875","-3.27108228064186","0.787640833048822","-0.776374189143052","0.96176169341072","-2.00273130761352","0","359.9375"
"1877.1875","-0.271082280641857","-0.212359166951178","-1.77637418914305","0.96176169341072","-2.00273130761352","0","359.9375"
"1880.15625","-0.271082280641857","-0.212359166951178","-1.77637418914305","1.96176169341072","0.99726869238648","0","359.9375"
"1883.125","0.728917719358143","0.787640833048822","-0.776374189143052","1.96176169341072","0.99726869238648","0","359.9375"
"1886.09375","0.728917719358143","0.787640833048822","-0.776374189143052","-2.03823830658928","1.99726869238648","0","359.9375"
"1889.0625","0.728917719358143","-0.212359166951178","0.223625810856948","-2.03823830658928","1.99726869238648","0","359.9375"
"1892.03125","0.728917719358143","-0.212359166951178","0.223625810856948","-0.0382383065892796","-0.00273130761351997","0","359.9375"
"1895","-0.271082280641857","-0.212359166951178","-0.776374189143052","-0.0382383065892796","-0.00273130761351997","0","359.9375"
"1903.03125","-0.271082280641857","-0.212359166951178","-0.776374189143052","2.96176169341072","-1.00273130761352","0","359.9375"
"1906.0625","-0.271082280641857","-0.212359166951178","0.223625810856948","2.96176169341072","-1.00273130761352","0","359.9375"
"1909.09375","-0.271082280641857","-0.212359166951178","0.223625810856948","-1.03823830658928","-2.00273130761352","0","359.9375"
"1912.125","0.728917719358143","-0.212359166951178","-1.77637418914305","-1.03823830658928","-2.00273130761352","0","359.9375"
"1915.15625","0.728917719358143","-0.212359166951178","-1.77637418914305","-0.0382383065892796","0.99726869238648","0","359.9375"
"1918.1875","0.728917719358143","-0.212359166951178","1.22362581085695","-0.0382383065892796","0.99726869238648","0","359.9375"
"1921.21875","0.728917719358143","-0.212359166951178","1.22362581085695","-0.0382383065892796","-0.00273130761351997","0","359.9375"
"1924.25","-0.271082280641857","-0.212359166951178","0.223625810856948","-0.0382383065892796","-0.00273130761351997","0","359.9375"
"1927.28125","-0.271082280641857","-0.212359166951178","0.223625810856948","-0.0382383065892796","-2.00273130761352","0","359.9375"
"1930.3125","0.728917719358143","-1.21235916695118","0.223625810856948","-0.0382383065892796","-2.00273130761352","0","359.9375"
"1933.34375","0.728917719358143","-1.21235916695118","0.223625810856948","-5.03823830658928","1.99726869238648","0","359.9375"
"1936.375","0.728917719358143","-1.21235916695118","0.223625810856948","-5.03823830658928","1.99726869238648","0","359.9375"
"1939.40625","0.728917719358143","-1.21235916695118","0.223625810856948","-0.0382383065892796","1.99726869238648","0","359.9375"
"1942.4375","-1.27108228064186","-0.212359166951178","-0.776374189143052","-0.0382383065892796","1.99726869238648","0","359.9375"
"1945.46875","-1.27108228064186","-0.212359166951178","-0.776374189143052","2.96176169341072","-0.00273130761351997","0","359.9375"
"1948.5","0.728917719358143","0.787640833048822","0.223625810856948","2.96176169341072","-0.00273130761351997","0","359.9375"
"1951.53125","0.728917719358143","0.787640833048822","0.223625810856948","-0.0382383065892796","0.99726869238648","0","359.9375"
"1954.5625","-1.27108228064186","-0.212359166951178","2.22362581085695","-0.0382383065892796","0.99726869238648","0","359.9375"
"1957.59375","-1.27108228064186","-0.212359166951178","2.22362581085695","-3.03823830658928","-1.00273130761352","0","359.9375"
"1960.625","-0.271082280641857","-0.212359166951178","0.223625810856948","-3.03823830658928","-1.00273130761352","0","359.9375"
"1963.65625","-0.271082280641857","-0.212359166951178","0.223625810856948","-1.03823830658928","1.99726869238648","0","359.9375"
"1966.6875","-1.27108228064186","-0.212359166951178","0.223625810856948","-1.03823830658928","1.99726869238648","0","359.9375"
"1969.71875","-1.27108228064186","-0.212359166951178","0.223625810856948","-2.03823830658928","2.99726869238648","0","359.9375"
"1972.75","0.728917719358143","-0.212359166951178","-0.776374189143052","-2.03823830658928","2.99726869238648","0","359.9375"
"1975.78125","0.728917719358143","-0.212359166951178","-0.776374189143052","0.96176169341072","-3.00273130761352","0","359.9375"
"1978.8125","-0.271082280641857","-0.212359166951178","-0.776374189143052","0.96176169341072","-3.00273130761352","0","359.9375"
"1981.84375","-0.271082280641857","-0.212359166951178","-0.776374189143052","-0.0382383065892796","-2.00273130761352","0","359.9375"
"1984.875","-0.271082280641857","-0.212359166951178","1.22362581085695","-0.0382383065892796","-2.00273130761352","0","359.9375"
"1987.90625","-0.271082280641857","-0.212359166951178","1.22362581085695","-1.03823830658928","-0.00273130761351997","0","359.9375"
"1990.9375","-0.271082280641857","-0.212359166951178","-0.776374189143052","-1.03823830658928","-0.00273130761351997","0","359.9375"
"1993.96875","-0.271082280641857","-0.212359166951178","-0.776374189143052","2.96176169341072","-0.00273130761351997","0","359.9375"
"1997","-2.27108228064186","-0.212359166951178","1.22362581085695","2.96176169341072","-0.00273130761351997","0","359.9375"
"2002.8125","-2.27108228064186","-0.212359166951178","1.22362581085695","-1.03823830658928","-0.00273130761351997","0","359.9375"
"2005.625","0.728917719358143","-0.212359166951178","-1.77637418914305","-1.03823830658928","-0.00273130761351997","0","359.9375"
"2008.4375","0.728917719358143","-0.212359166951178","-1.77637418914305","-2.03823830658928","1.99726869238648","0","359.9375"
"2011.25","-0.271082280641857","-0.212359166951178","-1.77637418914305","-2.03823830658928","1.99726869238648","0","359.9375"
"2014.0625","-0.271082280641857","-0.212359166951178","-1.77637418914305","-1.03823830658928","-0.00273130761351997","0","359.9375"
"2016.875","0.728917719358143","-0.212359166951178","1.22362581085695","-1.03823830658928","-0.00273130761351997","0","359.9375"
"2019.6875","0.728917719358143","-0.212359166951178","1.22362581085695","-2.03823830658928","-3.00273130761352","0","359.9375"
"2022.5","-1.27108228064186","-0.212359166951178","1.22362581085695","-2.03823830658928","-3.00273130761352","0","359.9375"
"2025.3125","-1.27108228064186","-0.212359166951178","1.22362581085695","0.96176169341072","-0.00273130761351997","0","359.9375"
"2028.125","0.728917719358143","-0.212359166951178","0.223625810856948","0.96176169341072","-0.00273130761351997","0","359.9375"
"2030.9375","0.728917719358143","-0.212359166951178","0.223625810856948","-3.03823830658928","-0.00273130761351997","0","359.9375"
"2033.75","-0.271082280641857","-0.212359166951178","-3.77637418914305","-3.03823830658928","-0.00273130761351997","0","359.9375"
"2036.5625","-0.271082280641857","-0.212359166951178","-3.77637418914305","-2.03823830658928","-1.00273130761352","0","359.9375"
"2039.375","0.728917719358143","0.787640833048822","-0.776374189143052","-2.03823830658928","-1.00273130761352","0","359.9375"
"2042.1875","0.728917719358143","0.787640833048822","-0.776374189143052","-2.03823830658928","-1.00273130761352","0","359.9375"
"2045","-1.27108228064186","-0.212359166951178","3.22362581085695","-2.03823830658928","-1.00273130761352","0","359.9375"
"2047.8125","-1.27108228064186","-0.212359166951178","3.22362581085695","1.96176169341072","-1.00273130761352","0","359.9375"
"2050.625","0.728917719358143","0.787640833048822","-3.77637418914305","1.96176169341072","-1.00273130761352","0","359.9375"
"2053.4375","0.728917719358143","0.787640833048822","-3.77637418914305","-0.0382383065892796","-2.00273130761352","0","359.9375"
"2056.25","-1.27108228064186","-0.212359166951178","-0.776374189143052","-0.0382383065892796","-2.00273130761352","0","359.9375"
"2059.0625","-1.27108228064186","-0.212359166951178","-0.776374189143052","0.96176169341072","0.99726869238648","0","359.9375"
"2061.875","-0.271082280641857","0.787640833048822","-2.77637418914305","0.96176169341072","0.99726869238648","0","359.9375"
"2064.6875","-0.271082280641857","0.787640833048822","-2.77637418914305","1.96176169341072","0.99726869238648","0","359.9375"
"2067.5","0.728917719358143","-0.212359166951178","1.22362581085695","1.96176169341072","0.99726869238648","0","359.9375"
"2070.3125","0.728917719358143","-0.212359166951178","1.22362581085695","0.96176169341072","-1.00273130761352","0","359.9375"
"2073.125","0.728917719358143","-0.212359166951178","0.223625810856948","0.96176169341072","-1.00273130761352","0","359.9375"
"2075.9375","0.728917719358143","-0.212359166951178","0.223625810856948","-2.03823830658928","-3.00273130761352","0","359.9375"
"2078.75","0.728917719358143","0.787640833048822","2.22362581085695","-2.03823830658928","-3.00273130761352","0","359.9375"
"2081.5625","0.728917719358143","0.787640833048822","2.22362581085695","-0.0382383065892796","1.99726869238648","0","359.9375"
"2084.375","0.728917719358143","-2.21235916695118","1.22362581085695","-0.0382383065892796","1.99726869238648","0","359.9375"
"2087.1875","0.728917719358143","-2.21235916695118","1.22362581085695","-0.0382383065892796","-0.00273130761351997","0","359.9375"
"2090","-0.271082280641857","-0.212359166951178","-0.776374189143052","-0.0382383065892796","-0.00273130761351997","0","359.9375"
"2103.23333","-0.271082280641857","-0.212359166951178","-0.776374189143052","0.96176169341072","-0.00273130761351997","0","359.9375"
"2106.46667","0.728917719358143","-2.21235916695118","-1.77637418914305","0.96176169341072","-0.00273130761351997","0","359.9375"
"2109.7","0.728917719358143","-2.21235916695118","-1.77637418914305","0.96176169341072","0.99726869238648","0","359.9375"
"2112.93333","0.728917719358143","-1.21235916695118","0.223625810856948","0.96176169341072","0.99726869238648","0","359.9375"
"2116.16667","0.728917719358143","-1.21235916695118","0.223625810856948","-2.03823830658928","0.99726869238648","0","359.9375"
"2119.4","-1.27108228064186","-0.212359166951178","0.223625810856948","-2.03823830658928","0.99726869238648","0","359.9375"
"2122.63333","-1.27108228064186","-0.212359166951178","0.223625810856948","-1.03823830658928","-2.00273130761352","0","359.9375"
"2125.86667","0.728917719358143","1.78764083304882","-1.77637418914305","-1.03823830658928","-2.00273130761352","0","359.9375"
"2129.1","0.728917719358143","1.78764083304882","-1.77637418914305","-4.03823830658928","-0.00273130761351997","0","359.9375"
"2132.33333","-0.271082280641857","-0.212359166951178","-1.77637418914305","-4.03823830658928","-0.00273130761351997","0","359.9375"
"2135.56667","-0.271082280641857","-0.212359166951178","-1.77637418914305","-1.03823830658928","-2.00273130761352","0","359.9375"
"2138.8","0.728917719358143","0.787640833048822","2.22362581085695","-1.03823830658928","-2.00273130761352","0","359.9375"
"2142.03333","0.728917719358143","0.787640833048822","2.22362581085695","0.96176169341072","-2.00273130761352","0","359.9375"
"2145.26667","0.728917719358143","-1.21235916695118","1.22362581085695","0.96176169341072","-2.00273130761352","0","359.9375"
"2148.5","0.728917719358143","-1.21235916695118","1.22362581085695","0.96176169341072","-0.00273130761351997","0","359.9375"
"2151.73333","-1.27108228064186","-0.212359166951178","0.223625810856948","0.96176169341072","-0.00273130761351997","0","359.9375"
"2154.96667","-1.27108228064186","-0.212359166951178","0.223625810856948","-1.03823830658928","0.99726869238648","0","359.9375"
"2158.2","-0.271082280641857","-0.212359166951178","1.22362581085695","-1.03823830658928","0.99726869238648","0","359.9375"
"2161.43333","-0.271082280641857","-0.212359166951178","1.22362581085695","-2.03823830658928","-0.00273130761351997","0","359.9375"
"2164.66667","-0.271082280641857","-0.212359166951178","0.223625810856948","-2.03823830658928","-0.00273130761351997","0","359.9375"
"2167.9","-0.271082280641857","-0.212359166951178","0.223625810856948","1.96176169341072","-1.00273130761352","0","359.9375"
"2171.13333","0.728917719358143","-0.212359166951178","0.223625810856948","1.96176169341072","-1.00273130761352","0","359.9375"
"2174.36667","0.728917719358143","-0.212359166951178","0.223625810856948","-1.03823830658928","-0.00273130761351997","0","359.9375"
"2177.6","-1.27108228064186","-1.21235916695118","-0.776374189143052","-1.03823830658928","-0.00273130761351997","0","359.9375"
"2180.83333","-1.27108228064186","-1.21235916695118","-0.776374189143052","-2.03823830658928","0.99726869238648","0","359.9375"
"2184.06667","-0.271082280641857","-1.21235916695118","-0.776374189143052","-2.03823830658928","0.99726869238648","0","359.9375"
"2187.3","-0.271082280641857","-1.21235916695118","-0.776374189143052","0.96176169341072","-0.00273130761351997","0","359.9375"
"2190.53333","-1.27108228064186","-0.212359166951178","0.223625810856948","0.96176169341072","-0.00273130761351997","0","359.9375"
"2193.76667","-1.27108228064186","-0.212359166951178","0.223625810856948","0.96176169341072","0.99726869238648","0","359.9375"
"2197","-0.271082280641857","-0.212359166951178","0.223625810856948","0.96176169341072","0.99726869238648","0","359.9375"
"2202.82353","-0.271082280641857","-0.212359166951178","0.223625810856948","-3.03823830658928","-1.00273130761352","0","359.9375"
"2205.64706","0.728917719358143","0.787640833048822","-0.776374189143052","-3.03823830658928","-1.00273130761352","0","359.9375"
"2208.47059","0.728917719358143","0.787640833048822","-0.776374189143052","-1.03823830658928","-1.00273130761352","0","359.9375"
"2211.29412","-1.27108228064186","-0.212359166951178","3.22362581085695","-1.03823830658928","-1.00273130761352","0","359.9375"
"2214.11765","-1.27108228064186","-0.212359166951178","3.22362581085695","-4.03823830658928","-0.00273130761351997","0","359.9375"
"2216.94118","-1.27108228064186","-0.212359166951178","-0.776374189143052","-4.03823830658928","-0.00273130761351997","0","359.9375"
"2219.76471","-1.27108228064186","-0.212359166951178","-0.776374189143052","-1.03823830658928","0.99726869238648","0","359.9375"
"2222.58824","0.728917719358143","1.78764083304882","1.22362581085695","-1.03823830658928","0.99726869238648","0","359.9375"
"2225.41176","0.728917719358143","1.78764083304882","1.22362581085695","0.96176169341072","1.99726869238648","0","359.9375"
"2228.23529","-1.27108228064186","0.787640833048822","-1.77637418914305","0.96176169341072","1.99726869238648","0","359.9375"
"2231.05882","-1.27108228064186","0.787640833048822","-1.77637418914305","2.96176169341072","-0.00273130761351997","0","359.9375"
"2233.88235","-0.271082280641857","-0.212359166951178","0.223625810856948","2.96176169341072","-0.00273130761351997","0","359.9375"
"2236.70588","-0.271082280641857","-0.212359166951178","0.223625810856948","-2.03823830658928","1.99726869238648","0","359.9375"
"2239.52941","-0.271082280641857","0.787640833048822","0.223625810856948","-2.03823830658928","1.99726869238648","0","359.9375"
"2242.35294","-0.271082280641857","0.787640833048822","0.223625810856948","-0.0382383065892796","-0.00273130761351997","0","359.9375"
"2245.17647","0.728917719358143","-0.212359166951178","1.22362581085695","-0.0382383065892796","-0.00273130761351997","0","359.9375"
"2248","0.728917719358143","-0.212359166951178","1.22362581085695","0.96176169341072","1.99726869238648","0","359.9375"
"2250.82353","-0.271082280641857","-1.21235916695118","-0.776374189143052","0.96176169341072","1.99726869238648","0","359.9375"
"2253.64706","-0.271082280641857","-1.21235916695118","-0.776374189143052","0.96176169341072","0.99726869238648","0","359.9375"
"2256.47059","-1.27108228064186","-0.212359166951178","-2.77637418914305","0.96176169341072","0.99726869238648","0","359.9375"
"2259.29412","-1.27108228064186","-0.212359166951178","-2.77637418914305","1.96176169341072","-1.00273130761352","0","359.9375"
"2262.11765","-1.27108228064186","0.787640833048822","-1.77637418914305","1.96176169341072","-1.00273130761352","0","359.9375"
"2264.94118","-1.27108228064186","0.787640833048822","-1.77637418914305","1.96176169341072","0.99726869238648","0","359.9375"
"2267.76471","0.728917719358143","-0.212359166951178","-0.776374189143052","1.96176169341072","0.99726869238648","0","359.9375"
"2270.58824","0.728917719358143","-0.212359166951178","-0.776374189143052","-0.0382383065892796","0.99726869238648","0","359.9375"
"2273.41176","-1.27108228064186","2.78764083304882","0.223625810856948","-0.0382383065892796","0.99726869238648","0","359.9375"
"2276.23529","-1.27108228064186","2.78764083304882","0.223625810856948","0.96176169341072","-0.00273130761351997","0","359.9375"
"2279.05882","0.728917719358143","-0.212359166951178","1.22362581085695","0.96176169341072","-0.00273130761351997","0","359.9375"
"2281.88235","0.728917719358143","-0.212359166951178","1.22362581085695","-1.03823830658928","-0.00273130761351997","0","359.9375"
"2284.70588","0.728917719358143","-0.212359166951178","-1.77637418914305","-1.03823830658928","-0.00273130761351997","0","359.9375"
"2287.52941","0.728917719358143","-0.212359166951178","-1.77637418914305","-1.03823830658928","1.99726869238648","0","359.9375"
"2290.35294","-0.271082280641857","-0.212359166951178","0.223625810856948","-1.03823830658928","1.99726869238648","0","359.9375"
"2293.17647","-0.271082280641857","-0.212359166951178","0.223625810856948","-0.0382383065892796","-0.00273130761351997","0","359.9375"
"2296","-0.271082280641857","0.787640833048822","-0.776374189143052","-0.0382383065892796","-0.00273130761351997","0","359.9375"
"2303.03125","-0.271082280641857","0.787640833048822","-0.776374189143052","3.96176169341072","0.99726869238648","0","359.9375"
"2306.0625","0.728917719358143","0.787640833048822","2.22362581085695","3.96176169341072","0.99726869238648","0","359.9375"
"2309.09375","0.728917719358143","0.787640833048822","2.22362581085695","1.96176169341072","-0.00273130761351997","0","359.9375"
"2312.125","-0.271082280641857","-0.212359166951178","0.223625810856948","1.96176169341072","-0.00273130761351997","0","359.9375"
"2315.15625","-0.271082280641857","-0.212359166951178","0.223625810856948","-0.0382383065892796","2.99726869238648","0","359.9375"
"2318.1875","-0.271082280641857","0.787640833048822","-1.77637418914305","-0.0382383065892796","2.99726869238648","0","359.9375"
"2321.21875","-0.271082280641857","0.787640833048822","-1.77637418914305","4.96176169341072","0.99726869238648","0","359.9375"
"2324.25","-0.271082280641857","-0.212359166951178","0.223625810856948","4.96176169341072","0.99726869238648","0","359.9375"
"2327.28125","-0.271082280641857","-0.212359166951178","0.223625810856948","1.96176169341072","-2.00273130761352","0","359.9375"
"2330.3125","-1.27108228064186","-0.212359166951178","1.22362581085695","1.96176169341072","-2.00273130761352","0","359.9375"
"2333.34375","-1.27108228064186","-0.212359166951178","1.22362581085695","-2.03823830658928","-0.00273130761351997","0","359.9375"
"2336.375","0.728917719358143","-0.212359166951178","3.22362581085695","-2.03823830658928","-0.00273130761351997","0","359.9375"
"2339.40625","0.728917719358143","-0.212359166951178","3.22362581085695","0.96176169341072","-2.00273130761352","0","359.9375"
"2342.4375","0.728917719358143","-0.212359166951178","1.22362581085695","0.96176169341072","-2.00273130761352","0","359.9375"
"2345.46875","0.728917719358143","-0.212359166951178","1.22362581085695","3.96176169341072","-2.00273130761352","0","359.9375"
"2348.5","0.728917719358143","-0.212359166951178","1.22362581085695","3.96176169341072","-2.00273130761352","0","359.9375"
"2351.53125","0.728917719358143","-0.212359166951178","1.22362581085695","2.96176169341072","-2.00273130761352","0","359.9375"
"2354.5625","-2.27108228064186","-1.21235916695118","-0.776374189143052","2.96176169341072","-2.00273130761352","0","359.9375"
"2357.59375","-2.27108228064186","-1.21235916695118","-0.776374189143052","0.96176169341072","-1.00273130761352","0","359.9375"
"2360.625","-1.27108228064186","-1.21235916695118","-0.776374189143052","0.96176169341072","-1.00273130761352","0","359.9375"
"2363.65625","-1.27108228064186","-1.21235916695118","-0.776374189143052","0.96176169341072","-0.00273130761351997","0","359.9375"
"2366.6875","0.728917719358143","-0.212359166951178","-2.77637418914305","0.96176169341072","-0.00273130761351997","0","359.9375"
"2369.71875","0.728917719358143","-0.212359166951178","-2.77637418914305","0.96176169341072","-0.00273130761351997","0","359.9375"
"2372.75","-0.271082280641857","0.787640833048822","1.22362581085695","0.96176169341072","-0.00273130761351997","0","359.9375"
"2375.78125","-0.271082280641857","0.787640833048822","1.22362581085695","-2.03823830658928","2.99726869238648","0","359.9375"
"2378.8125","-0.271082280641857","-1.21235916695118","-0.776374189143052","-2.03823830658928","2.99726869238648","0","359.9375"
"2381.84375","-0.271082280641857","-1.21235916695118","-0.776374189143052","2.96176169341072","-3.00273130761352","0","359.9375"
"2384.875","-1.27108228064186","0.787640833048822","-1.77637418914305","2.96176169341072","-3.00273130761352","0","359.9375"
"2387.90625","-1.27108228064186","0.787640833048822","-1.77637418914305","1.96176169341072","-3.00273130761352","0","359.9375"
"2390.9375","-0.271082280641857","-0.212359166951178","0.223625810856948","1.96176169341072","-3.00273130761352","0","359.9375"
"2393.96875","-0.271082280641857","-0.212359166951178","0.223625810856948","-1.03823830658928","-0.00273130761351997","0","359.9375"
"2397","-0.271082280641857","-0.212359166951178","0.223625810856948","-1.03823830658928","-0.00273130761351997","0","359.9375"
"2402.72222","-0.271082280641857","-0.212359166951178","0.223625810856948","0.96176169341072","0.99726869238648","0","359.9375"
"2405.44444","0.728917719358143","0.787640833048822","1.22362581085695","0.96176169341072","0.99726869238648","0","359.9375"
"2408.16667","0.728917719358143","0.787640833048822","1.22362581085695","0.96176169341072","0.99726869238648","0","359.9375"
"2410.88889","-0.271082280641857","0.787640833048822","-1.77637418914305","0.96176169341072","0.99726869238648","0","359.9375"
"2413.61111","-0.271082280641857","0.787640833048822","-1.77637418914305","2.96176169341072","3.99726869238648","0","359.9375"
"2416.33333","-1.27108228064186","-0.212359166951178","0.223625810856948","2.96176169341072","3.99726869238648","0","359.9375"
"2419.05556","-1.27108228064186","-0.212359166951178","0.223625810856948","-0.0382383065892796","1.99726869238648","0","359.9375"
"2421.77778","0.728917719358143","-0.212359166951178","1.22362581085695","-0.0382383065892796","1.99726869238648","0","359.9375"
"2424.5","0.728917719358143","-0.212359166951178","1.22362581085695","-0.0382383065892796","-2.00273130761352","0","359.9375"
"2427.22222","0.728917719358143","0.787640833048822","-0.776374189143052","-0.0382383065892796","-2.00273130761352","0","359.9375"
"2429.94444","0.728917719358143","0.787640833048822","-0.776374189143052","-0.0382383065892796","-0.00273130761351997","0","359.9375"
"2432.66667","0.728917719358143","-2.21235916695118","0.223625810856948","-0.0382383065892796","-0.00273130761351997","0","359.9375"
"2435.38889","0.728917719358143","-2.21235916695118","0.223625810856948","1.96176169341072","-0.00273130761351997","0","359.9375"
"2438.11111","0.728917719358143","-0.212359166951178","-1.77637418914305","1.96176169341072","-0.00273130761351997","0","359.9375"
"2440.83333","0.728917719358143","-0.212359166951178","-1.77637418914305","1.96176169341072","-1.00273130761352","0","359.9375"
"2443.55556","-0.271082280641857","-1.21235916695118","0.223625810856948","1.96176169341072","-1.00273130761352","0","359.9375"
"2446.27778","-0.271082280641857","-1.21235916695118","0.223625810856948","-0.0382383065892796","-0.00273130761351997","0","359.9375"
"2449","-0.271082280641857","-0.212359166951178","2.22362581085695","-0.0382383065892796","-0.00273130761351997","0","359.9375"
"2451.72222","-0.271082280641857","-0.212359166951178","2.22362581085695","6.96176169341072","0.99726869238648","0","359.9375"
"2454.44444","-0.271082280641857","-1.21235916695118","2.22362581085695","6.96176169341072","0.99726869238648","0","359.9375"
"2457.16667","-0.271082280641857","-1.21235916695118","2.22362581085695","1.96176169341072","-1.00273130761352","0","359.9375"
"2459.88889","-0.271082280641857","1.78764083304882","-0.776374189143052","1.96176169341072","-1.00273130761352","0","359.9375"
"2462.61111","-0.271082280641857","1.78764083304882","-0.776374189143052","0.96176169341072","-0.00273130761351997","0","359.9375"
"2465.33333","0.728917719358143","-0.212359166951178","-3.77637418914305","0.96176169341072","-0.00273130761351997","0","359.9375"
"2468.05556","0.728917719358143","-0.212359166951178","-3.77637418914305","2.96176169341072","-0.00273130761351997","0","359.9375"
"2470.77778","0.728917719358143","-0.212359166951178","0.223625810856948","2.96176169341072","-0.00273130761351997","0","359.9375"
"2473.5","0.728917719358143","-0.212359166951178","0.223625810856948","0.96176169341072","-0.00273130761351997","0","359.9375"
"2476.22222","-1.27108228064186","1.78764083304882","-0.776374189143052","0.96176169341072","-0.00273130761351997","0","359.9375"
"2478.94444","-1.27108228064186","1.78764083304882","-0.776374189143052","-1.03823830658928","-2.00273130761352","0","359.9375"
"2481.66667","-0.271082280641857","0.787640833048822","0.223625810856948","-1.03823830658928","-2.00273130761352","0","359.9375"
"2484.38889","-0.271082280641857","0.787640833048822","0.223625810856948","1.96176169341072","-0.00273130761351997","0","359.9375"
"2487.11111","0.728917719358143","-0.212359166951178","2.22362581085695","1.96176169341072","-0.00273130761351997","0","359.9375"
"2489.83333","0.728917719358143","-0.212359166951178","2.22362581085695","1.96176169341072","-2.00273130761352","0","359.9375"
"2492.55556","-0.271082280641857","1.78764083304882","-1.77637418914305","1.96176169341072","-2.00273130761352","0","359.9375"
"2495.27778","-0.271082280641857","1.78764083304882","-1.77637418914305","3.96176169341072","-1.00273130761352","0","359.9375"
"2498","0.728917719358143","-0.212359166951178","0.223625810856948","3.96176169341072","-1.00273130761352","0","359.9375"
"2503.03125","0.728917719358143","-0.212359166951178","0.223625810856948","1.96176169341072","-3.00273130761352","0","359.9375"
"2506.0625","-1.27108228064186","-0.212359166951178","0.223625810856948","1.96176169341072","-3.00273130761352","0","359.9375"
"2509.09375","-1.27108228064186","-0.212359166951178","0.223625810856948","0.96176169341072","2.99726869238648","0","359.9375"
"2512.125","0.728917719358143","-0.212359166951178","0.223625810856948","0.96176169341072","2.99726869238648","0","359.9375"
"2515.15625","0.728917719358143","-0.212359166951178","0.223625810856948","0.96176169341072","-0.00273130761351997","0","359.9375"
"2518.1875","-0.271082280641857","-0.212359166951178","0.223625810856948","0.96176169341072","-0.00273130761351997","0","359.9375"
"2521.21875","-0.271082280641857","-0.212359166951178","0.223625810856948","1.96176169341072","-3.00273130761352","0","359.9375"
"2524.25","-1.27108228064186","-0.212359166951178","-0.776374189143052","1.96176169341072","-3.00273130761352","0","359.9375"
"2527.28125","-1.27108228064186","-0.212359166951178","-0.776374189143052","-0.0382383065892796","0.99726869238648","0","359.9375"
"2530.3125","0.728917719358143","2.78764083304882","-0.776374189143052","-0.0382383065892796","0.99726869238648","0","359.9375"
"2533.34375","0.728917719358143","2.78764083304882","-0.776374189143052","-1.03823830658928","-1.00273130761352","0","359.9375"
"2536.375","-0.271082280641857","1.78764083304882","-0.776374189143052","-1.03823830658928","-1.00273130761352","0","359.9375"
"2539.40625","-0.271082280641857","1.78764083304882","-0.776374189143052","0.96176169341072","0.99726869238648","0","359.9375"
"2542.4375","0.728917719358143","-0.212359166951178","3.22362581085695","0.96176169341072","0.99726869238648","0","359.9375"
"2545.46875","0.728917719358143","-0.212359166951178","3.22362581085695","0.96176169341072","0.99726869238648","0","359.9375"
"2548.5","-0.271082280641857","-0.212359166951178","1.22362581085695","0.96176169341072","0.99726869238648","0","359.9375"
"2551.53125","-0.271082280641857","-0.212359166951178","1.22362581085695","-4.03823830658928","0.99726869238648","0","359.9375"
"2554.5625","0.728917719358143","0.787640833048822","-2.77637418914305","-4.03823830658928","0.99726869238648","0","359.9375"
"2557.59375","0.728917719358143","0.787640833048822","-2.77637418914305","0.96176169341072","-2.00273130761352","0","359.9375"
"2560.625","-0.271082280641857","-0.212359166951178","0.223625810856948","0.96176169341072","-2.00273130761352","0","359.9375"
"2563.65625","-0.271082280641857","-0.212359166951178","0.223625810856948","-2.03823830658928","-0.00273130761351997","0","359.9375"
"2566.6875","0.728917719358143","-0.212359166951178","1.22362581085695","-2.03823830658928","-0.00273130761351997","0","359.9375"
"2569.71875","0.728917719358143","-0.212359166951178","1.22362581085695","-0.0382383065892796","-1.00273130761352","0","359.9375"
"2572.75","-0.271082280641857","1.78764083304882","0.223625810856948","-0.0382383065892796","-1.00273130761352","0","359.9375"
"2575.78125","-0.271082280641857","1.78764083304882","0.223625810856948","1.96176169341072","-0.00273130761351997","0","359.9375"
"2578.8125","0.728917719358143","-0.212359166951178","3.22362581085695","1.96176169341072","-0.00273130761351997","0","359.9375"
"2581.84375","0.728917719358143","-0.212359166951178","3.22362581085695","-2.03823830658928","-0.00273130761351997","0","359.9375"
"2584.875","0.728917719358143","-0.212359166951178","-3.77637418914305","-2.03823830658928","-0.00273130761351997","0","359.9375"
"2587.90625","0.728917719358143","-0.212359166951178","-3.77637418914305","-1.03823830658928","-1.00273130761352","0","359.9375"
"2590.9375","0.728917719358143","1.78764083304882","0.223625810856948","-1.03823830658928","-1.00273130761352","0","359.9375"
"2593.96875","0.728917719358143","1.78764083304882","0.223625810856948","-1.03823830658928","0.99726869238648","0","359.9375"
"2597","-0.271082280641857","0.787640833048822","0.223625810856948","-1.03823830658928","0.99726869238648","0","359.9375"
"2602.75","-0.271082280641857","0.787640833048822","0.223625810856948","-1.03823830658928","-2.00273130761352","0","359.9375"
"2605.5","-0.271082280641857","-0.212359166951178","-0.776374189143052","-1.03823830658928","-2.00273130761352","0","359.9375"
"2608.25","-0.271082280641857","-0.212359166951178","-0.776374189143052","-1.03823830658928","-2.00273130761352","0","359.9375"
"2611","0.728917719358143","-0.212359166951178","-0.776374189143052","-1.03823830658928","-2.00273130761352","0","359.9375"
"2613.75","0.728917719358143","-0.212359166951178","-0.776374189143052","0.96176169341072","-0.00273130761351997","0","359.9375"
"2616.5","-0.271082280641857","-0.212359166951178","0.223625810856948","0.96176169341072","-0.00273130761351997","0","359.9375"
"2619.25","-0.271082280641857","-0.212359166951178","0.223625810856948","-0.0382383065892796","-2.00273130761352","0","359.9375"
"2622","-2.27108228064186","0.787640833048822","0.223625810856948","-0.0382383065892796","-2.00273130761352","0","359.9375"
"2624.75","-2.27108228064186","0.787640833048822","0.223625810856948","-0.0382383065892796","-0.00273130761351997","0","359.9375"
"2627.5","-2.27108228064186","-0.212359166951178","-0.776374189143052","-0.0382383065892796","-0.00273130761351997","0","359.9375"
"2630.25","-2.27108228064186","-0.212359166951178","-0.776374189143052","-0.0382383065892796","1.99726869238648","0","359.9375"
"2633","-0.271082280641857","0.787640833048822","-0.776374189143052","-0.0382383065892796","1.99726869238648","0","359.9375"
"2635.75","-0.271082280641857","0.787640833048822","-0.776374189143052","-0.0382383065892796","1.99726869238648","0","359.9375"
"2638.5","2.72891771935814","-0.212359166951178","-0.776374189143052","-0.0382383065892796","1.99726869238648","0","359.9375"
"2641.25","2.72891771935814","-0.212359166951178","-0.776374189143052","0.96176169341072","-0.00273130761351997","0","359.9375"
"2644","0.728917719358143","-0.212359166951178","0.223625810856948","0.96176169341072","-0.00273130761351997","0","359.9375"
"2646.75","0.728917719358143","-0.212359166951178","0.223625810856948","-0.0382383065892796","-0.00273130761351997","0","359.9375"
"2649.5","-1.27108228064186","-0.212359166951178","1.22362581085695","-0.0382383065892796","-0.00273130761351997","0","359.9375"
"2652.25","-1.27108228064186","-0.212359166951178","1.22362581085695","-1.03823830658928","0.99726869238648","0","359.9375"
"2655","-0.271082280641857","1.78764083304882","1.22362581085695","-1.03823830658928","0.99726869238648","0","359.9375"
"2657.75","-0.271082280641857","1.78764083304882","1.22362581085695","-1.03823830658928","-0.00273130761351997","0","359.9375"
"2660.5","-0.271082280641857","1.78764083304882","1.22362581085695","-1.03823830658928","-0.00273130761351997","0","359.9375"
"2663.25","-0.271082280641857","1.78764083304882","1.22362581085695","-1.03823830658928","-0.00273130761351997","0","359.9375"
"2666","-0.271082280641857","-0.212359166951178","1.22362581085695","-1.03823830658928","-0.00273130761351997","0","359.9375"
"2668.75","-0.271082280641857","-0.212359166951178","1.22362581085695","-2.03823830658928","-0.00273130761351997","0","359.9375"
"2671.5","-3.27108228064186","-0.212359166951178","-1.77637418914305","-2.03823830658928","-0.00273130761351997","0","359.9375"
"2674.25","-3.27108228064186","-0.212359166951178","-1.77637418914305","0.96176169341072","-1.00273130761352","0","359.9375"
"2677","-1.27108228064186","0.787640833048822","-1.77637418914305","0.96176169341072","-1.00273130761352","0","359.9375"
"2679.75","-1.27108228064186","0.787640833048822","-1.77637418914305","2.96176169341072","-0.00273130761351997","0","359.9375"
"2682.5","0.728917719358143","-0.212359166951178","2.22362581085695","2.96176169341072","-0.00273130761351997","0","359.9375"
"2685.25","0.728917719358143","-0.212359166951178","2.22362581085695","0.96176169341072","-1.00273130761352","0","359.9375"
"2688","-2.27108228064186","-0.212359166951178","0.223625810856948","0.96176169341072","-1.00273130761352","0","359.9375"
"2690.75","-2.27108228064186","-0.212359166951178","0.223625810856948","0.96176169341072","-1.00273130761352","0","359.9375"
"2693.5","0.728917719358143","2.78764083304882","-0.776374189143052","0.96176169341072","-1.00273130761352","0","359.9375"
"2696.25","0.728917719358143","2.78764083304882","-0.776374189143052","0.96176169341072","0.99726869238648","0","359.9375"
"2699","-0.271082280641857","1.78764083304882","-0.776374189143052","0.96176169341072","0.99726869238648","0","359.9375"
"2703.0625","-0.271082280641857","1.78764083304882","-0.776374189143052","1.96176169341072","-0.00273130761351997","0","359.9375"
"2706.125","0.728917719358143","-0.212359166951178","-1.77637418914305","1.96176169341072","-0.00273130761351997","0","359.9375"
"2709.1875","0.728917719358143","-0.212359166951178","-1.77637418914305","-0.0382383065892796","-0.00273130761351997","0","359.9375"
"2712.25","-0.271082280641857","0.787640833048822","-2.77637418914305","-0.0382383065892796","-0.00273130761351997","0","359.9375"
"2715.3125","-0.271082280641857","0.787640833048822","-2.77637418914305","-0.0382383065892796","0.99726869238648","0","359.9375"
"2718.375","-0.271082280641857","0.787640833048822","-2.77637418914305","-0.0382383065892796","0.99726869238648","0","359.9375"
"2721.4375","-0.271082280641857","0.787640833048822","-2.77637418914305","-0.0382383065892796","0.99726869238648","0","359.9375"
"2724.5","-1.27108228064186","-2.21235916695118","1.22362581085695","-0.0382383065892796","0.99726869238648","0","359.9375"
"2727.5625","-1.27108228064186","-2.21235916695118","1.22362581085695","0.96176169341072","-2.00273130761352","0","359.9375"
"2730.625","0.728917719358143","-0.212359166951178","-1.77637418914305","0.96176169341072","-2.00273130761352","0","359.9375"
"2733.6875","0.728917719358143","-0.212359166951178","-1.77637418914305","0.96176169341072","-0.00273130761351997","0","359.9375"
"2736.75","-0.271082280641857","-0.212359166951178","-0.776374189143052","0.96176169341072","-0.00273130761351997","0","359.9375"
"2739.8125","-0.271082280641857","-0.212359166951178","-0.776374189143052","2.96176169341072","-1.00273130761352","0","359.9375"
"2742.875","0.728917719358143","-0.212359166951178","0.223625810856948","2.96176169341072","-1.00273130761352","0","359.9375"
"2745.9375","0.728917719358143","-0.212359166951178","0.223625810856948","0.96176169341072","-2.00273130761352","0","359.9375"
"2749","0.728917719358143","-0.212359166951178","0.223625810856948","0.96176169341072","-2.00273130761352","0","359.9375"
"2752.0625","0.728917719358143","-0.212359166951178","0.223625810856948","0.96176169341072","-2.00273130761352","0","359.9375"
"2755.125","-0.271082280641857","-0.212359166951178","-0.776374189143052","0.96176169341072","-2.00273130761352","0","359.9375"
"2758.1875","-0.271082280641857","-0.212359166951178","-0.776374189143052","-0.0382383065892796","0.99726869238648","0","359.9375"
"2761.25","-0.271082280641857","-0.212359166951178","0.223625810856948","-0.0382383065892796","0.99726869238648","0","359.9375"
"2764.3125","-0.271082280641857","-0.212359166951178","0.223625810856948","-1.03823830658928","-0.00273130761351997","0","359.9375"
"2767.375","-0.271082280641857","1.78764083304882","-1.77637418914305","-1.03823830658928","-0.00273130761351997","0","359.9375"
"2770.4375","-0.271082280641857","1.78764083304882","-1.77637418914305","1.96176169341072","-0.00273130761351997","0","359.9375"
"2773.5","-1.27108228064186","-0.212359166951178","-1.77637418914305","1.96176169341072","-0.00273130761351997","0","359.9375"
"2776.5625","-1.27108228064186","-0.212359166951178","-1.77637418914305","0.96176169341072","-2.00273130761352","0","359.9375"
"2779.625","-1.27108228064186","-0.212359166951178","-1.77637418914305","0.96176169341072","-2.00273130761352","0","359.9375"
"2782.6875","-1.27108228064186","-0.212359166951178","-1.77637418914305","0.96176169341072","-0.00273130761351997","0","359.9375"
"2785.75","-0.271082280641857","-1.21235916695118","0.223625810856948","0.96176169341072","-0.00273130761351997","0","359.9375"
"2788.8125","-0.271082280641857","-1.21235916695118","0.223625810856948","0.96176169341072","0.99726869238648","0","359.9375"
"2791.875","-1.27108228064186","-0.212359166951178","-0.776374189143052","0.96176169341072","0.99726869238648","0","359.9375"
"2794.9375","-1.27108228064186","-0.212359166951178","-0.776374189143052","0.96176169341072","-2.00273130761352","0","359.9375"
"2798","-0.271082280641857","-0.212359166951178","-0.776374189143052","0.96176169341072","-2.00273130761352","0","359.9375"
"2802.82353","-0.271082280641857","-0.212359166951178","-0.776374189143052","0.96176169341072","0.99726869238648","0","359.9375"
"2805.64706","-0.271082280641857","-0.212359166951178","3.22362581085695","0.96176169341072","0.99726869238648","0","359.9375"
"2808.47059","-0.271082280641857","-0.212359166951178","3.22362581085695","-1.03823830658928","0.99726869238648","0","359.9375"
"2811.29412","-0.271082280641857","-0.212359166951178","3.22362581085695","-1.03823830658928","0.99726869238648","0","359.9375"
"2814.11765","-0.271082280641857","-0.212359166951178","3.22362581085695","0.96176169341072","0.99726869238648","0","359.9375"
"2816.94118","0.728917719358143","-0.212359166951178","-0.776374189143052","0.96176169341072","0.99726869238648","0","359.9375"
"2819.76471","0.728917719358143","-0.212359166951178","-0.776374189143052","0.96176169341072","-0.00273130761351997","0","359.9375"
"2822.58824","0.728917719358143","-0.212359166951178","-1.77637418914305","0.96176169341072","-0.00273130761351997","0","359.9375"
"2825.41176","0.728917719358143","-0.212359166951178","-1.77637418914305","-0.0382383065892796","-0.00273130761351997","0","359.9375"
"2828.23529","-1.27108228064186","-0.212359166951178","-1.77637418914305","-0.0382383065892796","-0.00273130761351997","0","359.9375"
"2831.05882","-1.27108228064186","-0.212359166951178","-1.77637418914305","-2.03823830658928","1.99726869238648","0","359.9375"
"2833.88235","0.728917719358143","0.787640833048822","-0.776374189143052","-2.03823830658928","1.99726869238648","0","359.9375"
"2836.70588","0.728917719358143","0.787640833048822","-0.776374189143052","-3.03823830658928","0.99726869238648","0","359.9375"
"2839.52941","0.728917719358143","0.787640833048822","-0.776374189143052","-3.03823830658928","0.99726869238648","0","359.9375"
"2842.35294","0.728917719358143","0.787640833048822","-0.776374189143052","-0.0382383065892796","1.99726869238648","0","359.9375"
"2845.17647","1.72891771935814","-0.212359166951178","2.22362581085695","-0.0382383065892796","1.99726869238648","0","359.9375"
"2848","1.72891771935814","-0.212359166951178","2.22362581085695","1.96176169341072","-1.00273130761352","0","359.9375"
"2850.82353","-1.27108228064186","-0.212359166951178","-1.77637418914305","1.96176169341072","-1.00273130761352","0","359.9375"
"2853.64706","-1.27108228064186","-0.212359166951178","-1.77637418914305","-1.03823830658928","-1.00273130761352","0","359.9375"
"2856.47059","-1.27108228064186","-0.212359166951178","0.223625810856948","-1.03823830658928","-1.00273130761352","0","359.9375"
"2859.29412","-1.27108228064186","-0.212359166951178","0.223625810856948","-0.0382383065892796","-2.00273130761352","0","359.9375"
"2862.11765","0.728917719358143","-0.212359166951178","1.22362581085695","-0.0382383065892796","-2.00273130761352","0","359.9375"
"2864.94118","0.728917719358143","-0.212359166951178","1.22362581085695","-2.03823830658928","0.99726869238648","0","359.9375"
"2867.76471","0.728917719358143","-0.212359166951178","1.22362581085695","-2.03823830658928","0.99726869238648","0","359.9375"
"2870.58824","0.728917719358143","-0.212359166951178","1.22362581085695","-0.0382383065892796","-0.00273130761351997","0","359.9375"
"2873.41176","0.728917719358143","0.787640833048822","1.22362581085695","-0.0382383065892796","-0.00273130761351997","0","359.9375"
"2876.23529","0.728917719358143","0.787640833048822","1.22362581085695","-1.03823830658928","0.99726869238648","0","359.9375"
"2879.05882","0.728917719358143","-0.212359166951178","-2.77637418914305","-1.03823830658928","0.99726869238648","0","359.9375"
"2881.88235","0.728917719358143","-0.212359166951178","-2.77637418914305","-0.0382383065892796","-1.00273130761352","0","359.9375"
"2884.70588","0.728917719358143","0.787640833048822","1.22362581085695","-0.0382383065892796","-1.00273130761352","0","359.9375"
"2887.52941","0.728917719358143","0.787640833048822","1.22362581085695","-1.03823830658928","-3.00273130761352","0","359.9375"
"2890.35294","-2.27108228064186","-1.21235916695118","0.223625810856948","-1.03823830658928","-3.00273130761352","0","359.9375"
"2893.17647","-2.27108228064186","-1.21235916695118","0.223625810856948","-1.03823830658928","-1.00273130761352","0","359.9375"
