Timer,AX,AY,AZ,GX,GY,GZ,A
"0","0.00000000000000000000","1.99999968000005000000","-27.99998208001150000000","0.00000000000000000000","1.99999800000200000000","0.00000000000000000000","359.9375"
"4","0.00000000000000000000","1.99999993679013000000","-27.99999539405840000000","-5.12790672322895000000","-3.24242455616750000000","NaN","359.9375"
"12","-1.76962250360569000000","1.99999998700714000000","-33.17437053869990000000","-3.67567561330719000000","-1.60483880470523000000","NaN","359.9375"
"12","-1.17775741487041000000","1.99999999732489000000","-31.60141648374730000000","3.50257117201910000000","-2.89291821464016000000","NaN","359.9375"
"20","0.72793983786963400000","3.79409503307178000000","-29.44311081072210000000","1.80217282523295000000","-2.24204770644314000000","NaN","359.9375"
"24","0.16815421131304700000","3.16350859554363000000","-29.84590463816700000000","-5.46057586825019000000","-0.33669637340613800000","NaN","359.9375"
"33","-5.26815562008279000000","-2.34861585719287000000","-29.95736057678790000000","-3.78878977464246000000","-0.82019021071788800000","NaN","359.9375"
"33","-3.52394450110683000000","-0.48359316526708100000","-29.98820132739480000000","-1.57343503988298000000","2.50657881343679000000","NaN","359.9375"
"41","2.18596796037679000000","3.48861425055099000000","-26.55015136408080000000","-1.86325541311748000000","1.40840671968474000000","NaN","359.9375"
"41","0.50495913226851800000","2.30651401558512000000","-27.59881517300350000000","1.40269333373058000000","4.56854737013224000000","NaN","359.9375"
"49","-3.42135382918222000000","2.06311295334932000000","-29.61228084192690000000","0.44966356943482900000","3.42520529353954000000","NaN","359.9375"
"53","-2.32833308138197000000","2.01299531074581000000","-29.16942305394960000000","0.14414934528882000000","-3.80040555252023000000","NaN","359.9375"
"61","-2.07584502191956000000","5.59086460037273000000","-30.77017265100570000000","0.04621017836409970000","-1.75914013670736000000","NaN","359.9375"
"61","-2.01752021857123000000","4.32756793556973000000","-30.21311299270980000000","-1.66461478647905000000","0.52312839736171600000","NaN","359.9375"
"69","-2.00404717476526000000","-1.31483511615807000000","-30.05897008625590000000","-1.21305658908903000000","0.14181080405703800000","NaN","359.9375"
"73","-2.00093489835837000000","0.52336247848712900000","-30.01631749912950000000","-4.42715678951297000000","3.49627795910959000000","NaN","359.9375"
"82","-5.53821547370594000000","2.69595206003487000000","-28.28122326013530000000","-3.45750585730983000000","2.40561434161151000000","NaN","359.9375"
"82","-4.35532814978370000000","2.14330042890370000000","-28.80110867099380000000","-1.46723490486998000000","-3.07679852493618000000","NaN","359.9375"
"90","1.22491837862780000000","0.23541196475440400000","-23.77508939197120000000","-1.82921067020576000000","-1.56298314175063000000","NaN","359.9375"
"94","-0.48604331160908500000","0.84256703920117500000","-25.38434926562290000000","-0.26582134587497600000","-1.15261471639631000000","NaN","359.9375"
"102","-2.65027563554373000000","0.96758367120154700000","-30.99952024057160000000","-0.76464321436702600000","-1.04137113517876000000","NaN","359.9375"
"102","-2.15021383049183000000","0.99332529625665800000","-29.55328339937230000000","-2.60397976631047000000","4.17553837969659000000","NaN","359.9375"
"110","-3.80369918747753000000","-0.79546875543792300000","-27.42980606145190000000","-2.19361872697811000000","2.58974976016910000000","NaN","359.9375"
"110","-3.18565470842718000000","-0.16379147412543800000","-27.84222273212340000000","1.29678825503153000000","0.43095288437033800000","NaN","359.9375"
"122","0.49511322900660600000","5.34855760728501000000","-31.40292560303470000000","0.41571341476081500000","0.84574144814015400000","NaN","359.9375"
"123","-0.65462847925971800000","3.48358117139868000000","-30.38820084486450000000","-3.22559101778007000000","-2.49965232214077000000","NaN","359.9375"
"131","-2.68921885040943000000","3.09957207292082000000","-23.21425061437790000000","-2.39288960639850000000","-1.40652907141215000000","NaN","359.9375"
"131","-2.15920972262879000000","3.02050244776295000000","-25.22916064633800000000","4.59176459082071000000","4.07655055795680000000","NaN","359.9375"
"139","1.50122202717918000000","-2.37806162072799000000","-29.23328637259980000000","2.83084597977027000000","2.56291592231291000000","NaN","359.9375"
"143","0.34678265460882400000","-0.48965621309127700000","-28.34126029973900000000","0.58691712482613800000","-1.30523907800311000000","NaN","359.9375"
"151","-1.68889287814145000000","1.69327143848910000000","-24.64784563375300000000","0.86757738439452000000","-0.35382709879980700000","NaN","359.9375"
"151","-1.15913442295534000000","1.14274847390666000000","-25.62584796640050000000","-0.72187937727186300000","5.09083712536403000000","NaN","359.9375"
"159","-2.80575984651341000000","2.82348710719906000000","-36.23622065248120000000","-0.23141398744685700000","3.56678875663323000000","NaN","359.9375"
"163","-2.18613072116732000000","2.16956060975289000000","-33.17219646770170000000","3.28467216998042000000","-2.03310700770461000000","NaN","359.9375"
"172","-2.04299624200955000000","-1.55327531339647000000","-25.43118853503260000000","2.41182934265376000000","-0.55113914853533300000","NaN","359.9375"
"172","-2.00993214239621000000","-0.31982809075109200000","-27.28918912104760000000","-2.90626459554011000000","1.57951376570741000000","NaN","359.9375"
"180","1.53570518463984000000","-0.06585439603093700000","-29.52660481270280000000","-1.61109418702312000000","1.15709587453396000000","NaN","359.9375"
"184","0.35474827239686800000","-0.01355978915552680000","-29.14571580471460000000","-1.19589940781943000000","2.77150368364981000000","NaN","359.9375"
"192","0.08194693748987810000","-0.00279203656891735000","-23.87044496903630000000","-1.06279977587571000000","2.20914092651655000000","NaN","359.9375"
"192","0.01892976255697550000","-0.00057489597461730800","-25.41073492392090000000","4.01815354309559000000","2.05669438535572000000","NaN","359.9375"
"201","-1.76462697620858000000","3.58807041876883000000","-31.00682136532220000000","2.64696259983594000000","2.01536883949210000000","NaN","359.9375"
"204","-1.17662901808960000000","2.32699259792039000000","-29.55530367955720000000","-2.83088756394858000000","-3.18258713957514000000","NaN","359.9375"
"213","-1.04080134627997000000","-1.52085918486825000000","-30.87694893661460000000","-1.58693045553044000000","-1.59166055360151000000","NaN","359.9375"
"213","-1.00942512094708000000","-0.31315342824451400000","-30.24265885329940000000","-1.18815320307612000000","2.29744691971862000000","NaN","359.9375"
"221","-2.77117696121722000000","-0.06448004561959960000","-24.89726989352480000000","-1.06031656305143000000","1.35171478328179000000","NaN","359.9375"
"221","-2.17814206622493000000","-0.01327680270470900000","-26.41815759717410000000","7.37780649999357000000","-0.63357416412546100000","NaN","359.9375"
"233","-3.81015061674696000000","1.79136062846272000000","-30.28558335529990000000","5.08282864921495000000","-0.17175068701589200000","NaN","359.9375"
"233","-3.18714499016271000000","1.16294558776150000000","-29.35573129722030000000","2.66769559854300000000","3.41127701594796000000","NaN","359.9375"
"242","2.26376872954055000000","1.03355140957988000000","-29.09843372294790000000","2.89347266453583000000","2.38257209776440000000","NaN","359.9375"
"242","0.52293112893208200000","1.00690842323662000000","-29.02723740612390000000","-2.07243499682836000000","0.37479070499632400000","NaN","359.9375"
"250","-1.64820253758877000000","4.58961127612693000000","-25.56095296293390000000","-0.66436368933676900000","0.83051688022376600000","NaN","359.9375"
"254","-1.14973494435835000000","3.32730986908456000000","-26.60180406261000000000","3.14588081503562000000","-0.77486164551293000000","NaN","359.9375"
"262","-1.03458880868532000000","1.27330053957797000000","-33.78298366279650000000","2.36733678353355000000","-0.21005121025224900000","NaN","359.9375"
"262","-1.00799002324672000000","1.85036850906462000000","-31.77007405581930000000","0.43832926555691400000","-1.78585893328870000000","NaN","359.9375"
"270","-4.53984520927675000000","3.76328443409739000000","-24.31991801598720000000","0.81994434474510700000","-1.21303237936827000000","NaN","359.9375"
"274","-3.35570461909825000000","3.15716454201773000000","-26.25839966976910000000","-5.77543453868523000000","-1.05774928900965000000","NaN","359.9375"
"282","0.45583165814575700000","1.23826666333164000000","-28.51808512286790000000","-3.88972533877082000000","-1.01565480510996000000","NaN","359.9375"
"283","-0.66370253171412200000","1.84315483763443000000","-28.14335833772940000000","0.07363628283935490000","-2.73316152542849000000","NaN","359.9375"
"291","0.84668455321635800000","5.55589349526407000000","-26.31637648620090000000","-0.65582275778754200000","-2.19874704938415000000","NaN","359.9375"
"294","0.19558433840220400000","4.32036718906852000000","-26.81083585255560000000","-0.88966656962849900000","-7.24063014874089000000","NaN","359.9375"
"303","-1.72381972608082000000","-1.31631779021180000000","-30.39424059996720000000","-0.96463024173449500000","-5.60739498102161000000","NaN","359.9375"
"303","-1.16720253335224000000","0.52305718759135600000","-29.38579763437270000000","2.37019544758758000000","5.20885274111161000000","NaN","359.9375"
"311","-1.03862382600538000000","0.90179480239304000000","-30.83004524492350000000","1.43924567191003000000","2.14094511860729000000","NaN","359.9375"
"311","-1.00892211323229000000","0.97977899952340900000","-30.22968022299830000000","-0.53861879097995400000","-2.14854564383217000000","NaN","359.9375"
"319","-2.77106076631236000000","-0.79825801384148900000","-33.51013821999840000000","-0.17266585811819700000","-1.31135029577725000000","NaN","359.9375"
"323","-2.17811522517355000000","-0.16436579806024200000","-32.41786744186390000000","-0.05535176094664520000","4.10235183116242000000","NaN","359.9375"
"332","1.49685485147799000000","1.76025055769722000000","-25.22245960136520000000","-0.01774419953826220000","2.56991018857228000000","NaN","359.9375"
"332","0.34577383595616500000","1.15653984986671000000","-27.23143213933590000000","3.35316862406077000000","-6.49009641542979000000","NaN","359.9375"
"340","-3.45812567147490000000","6.41451562186013000000","-26.06403914207900000000","2.43378735678156000000","-3.94610306266067000000","NaN","359.9375"
"344","-2.33682738592470000000","4.49716229619308000000","-26.74101207147470000000","-2.89922548102082000000","3.65919943210443000000","NaN","359.9375"
"352","1.46019230361530000000","-1.27991468698978000000","-26.92833594850240000000","-1.60883764720457000000","1.72086166898334000000","NaN","359.9375"
"352","0.33730477845343300000","0.53055279052825800000","-26.98016997816730000000","-4.55403293488865000000","-5.72025836774127000000","NaN","359.9375"
"360","-1.69108226984615000000","0.90333818903909100000","-33.88768056744310000000","-3.49817873928664000000","-3.73741366042788000000","NaN","359.9375"
"364","-1.15964017297339000000","0.98009679148214200000","-31.79904453490290000000","0.19915498126834000000","0.25793584485229000000","NaN","359.9375"
"373","0.73212283706602700000","0.99590181783925500000","-24.32793438152510000000","-0.61558503467600900000","-0.65899596636248700000","NaN","359.9375"
"373","0.16912055401595700000","0.99915616132908500000","-26.26061786285640000000","-0.87676750055381100000","0.82135791455497800000","NaN","359.9375"
"381","-1.72993286673178000000","2.79392064542494000000","-28.51869891481010000000","-0.96049516722910200000","0.22265552179748200000","NaN","359.9375"
"385","-1.16861467033435000000","2.16347270959899000000","-28.14352817891700000000","2.37152103481145000000","-5.12639540684510000000","NaN","359.9375"
"393","-2.80794978597135000000","0.23956555038421800000","-29.76300732994830000000","1.43967061745473000000","-3.57642797429594000000","NaN","359.9375"
"393","-2.18663659771649000000","0.84342228575682300000","-29.21113029050370000000","-2.21791102029292000000","2.03049398724133000000","NaN","359.9375"
"401","-0.27411334363733800000","2.76185416779540000000","-29.05842145654250000000","-1.39042761773663000000","0.55043080516344900000","NaN","359.9375"
"401","-0.83232000524828300000","2.15687004217170000000","-29.01616568885690000000","-1.12515998472108000000","8.79380093221952000000","NaN","359.9375"
"409","0.80773387568368000000","0.23820602416312900000","-32.45105702398540000000","-1.04012272970389000000","6.02843195541226000000","NaN","359.9375"
"413","0.18658672238735300000","0.84314235168984400000","-31.40151919776730000000","0.66656624930256400000","-6.82363489220601000000","NaN","359.9375"
"422","0.04310157840264820000","4.55589092433812000000","-31.11110360482790000000","0.21368217254183900000","-3.30760162512902000000","NaN","359.9375"
"422","0.00995647512872305000","3.32036665970046000000","-31.03074326476640000000","-6.64921339481012000000","-0.62554975710217800000","NaN","359.9375"
"430","-3.53569956377269000000","1.27187089385976000000","-27.56192306233480000000","-4.84926243163718000000","-0.89849319919832900000","NaN","359.9375"
"434","-2.35474697397519000000","1.85007413700028000000","-28.60207249694910000000","-0.91339246049602800000","2.48535226068223000000","NaN","359.9375"
"442","-2.08194663755415000000","0.17503502816843200000","-25.44330639878870000000","-1.65166454199490000000","1.40265257909454000000","NaN","359.9375"
"442","-2.01892969327175000000","0.83013508963811500000","-26.56925030815740000000","1.47052334555932000000","-2.34868361987331000000","NaN","359.9375"
"450","1.53362674819200000000","2.75911825966023000000","-28.60410000504550000000","0.47140794119322300000","-1.36560414138739000000","NaN","359.9375"
"454","0.35426815307023300000","2.15630670335611000000","-28.16715935031340000000","0.15111997214536500000","0.62980900618197100000","NaN","359.9375"
"463","-3.45616348214876000000","2.03218442608005000000","-29.76954626592710000000","0.04844476298683130000","0.17073001966527500000","NaN","359.9375"
"463","-2.33637411971154000000","2.00662695367417000000","-29.21293966689970000000","-1.66389844223354000000","0.04628187169251600000","NaN","359.9375"
"471","1.46029700822114000000","2.00136452689541000000","-30.78221404926390000000","-1.21282694950733000000","0.01254619223708900000","NaN","359.9375"
"475","0.33732896524293400000","2.00028096373384000000","-30.21644494485830000000","-7.78594008312316000000","3.46123662197179000000","NaN","359.9375"
"483","-1.69107668269188000000","2.00005785200717000000","-30.05989206432540000000","-5.89309311738484000000","2.39611525836578000000","NaN","359.9375"
"483","-1.15963888233938000000","2.00001191205245000000","-30.01657261790750000000","1.43141357837079000000","-6.53720912985692000000","NaN","359.9375"
"491","-4.57487613273274000000","3.79409684929405000000","-28.28129385356160000000","-0.22055799207114300000","-3.95887448158557000000","NaN","359.9375"
"492","-3.36379677096488000000","3.16350899096299000000","-28.80112820476500000000","-0.75013307109551700000","0.19790175518350000000","NaN","359.9375"
"503","2.22296212506842000000","-2.34861577215104000000","-25.49838672078300000000","-0.91989977249743400000","-0.67527014029320800000","NaN","359.9375"
"504","0.51350479334133100000","-0.48359314787052200000","-26.58449147810060000000","0.70510630846721500000","2.54586406166083000000","NaN","359.9375"
"512","-1.65038002341046000000","1.69451985759223000000","-32.05490120718080000000","0.22603701886178200000","1.41905625206468000000","NaN","359.9375"
"512","-1.15023794411452000000","1.14300553039546000000","-30.56860776010870000000","1.75188949118019000000","-0.61531908968743400000","NaN","359.9375"
"520","-1.03470500175174000000","4.61763443310622000000","-30.15733835949190000000","1.24103437603519000000","-0.16680206102419800000","NaN","359.9375"
"524","-1.00801686387342000000","3.33307999413336000000","-30.04353679478960000000","-2.28158814714488000000","-0.04521707196838880000","NaN","359.9375"
"532","-2.77085165348956000000","3.06858303719391000000","-23.11887928809800000000","-1.41084069268782000000","-0.01225754397062180000","NaN","359.9375"
"533","-2.17806692006046000000","3.01412163166083000000","-25.20277063010500000000","-1.13170383570123000000","3.45451277025016000000","NaN","359.9375"
"540","-3.81013325796463000000","-2.37937546651809000000","-27.50269211831380000000","-1.04222050212440000000","2.39429254175583000000","NaN","359.9375"
"544","-3.18714098027975000000","-0.48992674130154700000","-27.13909896905010000000","2.34532221791904000000","-1.35094987730251000000","NaN","359.9375"
"553","2.26376965582449000000","1.69321573521471000000","-33.93165750278500000000","1.43127202224015000000","-0.36621848346833000000","NaN","359.9375"
"553","0.52293134290389800000","1.14273700429033000000","-31.81121330808470000000","-3.90003182570155000000","-0.09927531723207810000","NaN","359.9375"
"561","-5.18620200011825000000","4.61757914207650000000","-31.22446927398190000000","-2.60909613836487000000","-0.02691177277069910000","NaN","359.9375"
"565","-3.50501319550758000000","3.33306860940052000000","-31.06211246100110000000","1.16359801925215000000","-0.00729530293989053000","NaN","359.9375"
"573","-1.34765841541781000000","-0.51960810005778200000","-29.29389509594080000000","0.37301641506652300000","-0.00197762687126734000","NaN","359.9375"
"573","-1.84930893477615000000","0.68710417712837100000","-29.80461507030320000000","1.79900690333956000000","-3.45837167187577000000","NaN","359.9375"
"581","-1.96519032716143000000","0.93557299677016000000","-29.94593541195770000000","1.25613887765870000000","-2.39533862135133000000","NaN","359.9375"
"585","-1.99195895707998000000","0.98673411902056400000","-29.98503989184470000000","-2.27674607371939000000","-2.10716926867548000000","NaN","359.9375"
"594","-0.22914276114477700000","-0.79682591576426100000","-23.10269272261230000000","-1.40928846172766000000","-2.02905168260359000000","NaN","359.9375"
"594","-0.82193178971871300000","-0.16407092104143000000","-25.19829167670690000000","0.54822222013910800000","1.44996017797072000000","NaN","359.9375"
"602","2.57913331198447000000","1.76031127452773000000","-29.22474467939460000000","0.17574444424332300000","0.39305841496220300000","NaN","359.9375"
"602","1.36478018041087000000","1.15655235180234000000","-28.33889674424350000000","-1.62308978670495000000","-5.08020221332855000000","NaN","359.9375"
"610","-0.68473544528939700000","2.82632940300732000000","-28.09377546617760000000","-1.19974485574548000000","-3.56390582113511000000","NaN","359.9375"
"614","-0.15817405495201300000","2.17014585438651000000","-28.02594842885390000000","-4.42288942658524000000","0.30497073403895800000","NaN","359.9375"
"622","-1.80553800127029000000","2.03503398482440000000","-29.73047206349180000000","-3.45613786218200000000","-0.64624564447605600000","NaN","359.9375"
"623","-1.18607947486202000000","2.00721369378703000000","-29.20212751950920000000","-3.14622481932084000000","0.82481430003858000000","NaN","359.9375"
"630","-2.81198416007903000000","2.00148533997242000000","-29.05593031709890000000","-3.04687551628170000000","0.22359248642611300000","NaN","359.9375"
"635","-2.18756853911984000000","2.00030583982337000000","-29.01547637045350000000","2.02325840760040000000","0.06061194620882950000","NaN","359.9375"
"643","-3.81232813428595000000","2.00006297413339000000","-29.00428243669690000000","0.64859907413847200000","0.01643082056085120000","NaN","359.9375"
"643","-3.18764799724557000000","2.00001296672694000000","-29.00118498482050000000","-6.50979141161555000000","1.73337188941486000000","NaN","359.9375"
"651","-1.27434697717536000000","-1.58818612314967000000","-27.27703597121060000000","-4.80456771104447000000","1.19880407531928000000","NaN","359.9375"
"655","-1.83237397465258000000","-0.32701642210075300000","-27.79995001433030000000","0.78036384991119200000","1.05389224884947000000","NaN","359.9375"
"663","-0.19227859126188200000","-0.06733451373539040000","-26.22135262963390000000","-0.42926600954964700000","1.01460923012463000000","NaN","359.9375"
"664","-0.81341615748011400000","-0.01386455368466040000","-26.78454198399840000000","-0.81703892276197800000","-2.45387526996138000000","NaN","359.9375"
"671","-4.49489859880446000000","5.37942840031391000000","-28.66367295051960000000","-0.94134788475155800000","-1.39411972676625000000","NaN","359.9375"
"675","-3.34532194111121000000","3.48993764066672000000","-28.18364366545750000000","0.69823065397949100000","0.62207893816974300000","NaN","359.9375"
"684","-1.31076969668415000000","-2.28140228404576000000","-28.05081568540080000000","0.22383287967813600000","0.16863453571571600000","NaN","359.9375"
"684","-1.84078763174703000000","-0.46975351404126400000","-28.01406111055520000000","-1.60767400264958000000","6.96138496807537000000","NaN","359.9375"
"692","-1.96322190408233000000","3.49146391228327000000","-26.28059889919340000000","-1.19480299402981000000","4.80277879305186000000","NaN","359.9375"
"692","-1.99150425086837000000","2.30710077690391000000","-26.80093590527860000000","2.29640861271279000000","0.75978348000457200000","NaN","359.9375"
"700","1.53996203207957000000","0.26913937425704800000","-30.39150120460030000000","1.41559171223606000000","1.66379936017168000000","NaN","359.9375"
"704","0.35573160519420900000","0.84951170180810500000","-29.38503962155040000000","-0.54620157738361400000","-1.54897358613016000000","NaN","359.9375"
"713","-3.45582542435100000000","2.76310801268219000000","-30.82983549665360000000","-0.17509668367282200000","-0.41989918884167800000","NaN","359.9375"
"713","-2.33629602827777000000","2.15712821585976000000","-30.22962218395800000000","-0.05613101445089310000","-0.11382720168288500000","NaN","359.9375"
"721","-2.07768446459562000000","2.03235358010787000000","-24.89366254182940000000","-0.01799400603825040000","-0.03085652982254610000","NaN","359.9375"
"725","-2.01794513027827000000","2.00666178343634000000","-26.41715941382580000000","-3.36462527584643000000","-1.73728244261712000000","NaN","359.9375"
"733","1.53385418248375000000","0.20727730200290400000","-33.73189099722480000000","-2.43746003334773000000","-1.19986415673852000000","NaN","359.9375"
"733","0.35432069044712600000","0.83677395448906300000","-31.75593630261390000000","-2.14023723886977000000","4.13257374054075000000","NaN","359.9375"
"741","-1.68715159002336000000","2.76048523913368000000","-27.76258983281310000000","-2.04495606836427000000","2.57810281067174000000","NaN","359.9375"
"745","-1.15873218497515000000","2.15658817208951000000","-28.65759861299360000000","-0.33498318154044800000","0.42779560351660600000","NaN","359.9375"
"753","0.73233258251518800000","2.03224238206946000000","-27.18196284720560000000","-0.78681453089774300000","0.84488556545674400000","NaN","359.9375"
"753","0.16916900526589500000","2.00663888713714000000","-27.77364251307520000000","2.42719810477796000000","0.95795123569210100000","NaN","359.9375"
"762","-1.72992167448122000000","0.20727258752659900000","-27.93736505522780000000","1.45751910180817000000","0.98860132788397400000","NaN","359.9375"
"766","-1.16861208492173000000","0.83677298375197500000","-27.98266840492040000000","-0.53276084932072400000","4.45474559513388000000","NaN","359.9375"
"774","-6.34594870069743000000","-0.82770375381793100000","-29.71849613132520000000","-0.17078796870858900000","3.39435565644073000000","NaN","359.9375"
"774","-4.54191472232300000000","-0.17042884091954400000","-29.19881368235700000000","-0.05474976303682270000","-0.35093276803400200000","NaN","359.9375"
"782","-0.58718292113842700000","3.55309653973415000000","-29.05501335159520000000","-0.01755121613808080000","0.63378615455005300000","NaN","359.9375"
"786","-1.67363891002525000000","2.31979128025227000000","-29.01522263869290000000","-3.36448333000392000000","0.90072594005221300000","NaN","359.9375"
"794","-0.15561075259820200000","0.27175242000725800000","-27.28092030341000000000","-2.43741452954966000000","0.97308856805671000000","NaN","359.9375"
"794","-0.80494587780106400000","0.85004974257018200000","-27.80102484042110000000","1.21863425787884000000","-0.73621299675036000000","NaN","359.9375"
"802","0.81405730580386300000","2.76321879828999000000","-27.94494196635340000000","0.39065946712712000000","-0.19957424898541900000","NaN","359.9375"
"803","0.18804743628816800000","2.15715102723720000000","-27.98476499742260000000","-1.55419414572442000000","-0.05410102923189710000","NaN","359.9375"
"811","0.04343900367018210000","0.23826388056260400000","-33.16566012272240000000","-1.17765887365625000000","-0.01466582677289410000","NaN","359.9375"
"815","0.01003442044786240000","0.84315426464669200000","-31.59925564656570000000","3.98133298463555000000","-3.46181121719420000000","NaN","359.9375"
"823","0.00231795357207042000","-0.82638981232442900000","-25.99594310621870000000","2.63515897651391000000","-2.39627102091070000000","NaN","359.9375"
"823","0.00053544784077874900","-0.17015829300340700000","-27.44546127204500000000","0.52418543980942400000","3.07933133299597000000","NaN","359.9375"
"831","-1.76887606739663000000","5.34724664360179000000","-31.29313850265040000000","0.84746739119338300000","1.56366974096660000000","NaN","359.9375"
"835","-1.17761055919090000000","3.48331123663037000000","-30.35782186751020000000","-2.40775452362993000000","-2.30503473117367000000","NaN","359.9375"
"844","-2.81002783849240000000","1.30542209530375000000","-24.92913642965260000000","-1.45128604295460000000","-1.35377170400890000000","NaN","359.9375"
"844","-2.18711662835594000000","1.85698251738055000000","-26.42697532508570000000","-1.14466946413391000000","0.63301656950115000000","NaN","359.9375"
"852","-2.04322398681070000000","1.97055189893530000000","-32.01131521548750000000","-1.04637691366603000000","0.17159953303073200000","NaN","359.9375"
"856","-2.00998475150085000000","1.99393647097939000000","-30.55654716419180000000","-2.69429557364012000000","1.77543536750327000000","NaN","359.9375"
"864","1.53569303192383000000","0.20465708886218400000","-31.87729301885580000000","-2.22257140489311000000","1.21020673607949000000","NaN","359.9375"
"864","0.35474546511650500000","0.83623443792111800000","-31.24275406363450000000","-3.75077851395506000000","4.51481887977697000000","NaN","359.9375"
"872","-3.45605322294959000000","0.96627975311347800000","-27.62058816265300000000","-3.24067822834941000000","3.41064045543186000000","NaN","359.9375"
"872","-2.33634864980963000000","0.99305681221586600000","-28.61830560400650000000","5.31998768224746000000","-0.34651824867224500000","NaN","359.9375"
"884","1.46030289177470000000","-0.79552403780636300000","-28.89438207793470000000","3.06429358146630000000","0.63498285223148900000","NaN","359.9375"
"885","0.33733032434524100000","-0.16380285707487200000","-28.97077466795820000000","2.34118223799661000000","-0.82786744269377600000","NaN","359.9375"
"893","-1.69107636873891000000","3.55446086693623000000","-27.26862119093080000000","2.10937331724203000000","-0.22442013909612300000","NaN","359.9375"
"893","-1.15963880981617000000","2.32007220286814000000","-27.79762157666630000000","0.35563351855311800000","-3.51867188053231000000","NaN","359.9375"
"901","-2.80587636000135000000","0.27181026354800500000","-26.22070833212700000000","0.79343444134356200000","-2.41168493540638000000","NaN","359.9375"
"905","-2.18615763581146000000","0.85006165287934600000","-26.78436370167470000000","2.61320941443161000000","-2.11160046367695000000","NaN","359.9375"
"913","-2.04300245929891000000","0.96912685415368300000","-30.38691554202040000000","2.19657748953829000000","-2.03025290075435000000","NaN","359.9375"
"913","-2.00993357859157000000","0.99364304627367300000","-29.38377073167910000000","2.06301714958013000000","-0.27928323710756000000","NaN","359.9375"
"921","1.53570485287836000000","2.79278546414249000000","-25.65960861359960000000","2.02020150501734000000","-0.80462650439430700000","NaN","359.9375"
"925","0.35474819575988600000","2.16323896941198000000","-26.62910287792580000000","-1.35238088184622000000","5.96863342451698000000","NaN","359.9375"
"934","-3.45605259217031000000","-1.55457697456575000000","-23.45078592351150000000","-0.43353482904259200000","3.80474372067067000000","NaN","359.9375"
"934","-2.33634850409946000000","-0.32009611007965800000","-24.57131995305530000000","-1.81840738482317000000","-3.69751943547201000000","NaN","359.9375"
"942","-2.07769658652324000000","3.52227921035888000000","-31.77454846348270000000","-1.26235811998624000000","-1.73124954032895000000","NaN","359.9375"
"946","-2.01794793044650000000","2.31344581945010000000","-29.76773996804360000000","-1.08410454792950000000","-1.19822874423062000000","NaN","359.9375"
"954","3.30285329162271000000","0.27044585407152800000","-29.21243984968700000000","-1.02696152489123000000","-1.05373628682429000000","NaN","359.9375"
"954","1.53195967231053000000","0.84978071332271900000","-29.05878382214490000000","0.67078535706654100000","2.44326862081186000000","NaN","359.9375"
"962","-0.64611694186518700000","0.96906900712473900000","-32.46284980566480000000","0.21503469843726000000","1.39124445283383000000","NaN","359.9375"
"962","-0.14925317123727600000","0.99363113524626900000","-31.40478235570050000000","1.74836246032050000000","-0.62285837379261800000","NaN","359.9375"
"975","-1.80347727495530000000","0.99868861505950100000","-31.11200654698240000000","1.23990371030240000000","-0.16884582684987800000","NaN","359.9375"
"975","-1.18560344658040000000","0.99972997849245200000","-31.03099311615300000000","1.07690630311976000000","3.41206447187254000000","NaN","359.9375"
"983","-2.81187419742981000000","-0.79414999547716400000","-27.56199219823140000000","1.02465397242958000000","2.38278556305970000000","NaN","359.9375"
"983","-2.18754313772104000000","-0.16351993405989300000","-28.60209162741010000000","-0.67152509272488900000","-3.08298700076429000000","NaN","359.9375"
"991","1.49467700137891000000","3.55451912237036000000","-25.44331169234180000000","-0.21527183664032300000","-1.56466072747814000000","NaN","359.9375"
"995","0.34527075205183400000","2.32008419798846000000","-26.56925177292620000000","1.61041842944505000000","-1.15306948004916000000","NaN","359.9375"
"1003","0.07975762797745660000","0.27181273341049400000","-30.32739233401850000000","1.19568277916842000000","-1.04149441351652000000","NaN","359.9375"
"1003","0.01842403152536760000","0.85006216143787200000","-29.36730017929530000000","-0.61669812386855600000","-1.01124839747628000000","NaN","359.9375"
"1011","-1.76474380020029000000","0.96912695886873300000","-30.82492684971190000000","-0.19769587051338100000","-1.00304924048954000000","NaN","359.9375"
"1016","-1.17665600446019000000","0.99364306783508800000","-30.22826392170530000000","1.61605278406540000000","0.72809119134041300000","NaN","359.9375"
"1024","-1.04080758013816000000","2.79278546858211000000","-24.89328669969430000000","1.19748899293548000000","0.19737257199485900000","NaN","359.9375"
"1024","-1.00942656096984000000","2.16323897032612000000","-26.41705541527160000000","-2.29554755789309000000","5.24025755236739000000","NaN","359.9375"
"1032","0.76682221809419400000","-1.55457697437752000000","-28.56198644900630000000","-1.41531568256198000000","3.60729397677183000000","NaN","359.9375"
"1036","0.17713611950085800000","-0.32009611004090100000","-28.15550618923390000000","-1.13313839012011000000","1.43570880944634000000","NaN","359.9375"
"1044","0.04091848682971770000","-0.06590958270454530000","-29.76632174214150000000","-1.04268037945119000000","1.84703069483841000000","NaN","359.9375"
"1045","0.00945218044265485000","-0.01357115240085930000","-29.21204741512580000000","-1.01368211519197000000","0.22961495591104600000","NaN","359.9375"
"1052","0.00218345598878841000","3.58539441674660000000","-29.05867523233240000000","-1.00438609680920000000","0.79116231677205000000","NaN","359.9375"
"1056","0.00050437886622030300","2.32644159410913000000","-29.01623591066750000000","-1.00140605783169000000","-0.78552996769644700000","NaN","359.9375"
"1065","0.00011651164117617200","2.06721615343089000000","-30.72778453126800000000","-1.00045074213180000000","-0.21294320264726000000","NaN","359.9375"
"1065","0.00002691421754303980","2.01384018263474000000","-30.20138385763750000000","-2.67957294986457000000","-1.78664290098942000000","NaN","359.9375"
"1073","0.00000621719082008961","2.00284977115746000000","-28.33243261619330000000","-2.21785175063944000000","-1.21324489906813000000","NaN","359.9375"
"1073","0.00000143617259656886","2.00058678384991000000","-28.81527871339920000000","-2.06983707233510000000","2.40002867308507000000","NaN","359.9375"
"1085","-1.76899942422229000000","0.20602642554701500000","-25.50230228080650000000","-2.02238777819330000000","1.37952287207957000000","NaN","359.9375"
"1085","-1.17763905464773000000","0.83651639201755400000","-26.58557494518250000000","-3.68660533941272000000","4.56071747275547000000","NaN","359.9375"
"1093","-6.34803393290691000000","2.76043220557756000000","-25.16203331663460000000","-3.22010613462360000000","3.42308274762665000000","NaN","359.9375"
"1094","-4.54239641147223000000","2.15657725218313000000","-25.76812785100860000000","3.64715405535903000000","-5.52989872316752000000","NaN","359.9375"
"1102","-0.58729419144944200000","0.23814573706384400000","-27.65913102735520000000","1.84860226600717000000","-2.95689276035645000000","NaN","359.9375"
"1106","-1.67366461349425000000","0.84312993823828500000","-27.18238687863580000000","-0.40739071505722400000","1.19843896456142000000","NaN","359.9375"
"1114","-0.15561669010581300000","4.55588836833888000000","-32.22034369331570000000","-0.13059787104115300000","0.32487548761423100000","NaN","359.9375"
"1114","-0.80494724936677100000","3.32036613340590000000","-30.61438703219200000000","-0.04186596132434150000","3.54590353879637000000","NaN","359.9375"
"1122","-4.49294227896369000000","1.27187078549276000000","-33.61658970112550000000","-0.01342103591458200000","2.41906695361397000000","NaN","359.9375"
"1126","-3.34487003075061000000","1.85007411468690000000","-32.44732342643020000000","-0.00430240222182054000","2.11360159751496000000","NaN","359.9375"
"1134","0.45833445069793500000","1.96912942010969000000","-23.50731838653170000000","-0.00137922772848066000","2.03079537254526000000","NaN","359.9375"
"1134","-0.66312438602383400000","1.99364357461839000000","-26.03354678946760000000","1.67898631359872000000","0.27943029156156400000","NaN","359.9375"
"1142","-0.92218165096661700000","-1.58949761667548000000","-26.73257459124050000000","1.21766369174520000000","0.80466636824124700000","NaN","359.9375"
"1146","-0.98202394238393900000","-0.32728646596662500000","-26.92600122957760000000","-3.96850857828384000000","-0.78186925952894400000","NaN","359.9375"
"1155","-2.76484728228266000000","1.72670427925515000000","-26.97952394258490000000","-2.63104783675299000000","-0.21195084977314800000","NaN","359.9375"
"1155","-2.17667990884647000000","1.14963248316012000000","-26.99433410954160000000","1.15656092937929000000","-0.05745610557271990000","NaN","359.9375"
"1163","-2.04081310205723000000","2.82490456327865000000","-35.61489182064830000000","0.37076052429200800000","-0.01557532829482320000","NaN","359.9375"
"1163","-2.00942783653449000000","2.16985247190234000000","-33.00026976187040000000","3.47771218371096000000","-0.00422219447478012000","NaN","359.9375"
"1175","-3.77117758851857000000","3.82906797226266000000","-27.10690695065000000000","2.47371247814795000000","-0.00114456182530605000","NaN","359.9375"
"1175","-3.17814221113169000000","3.17070974114166000000","-28.47616586398090000000","3.83128719588087000000","-0.00031027035343182000","NaN","359.9375"
"1183","2.26584837369359000000","1.24105569573130000000","-23.68517509292200000000","3.26648702091937000000","-0.00008410877428396280","NaN","359.9375"
"1184","0.52341152723891100000","1.84372911503376000000","-25.35946925289750000000","-3.63228566296973000000","-0.00002280039273267250","NaN","359.9375"
"1192","-1.64809156546266000000","0.17372855259142300000","-29.26934381645150000000","-1.84383588248374000000","-0.00000618078093742031","NaN","359.9375"
"1196","-1.14970930977014000000","0.82986607899602000000","-28.35123768566490000000","-1.27050977277435000000","-0.00000167549977951194","NaN","359.9375"
"1204","-1.03458288708919000000","2.75906286886163000000","-28.09719030433860000000","-1.08671773586002000000","-0.00000045419818944695","NaN","359.9375"
"1204","-1.00798865535657000000","2.15629529808029000000","-28.02689334215250000000","0.65162921617876100000","1.72891766307767000000","NaN","359.9375"
"1212","-2.77084513731528000000","0.23808768113415000000","-34.90060929961160000000","0.20889378475208400000","1.19759661378304000000","NaN","359.9375"
"1216","-2.17806541482261000000","0.84311798419704700000","-32.80262201951070000000","3.42582231289415000000","1.05356492750315000000","NaN","359.9375"
"1225","-2.04113315427581000000","2.76179151039910000000","-28.77550814772820000000","2.45707806207805000000","1.01452049912945000000","NaN","359.9375"
"1225","-2.00950176867509000000","2.15685714066270000000","-29.66117321506330000000","-2.89175914363426000000","1.00393624904945000000","NaN","359.9375"
"1233","-3.77119466686109000000","3.82639216074154000000","-28.18295196846800000000","-1.60644415189130000000","1.00106704710638000000","NaN","359.9375"
"1237","-3.17814615623298000000","3.17015877655565000000","-28.77391621091700000000","0.48501971589105800000","1.00028925749182000000","NaN","359.9375"
"1245","2.26584746237423000000","3.03503664557144000000","-28.93744078963110000000","0.15548351979366900000","1.00007841256124000000","NaN","359.9375"
"1245","0.52341131672391600000","3.00721424164975000000","-28.98268936124140000000","-3.30901331732658000000","-0.72889652995202800000","NaN","359.9375"
"1253","-1.64809161409168000000","-2.38079773682668000000","-25.54862615912980000000","-2.41963242187136000000","-0.19759088496855200000","NaN","359.9375"
"1253","-1.14970932100346000000","-0.49021959472772700000","-26.59839313644200000000","-0.45509375914802900000","3.40427219788200000000","NaN","359.9375"
"1265","-1.03458288968409000000","3.48724983158897000000","-33.78203983197800000000","-0.82531856436072900000","2.38067321617583000000","NaN","359.9375"
"1266","-1.00798865595599000000","2.30623307407550000000","-31.76981289020910000000","0.73542635250999300000","-3.08355962043388000000","NaN","359.9375"
"1274","0.76715437450327400000","3.85714950245395000000","-22.59655382569400000000","0.23575676223223300000","-1.56481595448584000000","NaN","359.9375"
"1274","0.17721284771240900000","3.17649188556190000000","-25.05823895617960000000","1.75500536433176000000","-2.88202934553276000000","NaN","359.9375"
"1282","-5.26606305687022000000","3.03634066820317000000","-29.18599096051120000000","1.24203323630615000000","-2.23910246762119000000","NaN","359.9375"
"1286","-3.52346111910510000000","3.00748274721667000000","-28.32817327724020000000","1.07758896856141000000","-2.06481642624715000000","NaN","359.9375"
"1294","-3.12091964624904000000","3.00154073958122000000","-28.09080819625150000000","1.02487281554509000000","-2.01757058031750000000","NaN","359.9375"
"1294","-3.02793246779052000000","3.00031724691325000000","-28.02512736130070000000","1.00797351691369000000","-2.00476307181017000000","NaN","359.9375"
"1302","2.30054686105980000000","1.20597092638142000000","-31.45353679112810000000","1.00255608263799000000","-2.00129118405078000000","NaN","359.9375"
"1306","0.53142688628768400000","1.83650496442837000000","-30.40220536936310000000","-4.03746595692760000000","3.18640334157725000000","NaN","359.9375"
"1315","-1.64624001556648000000","1.96633545603721000000","-31.83458539770980000000","-2.65315361018032000000","1.59269505808854000000","NaN","359.9375"
"1315","-1.14928160129231000000","1.99306828175999000000","-31.23093651994210000000","-0.52995400732984300000","1.16066908845335000000","NaN","359.9375"
"1323","-1.03448408632644000000","0.20447832383704200000","-29.34061007653040000000","-0.84931662979720800000","1.04355453218672000000","NaN","359.9375"
"1327","-1.00796583235627000000","0.83619762920073800000","-29.81754148271850000000","2.40716171035319000000","-2.44602871339935000000","NaN","359.9375"
"1335","-2.77083986519664000000","0.96627217399169600000","-26.50292840735200000000","1.45109600388644000000","-1.39199266484273000000","NaN","359.9375"
"1335","-2.17806419696192000000","0.99305525163222100000","-27.58574819945440000000","-0.53481991174670200000","2.35157333302757000000","NaN","359.9375"
"1343","-0.27213311697118100000","0.99857003739642500000","-33.05524895212910000000","-0.17144804553222500000","1.36638749122649000000","NaN","359.9375"
"1347","-0.83186257240518300000","0.99970556268717900000","-31.56870398394440000000","-1.73438981964702000000","-2.35851444017613000000","NaN","359.9375"
"1355","0.80783954278206000000","0.99993937370742100000","-24.26419729076620000000","-1.23542447929066000000","-1.36826910191852000000","NaN","359.9375"
"1356","0.18661113151286300000","0.99998751670664100000","-26.24298129508090000000","-1.07547038911285000000","0.62908658278150900000","NaN","359.9375"
"1364","0.04310721691659750000","0.99999742961994800000","-28.51381873406770000000","-1.02419365925755000000","0.17053418353057800000","NaN","359.9375"
"1364","0.00995777762682126000","0.99999947074434400000","-28.14217779349150000000","-4.36661270825888000000","3.50406435640502000000","NaN","359.9375"
"1372","0.00230024906170743000","4.58818868409470000000","-33.20921751471410000000","-3.43809714762725000000","2.40772509542786000000","NaN","359.9375"
"1376","0.00053135809456461600","3.32701694941369000000","-31.61130832871410000000","3.57727233947264000000","-3.07622633711886000000","NaN","359.9375"
"1384","-5.30687652408603000000","1.27324022577637000000","-31.16915395168940000000","1.82620017636165000000","-1.56282803181040000000","NaN","359.9375"
"1385","-3.53288903999132000000","1.85035609011491000000","-31.04680626457740000000","1.26485626721144000000","-1.15257266885033000000","NaN","359.9375"
"1392","-3.12309749827437000000","1.96918748043035000000","-31.01295167143190000000","1.08490538284571000000","-1.04135973683691000000","NaN","359.9375"
"1396","-3.02843555213981000000","1.99365552956376000000","-31.00358383208730000000","1.02721824977780000000","-1.01121188902382000000","NaN","359.9375"
"1405","-1.23756886350467000000","0.20459924145045900000","-27.55440782796370000000","1.00872539638992000000","-1.00303934369743000000","NaN","359.9375"
"1405","-1.82387822142000000000","0.83622252681489800000","-28.59999297090300000000","-0.67663134095934900000","0.72809387418472900000","NaN","359.9375"
"1413","1.57868368578650000000","0.96627730054996400000","-30.61260674811550000000","-0.21690875452720900000","0.19737329926623600000","NaN","359.9375"
"1417","0.36467631664942500000","0.99305630721929500000","-30.16951323482420000000","-3.42839168413999000000","1.78242217711228000000","NaN","359.9375"
"1425","-5.22275894980066000000","4.58675904781913000000","-30.04690568112250000000","-2.45790172938862000000","1.21210073589569000000","NaN","359.9375"
"1425","-3.51345785980490000000","3.32672257929363000000","-30.01297918079280000000","2.89149509933175000000","1.05749673703464000000","NaN","359.9375"
"1433","0.41939062104734000000","-2.31500917975225000000","-23.11042374951140000000","1.60635950680123000000","1.01558634276147000000","NaN","359.9375"
"1437","-0.67212042017625200000","-0.47667336218227000000","-25.20043091428830000000","1.19438160406449000000","-4.18252817830737000000","NaN","359.9375"
"1446","-2.69325949302956000000","3.49003907677591000000","-29.22533662371050000000","1.06231321118063000000","-2.59164457025051000000","NaN","359.9375"
"1446","-2.16014311206004000000","2.30680739528893000000","-28.33906054001640000000","1.01997584239686000000","-2.16038431988465000000","NaN","359.9375"
"1454","-3.80599285394274000000","3.85726775840998000000","-29.81711271345050000000","1.00640368666458000000","-2.04347733649270000000","NaN","359.9375"
"1454","-3.18618454594035000000","3.17651623512589000000","-29.22610168709220000000","1.00205283972928000000","-2.01178593262645000000","NaN","359.9375"
"1462","-1.27400891956674000000","-0.55184311115656700000","-32.50914801021170000000","1.00065808200414000000","-2.00319495670804000000","NaN","359.9375"
"1466","-1.83229588326249000000","0.68046680771539700000","-31.41759344281870000000","-4.03807440192366000000","1.45696947646803000000","NaN","359.9375"
"1474","1.57673920384680000000","0.93420632521576600000","-25.94567570727610000000","-2.65334866033290000000","0.39495851111602100000","NaN","359.9375"
"1475","0.36422714084685700000","0.98645271368941900000","-27.43155187678090000000","-0.53001653485865400000","3.56490179995685000000","NaN","359.9375"
"1482","0.08413655841487300000","-0.79688385869878800000","-27.84270581332470000000","-0.84933667434373900000","2.42421704430765000000","NaN","359.9375"
"1487","0.01943556552496390000","-0.16408285181633000000","-27.95647542818550000000","-0.95170162488380800000","-1.34283787690398000000","NaN","359.9375"
"1491","0.00448962037896229000","-0.03378557862138410000","-27.98795639945970000000","-0.98451691525656000000","-0.36401946444197200000","NaN","359.9375"
"1495","0.00103710340310414000","-0.00695663995442648000","-27.99666743846230000000","-0.99503656359875800000","-0.09867920228623060000","NaN","359.9375"
"1503","0.00023957113919257100","-0.00143241114790001000","-29.72236977696720000000","-0.99840886352316800000","-0.02675017661150120000","NaN","359.9375"
"1507","0.00005534099161398990","-0.00029494148181733600","-29.19988555139110000000","4.03879543736768000000","1.72166628910740000000","NaN","359.9375"
"1515","0.00001278378256722280","1.79403366643190000000","-32.50189379373280000000","2.65357980377936000000","1.19563089527410000000","NaN","359.9375"
"1516","0.00000295305689254612","1.16349598125763000000","-31.41558614253140000000","-2.82876627665529000000","2.78194984238077000000","NaN","359.9375"
"1523","-1.76899907382165000000","1.03366473868484000000","-24.22182834741540000000","-1.58625043118493000000","2.21197269435101000000","NaN","359.9375"
"1527","-1.17763897370510000000","1.00693175833437000000","-26.23125746626980000000","-2.86736366138376000000","2.05746202724925000000","NaN","359.9375"
"1536","-4.57903415823063000000","1.00142728788291000000","-28.51057465595000000000","-2.27805210921233000000","2.01557693355601000000","NaN","359.9375"
"1536","-3.36475727586954000000","1.00029388657285000000","-28.14128013087610000000","1.26972131521911000000","-1.45361294277290000000","NaN","359.9375"
"1544","2.22274024820106000000","1.00006051289213000000","-26.31580142958030000000","0.40703652404030700000","-0.39404861453125900000","NaN","359.9375"
"1544","0.51345353973082800000","1.00001245994357000000","-26.81067672974430000000","0.13048432747955100000","-0.10681957077088500000","NaN","359.9375"
"1556","-1.65039186300699000000","-0.79409183096350400000","-25.22432079842150000000","0.04182956248934700000","-0.02895688572144700000","NaN","359.9375"
"1556","-1.15024067906421000000","-0.16350795766060800000","-25.78536330027390000000","-3.34544754204194000000","1.72106808951667000000","NaN","359.9375"
"1564","-2.80370538950430000000","5.34861598491379000000","-29.38719213902590000000","-2.43131219758788000000","1.19546873400476000000","NaN","359.9375"
"1565","-2.18565614109688000000","3.48359319167957000000","-28.38384726830440000000","-0.45883796289749600000","4.51082366954760000000","NaN","359.9375"
"1573","1.49511289805956000000","3.09957454796401000000","-31.55279748654020000000","-0.82651884954237900000","3.40955742499829000000","NaN","359.9375"
"1577","0.34537144429143200000","3.02050295738821000000","-30.42967160544680000000","5.77332693952320000000","-3.80464741136522000000","NaN","359.9375"
"1585","-5.22721838002616000000","-2.37806151579329000000","-23.22572590876310000000","3.88904970245071000000","-1.76029002919370000000","NaN","359.9375"
"1585","-3.51448798927519000000","-0.48965619148463500000","-25.23233595297270000000","-6.79156669167000000000","-1.20610110424183000000","NaN","359.9375"
"1593","-3.11884685106869000000","-0.10082295359767200000","-25.78758115827140000000","-4.21546839321828000000","-1.05587034360394000000","NaN","359.9375"
"1593","-3.02745365159805000000","-0.02076001110358140000","-25.94122199092680000000","-3.38964458100087000000","-1.01514545642977000000","NaN","359.9375"
"1605","0.53165771173859200000","5.37800858699291000000","-31.15361142115690000000","-3.12490896542472000000","-1.00410566385795000000","NaN","359.9375"
"1606","-0.64618669483099100000","3.48964529314805000000","-29.59592167353310000000","7.03652846851706000000","2.45672259995772000000","NaN","359.9375"
"1614","-0.91826904016791000000","-0.48736808350230800000","-34.33477211091160000000","4.29399616854617000000","1.39489158728507000000","NaN","359.9375"
"1617","-0.98112012833467700000","0.69374257719292500000","-32.64605029950370000000","3.41481835128177000000","1.10704808569116000000","NaN","359.9375"
"1626","-2.76463850101673000000","0.93693988054148900000","-23.56230771729700000000","3.13297895986311000000","1.02901883205192000000","NaN","359.9375"
"1626","-2.17663168032309000000","0.98701556804836500000","-26.04876278140290000000","-0.31622763887840000000","1.00786648923445000000","NaN","359.9375"
"1634","1.49719755070046000000","2.79142082923906000000","-28.46007690275810000000","0.57805487192093500000","1.00213246531649000000","NaN","359.9375"
"1634","0.34585299956018200000","2.16295798343868000000","-28.12730699473090000000","0.86473639828641600000","1.00057807341884000000","NaN","359.9375"
"1642","0.07989212729396580000","2.03355396191927000000","-28.03522687361670000000","0.95663833818433700000","1.00015670542212000000","NaN","359.9375"
"1646","0.01845510090030190000","2.00690894877760000000","-28.00974756043400000000","0.98609948506770300000","1.00004248005274000000","NaN","359.9375"
"1654","0.00426313281141093000","3.79551698780306000000","-26.27940530503710000000","0.99554389044856200000","1.00001151558674000000","NaN","359.9375"
"1655","0.00098478471973193900","3.16380140543969000000","-26.80060562813570000000","-0.68085695668752200000","-2.45783245073469000000","NaN","359.9375"
"1663","-5.30677178242497000000","-2.34855556237176000000","-30.39140981424740000000","-0.21826336669076700000","-1.39519244809068000000","NaN","359.9375"
"1667","-3.53286484464205000000","-0.48358075033958400000","-29.38501433310160000000","-5.10825438901733000000","-1.10712964370439000000","NaN","359.9375"
"1675","0.41490760281423700000","5.28271120338473000000","-27.38324465181650000000","-3.67584636724024000000","-1.02904094097870000000","NaN","359.9375"
"1675","-0.67315599848205200000","3.47002302786764000000","-27.82933881403150000000","-1.53722865952623000000","-1.00787248257126000000","NaN","359.9375"
"1683","-0.92449895589239400000","1.30268597865950000000","-29.67606859518420000000","-1.85164867629287000000","-1.00213409000350000000","NaN","359.9375"
"1687","-0.98255924038726600000","1.85641913563177000000","-29.18707364044760000000","-1.95244278692123000000","4.18617484476556000000","NaN","359.9375"
"1691","-0.99597118027353800000","1.97043589547633000000","-29.05176478718230000000","-1.98475451071617000000","2.59263311666698000000","NaN","359.9375"
"1695","-0.99906934166006900000","1.99391258521717000000","-29.01432373468340000000","-3.67454118470526000000","0.43173451103294900000","NaN","359.9375"
"1704","-0.99978501769637500000","1.99874656718560000000","-30.72725541672980000000","-3.21623870990705000000","0.84595333322621700000","NaN","359.9375"
"1708","-0.99995033903540200000","1.99974191115995000000","-30.20123744737150000000","3.64839384167650000000","-5.95743045626800000000","NaN","359.9375"
"1716","-2.76898828428357000000","1.99994685806164000000","-30.05568402694980000000","1.84899970622273000000","-3.80170679523663000000","NaN","359.9375"
"1716","-2.17763648131917000000","1.99998905777711000000","-30.01540821998020000000","1.27216514772969000000","-3.21732845286907000000","NaN","359.9375"
"1724","-2.04103407053185000000","1.99999774693499000000","-31.72755550257010000000","1.08724840196740000000","-3.05891387812489000000","NaN","359.9375"
"1728","-2.00947888030605000000","1.99999953608129000000","-31.20132048354710000000","-5.68974446401333000000","2.17078285410268000000","NaN","359.9375"
"1736","-0.23318986768523700000","0.20590550794083300000","-31.05570700373020000000","-3.86225553912176000000","0.58846062176333500000","NaN","359.9375"
"1737","-0.82286667231714000000","0.83649149440488400000","-31.01541457784090000000","1.76187077372308000000","5.34627456668828000000","NaN","359.9375"
"1745","-0.95908215808092100000","0.96633268248389200000","-31.00426533818200000000","0.56480563644054200000","3.63603330371412000000","NaN","359.9375"
"1745","-0.99054796853186000000","0.99306771066982200000","-31.00118025352330000000","-4.85722474865623000000","-2.01433604258853000000","NaN","359.9375"
"1753","-0.99781657842436100000","0.99857260278208000000","-25.83045081470330000000","-3.59537340752937000000","-0.54605067375655500000","NaN","359.9375"
"1757","-0.99949562908322600000","0.99970609091446100000","-27.39966821841060000000","0.16799713628096100000","-5.33477798409558000000","NaN","359.9375"
"1765","-4.53788300215217000000","2.79403387900808000000","-29.55717527120990000000","-0.62557335318987200000","-3.63291678465378000000","NaN","359.9375"
"1765","-3.35525134877365000000","2.16349602502825000000","-29.15417489748100000000","-2.55939792601699000000","3.74409866167747000000","NaN","359.9375"
"1773","0.45593636370134700000","-1.55452404537395000000","-32.48924528662110000000","-2.17932705754571000000","1.74387634008569000000","NaN","359.9375"
"1777","-0.66367834470523000000","-0.32008521166248100000","-31.41208619846000000000","-0.37805869717738400000","-0.52726614114087100000","NaN","359.9375"
"1786","-2.69130937153571000000","5.31637585093975000000","-25.94415180828360000000","-0.80062331550736200000","-0.14293247280081700000","NaN","359.9375"
"1786","-2.15969263351909000000","3.47695476743787000000","-27.43113020162220000000","4.10219985612068000000","-3.49658202355580000000","NaN","359.9375"
"1794","-2.03688903731134000000","3.09820765921447000000","-27.84258913240270000000","2.67390545627387000000","-2.40569676807472000000","NaN","359.9375"
"1794","-2.00852137662064000000","3.02022150733537000000","-27.95644314163210000000","-2.82225045082717000000","1.34785839438534000000","NaN","359.9375"
"1806","-2.00196844007877000000","1.21006932513514000000","-31.43453131282870000000","-1.58416164283072000000","0.36538043743522700000","NaN","359.9375"
"1806","-2.00045471013854000000","1.83734884769699000000","-30.39694640002300000000","-1.18726560051050000000","0.09904813785816050000","NaN","359.9375"
"1814","-0.23110528217444900000","0.17241481979518200000","-28.38654635110110000000","-1.06003202292541000000","0.02685018848308850000","NaN","359.9375"
"1818","-0.82238513255546400000","0.82959557405181900000","-28.83025242088910000000","-2.69867301311578000000","3.46511418094031000000","NaN","359.9375"
"1827","-6.26597019021400000000","4.55310156691356000000","-28.95302947392080000000","-2.22397468743001000000","2.39716639563509000000","NaN","359.9375"
"1827","-4.52343966688485000000","3.31979231537668000000","-28.98700287608390000000","4.64591390740805000000","3.83658253197737000000","NaN","359.9375"
"1835","-0.58291517882390400000","1.27175263314517000000","-27.27311166718370000000","2.84820470986221000000","3.22678264479256000000","NaN","359.9375"
"1835","-1.67265306050917000000","1.85004978645647000000","-27.79886412771210000000","3.95133874928081000000","-10.76986554822060000000","NaN","359.9375"
"1843","-1.92438277709793000000","1.96912441079072000000","-27.94434407969620000000","3.30497213290091000000","-6.56410792612430000000","NaN","359.9375"
"1843","-1.98253240305740000000","1.99364254317155000000","-27.98459955735580000000","1.41833693313543000000","1.49166930557922000000","NaN","359.9375"
"1855","-5.53396449280081000000","1.99869096401524000000","-29.71903049680070000000","1.81353537184786000000","-0.32455276859284900000","NaN","359.9375"
"1855","-4.35434617215729000000","1.99973046215560000000","-29.19896154559980000000","1.94022474602120000000","0.91201951699581400000","NaN","359.9375"
"1863","2.99414497167763000000","3.79403889718320000000","-29.05505426654860000000","1.98083775446508000000","0.24723226969355300000","NaN","359.9375"
"1868","0.69164821909324600000","3.16349705829863000000","-29.01523396019100000000","3.67328558410153000000","3.52485584339609000000","NaN","359.9375"
"1876","-1.60922884859094000000","-0.55452383261779300000","-29.00421535981950000000","3.21583620008131000000","2.41336129774953000000","NaN","359.9375"
"1876","-1.14073201268944000000","0.67991483214520400000","-29.00116642410670000000","-3.64852287487331000000","2.11205489569206000000","NaN","359.9375"
"1884","-1.03250912927290000000","2.72818706688859000000","-29.00032275897080000000","-1.84904107059402000000","2.03037608919103000000","NaN","359.9375"
"1888","-1.00750961679497000000","2.14993779744259000000","-29.00008931001390000000","7.12496386584425000000","3.73715220370713000000","NaN","359.9375"
"1892","-1.00173472331214000000","2.03087303266452000000","-29.00002471280220000000","5.00177449528388000000","3.19982885128647000000","NaN","359.9375"
"1896","-1.00040072150842000000","2.00635693042156000000","-29.00000683823190000000","-4.07600187588206000000","-2.13258331122085000000","NaN","359.9375"
"1904","0.76890718921228300000","3.79540332413034000000","-27.27670996853450000000","-1.98607867450382000000","-0.57810540511288500000","NaN","359.9375"
"1908","0.17761774833791400000","3.16377800145256000000","-27.79985980675700000000","2.04274814511468000000","-3.61454966543161000000","NaN","359.9375"
"1917","0.04102974320860550000","-2.34856038138385000000","-33.11449536310800000000","1.33427538417256000000","-2.43767569759086000000","NaN","359.9375"
"1917","0.00947788069332687000","-0.48358174260117700000","-31.58509794435640000000","-0.57226927832394000000","3.06810726157995000000","NaN","359.9375"
"1925","-3.53581011920406000000","3.48861660253680000000","-27.71531747933450000000","-0.18345324684404100000","1.56062709483933000000","NaN","359.9375"
"1925","-2.35477251230681000000","2.30651449987231000000","-28.64451797099850000000","-3.41766680034531000000","-5.76369511082709000000","NaN","359.9375"
"1937","-0.31295278093647800000","-1.52507574000464000000","-28.90163525158140000000","-2.45446363681807000000","-3.74918858890373000000","NaN","359.9375"
"1937","-0.84129192474204100000","-0.31402164057441300000","-28.97278167968540000000","6.25145416350551000000","-1.47417391502897000000","NaN","359.9375"
"1941","-0.96333839588723100000","-0.06465881540332260000","-28.99246847094450000000","4.04232368546265000000","-1.85745790081370000000","NaN","359.9375"
"1945","-0.99153116050373100000","-0.01331361240490760000","-28.99791596508320000000","3.33413931448602000000","-1.96135937219326000000","NaN","359.9375"
"1953","0.77095605996872900000","1.79135304913918000000","-27.27613140704760000000","3.10711555636926000000","-1.98952521307163000000","NaN","359.9375"
"1958","0.17809103798262200000","1.16294402713631000000","-27.79969971412090000000","3.03433819942423000000","-0.26824268536768500000","NaN","359.9375"
"1966","-3.49686043872500000000","2.82764548477411000000","-31.39115914052310000000","3.01100784965009000000","-0.80163360718711800000","NaN","359.9375"
"1966","-2.34577512661159000000","2.17041684299691000000","-30.38494496965760000000","-0.35532810615367800000","0.78269138710941600000","NaN","359.9375"
"1974","1.45812537333319000000","2.03508978289776000000","-28.38322545839130000000","0.56552037470700500000","0.21217371393768500000","NaN","359.9375"
"1978","0.33682731705389000000","2.00722518292299000000","-28.82933350305570000000","-0.81871025961709600000","3.51535209248926000000","NaN","359.9375"
"1986","-1.69119256354596000000","3.79558210218560000000","-27.22948327827520000000","-0.26245521302694300000","2.41078499991433000000","NaN","359.9375"
"1987","-1.15966565084495000000","3.16381481285592000000","-27.78679180014340000000","3.27472123633016000000","0.38243872096877400000","NaN","359.9375"
"1994","-1.03688280430703000000","3.03373038789749000000","-27.94100356915770000000","2.40863935647694000000","0.83259012132473500000","NaN","359.9375"
"1995","-1.00851993679512000000","3.00694527587512000000","-27.98367521111070000000","-1.22785875957523000000","-2.50321741292826000000","NaN","359.9375"
"2007","-1.00196810747872000000","-0.58675872185111700000","-27.99548279906980000000","-0.39361657988997300000","-1.40749550411522000000","NaN","359.9375"
"2007","-1.00045463330785000000","0.67327748782501200000","-27.99875005402010000000","3.23267463427946000000","-1.11046478336799000000","NaN","359.9375"
"2015","-2.76910477638356000000","4.52091479703665000000","-36.61611374815020000000","2.39516041228558000000","-1.02994503802203000000","NaN","359.9375"
"2015","-2.17766339102270000000","3.31316487910161000000","-34.00060787907890000000","0.44724872922005700000","0.72080021900346200000","NaN","359.9375"
"2027","-0.27204053070141600000","1.27038800687953000000","-28.10700051041230000000","0.82280367099428800000","0.19539611907302400000","NaN","359.9375"
"2027","-0.83184118495427400000","1.84976880226174000000","-29.47619175272280000000","-0.73623255576258000000","-1.67594937367701000000","NaN","359.9375"
"2036","0.80784448328843900000","0.17497215803483600000","-26.40847418020550000000","-0.23601520805469000000","-1.18323785263125000000","NaN","359.9375"
"2036","0.18661227277104300000","0.83012214432531700000","-27.55961195195850000000","3.28319714958019000000","5.86599862206814000000","NaN","359.9375"
"2044","0.04310748054751540000","0.96502119761208400000","-27.87814107038310000000","2.41135649308480000000","3.77692125121019000000","NaN","359.9375"
"2044","0.00995783852562762000","0.99279766858585800000","-27.96628065000080000000","7.17015455092014000000","-3.70506161208666000000","NaN","359.9375"
"2056","0.00230026312934656000","0.99851699960382100000","-27.99066958352630000000","5.69568979779185000000","-1.73329409026250000000","NaN","359.9375"
"2056","0.00053136134419268800","0.99969464190848700000","-27.99741819840610000000","-3.17412392033052000000","3.98797037325533000000","NaN","359.9375"
"2064","-3.53787676735685000000","-0.79415727147781000000","-33.16916136562610000000","-1.01753380991449000000","2.53890340974546000000","NaN","359.9375"
"2068","-2.35524990853441000000","-0.16352143222919700000","-31.60022446875440000000","6.39152143327618000000","-1.31174844306873000000","NaN","359.9375"
"2077","-3.85106257153857000000","1.76042441735321000000","-27.71950311080240000000","4.76665372133306000000","-0.35559167189221000000","NaN","359.9375"
"2077","-3.19659566170297000000","1.15657564854410000000","-28.64567616903020000000","-0.79251799617908400000","-3.55423015002985000000","NaN","359.9375"
"2085","-3.04541364582695000000","1.03223980340129000000","-27.17866381067120000000","0.42536973609951100000","-2.42132414982057000000","NaN","359.9375"
"2089","-3.01049056326793000000","1.00663835617491000000","-27.77272964302200000000","0.81578988836140200000","1.34362208914582000000","NaN","359.9375"
"2093","-3.00242332267482000000","1.00136687473421000000","-27.93711245671140000000","0.94094747986371100000","0.36423205043257700000","NaN","359.9375"
"2093","-3.00055978812923000000","1.00028144716701000000","-27.98259850887080000000","-0.69835901239310900000","0.09873683056718600000","NaN","359.9375"
"2105","2.30686995674108000000","-0.79403644498693900000","-29.71847679052380000000","-0.22387402773313400000","0.02676579861347990000","NaN","359.9375"
"2105","0.53288752293303100000","-0.16349655337767900000","-29.19880833060110000000","1.60766081175400000000","1.73617351814491000000","NaN","359.9375"
"2117","-1.64590260814497000000","-0.03366485648756350000","-29.05501187072110000000","1.19479876540403000000","1.19956354703766000000","NaN","359.9375"
"2118","-1.14920366009561000000","-0.00693178259061066000","-29.01522222892310000000","-0.61698151352701800000","-2.40373744428123000000","NaN","359.9375"
"2126","0.73453367408752800000","-0.00142729287740298000","-25.55762826636380000000","-0.19778671717409800000","-1.38052825398589000000","NaN","359.9375"
"2126","0.16967745795621900000","-0.00029388760124195200","-26.60088409221770000000","-0.06340479355187940000","4.08359891710524000000","NaN","359.9375"
"2138","-3.49880397776419000000","3.58812827996752000000","-30.33614525223980000000","-0.02032577264436710000","2.56482660711451000000","NaN","359.9375"
"2138","-2.34622408460391000000","2.32700451186543000000","-29.36972218245870000000","5.03176949994387000000","3.88203223327093000000","NaN","359.9375"
"2142","-2.07997784802962000000","2.06733206135120000000","-29.10230511388850000000","3.65132748816267000000","3.23910325043564000000","NaN","359.9375"
"2146","-2.01847490241116000000","2.01386404872501000000","-29.02830865126390000000","-0.15005985019001800000","-2.12193672015394000000","NaN","359.9375"
"2154","-2.00426770696525000000","5.59104347839059000000","-29.00783323243500000000","0.63132353670940600000","-0.57521930363707200000","NaN","359.9375"
"2158","-2.00098584135038000000","4.32760476755595000000","-29.00216751867860000000","-0.79761563829249700000","-3.61376729465430000000","NaN","359.9375"
"2167","1.53777178236452000000","-3.10892192878143000000","-32.44718361724310000000","-0.25569287767272400000","-2.43746361078854000000","NaN","359.9375"
"2167","0.35522565697556300000","-0.64014444586912200000","-31.40044739483870000000","1.59746059386120000000","6.52600032694528000000","NaN","359.9375"
"2175","-3.45594229851297000000","-0.13180932843099900000","-25.94093125732270000000","1.19152886579238000000","3.95583597447827000000","NaN","359.9375"
"2179","-2.33632302623770000000","-0.02714027931280830000","-27.43023904916100000000","-2.29745820506117000000","-0.19872544041678600000","NaN","359.9375"
"2187","-2.07769070113096000000","5.37669485401702000000","-31.28892639063860000000","-1.41592818167705000000","0.67504685387669600000","NaN","359.9375"
"2187","-2.01794657091945000000","3.48937478816686000000","-30.35665634209800000000","2.22552216961786000000","-2.54592459063693000000","NaN","359.9375"
"2195","-2.00414566226174000000","3.10076501107771000000","-30.09868969033660000000","1.39286753563676000000","-1.41907266039352000000","NaN","359.9375"
"2195","-2.00095764899409000000","3.02074808041404000000","-30.02730823436770000000","1.12594215297258000000","0.61531464168132800000","NaN","359.9375"
"2208","1.53777829480570000000","1.21017774948267000000","-26.56097256168100000000","1.04037347058891000000","0.16680085524885500000","NaN","359.9375"
"2208","0.35522716135106500000","1.83737117287770000000","-27.60180948574160000000","-7.38419968796109000000","-1.68370104109858000000","NaN","359.9375"
"2216","-1.68694219502336000000","3.76060820974640000000","-31.33640131610170000000","-5.08487812336069000000","-1.18533919179651000000","NaN","359.9375"
"2216","-1.15868381467905000000","3.15661349242773000000","-30.36979303739730000000","0.69050430788892300000","0.67867562778712200000","NaN","359.9375"
"2224","0.73234375606539000000","4.82634199220469000000","-26.65574087270320000000","-0.45807242179002700000","0.18397689163079300000","NaN","359.9375"
"2228","0.16917158635871800000","4.17014844657279000000","-27.62803264278260000000","4.21201192544200000000","0.04987286307081790000","NaN","359.9375"
"2236","0.03907867773036630000","0.44684572549867400000","-27.89707362812290000000","2.70910808102190000000","0.01351964612964600000","NaN","359.9375"
"2237","0.00902718409175171000","1.68019683183565000000","-27.97151944163320000000","2.22731987327332000000","5.19041829421074000000","NaN","359.9375"
"2244","0.00208528172802154000","1.93415073566933000000","-27.99211919948120000000","2.07287228303834000000","3.59378344033671000000","NaN","359.9375"
"2245","0.00048170058802652800","1.98644126749031000000","-27.99781931884840000000","-6.37378149343580000000","-2.02578922908551000000","NaN","359.9375"
"2257","-1.76888848302513000000","-1.59098061207103000000","-26.27610466425390000000","-4.08153834664314000000","-0.54915542890718900000","NaN","359.9375"
"2257","-1.17761342720412000000","-0.32759182302847900000","-26.79969231417390000000","-1.66728196425373000000","5.03788708922120000000","NaN","359.9375"
"2265","-1.04102874502564000000","3.52073580106076000000","-28.66786516923840000000","-1.89334006515256000000","3.55243494361498000000","NaN","359.9375"
"2269","-1.00947765011282000000","2.31312802282717000000","-28.18480368623470000000","8.11076286870617000000","-0.30808028491131100000","NaN","359.9375"
"2277","-2.77118909546732000000","3.85856921103752000000","-29.77442859617820000000","5.31779360492455000000","0.64540270054166300000","NaN","359.9375"
"2277","-2.17814486923966000000","3.17678421151454000000","-29.21429064711150000000","2.74301867747140000000","2.63279276525901000000","NaN","359.9375"
"2285","1.49684800369148000000","-0.55178793331654800000","-25.61271210542090000000","2.91761910033993000000","2.17153886368132000000","NaN","359.9375"
"2289","0.34577225411581100000","0.68047816914184400000","-26.61612623536060000000","-2.06469433659067000000","2.04650113491900000000","NaN","359.9375"
"2294","0.07987347507661240000","0.93420866459713500000","-26.89377902902910000000","-0.66188225392321800000","2.01260563059793000000","NaN","359.9375"
"2294","0.01845079223354170000","0.98645319538115100000","-26.97060779945560000000","-0.21218061690519900000","3.73233494845152000000","NaN","359.9375"
"2306","-1.76473761847017000000","2.79130503355565000000","-28.71515886438750000000","-0.06801906823066670000","3.19852297906735000000","NaN","359.9375"
"2306","-1.17665457647902000000","2.16293414045861000000","-28.19789023364250000000","1.65762347695458000000","1.32489826245249000000","NaN","359.9375"
"2318","-1.04080725027417000000","-1.55463974055534000000","-26.33146590221820000000","1.21081537419154000000","1.81699192644723000000","NaN","359.9375"
"2318","-1.00942648477118000000","-0.32010903394862400000","-26.81501121583480000000","-3.97070395402429000000","-1.50744580612690000000","NaN","359.9375"
"2326","-1.00217752028241000000","-0.06591224380956400000","-33.84197980402730000000","-2.63175161174649000000","-0.40864174630430700000","NaN","359.9375"
"2327","-1.00050300771660000000","-0.01357170033729400000","-31.78639876457080000000","-0.52309313562074500000","-3.56861108164360000000","NaN","359.9375"
"2334","-2.76911595088379000000","3.58539430392342000000","-27.77101904206180000000","-0.84711722955174900000","-2.42522256459889000000","NaN","359.9375"
"2339","-2.17766597233497000000","2.32644157087821000000","-28.65993104326990000000","-4.30984704356302000000","-0.38635248796530800000","NaN","359.9375"
"2343","-2.04104088296369000000","2.06721614864751000000","-28.90590017316010000000","-3.41989969077928000000","-0.83365107394644200000","NaN","359.9375"
"2347","-2.00948045397947000000","2.01384018164981000000","-28.97396181793120000000","1.90367747157091000000","-2.68382355106532000000","NaN","359.9375"
"2355","-2.00218998718269000000","2.00284977095466000000","-28.99279502472830000000","0.61026482869459500000","-2.18537240206951000000","NaN","359.9375"
"2359","-2.00050588757361000000","2.00058678380815000000","-28.99800632515250000000","0.19563353913849800000","1.40758441127552000000","NaN","359.9375"
"2367","-2.00011686015295000000","3.79421521860983000000","-27.27615641040850000000","0.06271454594183630000","0.38157109831511000000","NaN","359.9375"
"2368","-2.00002699472385000000","3.16353336386838000000","-27.79970663275280000000","-1.65932395586145000000","0.10343713805232000000","NaN","359.9375"
"2376","-0.23100647980928500000","1.23957803943816000000","-26.22128528398570000000","-1.21136049934236000000","0.02803996837207800000","NaN","359.9375"
"2379","-0.82236230918500100000","1.84342485732301000000","-26.78452334891370000000","2.29110074764947000000","0.00760113670110866000","NaN","359.9375"
"2388","-0.95896565007432200000","3.76185469729529000000","-32.11025164136030000000","1.41389016173080000000","0.00206053296431230000","NaN","359.9375"
"2388","-0.99052105515390500000","3.15687015119869000000","-30.58392367227510000000","4.49153831823023000000","-1.72835921236515000000","NaN","359.9375"
"2396","-0.99781036142748600000","3.03230044314810000000","-30.16157639608490000000","3.47814474345545000000","-1.19744522772759000000","NaN","359.9375"
"2396","-0.99949419295543000000","3.00665084223857000000","-30.04470949374270000000","3.15327959925653000000","-2.78244167563882000000","NaN","359.9375"
"2408","-0.99988315844927700000","1.20727504914897000000","-26.56578763068860000000","3.04913707798699000000","-2.21210602159943000000","NaN","359.9375"
"2408","-0.99997300957327100000","1.83677349061382000000","-27.60314185422420000000","-0.34310496050701600000","3.12925518871325000000","NaN","359.9375"
"2416","-4.53799327716186000000","1.96639074708347000000","-31.33676999322150000000","0.56943876739461400000","1.57720321029574000000","NaN","359.9375"
"2417","-3.35527682232780000000","1.99307966649624000000","-30.36989505333390000000","0.86197432034448900000","-2.30136604834757000000","NaN","359.9375"
"2424","0.45593047930412300000","-1.58961372851768000000","-28.37906102499630000000","0.95575289459042800000","-1.35277718934668000000","NaN","359.9375"
"2429","-0.66367970400242500000","-0.32731037404556100000","-28.82818117070190000000","-2.37304127247916000000","-2.82454940766800000000","NaN","359.9375"
"2437","-0.92230992955518100000","-0.06739504008797540000","-30.67574826592540000000","-1.44015796239300000000","-2.22352067881588000000","NaN","359.9375"
"2437","-0.98205357476920000000","-0.01387701639981500000","-30.18698500275460000000","5.57661170089874000000","-5.51842805284832000000","NaN","359.9375"
"2445","-0.99585437139237200000","-0.00285735543608782000","-30.05174026041670000000","3.82598839443317000000","-4.41161883805802000000","NaN","359.9375"
"2445","-0.99904235878001500000","-0.00058834549537964800","-30.01431694792930000000","-0.09406853357436740000","-2.38266475965871000000","NaN","359.9375"
"2457","-4.53777829660152000000","1.79397325290143000000","-30.00396161512060000000","0.64927275959674700000","-2.83265139639321000000","NaN","359.9375"
"2458","-3.35522716176590000000","1.16348354177318000000","-30.00109621089920000000","-0.79186162817569700000","-2.95463477005839000000","NaN","359.9375"
"2466","2.22494170688455000000","2.82775657386099000000","-31.72359525406870000000","-0.25384830575827100000","-2.98770229303800000000","NaN","359.9375"
"2470","0.51396207722391800000","2.17043971686239000000","-31.20022465080240000000","-0.08137654363275590000","0.46116926203332500000","NaN","359.9375"
"2478","0.11872536525651600000","2.03509449275483000000","-31.05540377795950000000","-0.02608700433840910000","-0.60390300171546600000","NaN","359.9375"
"2478","0.02742558834579560000","2.00722615270896000000","-31.01533067282120000000","-5.04664811557999000000","2.56521042357887000000","NaN","359.9375"
"2486","-3.53166419435671000000","-1.58670088773715000000","-25.83436635000670000000","-3.65609714896813000000","1.42430070668234000000","NaN","359.9375"
"2490","-2.35381480265538000000","-0.32671060380685000000","-27.40075167865220000000","5.18681619694397000000","-2.34281519752224000000","NaN","359.9375"
"2494","-2.08173130575181000000","-0.06727154403503390000","-27.83418314974960000000","3.02160259264104000000","-1.36401331646496000000","NaN","359.9375"
"2495","-2.01887995157286000000","-0.01385158787050860000","-27.95411713834240000000","0.64806826697832100000","-1.09867753567901000000","NaN","359.9375"
"2507","-2.00436127342045000000","-0.00285211955941578000","-29.71059576527330000000","0.88718070052726000000","-1.02674972482393000000","NaN","359.9375"
"2507","-2.00100745522437000000","-0.00058726739903382700","-29.19662758726440000000","-0.71559511192741900000","-1.00725137462374000000","NaN","359.9375"
"2515","1.53776678955435000000","1.79397347488751000000","-29.05440844142740000000","-0.22939943079470800000","-1.00196571868608000000","NaN","359.9375"
"2519","0.35522450363519700000","1.16348358748136000000","-29.01505525516410000000","1.60588952475650000000","2.45730270103231000000","NaN","359.9375"
"2527","-3.45594256493488000000","1.03366218673686000000","-32.45074975801440000000","1.19423094119418000000","1.39504884236860000000","NaN","359.9375"
"2527","-2.33632308778123000000","1.00693123287398000000","-31.40143417479150000000","1.06226491295148000000","-0.62182707145538600000","NaN","359.9375"
"2535","-0.30869095936901300000","4.58961597275908000000","-24.21791238364560000000","1.01996035935891000000","-0.16856625912920600000","NaN","359.9375"
"2539","-0.84030744291998100000","3.32731083614744000000","-26.23017388746800000000","-0.67302973151969800000","1.68322247150645000000","NaN","359.9375"
"2543","-0.96311098034610000000","3.06739513523734000000","-26.78698289728460000000","-0.21575418102379900000","1.18520946009202000000","NaN","359.9375"
"2547","-0.99147862745823600000","3.01387703599160000000","-26.94105644728000000000","-0.06916465120217020000","1.05020699045794000000","NaN","359.9375"
"2556","-4.53603107282048000000","-0.58533143360126300000","-32.15356561389290000000","-0.02217221911166670000","1.01361022212144000000","NaN","359.9375"
"2560","-3.35482355264612000000","0.67357137447341500000","-30.59590899829320000000","-3.36596469206771000000","-7.64089944187064000000","NaN","359.9375"
"2568","-4.85096408322434000000","-0.86130787966277600000","-31.88818475625120000000","-2.43788941207550000000","-4.98698308091558000000","NaN","359.9375"
"2568","-4.19657291087834000000","-0.17734811873051700000","-31.24576789533720000000","4.57733893357947000000","4.37703537245854000000","NaN","359.9375"
"2576","-2.27640863440240000000","1.75757742512524000000","-29.34471403788540000000","2.82622152453738000000","1.91545422483779000000","NaN","359.9375"
"2580","-2.83285021797511000000","1.15598943689134000000","-29.81867708197040000000","2.26486311082912000000","-2.20967221450634000000","NaN","359.9375"
"2588","0.57661115239291100000","2.82621349567287000000","-24.77995071317690000000","2.08490757671481000000","-1.32792062187744000000","NaN","359.9375"
"2589","-0.63580243907023800000","2.17012198841687000000","-26.38569443246220000000","-3.01106641121881000000","0.64002433807440100000","NaN","359.9375"
"2593","-0.91587027455319400000","2.03502907068752000000","-26.83001668812140000000","-1.64469066701890000000","0.17349921444934800000","NaN","359.9375"
"2597","-0.98056601289232700000","2.00721268193871000000","-26.95296424476010000000","-1.20666948332620000000","-3.41080302126042000000","NaN","359.9375"
"2605","-2.76451050021433000000","0.20739073509148100000","-26.98698482664830000000","-1.06625235562324000000","-2.38244360623517000000","NaN","359.9375"
"2609","-2.17660211210650000000","0.83679731099762000000","-26.99639859641860000000","2.33761828950800000000","-0.37475587322812700000","NaN","359.9375"
"2617","-2.04079513099131000000","0.96639565183396900000","-33.89217115718110000000","1.42880236200502000000","-0.83050743795093200000","NaN","359.9375"
"2617","-2.00942368521388000000","0.99308067641184900000","-31.80028711735090000000","-2.22139507373646000000","-2.68297136726028000000","NaN","359.9375"
"2625","-0.23317711760547700000","2.79266966903672000000","-29.49815398510260000000","-1.39154450613271000000","-2.18514139019707000000","NaN","359.9375"
"2629","-0.82286372704560400000","2.16321512655085000000","-29.86113515459860000000","-1.12551802736007000000","-0.32127075171741100000","NaN","359.9375"
"2638","-2.72808123370099000000","2.03360690912695000000","-24.79169920477900000000","-1.04023750798593000000","-0.81600857280659100000","NaN","359.9375"
"2638","-2.16818694265239000000","2.00691985090435000000","-26.38894533497330000000","0.66652945465133000000","-2.67904098279941000000","NaN","359.9375"
"2646","-2.03885122479393000000","2.00142483607634000000","-26.83091623910160000000","0.21367037722363700000","-2.18407593287635000000","NaN","359.9375"
"2646","-2.00897464240793000000","2.00029338173214000000","-26.95321315778140000000","1.74792509776085000000","-2.04989971139092000000","NaN","359.9375"
"2658","-2.00207314458624000000","0.20596601240689600000","-28.71034562655120000000","1.23976350431083000000","-2.01352692423170000000","NaN","359.9375"
"2658","-2.00047889690531000000","0.83650395261348100000","-28.19655837185980000000","1.07686135706839000000","-3.73258469476931000000","NaN","359.9375"
"2666","-2.00011062530199000000","0.96633524769885200000","-28.05438928896590000000","1.02463956400444000000","-3.19859068085207000000","NaN","359.9375"
"2667","-2.00002555447175000000","0.99306823886195600000","-28.01504995552330000000","-2.35095816641887000000","5.59075452960870000000","NaN","359.9375"
"2678","-3.76900565906772000000","-0.79552168499590400000","-26.28087252058230000000","-1.43307874695962000000","2.97338968708894000000","NaN","359.9375"
"2679","-3.17764049489855000000","-0.16380237261801500000","-26.80101161852680000000","-1.13883272312220000000","-2.92288472734464000000","NaN","359.9375"
"2687","2.26596427026587000000","-0.03372782638279570000","-23.49835446042930000000","-1.04450582058076000000","-1.52125984876557000000","NaN","359.9375"
"2687","0.52343829937539000000","-0.00694474844488853000","-24.58448255140020000000","4.02401806461299000000","-1.14130427376701000000","NaN","359.9375"
"2695","0.12091437488590800000","-0.00142996261945250000","-24.88502296611210000000","2.64884259856085000000","-1.03830507535178000000","NaN","359.9375"
"2695","0.02793125010435050000","-0.00029443731608975200","-24.96818492612950000000","-2.83028488985229000000","-2.73930161082875000000","NaN","359.9375"
"2707","-1.76254763038858000000","1.79403377024245000000","-31.88436420674890000000","-1.58673725536412000000","-2.20041151732735000000","NaN","359.9375"
"2707","-1.17614868869777000000","1.16349600263280000000","-29.79812687111470000000","-2.86751972336314000000","-0.32541021158485300000","NaN","359.9375"
"2715","-1.04069039007325000000","1.03366474308611000000","-29.22084815118180000000","-2.27810213824221000000","-0.81713070675138200000","NaN","359.9375"
"2719","-1.00939949003625000000","1.00693175924062000000","-29.06111046707690000000","1.26970527733569000000","-6.13718074575878000000","NaN","359.9375"
"2728","0.76682847148646000000","1.00142728806951000000","-30.74020168344870000000","0.40703138275123800000","-4.57935168784521000000","NaN","359.9375"
"2728","0.17713756403599700000","1.00029388661127000000","-30.20481978393100000000","-1.54894577543430000000","-4.15705193810827000000","NaN","359.9375"
"2736","-1.72808093546082000000","1.00006051290004000000","-33.50325913572710000000","-1.17597639548237000000","-4.04257398706354000000","NaN","359.9375"
"2740","-1.16818687375884000000","1.00001245994520000000","-32.41596394368820000000","0.62301542973782900000","2.90413009414751000000","NaN","359.9375"
"2744","-1.03885120887950000000","1.00000256557254000000","-32.11510058268500000000","0.19972101901762900000","0.78725801507681500000","NaN","359.9375"
"2744","-1.00897463873170000000","1.00000052826576000000","-32.03184926082040000000","1.74345333044569000000","-3.24442392684876000000","NaN","359.9375"
"2756","-4.54007265569405000000","-0.79409428776282400000","-25.11564525305620000000","1.23832998295266000000","-2.33734119299247000000","NaN","359.9375"
"2760","-3.35575715927615000000","-0.16350846352935400000","-27.20187574648980000000","1.07640181091147000000","3.09530616120674000000","NaN","359.9375"
"2768","2.22481927733035000000","3.55452148421688000000","-26.05586064947100000000","1.02449224658281000000","1.56800023276301000000","NaN","359.9375"
"2769","0.51393379596702300000","2.32008468430589000000","-26.73874901651780000000","-0.67157693742949300000","-2.30386081187067000000","NaN","359.9375"
"2777","-5.18828043565626000000","2.06590723008168000000","-33.82087743755680000000","-0.21528845657739100000","-1.35345347536542000000","NaN","359.9375"
"2777","-3.50549331462405000000","2.01357066798263000000","-31.78055956933850000000","-1.74844380795960000000","0.63310283562631700000","NaN","359.9375"
"2785","-4.88576883500790000000","2.00279427658038000000","-24.32281944226250000000","-1.23992978804077000000","0.17162291824291800000","NaN","359.9375"
"2789","-4.20461281703345000000","2.00057535720553000000","-26.25920251785240000000","2.28194224662510000000","-1.68239386558708000000","NaN","359.9375"
"2793","-4.04726561066465000000","2.00011846927261000000","-26.79501535375710000000","1.41095420690536000000","-1.18498483976503000000","NaN","359.9375"
"2797","-4.01091836759736000000","2.00002439348707000000","-26.94327909285880000000","-2.22711668439639000000","-2.77906388608516000000","NaN","359.9375"
"2806","-0.46452263362228300000","-1.58818377031573000000","-26.98430486689670000000","-1.39337869170321000000","-2.21119036292948000000","NaN","359.9375"
"2809","-1.64530435367728000000","-0.32701593763906100000","-26.99565702991110000000","2.23275089446309000000","-2.05724995111557000000","NaN","359.9375"
"2818","-1.91806521914609000000","5.31494877562510000000","-28.72209018876060000000","1.39518485913048000000","-2.01551944348820000000","NaN","359.9375"
"2818","-1.98107304562890000000","3.47666092463402000000","-28.19980818707630000000","4.48554193047152000000","3.18254631351047000000","NaN","359.9375"
"2826","-0.22662811294318100000","3.09814715533462000000","-29.77858046274250000000","3.47622247216580000000","1.59164948638151000000","NaN","359.9375"
"2830","-0.82135090537051600000","3.02020904924748000000","-29.21543950212170000000","1.47323491901596000000","-0.56853213364239300000","NaN","359.9375"
"2838","-0.95873201554637100000","3.00416115648074000000","-29.05961385019980000000","1.83113410401199000000","-0.15411894940267200000","NaN","359.9375"
"2838","-0.99046708552093700000","3.00085680543628000000","-29.01649563381200000000","-1.41299051074047000000","-0.04177890599218750000","NaN","359.9375"
"2842","-2.76679765040761000000","1.20608202450470000000","-29.00456447510020000000","-0.45296455143347200000","-0.01132551832639070000","NaN","359.9375"
"2846","-2.17713044435926000000","1.83652784015449000000","-29.00126302712450000000","1.53422090857220000000","-1.73198793278304000000","NaN","359.9375"
"2855","1.49708233608640000000","1.96634016627740000000","-27.27705756614640000000","1.17125602215897000000","-1.19842890929172000000","NaN","359.9375"
"2859","0.34582638495621800000","1.99306925162484000000","-27.79995598982350000000","-5.66281401139682000000","-2.78270833421490000000","NaN","359.9375"
"2867","-1.68911377666456000000","0.20447852353764900000","-26.22135428310110000000","-3.85362240231255000000","-2.21217830799656000000","NaN","359.9375"
"2867","-1.15918545056808000000","0.83619767032021200000","-26.78454244152620000000","1.76463831173025000000","-0.32859997924875000000","NaN","359.9375"
"2875","-1.03677187792590000000","0.96627218245842600000","-30.38696500078080000000","0.56569283037600300000","-0.81799539603121000000","NaN","359.9375"
"2875","-1.00849431277401000000","0.99305525337556800000","-29.38378441731760000000","-1.49808342999967000000","-0.95066178903484300000","NaN","359.9375"
"2883","-1.00196218832359000000","4.58675883082680000000","-30.82948817150490000000","-1.15967137481200000000","-0.98662528854676800000","NaN","359.9375"
"2887","-1.00045326598157000000","3.32672253461369000000","-30.22952607628430000000","2.30767081017212000000","-2.72529213981308000000","NaN","359.9375"
"2892","-1.00010470455235000000","-0.52091479241639300000","-23.17034402440040000000","1.41920205227836000000","-2.19661379891030000000","NaN","359.9375"
"2895","-1.00002418677714000000","0.68683512184972900000","-25.21701133828660000000","2.81381270442832000000","1.40453706853374000000","NaN","359.9375"
"2904","-6.30700485508696000000","2.72961199331635000000","-29.22992456094000000000","2.26088519619219000000","0.38074501789847100000","NaN","359.9375"
"2908","-4.53291868448385000000","2.15023119777859000000","-28.34033005930160000000","0.40420391570995100000","0.10321320234420300000","NaN","359.9375"
"2916","2.95289467775467000000","2.03093344543776000000","-29.81746399968970000000","0.80900472861290900000","0.02797926338457330000","NaN","359.9375"
"2916","0.68211939113108300000","2.00636936975009000000","-29.22619889083170000000","-4.09951301357016000000","6.92325582546958000000","NaN","359.9375"
"2924","0.15756974580306900000","3.79540588545778000000","-34.23246683093110000000","-2.67304413100565000000","4.79244266066409000000","NaN","359.9375"
"2925","0.03639864973091290000","3.16377852884424000000","-32.61774160228080000000","-0.53633034232638800000","2.48589932455751000000","NaN","359.9375"
"2932","0.00840809696989356000","-0.55446587625524200000","-28.72435024312350000000","-0.85136070136000000000","2.86063645078637000000","NaN","359.9375"
"2936","0.00194227245180175000","0.67992676568501000000","-29.64701740969050000000","0.72707798441086000000","-0.49561455184891300000","NaN","359.9375"
"2941","-5.30655060252521000000","0.93409512753560300000","-26.45574301913470000000","0.23308051297048600000","0.59456549629736700000","NaN","359.9375"
"2945","-3.53281375203124000000","0.98642981746398100000","-27.57269162144950000000","-1.60470947455526000000","-0.83882386901623000000","NaN","359.9375"
"2953","0.41491940521980300000","4.58539461644721000000","-22.71188454958850000000","-1.19385265067771000000","-0.22739023139892100000","NaN","359.9375"
"2957","-0.67315327212348600000","3.32644163522861000000","-24.36685997527180000000","2.29671326574968000000","3.39619412508194000000","NaN","359.9375"
"2965","-0.92449832610290000000","1.27312176536191000000","-26.54809696536290000000","1.41568937533086000000","2.37848339431797000000","NaN","359.9375"
"2966","-0.98255909490573900000","1.85033169845178000000","-26.15166285693360000000","-0.54617026937440300000","-1.35523545598821000000","NaN","359.9375"
"2974","0.77302860931124100000","0.17508806151453400000","-36.38171787935170000000","-0.17508664721593100000","-0.36738022762585300000","NaN","359.9375"
"2974","0.17856979738648900000","0.83014600950124800000","-33.21245672546190000000","-1.73555625181127000000","-3.55742581781560000000","NaN","359.9375"
"2982","-7.03474935714290000000","0.96502611158553600000","-28.88891272082950000000","-1.23579840425197000000","-2.42219043851850000000","NaN","359.9375"
"2986","-4.70102784204407000000","0.99279868040052700000","-29.69255317633440000000","7.32155201499886000000","-3.84336610492036000000","NaN","359.9375"
"2990","2.91406142133601000000","0.99851720794213100000","-28.19163505718700000000","5.06479506203368000000","-3.22862155076340000000","NaN","359.9375"
"2994","0.67314889942222400000","0.99969468480651200000","-28.77631889169320000000","4.34134299839700000000","-3.06197523610271000000","NaN","359.9375"
"3002","-1.61350219594918000000","0.99993713389083800000","-27.21481370714720000000","4.10942485245200000000","-3.01680038420333000000","NaN","359.9375"
"3006","-1.14171915697198000000","0.99998705551585500000","-27.78273261133580000000","-4.36206377977648000000","3.91111685946839000000","NaN","359.9375"
"3014","-1.03273715984305000000","-0.79409706187752400000","-29.66317228249080000000","-2.07778198106872000000","1.78915200288728000000","NaN","359.9375"
"3015","-1.00756229191231000000","-0.16350903473511600000","-29.18350512657030000000","-1.34550623509993000000","2.94284285816796000000","NaN","359.9375"
"3023","-2.77074664725562000000","1.76042697006671000000","-29.05077735057190000000","-1.11075946767505000000","2.25558792925513000000","NaN","359.9375"
"3023","-2.17804266359479000000","1.15657617416211000000","-29.01405050299840000000","0.64392212106064000000","-1.38855023072309000000","NaN","359.9375"
"3031","-0.27212814275812100000","4.62042870470039000000","-29.00388788765630000000","0.20642310936077800000","-0.37641127051314200000","NaN","359.9375"
"3035","-0.83186142336075200000","3.33365535031220000000","-29.00107580991440000000","8.46331564895480000000","-0.10203840050895000000","NaN","359.9375"
"3043","-0.96115994776690800000","-2.31358168335199000000","-25.55371383797280000000","6.11024044922937000000","-0.02766079550229980000","NaN","359.9375"
"3043","-0.99102793845634800000","-0.47637943267453200000","-26.59980093826770000000","-1.36180232265727000000","-0.00749834968015733000","NaN","359.9375"
"3051","-2.76692720757255000000","5.28419399504429000000","-28.61255361113440000000","0.24287337988112200000","-0.00203266923112319000","NaN","359.9375"
"3052","-2.17716037209598000000","3.47032834297911000000","-28.16949853139240000000","-5.96042706960316000000","5.18620233813306000000","NaN","359.9375"
"3064","-0.27192433320659700000","-0.49134555178393300000","-24.60031776524500000000","-3.94902868026451000000","3.59264056962990000000","NaN","359.9375"
"3064","-0.83181434330461600000","0.69292359418613700000","-25.61269662133310000000","6.77233913807049000000","-0.29718125480408000000","NaN","359.9375"
"3072","-0.96114907226245200000","0.93677124735125000000","-32.78599772176720000000","4.20930458664975000000","0.64835723375137400000","NaN","359.9375"
"3072","-0.99102542621216500000","0.98698084552956400000","-30.77090807027900000000","5.06709709476753000000","0.90467590045952300000","NaN","359.9375"
"3080","2.54007264069200000000","0.99731928314217000000","-30.21331648916220000000","4.34208096458768000000","0.97415933206833500000","NaN","359.9375"
"3084","1.35575715581067000000","0.99944802537767100000","-30.05902639536780000000","0.75080451388833500000","-0.73592273167163500000","NaN","359.9375"
"3092","-4.22481927813088000000","0.99988634533229200000","-28.29304115665600000000","1.59954347271394000000","-0.19949556328529000000","NaN","359.9375"
"3093","-2.51393379615194000000","0.99997659786705900000","-28.80437877840640000000","-1.48723187727813000000","1.67483808726461000000","NaN","359.9375"
"3100","-2.11871883232199000000","2.79408957790540000000","-30.66916195174100000000","-0.47676422102496500000","1.18293660265041000000","NaN","359.9375"
"3105","-2.02742407923633000000","2.16350749374332000000","-30.18516251642650000000","-1.83226549781062000000","-7.59499807178256000000","NaN","359.9375"
"3113","-0.23733521301714400000","-1.55452168390126000000","-26.60465211641160000000","-1.26680063668070000000","-4.97454003589578000000","NaN","359.9375"
"3113","-0.82382424810036400000","-0.32008472542202100000","-27.61389597130650000000","0.59389976239189100000","0.92257288824344600000","NaN","359.9375"
"3121","0.80969639765799700000","-0.06590723854772450000","-34.78632959159120000000","0.19038736454593200000","-0.47882468526833300000","NaN","359.9375"
"3125","0.18704006544231700000","-0.01357066972583450000","-32.77099990133960000000","-6.65668104740537000000","-0.85871864190604500000","NaN","359.9375"
"3133","-1.72579345521954000000","1.79130011959639000000","-27.04346612857970000000","-4.85165634856893000000","-0.96170113667960400000","NaN","359.9375"
"3133","-1.16765846526491000000","1.16293312864686000000","-28.45861127614440000000","0.76526857261686300000","2.46821771306025000000","NaN","359.9375"
"3141","-1.03872914638846000000","-0.76054555235734600000","-21.95702567303130000000","-0.43410512591767300000","1.39800770799275000000","NaN","359.9375"
"3142","-1.00894644226648000000","-0.15660059092022500000","-24.15798442763110000000","0.86083824898921300000","-4.07886054801710000000","NaN","359.9375"
"3154","-1.00206663034668000000","-0.03224493917629430000","-29.93688326169980000000","0.27596024767769600000","-2.56354211953230000000","NaN","359.9375"
"3154","-1.00047739211439000000","-0.00663941365976437000","-28.53595124144090000000","0.08846500302205940000","-0.42384845912811100000","NaN","359.9375"
"3162","-2.76911003367343000000","3.58682170059515000000","-28.14830203703140000000","0.02835936271818880000","-0.84381556481773300000","NaN","359.9375"
"3162","-2.17766460545794000000","2.32673547985128000000","-28.04103637138430000000","1.68851965949138000000","4.22909218105804000000","NaN","359.9375"
"3170","1.49695894474226000000","2.06727666615197000000","-28.01135509538570000000","1.22071981116929000000","2.60426724319942000000","NaN","359.9375"
"3174","0.34579788152561100000","2.01385264254309000000","-28.00314204660090000000","-0.60867196383188400000","-8.20970061520463000000","NaN","359.9375"
"3182","-1.68912036096398000000","3.79694673325811000000","-29.72416135333030000000","-0.19512291198810400000","-5.14117496219345000000","NaN","359.9375"
"3183","-1.15918697154286000000","3.16409579804041000000","-29.20038129504010000000","1.61687760135568000000","4.33523669593216000000","NaN","359.9375"
"3191","-1.03677222927144000000","-2.34849494528565000000","-25.60886327536600000000","1.19775340588876000000","1.90412334707122000000","NaN","359.9375"
"3195","-1.00849439393492000000","-0.48356826894188900000","-26.61506123300000000000","-0.61603433986120600000","2.97400954467259000000","NaN","359.9375"
"3203","-2.77096196305029000000","1.69452498030304000000","-26.89348433427460000000","-0.19748308024844100000","2.26403666362953000000","NaN","359.9375"
"3203","-2.17809240159590000000","1.14300658519033000000","-26.97052625503700000000","-3.42216436571917000000","-1.38625992910510000000","NaN","359.9375"
"3211","1.49686012373000000000","1.02944585722298000000","-30.43842822404790000000","-2.45590542829978000000","-0.37579041048027200000","NaN","359.9375"
"3215","0.34577505384766500000","1.00606306700102000000","-29.39802470683010000000","2.89213505665656000000","1.62704768980594000000","NaN","359.9375"
"3223","0.07987412181535380000","1.00124841946969000000","-27.38684472730340000000","1.60656465890973000000","1.16998147590906000000","NaN","359.9375"
"3224","0.01845094163034880000","1.00025705656428000000","-27.83033498399410000000","-0.48498108476994700000","1.04607895479396000000","NaN","359.9375"
"3232","0.00426217201903682000","1.00005292938699000000","-34.84622001443700000000","-0.15547113575548000000","1.01249118507501000000","NaN","359.9375"
"3232","0.00098456277645906500","1.00001089845737000000","-32.78757206503650000000","-0.04983962222890560000","-0.72553164809963300000","NaN","359.9375"
"3244","-5.30677183369392000000","2.79409664058915000000","-23.60146793279790000000","-0.01597716471195500000","-0.19667872534683900000","NaN","359.9375"
"3244","-3.53286485648519000000","2.16350894798948000000","-26.05959872930320000000","-1.68455027914309000000","-3.51115167667929000000","NaN","359.9375"
"3252","2.18390735605698000000","0.23957301207188100000","-30.18636722071650000000","-1.21944734077741000000","-2.40964634189769000000","NaN","359.9375"
"3252","0.50448313216948600000","0.84342382216012400000","-29.32827739147780000000","2.28850833639455000000","-0.38213005103286700000","NaN","359.9375"
"3260","-3.42146378532115000000","4.55594888068516000000","-27.36754508184230000000","1.41305910844892000000","-0.83250644639517600000","NaN","359.9375"
"3264","-2.32835848127689000000","3.32037859323707000000","-27.82499461622450000000","1.13241499666974000000","-2.68351326289475000000","NaN","359.9375"
"3273","-2.07585088930149000000","1.27187335104182000000","-33.12145036788490000000","1.04244848009499000000","-2.18528828846531000000","NaN","359.9375"
"3273","-2.01752157393789000000","1.85007464294783000000","-31.58702245034920000000","2.69303622961989000000","4.86544278538299000000","NaN","359.9375"
"3281","-0.23504773187678200000","1.96912952888157000000","-27.71585000568570000000","2.22216769503456000000","2.77677057377107000000","NaN","359.9375"
"3285","-0.82329583939874600000","1.99364359701513000000","-28.64466532534070000000","-2.96706472298962000000","2.21056868675045000000","NaN","359.9375"
"3293","-0.95918129578149800000","1.99869118100754000000","-32.34825987303710000000","-1.63058497783022000000","2.05708142576070000000","NaN","359.9375"
"3293","-0.99057086936488500000","1.99973050683553000000","-31.37307439587510000000","-4.56100451027210000000","-3.17127959934624000000","NaN","359.9375"
"3301","-0.99782186852237800000","1.99994450984734000000","-24.21006500377620000000","-3.50041362798005000000","-1.58859528056365000000","NaN","359.9375"
"3305","-0.99949685109715800000","1.99998857426663000000","-26.22800245408000000000","1.87786699430933000000","0.56936007451689100000","NaN","359.9375"
"3313","-0.99988377248066500000","5.58818644044888000000","-30.23296589144810000000","0.60199072411554400000","0.15434338944782400000","NaN","359.9375"
"3314","-0.99997315141467100000","4.32701648743444000000","-29.34117162001600000000","0.19298109664813700000","1.77075753389921000000","NaN","359.9375"
"3322","-0.99999379797023700000","4.06733452718796000000","-30.81769686633610000000","0.06186424835404900000","1.20893865859033000000","NaN","359.9375"
"3322","-0.99999856732961100000","4.01386455645462000000","-30.22626332691350000000","0.01983191768979090000","1.05663955411850000000","NaN","359.9375"
"3330","-0.99999966905279100000","-1.37942839974356000000","-30.06260888993660000000","0.00635754849883181000","1.01535397571893000000","NaN","359.9375"
"3334","-0.99999992355111400000","0.51006235945071900000","-30.01732438549620000000","1.68146650390906000000","-2.45367338267696000000","NaN","359.9375"
"3342","-2.76899973831880000000","-0.89497530207287700000","-26.55820995006530000000","1.21845877018547000000","-1.39406499871425000000","NaN","359.9375"
"3343","-2.17763912720410000000","-0.18428042965895600000","-27.60104504879580000000","-3.96825369875966000000","2.35101156017395000000","NaN","359.9375"
"3350","-0.27203492575340100000","-0.03794437307558700000","-26.16631401924620000000","-2.63096612963008000000","1.36623520459767000000","NaN","359.9375"
"3354","-0.83183989020991500000","-0.00781295903620310000","-26.76931235599360000000","2.83601557712081000000","-0.62963793616988100000","NaN","359.9375"
"3363","-2.73015472958232000000","1.79248566449051000000","-26.93616686579150000000","1.58857435063706000000","-0.17068364562768300000","NaN","359.9375"
"3363","-2.16866592070696000000","1.16317723898372000000","-26.98233685622640000000","-0.49074826569221200000","-3.50410487292118000000","NaN","359.9375"
"3371","-0.26996211286290500000","1.03359910786458000000","-37.33486400742160000000","-0.15731992985539300000","-2.40773607873475000000","NaN","359.9375"
"3375","-0.83136106992639900000","1.00691824458072000000","-34.19949188069110000000","-3.40928920253608000000","-2.11052999886844000000","NaN","359.9375"
"3383","-2.73004412197999000000","6.38370769493242000000","-28.16203331991330000000","-2.45177801734299000000","-2.02996271678427000000","NaN","359.9375"
"3383","-2.16864037032383000000","4.49081877140754000000","-29.49141977557540000000","2.89345818716481000000","3.17863099901090000000","NaN","359.9375"
"3391","1.49904354526034000000","-1.28122085428884000000","-26.41268789711560000000","1.60698881690131000000","1.59058811425926000000","NaN","359.9375"
"3395","0.34627942475397700000","0.53028384336232100000","-27.56077792145890000000","-2.16427356655003000000","-0.56881985274695700000","NaN","359.9375"
"3404","0.07999063161778920000","2.69737720784629000000","-26.15517177990110000000","-1.37323297630769000000","-0.15419694493448900000","NaN","359.9375"
"3404","0.01847785542314230000","2.14359387482384000000","-26.76622920837830000000","3.91863749234021000000","1.68711773700910000000","NaN","359.9375"
"3412","-5.30273087882379000000","-1.55862200962203000000","-32.10518950492450000000","2.61506058566939000000","1.18626539728781000000","NaN","359.9375"
"3412","-3.53193139492411000000","-0.32092900546395700000","-30.58252293823970000000","0.51774246759961700000","1.05049323625061000000","NaN","359.9375"
"3420","2.18412298590537000000","3.52210771253216000000","-31.88448072532410000000","0.84540195763616500000","1.01368781826460000000","NaN","359.9375"
"3424","0.50453294271708300000","2.31341050708659000000","-31.24474296006460000000","-0.72898818809408200000","1.00371052407722000000","NaN","359.9375"
"3432","-5.19045203505101000000","0.27043858305801100000","-27.62113850635820000000","-0.23369286991693400000","1.00100585708120000000","NaN","359.9375"
"3433","-3.50599495461415000000","0.84977921618029300000","-28.61845788855450000000","3.28394162510557000000","-0.72864511623838200000","NaN","359.9375"
"3440","-1.34788520201100000000","0.96906869885472400000","-27.17113229263950000000","2.41159515075436000000","-0.19752273118247800000","NaN","359.9375"
"3445","-1.84936132253452000000","0.99363107177174600000","-27.77064561115560000000","-1.22691121603631000000","-1.78246268544695000000","NaN","359.9375"
"3453","1.57279708321062000000","2.79278299852544000000","-29.65982771192220000000","-0.39331282439352300000","-1.21211171698473000000","NaN","359.9375"
"3453","0.36331651001793900000","2.16323846172762000000","-29.18257965688210000000","1.55334355488546000000","-1.05749971381256000000","NaN","359.9375"
"3461","-6.99207282144287000000","2.03361171397061000000","-25.60393741831560000000","1.17738619843664000000","-1.01558714971302000000","NaN","359.9375"
"3465","-4.69116955188337000000","2.00692084024859000000","-26.61369820857120000000","1.05686496773657000000","-1.00422539905099000000","NaN","359.9375"
"3473","1.14733893279025000000","3.79551943632357000000","-30.33969102172600000000","1.01822929057717000000","-1.00114543052892000000","NaN","359.9375"
"3473","-0.50396418252860900000","3.16380190960378000000","-29.37070332551240000000","2.68527224661177000000","2.45752506656191000000","NaN","359.9375"
"3481","-4.42341511707773000000","-0.55446106202583900000","-30.82586852775510000000","2.21967878300445000000","1.39510912170863000000","NaN","359.9375"
"3485","-3.32880923938883000000","0.67992775696182000000","-30.22852449162520000000","2.07042276692355000000","-4.07964630320388000000","NaN","359.9375"
"3494","2.23104425340019000000","0.93409533164505300000","-28.33994264881470000000","2.02257553521256000000","-2.56375512378784000000","NaN","359.9375"
"3494","0.51537176695818400000","0.98642985949126000000","-28.81735680007920000000","0.32780861944477200000","-2.15282398699597000000","NaN","359.9375"
"3502","-3.41894850802790000000","0.99720583202945300000","-28.94946115149320000000","0.78451457044033200000","-2.04142786471619000000","NaN","359.9375"
"3502","-2.32777745160837000000","0.99942466515784400000","-28.98601549244920000000","-2.42793540665577000000","1.44660521512528000000","NaN","359.9375"
"3510","1.46228284065075000000","-0.79421286120357300000","-27.27283845015750000000","-1.45775545981045000000","0.39214894420685300000","NaN","359.9375"
"3514","0.33778769301875800000","-0.16353287846522600000","-27.79878852635430000000","2.21211353443358000000","1.83522239013658000000","NaN","359.9375"
"3522","-1.69097071646372000000","3.55451645704477000000","-29.66761508384940000000","1.38856910873621000000","1.22641393453128000000","NaN","359.9375"
"3522","-1.15961440411482000000","2.32008364918298000000","-29.18473448558780000000","2.80399265438185000000","-0.66754099559542600000","NaN","359.9375"
"3530","-2.80587072227838000000","2.06590701694408000000","-32.49770137145990000000","2.25773716757449000000","-0.18095849088645000000","NaN","359.9375"
"3534","-2.18615633349608000000","2.01357062409640000000","-31.41442606542910000000","-1.27623370745135000000","1.67986315788780000000","NaN","359.9375"
"3543","-0.27400240248522800000","5.59098306061536000000","-24.22150734471200000000","-0.40912421168138800000","1.18429880991944000000","NaN","359.9375"
"3543","-0.83229437781507300000","4.32759232719748000000","-26.23116864222920000000","4.90713178355599000000","-2.40787544301227000000","NaN","359.9375"
"3551","-4.49925947230853000000","-3.10892449032095000000","-33.68042584859930000000","3.61137218282538000000","-1.38164999184260000000","NaN","359.9375"
"3555","-3.34632930395480000000","-0.64014497330446200000","-31.74169548033910000000","-0.16286838416241500000","2.35437704772103000000","NaN","359.9375"
"3563","0.45799735823167200000","1.66228495950281000000","-22.58877351129720000000","0.62721748518165300000","1.36714752841244000000","NaN","359.9375"
"3564","-0.66320225446579800000","1.13636818425175000000","-25.05608608034950000000","-2.47836037633844000000","1.09952716479225000000","NaN","359.9375"
"3572","-2.69119939457422000000","2.82217336980739000000","-34.35527101336030000000","-1.47392027026016000000","1.02698004416485000000","NaN","359.9375"
"3572","-2.15966722881415000000","2.16929010386246000000","-31.92843058770780000000","5.56578846569499000000","-2.45052176230488000000","NaN","359.9375"
"3584","-0.26788341283979200000","0.24076338446062900000","-26.08702847096160000000","3.82251877319944000000","-1.39321065048674000000","NaN","359.9375"
"3584","-0.83088088971381300000","0.84366892650517700000","-27.47066532810570000000","4.94310456887396000000","-2.83551019982533000000","NaN","359.9375"
"3592","-2.72993320023371000000","-0.82628384056387700000","-33.02340459217850000000","4.30233248896412000000","-2.22649195461886000000","NaN","359.9375"
"3592","-2.16861474737337000000","-0.17013647282410100000","-31.55989239236010000000","-4.30022308065174000000","-0.33248015426263600000","NaN","359.9375"
"3604","-0.26995029181035900000","5.34725113649898000000","-25.98505097586890000000","-2.05795761259176000000","-0.81904724246389500000","NaN","359.9375"
"3604","-0.83135833926037700000","3.48331216174308000000","-27.44244733160860000000","2.01970580286182000000","4.23580643271377000000","NaN","359.9375"
"3612","-0.96104373521695800000","1.30542228578964000000","-29.56901259733050000000","1.32688866491068000000","2.60608735740225000000","NaN","359.9375"
"3613","-0.99100109332895100000","1.85698255660266000000","-29.15745038122080000000","4.46364811395666000000","-3.02245385600901000000","NaN","359.9375"
"3621","0.77107850561545000000","1.97055190701135000000","-32.49015163942580000000","3.46920393757450000000","-1.54825126858977000000","NaN","359.9375"
"3625","0.17811932295689400000","1.99393647264230000000","-31.41233699360110000000","-1.88787193298902000000","-2.87753895380920000000","NaN","359.9375"
"3633","0.04114560706798470000","1.99875148574029000000","-31.11409697630340000000","-0.60519802276809200000","-2.23788520229195000000","NaN","359.9375"
"3633","0.00950464527311675000","1.99974292391792000000","-31.03157155482920000000","3.16484764419252000000","-2.06448644726692000000","NaN","359.9375"
"3641","-3.53580393657960000000","3.79404146312989000000","-25.83886033322520000000","2.37341700926463000000","-2.01748112888504000000","NaN","359.9375"
"3645","-2.35477108411905000000","3.16349758664143000000","-27.40199520010370000000","0.44027841291491600000","1.45309674928761000000","NaN","359.9375"
"3653","-2.08195220700327000000","1.23957067270665000000","-26.11123531851880000000","0.82056918592555700000","0.39390868365851800000","NaN","359.9375"
"3654","-2.01893097981585000000","1.84342334047172000000","-26.75407163466800000000","-2.41637732285674000000","3.56461721040556000000","NaN","359.9375"
"3662","-0.23537330497851700000","0.17366559189570000000","-33.82511732974970000000","-1.45405026702701000000","2.42413989714207000000","NaN","359.9375"
"3662","-0.82337104686469300000","0.82985311503597300000","-31.78173278175110000000","-2.82498405047905000000","2.11497678227702000000","NaN","359.9375"
"3674","-4.49719818068151000000","-0.82912859356179300000","-31.21631177425060000000","-2.26446641185805000000","2.03116816067494000000","NaN","359.9375"
"3674","-3.34585314508596000000","-0.17072222340684300000","-31.05985521494270000000","1.27407650321309000000","-1.44938643840968000000","NaN","359.9375"
"3682","2.22710710702508000000","-0.03515266243535240000","-31.01656242138570000000","0.40843267338533700000","-0.39290288437185400000","NaN","359.9375"
"3682","0.51446228518478500000","-0.00723813017212790000","-31.00458295576120000000","1.81036034799534000000","-0.10650898370286000000","NaN","359.9375"
"3690","-6.95715811049651000000","1.79260402497466000000","-31.00126814087260000000","1.25977846895576000000","-0.02887269109146980000","NaN","359.9375"
"3694","-4.68310424513482000000","1.16320161007064000000","-31.00035090482140000000","-0.59615086955038800000","-1.73674465922208000000","NaN","359.9375"
"3703","1.14920202061728000000","2.82769852254364000000","-22.38363747990030000000","-0.19110900544622500000","-1.19971837322525000000","NaN","359.9375"
"3703","-0.50353380878593300000","2.17042776377085000000","-24.99932328371350000000","3.29759280034112000000","2.40369547365555000000","NaN","359.9375"
"3711","-0.88531618868113100000","2.03509203154631000000","-27.44639659445730000000","2.41597132909392000000","1.38051687649577000000","NaN","359.9375"
"3715","-0.97350801160002700000","2.00722564593233000000","-27.12352154293720000000","-1.22550833778376000000","1.10315135726770000000","NaN","359.9375"
"3723","0.77511941176352000000","0.20739340445041100000","-32.20405517951140000000","-0.39286310154432500000","1.02796249828432000000","NaN","359.9375"
"3723","0.17905277326316600000","0.83679786063358100000","-30.60987986887080000000","1.55348772323416000000","7.92325128074909000000","NaN","359.9375"
"3731","-1.72763852166200000000","-0.82769863152861100000","-26.72217483799490000000","1.17743241470695000000","5.79244142867120000000","NaN","359.9375"
"3735","-1.16808467606336000000","-0.17042778621147000000","-27.64641545752210000000","2.73630823812064000000","-5.15868994042744000000","NaN","359.9375"
"3744","-6.34582686912244000000","3.55309675690445000000","-31.34874414874640000000","2.23603946966516000000","-2.12734687554756000000","NaN","359.9375"
"3744","-4.54188657919945000000","2.31979132496885000000","-30.37320839887500000000","3.75509599229038000000","-1.30560368674088000000","NaN","359.9375"
"3752","2.95082309188700000000","2.06584682575036000000","-24.93339400714810000000","3.24206228905089000000","-1.08284372394633000000","NaN","359.9375"
"3752","0.68164085429014100000","2.01355823039234000000","-26.42815343116430000000","1.39816982728181000000","-4.48029303249202000000","NaN","359.9375"
"3764","-5.14954006425950000000","3.79688611214655000000","-26.84176543597560000000","1.80707037156140000000","-3.40128111231663000000","NaN","359.9375"
"3764","-3.49654427937791000000","3.16408331581385000000","-26.95621521817820000000","-1.42070465863633000000","-1.37986238607911000000","NaN","359.9375"
"3772","2.19229741823176000000","-0.55440311891033600000","-32.15776016822780000000","-0.45543748774463500000","-1.83189172275936000000","NaN","359.9375"
"3773","0.50642123857921600000","0.67993968777398400000","-30.59706966535430000000","3.21285661032053000000","-1.95442883604796000000","NaN","359.9375"
"3780","-5.19001583824607000000","0.93409778826613100000","-30.16521399854140000000","2.38880731772152000000","-1.98764646799056000000","NaN","359.9375"
"3784","-3.50589419304577000000","0.98643036532330600000","-30.04571604772090000000","-4.59307325641000000000","4.91901996761621000000","NaN","359.9375"
"3793","0.42113782991439700000","-0.79688846035259900000","-28.28935807596320000000","-2.83126550072042000000","2.79129439493987000000","NaN","359.9375"
"3793","-0.67171681450160600000","-0.16408379932263500000","-28.80335964023290000000","-2.26648006606826000000","-2.97224752226247000000","NaN","359.9375"
"3801","-0.92416650404171900000","5.34849741588887000000","-28.94558802431800000000","-2.08542592655439000000","-1.53464122449112000000","NaN","359.9375"
"3805","-0.98248244392863500000","3.48356877765294000000","-28.98494376687910000000","4.69032869777263000000","0.58398605948037800000","NaN","359.9375"
"3813","-0.99595344027285400000","-2.28271366862799000000","-25.54924997137710000000","2.86244282784076000000","0.15830823383069200000","NaN","359.9375"
"3813","-0.99906524371558200000","-0.47002353547504300000","-26.59856575032890000000","-7.80009609857764000000","1.77183233269188000000","NaN","359.9375"
"3821","-0.99978407107019900000","5.28550270989270000000","-35.50537951929410000000","-5.21820267837062000000","1.20923001742643000000","NaN","359.9375"
"3825","-0.99995012036452500000","3.47059781469974000000","-32.96996682362710000000","4.00662115879708000000","-5.85895260849407000000","NaN","359.9375"
"3833","-2.76898823377054000000","-0.49129006604668100000","-28.82181380656080000000","1.96383719081823000000","-3.77501120225209000000","NaN","359.9375"
"3834","-2.17763646965065000000","0.69293501901034900000","-29.67398636484260000000","-0.37044967714526100000","-4.93900953862691000000","NaN","359.9375"
"3842","-0.27203431185790400000","2.73086799632228000000","-24.73991362317620000000","-0.11875562543505100000","-4.25454878450775000000","NaN","359.9375"
"3842","-0.83183974839990500000","2.15048981583548000000","-26.37461584630580000000","-3.39692658387706000000","4.57558528298982000000","NaN","359.9375"
"3850","-0.96115494084566300000","-1.55720209672657000000","-28.55024307751710000000","-2.44781491357629000000","1.96927757413386000000","NaN","359.9375"
"3854","-0.99102678185631900000","-0.32063663744235100000","-28.15225670349940000000","-2.14355671882538000000","4.72058948298570000000","NaN","359.9375"
"3863","-2.76692694039766000000","1.72807351621037000000","-31.48871450685440000000","-2.04602019918303000000","3.46642120608408000000","NaN","359.9375"
"3863","-2.17716031037851000000","1.14991441672167000000","-30.41193932741180000000","1.34410414316152000000","-2.06031486550088000000","NaN","359.9375"
"3870","-3.80992383090687000000","2.82496261497878000000","-31.83727886251670000000","0.43088154213291500000","-0.55851471485942800000","NaN","359.9375"
"3875","-3.18709260257831000000","2.16986442507269000000","-31.23168182340750000000","-3.22072854775004000000","5.03534995326570000000","NaN","359.9375"
"3883","-3.04321843685020000000","0.24088164041600300000","-25.89423246069950000000","-2.39133083686731000000","3.55174717118346000000","NaN","359.9375"
"3883","-3.00998346945862000000","0.84369327606903100000","-27.41731711498000000000","-2.12544953107349000000","4.87848663082352000000","NaN","359.9375"
"3891","-1.23330642790261000000","0.96781556968346700000","-27.83876693976960000000","-2.04021555002550000000","4.23814210067495000000","NaN","359.9375"
"3895","-1.82289359775580000000","0.99337304545352000000","-27.95538551006120000000","-3.69232041577711000000","2.33563830164658000000","NaN","359.9375"
"3903","-1.95908837786382000000","2.79272986946068000000","-29.71094673397170000000","-3.22193822548488000000","2.81990336004823000000","NaN","359.9375"
"3904","-1.99054940530323000000","2.16322752215547000000","-29.19672470313780000000","-4.75057553465375000000","-3.96449214066645000000","NaN","359.9375"
"3912","-1.99781691031890000000","2.03360946145140000000","-29.05443531417390000000","-4.24061315896114000000","-1.80362109227650000000","NaN","359.9375"
"3915","-1.99949570575094000000","2.00692037644226000000","-29.01506269107010000000","-0.71827682264681400000","2.23998818765693000000","NaN","359.9375"
"3924","-3.76888326388392000000","2.00142494428754000000","-30.72745989193010000000","-1.58911602046965000000","1.33613874299252000000","NaN","359.9375"
