Timer,AX,AY,AZ,GX,GY,GZ
"1003","-2.12812812812813","2.87187187187187","-26.1281281281281","2.3003003003003","0.8998998998999","0.830830830830831"
"1005","-2.12812812812813","2.87187187187187","-26.1281281281281","0.3003003003003","-0.1001001001001","1.83083083083083"
"1012","-2.12812812812813","2.87187187187187","-26.1281281281281","0.3003003003003","-0.1001001001001","1.83083083083083"
"1012","-2.12812812812813","2.87187187187187","-26.1281281281281","0.3003003003003","-0.1001001001001","1.83083083083083"
"1024","-0.128128128128128","4.87187187187187","-23.1281281281281","0.3003003003003","-0.1001001001001","1.83083083083083"
"1024","-0.128128128128128","4.87187187187187","-23.1281281281281","-0.6996996996997","0.8998998998999","-0.169169169169169"
"1036","-1.12812812812813","4.87187187187187","-26.1281281281281","-0.6996996996997","0.8998998998999","-0.169169169169169"
"1036","-1.12812812812813","4.87187187187187","-26.1281281281281","-0.6996996996997","0.8998998998999","-0.169169169169169"
"1044","-2.12812812812813","3.87187187187187","-22.1281281281281","-0.6996996996997","0.8998998998999","-0.169169169169169"
"1044","-2.12812812812813","3.87187187187187","-22.1281281281281","-0.6996996996997","-2.1001001001001","-3.16916916916917"
"1052","-1.12812812812813","3.87187187187187","-27.1281281281281","-0.6996996996997","-2.1001001001001","-3.16916916916917"
"1057","-1.12812812812813","3.87187187187187","-27.1281281281281","-0.6996996996997","0.8998998998999","-1.16916916916917"
"1065","-1.12812812812813","3.87187187187187","-27.1281281281281","-0.6996996996997","0.8998998998999","-1.16916916916917"
"1065","-1.12812812812813","3.87187187187187","-27.1281281281281","-0.6996996996997","0.8998998998999","-1.16916916916917"
"1073","-1.12812812812813","4.87187187187187","-25.1281281281281","-0.6996996996997","0.8998998998999","-1.16916916916917"
"1077","-1.12812812812813","4.87187187187187","-25.1281281281281","1.3003003003003","-0.1001001001001","0.830830830830831"
"1085","0.871871871871872","3.87187187187187","-27.1281281281281","1.3003003003003","-0.1001001001001","0.830830830830831"
"1085","0.871871871871872","3.87187187187187","-27.1281281281281","-0.6996996996997","0.8998998998999","-0.169169169169169"
"1093","-1.12812812812813","4.87187187187187","-29.1281281281281","-0.6996996996997","0.8998998998999","-0.169169169169169"
"1094","-1.12812812812813","4.87187187187187","-29.1281281281281","0.3003003003003","-0.1001001001001","0.830830830830831"
"1106","-1.12812812812813","5.87187187187187","-28.1281281281281","0.3003003003003","-0.1001001001001","0.830830830830831"
"1106","-1.12812812812813","5.87187187187187","-28.1281281281281","0.3003003003003","-2.1001001001001","1.83083083083083"
"1110","-1.12812812812813","5.87187187187187","-28.1281281281281","0.3003003003003","-2.1001001001001","1.83083083083083"
"1114","-1.12812812812813","5.87187187187187","-28.1281281281281","0.3003003003003","-2.1001001001001","1.83083083083083"
"1126","-3.12812812812813","3.87187187187187","-26.1281281281281","0.3003003003003","-2.1001001001001","1.83083083083083"
"1126","-3.12812812812813","3.87187187187187","-26.1281281281281","-1.6996996996997","-0.1001001001001","0.830830830830831"
"1134","-1.12812812812813","5.87187187187187","-29.1281281281281","-1.6996996996997","-0.1001001001001","0.830830830830831"
"1135","-1.12812812812813","5.87187187187187","-29.1281281281281","0.3003003003003","-0.1001001001001","0.830830830830831"
"1142","0.871871871871872","3.87187187187187","-25.1281281281281","0.3003003003003","-0.1001001001001","0.830830830830831"
"1146","0.871871871871872","3.87187187187187","-25.1281281281281","2.3003003003003","-0.1001001001001","-0.169169169169169"
"1155","-1.12812812812813","4.87187187187187","-27.1281281281281","2.3003003003003","-0.1001001001001","-0.169169169169169"
"1155","-1.12812812812813","4.87187187187187","-27.1281281281281","-0.6996996996997","0.8998998998999","0.830830830830831"
"1163","-1.12812812812813","4.87187187187187","-27.1281281281281","-0.6996996996997","0.8998998998999","0.830830830830831"
"1163","-1.12812812812813","4.87187187187187","-27.1281281281281","-2.6996996996997","-1.1001001001001","-1.16916916916917"
"1175","-0.128128128128128","3.87187187187187","-24.1281281281281","-2.6996996996997","-1.1001001001001","-1.16916916916917"
"1176","-0.128128128128128","3.87187187187187","-24.1281281281281","-0.6996996996997","-0.1001001001001","0.830830830830831"
"1184","-0.128128128128128","3.87187187187187","-28.1281281281281","-0.6996996996997","-0.1001001001001","0.830830830830831"
"1184","-0.128128128128128","3.87187187187187","-28.1281281281281","-0.6996996996997","-0.1001001001001","0.830830830830831"
"1196","-1.12812812812813","5.87187187187187","-26.1281281281281","-0.6996996996997","-0.1001001001001","0.830830830830831"
"1196","-1.12812812812813","5.87187187187187","-26.1281281281281","2.3003003003003","0.8998998998999","-1.16916916916917"
"1204","-0.128128128128128","4.87187187187187","-23.1281281281281","2.3003003003003","0.8998998998999","-1.16916916916917"
"1204","-0.128128128128128","4.87187187187187","-23.1281281281281","2.3003003003003","0.8998998998999","0.830830830830831"
"1212","-0.128128128128128","4.87187187187187","-23.1281281281281","2.3003003003003","0.8998998998999","0.830830830830831"
"1212","-0.128128128128128","4.87187187187187","-23.1281281281281","1.3003003003003","-1.1001001001001","-2.16916916916917"
"1225","0.871871871871872","4.87187187187187","-26.1281281281281","1.3003003003003","-1.1001001001001","-2.16916916916917"
"1225","0.871871871871872","4.87187187187187","-26.1281281281281","1.3003003003003","0.8998998998999","-1.16916916916917"
"1233","-0.128128128128128","5.87187187187187","-26.1281281281281","1.3003003003003","0.8998998998999","-1.16916916916917"
"1237","-0.128128128128128","5.87187187187187","-26.1281281281281","-0.6996996996997","0.8998998998999","0.830830830830831"
"1245","0.871871871871872","4.87187187187187","-26.1281281281281","-0.6996996996997","0.8998998998999","0.830830830830831"
"1245","0.871871871871872","4.87187187187187","-26.1281281281281","0.3003003003003","1.8998998998999","1.83083083083083"
"1253","-1.12812812812813","2.87187187187187","-25.1281281281281","0.3003003003003","1.8998998998999","1.83083083083083"
"1257","-1.12812812812813","2.87187187187187","-25.1281281281281","-1.6996996996997","0.8998998998999","-1.16916916916917"
"1261","-1.12812812812813","2.87187187187187","-25.1281281281281","-1.6996996996997","0.8998998998999","-1.16916916916917"
"1262","-1.12812812812813","2.87187187187187","-25.1281281281281","-4.6996996996997","-0.1001001001001","-0.169169169169169"
"1274","-0.128128128128128","4.87187187187187","-25.1281281281281","-4.6996996996997","-0.1001001001001","-0.169169169169169"
"1274","-0.128128128128128","4.87187187187187","-25.1281281281281","-0.6996996996997","-0.1001001001001","0.830830830830831"
"1286","-0.128128128128128","2.87187187187187","-27.1281281281281","-0.6996996996997","-0.1001001001001","0.830830830830831"
"1286","-0.128128128128128","2.87187187187187","-27.1281281281281","2.3003003003003","0.8998998998999","1.83083083083083"
"1294","-1.12812812812813","5.87187187187187","-26.1281281281281","2.3003003003003","0.8998998998999","1.83083083083083"
"1294","-1.12812812812813","5.87187187187187","-26.1281281281281","-1.6996996996997","-0.1001001001001","-1.16916916916917"
"1306","-0.128128128128128","4.87187187187187","-25.1281281281281","-1.6996996996997","-0.1001001001001","-1.16916916916917"
"1307","-0.128128128128128","4.87187187187187","-25.1281281281281","0.3003003003003","-1.1001001001001","-0.169169169169169"
"1310","-0.128128128128128","4.87187187187187","-25.1281281281281","0.3003003003003","-1.1001001001001","-0.169169169169169"
"1314","-0.128128128128128","4.87187187187187","-25.1281281281281","4.3003003003003","-1.1001001001001","0.830830830830831"
"1323","-0.128128128128128","4.87187187187187","-27.1281281281281","4.3003003003003","-1.1001001001001","0.830830830830831"
"1327","-0.128128128128128","4.87187187187187","-27.1281281281281","0.3003003003003","-0.1001001001001","1.83083083083083"
"1335","-0.128128128128128","5.87187187187187","-26.1281281281281","0.3003003003003","-0.1001001001001","1.83083083083083"
"1335","-0.128128128128128","5.87187187187187","-26.1281281281281","0.3003003003003","-3.1001001001001","0.830830830830831"
"1343","0.871871871871872","1.87187187187187","-26.1281281281281","0.3003003003003","-3.1001001001001","0.830830830830831"
"1347","0.871871871871872","1.87187187187187","-26.1281281281281","1.3003003003003","-0.1001001001001","-1.16916916916917"
"1356","-0.128128128128128","3.87187187187187","-24.1281281281281","1.3003003003003","-0.1001001001001","-1.16916916916917"
"1356","-0.128128128128128","3.87187187187187","-24.1281281281281","1.3003003003003","-2.1001001001001","-0.169169169169169"
"1364","-0.128128128128128","3.87187187187187","-24.1281281281281","1.3003003003003","-2.1001001001001","-0.169169169169169"
"1364","-0.128128128128128","3.87187187187187","-24.1281281281281","-0.6996996996997","-3.1001001001001","-1.16916916916917"
"1376","-0.128128128128128","3.87187187187187","-28.1281281281281","-0.6996996996997","-3.1001001001001","-1.16916916916917"
"1376","-0.128128128128128","3.87187187187187","-28.1281281281281","-0.6996996996997","-1.1001001001001","-1.16916916916917"
"1384","-1.12812812812813","3.87187187187187","-26.1281281281281","-0.6996996996997","-1.1001001001001","-1.16916916916917"
"1384","-1.12812812812813","3.87187187187187","-26.1281281281281","1.3003003003003","1.8998998998999","0.830830830830831"
"1396","-0.128128128128128","4.87187187187187","-27.1281281281281","1.3003003003003","1.8998998998999","0.830830830830831"
"1397","-0.128128128128128","4.87187187187187","-27.1281281281281","-2.6996996996997","-1.1001001001001","-0.169169169169169"
"1405","-2.12812812812813","10.8718718718719","-26.1281281281281","-2.6996996996997","-1.1001001001001","-0.169169169169169"
"1405","-2.12812812812813","10.8718718718719","-26.1281281281281","-1.6996996996997","-0.1001001001001","-0.169169169169169"
"1413","-2.12812812812813","10.8718718718719","-26.1281281281281","-1.6996996996997","-0.1001001001001","-0.169169169169169"
"1413","-2.12812812812813","10.8718718718719","-26.1281281281281","1.3003003003003","2.8998998998999","2.83083083083083"
"1425","-0.128128128128128","3.87187187187187","-26.1281281281281","1.3003003003003","2.8998998998999","2.83083083083083"
"1425","-0.128128128128128","3.87187187187187","-26.1281281281281","-2.6996996996997","0.8998998998999","-0.169169169169169"
"1433","-0.128128128128128","7.87187187187187","-28.1281281281281","-2.6996996996997","0.8998998998999","-0.169169169169169"
"1437","-0.128128128128128","7.87187187187187","-28.1281281281281","-1.6996996996997","-1.1001001001001","0.830830830830831"
"1446","0.871871871871872","5.87187187187187","-27.1281281281281","-1.6996996996997","-1.1001001001001","0.830830830830831"
"1446","0.871871871871872","5.87187187187187","-27.1281281281281","0.3003003003003","-2.1001001001001","-1.16916916916917"
"1454","-1.12812812812813","4.87187187187187","-26.1281281281281","0.3003003003003","-2.1001001001001","-1.16916916916917"
"1458","-1.12812812812813","4.87187187187187","-26.1281281281281","0.3003003003003","-0.1001001001001","-0.169169169169169"
"1462","-1.12812812812813","4.87187187187187","-26.1281281281281","0.3003003003003","-0.1001001001001","-0.169169169169169"
"1462","-1.12812812812813","4.87187187187187","-26.1281281281281","-0.6996996996997","-0.1001001001001","-0.169169169169169"
"1474","-0.128128128128128","7.87187187187187","-25.1281281281281","-0.6996996996997","-0.1001001001001","-0.169169169169169"
"1475","-0.128128128128128","7.87187187187187","-25.1281281281281","0.3003003003003","-0.1001001001001","-0.169169169169169"
"1487","-0.128128128128128","3.87187187187187","-26.1281281281281","0.3003003003003","-0.1001001001001","-0.169169169169169"
"1487","-0.128128128128128","3.87187187187187","-26.1281281281281","2.3003003003003","-1.1001001001001","-1.16916916916917"
"1495","-0.128128128128128","3.87187187187187","-25.1281281281281","2.3003003003003","-1.1001001001001","-1.16916916916917"
"1495","-0.128128128128128","3.87187187187187","-25.1281281281281","0.3003003003003","-1.1001001001001","-2.16916916916917"
"1507","-0.128128128128128","5.87187187187187","-26.1281281281281","0.3003003003003","-1.1001001001001","-2.16916916916917"
"1507","-0.128128128128128","5.87187187187187","-26.1281281281281","-1.6996996996997","0.8998998998999","0.830830830830831"
"1511","-0.128128128128128","5.87187187187187","-26.1281281281281","-1.6996996996997","0.8998998998999","0.830830830830831"
"1515","-0.128128128128128","5.87187187187187","-26.1281281281281","-3.6996996996997","-0.1001001001001","0.830830830830831"
"1524","0.871871871871872","4.87187187187187","-23.1281281281281","-3.6996996996997","-0.1001001001001","0.830830830830831"
"1528","0.871871871871872","4.87187187187187","-23.1281281281281","-0.6996996996997","-2.1001001001001","-1.16916916916917"
"1536","-0.128128128128128","4.87187187187187","-29.1281281281281","-0.6996996996997","-2.1001001001001","-1.16916916916917"
"1536","-0.128128128128128","4.87187187187187","-29.1281281281281","1.3003003003003","1.8998998998999","-0.169169169169169"
"1544","-1.12812812812813","2.87187187187187","-26.1281281281281","1.3003003003003","1.8998998998999","-0.169169169169169"
"1548","-1.12812812812813","2.87187187187187","-26.1281281281281","-1.6996996996997","-0.1001001001001","-1.16916916916917"
"1556","-2.12812812812813","3.87187187187187","-23.1281281281281","-1.6996996996997","-0.1001001001001","-1.16916916916917"
"1556","-2.12812812812813","3.87187187187187","-23.1281281281281","-2.6996996996997","0.8998998998999","-0.169169169169169"
"1564","-2.12812812812813","3.87187187187187","-23.1281281281281","-2.6996996996997","0.8998998998999","-0.169169169169169"
"1564","-2.12812812812813","3.87187187187187","-23.1281281281281","-0.6996996996997","-1.1001001001001","0.830830830830831"
"1577","1.87187187187187","7.87187187187187","-26.1281281281281","-0.6996996996997","-1.1001001001001","0.830830830830831"
"1577","1.87187187187187","7.87187187187187","-26.1281281281281","0.3003003003003","0.8998998998999","0.830830830830831"
"1585","-1.12812812812813","3.87187187187187","-26.1281281281281","0.3003003003003","0.8998998998999","0.830830830830831"
"1585","-1.12812812812813","3.87187187187187","-26.1281281281281","0.3003003003003","0.8998998998999","0.830830830830831"
"1597","-1.12812812812813","4.87187187187187","-27.1281281281281","0.3003003003003","0.8998998998999","0.830830830830831"
"1597","-1.12812812812813","4.87187187187187","-27.1281281281281","-0.6996996996997","2.8998998998999","1.83083083083083"
"1605","-0.128128128128128","7.87187187187187","-28.1281281281281","-0.6996996996997","2.8998998998999","1.83083083083083"
"1606","-0.128128128128128","7.87187187187187","-28.1281281281281","-2.6996996996997","0.8998998998999","-1.16916916916917"
"1614","-0.128128128128128","7.87187187187187","-28.1281281281281","-2.6996996996997","0.8998998998999","-1.16916916916917"
"1614","-0.128128128128128","7.87187187187187","-28.1281281281281","1.3003003003003","0.8998998998999","-0.169169169169169"
"1626","-0.128128128128128","4.87187187187187","-26.1281281281281","1.3003003003003","0.8998998998999","-0.169169169169169"
"1626","-0.128128128128128","4.87187187187187","-26.1281281281281","0.3003003003003","-0.1001001001001","0.830830830830831"
"1634","-0.128128128128128","5.87187187187187","-29.1281281281281","0.3003003003003","-0.1001001001001","0.830830830830831"
"1638","-0.128128128128128","5.87187187187187","-29.1281281281281","-1.6996996996997","1.8998998998999","0.830830830830831"
"1646","-1.12812812812813","3.87187187187187","-26.1281281281281","-1.6996996996997","1.8998998998999","0.830830830830831"
"1647","-1.12812812812813","3.87187187187187","-26.1281281281281","0.3003003003003","-0.1001001001001","-0.169169169169169"
"1655","-1.12812812812813","1.87187187187187","-26.1281281281281","0.3003003003003","-0.1001001001001","-0.169169169169169"
"1658","-1.12812812812813","1.87187187187187","-26.1281281281281","-2.6996996996997","1.8998998998999","-2.16916916916917"
"1663","-1.12812812812813","1.87187187187187","-26.1281281281281","-2.6996996996997","1.8998998998999","-2.16916916916917"
"1663","-1.12812812812813","1.87187187187187","-26.1281281281281","-0.6996996996997","2.8998998998999","1.83083083083083"
"1675","0.871871871871872","4.87187187187187","-22.1281281281281","-0.6996996996997","2.8998998998999","1.83083083083083"
"1675","0.871871871871872","4.87187187187187","-22.1281281281281","0.3003003003003","-1.1001001001001","0.830830830830831"
"1687","-1.12812812812813","4.87187187187187","-31.1281281281281","0.3003003003003","-1.1001001001001","0.830830830830831"
"1687","-1.12812812812813","4.87187187187187","-31.1281281281281","1.3003003003003","-0.1001001001001","0.830830830830831"
"1696","-2.12812812812813","3.87187187187187","-24.1281281281281","1.3003003003003","-0.1001001001001","0.830830830830831"
"1696","-2.12812812812813","3.87187187187187","-24.1281281281281","1.3003003003003","-0.1001001001001","0.830830830830831"
"1708","-2.12812812812813","5.87187187187187","-25.1281281281281","1.3003003003003","-0.1001001001001","0.830830830830831"
"1708","-2.12812812812813","5.87187187187187","-25.1281281281281","-2.6996996996997","0.8998998998999","-2.16916916916917"
"1712","-2.12812812812813","5.87187187187187","-25.1281281281281","-2.6996996996997","0.8998998998999","-2.16916916916917"
"1716","-2.12812812812813","5.87187187187187","-25.1281281281281","1.3003003003003","-1.1001001001001","1.83083083083083"
"1724","-3.12812812812813","3.87187187187187","-29.1281281281281","1.3003003003003","-1.1001001001001","1.83083083083083"
"1728","-3.12812812812813","3.87187187187187","-29.1281281281281","0.3003003003003","1.8998998998999","-0.169169169169169"
"1737","-2.12812812812813","5.87187187187187","-27.1281281281281","0.3003003003003","1.8998998998999","-0.169169169169169"
"1737","-2.12812812812813","5.87187187187187","-27.1281281281281","-4.6996996996997","-1.1001001001001","-0.169169169169169"
"1745","-0.128128128128128","6.87187187187187","-26.1281281281281","-4.6996996996997","-1.1001001001001","-0.169169169169169"
"1749","-0.128128128128128","6.87187187187187","-26.1281281281281","-3.6996996996997","-0.1001001001001","-1.16916916916917"
"1757","-3.12812812812813","3.87187187187187","-24.1281281281281","-3.6996996996997","-0.1001001001001","-1.16916916916917"
"1757","-3.12812812812813","3.87187187187187","-24.1281281281281","-0.6996996996997","-0.1001001001001","0.830830830830831"
"1765","-3.12812812812813","3.87187187187187","-24.1281281281281","-0.6996996996997","-0.1001001001001","0.830830830830831"
"1765","-3.12812812812813","3.87187187187187","-24.1281281281281","1.3003003003003","-2.1001001001001","-0.169169169169169"
"1777","-2.12812812812813","6.87187187187187","-27.1281281281281","1.3003003003003","-2.1001001001001","-0.169169169169169"
"1778","-2.12812812812813","6.87187187187187","-27.1281281281281","1.3003003003003","-1.1001001001001","0.830830830830831"
"1786","-0.128128128128128","4.87187187187187","-26.1281281281281","1.3003003003003","-1.1001001001001","0.830830830830831"
"1786","-0.128128128128128","4.87187187187187","-26.1281281281281","-0.6996996996997","-0.1001001001001","-0.169169169169169"
"1798","-1.12812812812813","2.87187187187187","-26.1281281281281","-0.6996996996997","-0.1001001001001","-0.169169169169169"
"1798","-1.12812812812813","2.87187187187187","-26.1281281281281","0.3003003003003","-1.1001001001001","-2.16916916916917"
"1806","-1.12812812812813","4.87187187187187","-28.1281281281281","0.3003003003003","-1.1001001001001","-2.16916916916917"
"1806","-1.12812812812813","4.87187187187187","-28.1281281281281","-2.6996996996997","-2.1001001001001","-0.169169169169169"
"1814","-1.12812812812813","4.87187187187187","-28.1281281281281","-2.6996996996997","-2.1001001001001","-0.169169169169169"
"1815","-1.12812812812813","4.87187187187187","-28.1281281281281","0.3003003003003","-1.1001001001001","1.83083083083083"
"1827","0.871871871871872","3.87187187187187","-26.1281281281281","0.3003003003003","-1.1001001001001","1.83083083083083"
"1827","0.871871871871872","3.87187187187187","-26.1281281281281","2.3003003003003","-1.1001001001001","-0.169169169169169"
"1835","-1.12812812812813","3.87187187187187","-27.1281281281281","2.3003003003003","-1.1001001001001","-0.169169169169169"
"1839","-1.12812812812813","3.87187187187187","-27.1281281281281","2.3003003003003","-1.1001001001001","-1.16916916916917"
"1847","0.871871871871872","8.87187187187187","-28.1281281281281","2.3003003003003","-1.1001001001001","-1.16916916916917"
"1847","0.871871871871872","8.87187187187187","-28.1281281281281","1.3003003003003","-0.1001001001001","-1.16916916916917"
"1855","-0.128128128128128","3.87187187187187","-25.1281281281281","1.3003003003003","-0.1001001001001","-1.16916916916917"
"1855","-0.128128128128128","3.87187187187187","-25.1281281281281","3.3003003003003","-2.1001001001001","-0.169169169169169"
"1863","-0.128128128128128","3.87187187187187","-25.1281281281281","3.3003003003003","-2.1001001001001","-0.169169169169169"
"1864","-0.128128128128128","3.87187187187187","-25.1281281281281","-0.6996996996997","-0.1001001001001","0.830830830830831"
"1876","0.871871871871872","5.87187187187187","-25.1281281281281","-0.6996996996997","-0.1001001001001","0.830830830830831"
"1876","0.871871871871872","5.87187187187187","-25.1281281281281","0.3003003003003","-0.1001001001001","-0.169169169169169"
"1888","-0.128128128128128","4.87187187187187","-27.1281281281281","0.3003003003003","-0.1001001001001","-0.169169169169169"
"1888","-0.128128128128128","4.87187187187187","-27.1281281281281","1.3003003003003","-1.1001001001001","-0.169169169169169"
"1896","-1.12812812812813","2.87187187187187","-26.1281281281281","1.3003003003003","-1.1001001001001","-0.169169169169169"
"1896","-1.12812812812813","2.87187187187187","-26.1281281281281","-0.6996996996997","-4.1001001001001","1.83083083083083"
"1908","-0.128128128128128","5.87187187187187","-26.1281281281281","-0.6996996996997","-4.1001001001001","1.83083083083083"
"1908","-0.128128128128128","5.87187187187187","-26.1281281281281","0.3003003003003","-0.1001001001001","0.830830830830831"
"1913","-0.128128128128128","5.87187187187187","-26.1281281281281","0.3003003003003","-0.1001001001001","0.830830830830831"
"1913","-0.128128128128128","5.87187187187187","-26.1281281281281","1.3003003003003","-2.1001001001001","0.830830830830831"
"1925","0.871871871871872","2.87187187187187","-25.1281281281281","1.3003003003003","-2.1001001001001","0.830830830830831"
"1929","0.871871871871872","2.87187187187187","-25.1281281281281","3.3003003003003","-0.1001001001001","-1.16916916916917"
"1937","0.871871871871872","5.87187187187187","-26.1281281281281","3.3003003003003","-0.1001001001001","-1.16916916916917"
"1937","0.871871871871872","5.87187187187187","-26.1281281281281","2.3003003003003","-2.1001001001001","0.830830830830831"
"1945","-1.12812812812813","6.87187187187187","-30.1281281281281","2.3003003003003","-2.1001001001001","0.830830830830831"
"1946","-1.12812812812813","6.87187187187187","-30.1281281281281","0.3003003003003","-4.1001001001001","-0.169169169169169"
"1958","0.871871871871872","2.87187187187187","-23.1281281281281","0.3003003003003","-4.1001001001001","-0.169169169169169"
"1958","0.871871871871872","2.87187187187187","-23.1281281281281","3.3003003003003","-3.1001001001001","-0.169169169169169"
"1966","0.871871871871872","2.87187187187187","-23.1281281281281","3.3003003003003","-3.1001001001001","-0.169169169169169"
"1966","0.871871871871872","2.87187187187187","-23.1281281281281","4.3003003003003","-1.1001001001001","-0.169169169169169"
"1978","-2.12812812812813","5.87187187187187","-28.1281281281281","4.3003003003003","-1.1001001001001","-0.169169169169169"
"1978","-2.12812812812813","5.87187187187187","-28.1281281281281","-0.6996996996997","-4.1001001001001","0.830830830830831"
"1986","-0.128128128128128","3.87187187187187","-24.1281281281281","-0.6996996996997","-4.1001001001001","0.830830830830831"
"1987","-0.128128128128128","3.87187187187187","-24.1281281281281","2.3003003003003","-1.1001001001001","-1.16916916916917"
"1994","0.871871871871872","3.87187187187187","-26.1281281281281","2.3003003003003","-1.1001001001001","-1.16916916916917"
"1999","0.871871871871872","3.87187187187187","-26.1281281281281","0.3003003003003","-2.1001001001001","-0.169169169169169"
"2007","0.871871871871872","5.87187187187187","-26.1281281281281","0.3003003003003","-2.1001001001001","-0.169169169169169"
"2007","0.871871871871872","5.87187187187187","-26.1281281281281","-2.6996996996997","-2.1001001001001","0.830830830830831"
"2015","0.871871871871872","5.87187187187187","-26.1281281281281","-2.6996996996997","-2.1001001001001","0.830830830830831"
"2015","0.871871871871872","5.87187187187187","-26.1281281281281","0.3003003003003","-3.1001001001001","-1.16916916916917"
"2027","-0.128128128128128","4.87187187187187","-26.1281281281281","0.3003003003003","-3.1001001001001","-1.16916916916917"
"2028","-0.128128128128128","4.87187187187187","-26.1281281281281","2.3003003003003","-3.1001001001001","0.830830830830831"
"2036","-1.12812812812813","4.87187187187187","-29.1281281281281","2.3003003003003","-3.1001001001001","0.830830830830831"
"2039","-1.12812812812813","4.87187187187187","-29.1281281281281","0.3003003003003","0.8998998998999","-1.16916916916917"
"2048","-2.12812812812813","4.87187187187187","-26.1281281281281","0.3003003003003","0.8998998998999","-1.16916916916917"
"2048","-2.12812812812813","4.87187187187187","-26.1281281281281","-0.6996996996997","0.8998998998999","-1.16916916916917"
"2056","-0.128128128128128","6.87187187187187","-26.1281281281281","-0.6996996996997","0.8998998998999","-1.16916916916917"
"2056","-0.128128128128128","6.87187187187187","-26.1281281281281","0.3003003003003","0.8998998998999","-1.16916916916917"
"2064","-0.128128128128128","6.87187187187187","-26.1281281281281","0.3003003003003","0.8998998998999","-1.16916916916917"
"2064","-0.128128128128128","6.87187187187187","-26.1281281281281","4.3003003003003","-3.1001001001001","-0.169169169169169"
"2076","-1.12812812812813","1.87187187187187","-23.1281281281281","4.3003003003003","-3.1001001001001","-0.169169169169169"
"2076","-1.12812812812813","1.87187187187187","-23.1281281281281","2.3003003003003","-2.1001001001001","1.83083083083083"
"2084","0.871871871871872","7.87187187187187","-28.1281281281281","2.3003003003003","-2.1001001001001","1.83083083083083"
"2088","0.871871871871872","7.87187187187187","-28.1281281281281","0.3003003003003","0.8998998998999","-0.169169169169169"
"2096","0.871871871871872","7.87187187187187","-28.1281281281281","0.3003003003003","0.8998998998999","-0.169169169169169"
"2096","0.871871871871872","7.87187187187187","-28.1281281281281","3.3003003003003","-1.1001001001001","-0.169169169169169"
"2104","-2.12812812812813","3.87187187187187","-24.1281281281281","3.3003003003003","-1.1001001001001","-0.169169169169169"
"2108","-2.12812812812813","3.87187187187187","-24.1281281281281","5.3003003003003","-2.1001001001001","-1.16916916916917"
"2112","-2.12812812812813","3.87187187187187","-24.1281281281281","5.3003003003003","-2.1001001001001","-1.16916916916917"
"2113","-2.12812812812813","3.87187187187187","-24.1281281281281","0.3003003003003","-1.1001001001001","0.830830830830831"
"2125","-0.128128128128128","4.87187187187187","-26.1281281281281","0.3003003003003","-1.1001001001001","0.830830830830831"
"2125","-0.128128128128128","4.87187187187187","-26.1281281281281","0.3003003003003","-3.1001001001001","-0.169169169169169"
"2137","-0.128128128128128","4.87187187187187","-26.1281281281281","0.3003003003003","-3.1001001001001","-0.169169169169169"
"2137","-0.128128128128128","4.87187187187187","-26.1281281281281","3.3003003003003","-2.1001001001001","1.83083083083083"
"2145","-1.12812812812813","2.87187187187187","-27.1281281281281","3.3003003003003","-2.1001001001001","1.83083083083083"
"2145","-1.12812812812813","2.87187187187187","-27.1281281281281","-1.6996996996997","-2.1001001001001","0.830830830830831"
"2157","-1.12812812812813","4.87187187187187","-26.1281281281281","-1.6996996996997","-2.1001001001001","0.830830830830831"
"2158","-1.12812812812813","4.87187187187187","-26.1281281281281","0.3003003003003","-0.1001001001001","-0.169169169169169"
"2162","-1.12812812812813","4.87187187187187","-26.1281281281281","0.3003003003003","-0.1001001001001","-0.169169169169169"
"2165","-1.12812812812813","4.87187187187187","-26.1281281281281","3.3003003003003","-4.1001001001001","0.830830830830831"
"2174","-0.128128128128128","3.87187187187187","-24.1281281281281","3.3003003003003","-4.1001001001001","0.830830830830831"
"2178","-0.128128128128128","3.87187187187187","-24.1281281281281","3.3003003003003","-0.1001001001001","-2.16916916916917"
"2186","-1.12812812812813","4.87187187187187","-24.1281281281281","3.3003003003003","-0.1001001001001","-2.16916916916917"
"2186","-1.12812812812813","4.87187187187187","-24.1281281281281","2.3003003003003","0.8998998998999","-0.169169169169169"
"2194","-1.12812812812813","5.87187187187187","-27.1281281281281","2.3003003003003","0.8998998998999","-0.169169169169169"
"2198","-1.12812812812813","5.87187187187187","-27.1281281281281","0.3003003003003","-0.1001001001001","-2.16916916916917"
"2207","0.871871871871872","5.87187187187187","-28.1281281281281","0.3003003003003","-0.1001001001001","-2.16916916916917"
"2207","0.871871871871872","5.87187187187187","-28.1281281281281","-0.6996996996997","-2.1001001001001","-1.16916916916917"
"2215","0.871871871871872","5.87187187187187","-28.1281281281281","-0.6996996996997","-2.1001001001001","-1.16916916916917"
"2215","0.871871871871872","5.87187187187187","-28.1281281281281","-3.6996996996997","1.8998998998999","-0.169169169169169"
"2227","-1.12812812812813","6.87187187187187","-27.1281281281281","-3.6996996996997","1.8998998998999","-0.169169169169169"
"2228","-1.12812812812813","6.87187187187187","-27.1281281281281","-0.6996996996997","-3.1001001001001","1.83083083083083"
"2235","-1.12812812812813","3.87187187187187","-25.1281281281281","-0.6996996996997","-3.1001001001001","1.83083083083083"
"2235","-1.12812812812813","3.87187187187187","-25.1281281281281","-0.6996996996997","0.8998998998999","-0.169169169169169"
"2247","1.87187187187187","5.87187187187187","-28.1281281281281","-0.6996996996997","0.8998998998999","-0.169169169169169"
"2248","1.87187187187187","5.87187187187187","-28.1281281281281","-1.6996996996997","1.8998998998999","1.83083083083083"
"2256","1.87187187187187","5.87187187187187","-28.1281281281281","-1.6996996996997","1.8998998998999","1.83083083083083"
"2256","1.87187187187187","5.87187187187187","-28.1281281281281","1.3003003003003","-1.1001001001001","-2.16916916916917"
"2260","-1.12812812812813","3.87187187187187","-24.1281281281281","1.3003003003003","-1.1001001001001","-2.16916916916917"
"2264","-1.12812812812813","3.87187187187187","-24.1281281281281","0.3003003003003","1.8998998998999","1.83083083083083"
"2276","-0.128128128128128","3.87187187187187","-25.1281281281281","0.3003003003003","1.8998998998999","1.83083083083083"
"2276","-0.128128128128128","3.87187187187187","-25.1281281281281","0.3003003003003","-1.1001001001001","-0.169169169169169"
"2284","-0.128128128128128","3.87187187187187","-27.1281281281281","0.3003003003003","-1.1001001001001","-0.169169169169169"
"2285","-0.128128128128128","3.87187187187187","-27.1281281281281","-1.6996996996997","0.8998998998999","-2.16916916916917"
"2297","-2.12812812812813","7.87187187187187","-27.1281281281281","-1.6996996996997","0.8998998998999","-2.16916916916917"
"2297","-2.12812812812813","7.87187187187187","-27.1281281281281","-2.6996996996997","0.8998998998999","-2.16916916916917"
"2305","-0.128128128128128","1.87187187187187","-27.1281281281281","-2.6996996996997","0.8998998998999","-2.16916916916917"
"2305","-0.128128128128128","1.87187187187187","-27.1281281281281","-4.6996996996997","-1.1001001001001","-1.16916916916917"
"2313","0.871871871871872","3.87187187187187","-23.1281281281281","-4.6996996996997","-1.1001001001001","-1.16916916916917"
"2313","0.871871871871872","3.87187187187187","-23.1281281281281","1.3003003003003","0.8998998998999","-0.169169169169169"
"2325","-1.12812812812813","6.87187187187187","-25.1281281281281","1.3003003003003","0.8998998998999","-0.169169169169169"
"2325","-1.12812812812813","6.87187187187187","-25.1281281281281","2.3003003003003","-0.1001001001001","0.830830830830831"
"2333","0.871871871871872","3.87187187187187","-26.1281281281281","2.3003003003003","-0.1001001001001","0.830830830830831"
"2334","0.871871871871872","3.87187187187187","-26.1281281281281","3.3003003003003","-0.1001001001001","0.830830830830831"
"2342","-0.128128128128128","3.87187187187187","-29.1281281281281","3.3003003003003","-0.1001001001001","0.830830830830831"
"2346","-0.128128128128128","3.87187187187187","-29.1281281281281","-3.6996996996997","-1.1001001001001","-0.169169169169169"
"2354","-0.128128128128128","5.87187187187187","-26.1281281281281","-3.6996996996997","-1.1001001001001","-0.169169169169169"
"2354","-0.128128128128128","5.87187187187187","-26.1281281281281","-2.6996996996997","0.8998998998999","-1.16916916916917"
"2362","0.871871871871872","7.87187187187187","-28.1281281281281","-2.6996996996997","0.8998998998999","-1.16916916916917"
"2362","0.871871871871872","7.87187187187187","-28.1281281281281","0.3003003003003","0.8998998998999","-0.169169169169169"
"2374","-1.12812812812813","3.87187187187187","-23.1281281281281","0.3003003003003","0.8998998998999","-0.169169169169169"
"2375","-1.12812812812813","3.87187187187187","-23.1281281281281","-3.6996996996997","1.8998998998999","0.830830830830831"
"2383","0.871871871871872","3.87187187187187","-23.1281281281281","-3.6996996996997","1.8998998998999","0.830830830830831"
"2383","0.871871871871872","3.87187187187187","-23.1281281281281","-2.6996996996997","-1.1001001001001","-1.16916916916917"
"2391","-0.128128128128128","7.87187187187187","-29.1281281281281","-2.6996996996997","-1.1001001001001","-1.16916916916917"
"2395","-0.128128128128128","7.87187187187187","-29.1281281281281","-0.6996996996997","2.8998998998999","0.830830830830831"
"2403","-2.12812812812813","3.87187187187187","-27.1281281281281","-0.6996996996997","2.8998998998999","0.830830830830831"
"2403","-2.12812812812813","3.87187187187187","-27.1281281281281","-0.6996996996997","0.8998998998999","-0.169169169169169"
"2411","-2.12812812812813","4.87187187187187","-25.1281281281281","-0.6996996996997","0.8998998998999","-0.169169169169169"
"2412","-2.12812812812813","4.87187187187187","-25.1281281281281","-3.6996996996997","1.8998998998999","-0.169169169169169"
"2424","-2.12812812812813","4.87187187187187","-27.1281281281281","-3.6996996996997","1.8998998998999","-0.169169169169169"
"2424","-2.12812812812813","4.87187187187187","-27.1281281281281","1.3003003003003","0.8998998998999","-1.16916916916917"
"2432","-3.12812812812813","4.87187187187187","-29.1281281281281","1.3003003003003","0.8998998998999","-1.16916916916917"
"2432","-3.12812812812813","4.87187187187187","-29.1281281281281","1.3003003003003","-1.1001001001001","0.830830830830831"
"2440","-0.128128128128128","3.87187187187187","-28.1281281281281","1.3003003003003","-1.1001001001001","0.830830830830831"
"2444","-0.128128128128128","3.87187187187187","-28.1281281281281","0.3003003003003","-1.1001001001001","-0.169169169169169"
"2452","0.871871871871872","4.87187187187187","-25.1281281281281","0.3003003003003","-1.1001001001001","-0.169169169169169"
"2453","0.871871871871872","4.87187187187187","-25.1281281281281","-4.6996996996997","-1.1001001001001","-0.169169169169169"
"2461","0.871871871871872","5.87187187187187","-27.1281281281281","-4.6996996996997","-1.1001001001001","-0.169169169169169"
"2467","0.871871871871872","5.87187187187187","-27.1281281281281","3.3003003003003","-1.1001001001001","-0.169169169169169"
"2473","-1.12812812812813","5.87187187187187","-25.1281281281281","3.3003003003003","-1.1001001001001","-0.169169169169169"
"2473","-1.12812812812813","5.87187187187187","-25.1281281281281","0.3003003003003","-0.1001001001001","0.830830830830831"
"2481","0.871871871871872","3.87187187187187","-24.1281281281281","0.3003003003003","-0.1001001001001","0.830830830830831"
"2481","0.871871871871872","3.87187187187187","-24.1281281281281","-1.6996996996997","0.8998998998999","-1.16916916916917"
"2489","0.871871871871872","6.87187187187187","-28.1281281281281","-1.6996996996997","0.8998998998999","-1.16916916916917"
"2493","0.871871871871872","6.87187187187187","-28.1281281281281","-0.6996996996997","0.8998998998999","-2.16916916916917"
"2501","-0.128128128128128","4.87187187187187","-27.1281281281281","-0.6996996996997","0.8998998998999","-2.16916916916917"
"2502","-0.128128128128128","4.87187187187187","-27.1281281281281","1.3003003003003","-0.1001001001001","0.830830830830831"
"2509","-1.12812812812813","2.87187187187187","-23.1281281281281","1.3003003003003","-0.1001001001001","0.830830830830831"
"2509","-1.12812812812813","2.87187187187187","-23.1281281281281","-3.6996996996997","2.8998998998999","-1.16916916916917"
"2522","-2.12812812812813","4.87187187187187","-23.1281281281281","-3.6996996996997","2.8998998998999","-1.16916916916917"
"2522","-2.12812812812813","4.87187187187187","-23.1281281281281","-1.6996996996997","-2.1001001001001","-1.16916916916917"
"2530","-1.12812812812813","6.87187187187187","-25.1281281281281","-1.6996996996997","-2.1001001001001","-1.16916916916917"
"2530","-1.12812812812813","6.87187187187187","-25.1281281281281","0.3003003003003","-1.1001001001001","-1.16916916916917"
"2542","-3.12812812812813","2.87187187187187","-26.1281281281281","0.3003003003003","-1.1001001001001","-1.16916916916917"
"2542","-3.12812812812813","2.87187187187187","-26.1281281281281","0.3003003003003","-0.1001001001001","-0.169169169169169"
"2551","0.871871871871872","3.87187187187187","-26.1281281281281","0.3003003003003","-0.1001001001001","-0.169169169169169"
"2551","0.871871871871872","3.87187187187187","-26.1281281281281","0.3003003003003","0.8998998998999","-0.169169169169169"
"2559","-0.128128128128128","7.87187187187187","-26.1281281281281","0.3003003003003","0.8998998998999","-0.169169169169169"
"2563","-0.128128128128128","7.87187187187187","-26.1281281281281","-0.6996996996997","-0.1001001001001","0.830830830830831"
"2571","1.87187187187187","3.87187187187187","-23.1281281281281","-0.6996996996997","-0.1001001001001","0.830830830830831"
"2571","1.87187187187187","3.87187187187187","-23.1281281281281","1.3003003003003","-1.1001001001001","-0.169169169169169"
"2579","-3.12812812812813","2.87187187187187","-26.1281281281281","1.3003003003003","-1.1001001001001","-0.169169169169169"
"2583","-3.12812812812813","2.87187187187187","-26.1281281281281","-5.6996996996997","-1.1001001001001","0.830830830830831"
"2592","-0.128128128128128","5.87187187187187","-31.1281281281281","-5.6996996996997","-1.1001001001001","0.830830830830831"
"2592","-0.128128128128128","5.87187187187187","-31.1281281281281","-3.6996996996997","2.8998998998999","0.830830830830831"
"2600","1.87187187187187","4.87187187187187","-26.1281281281281","-3.6996996996997","2.8998998998999","0.830830830830831"
"2600","1.87187187187187","4.87187187187187","-26.1281281281281","1.3003003003003","-0.1001001001001","-1.16916916916917"
"2612","-0.128128128128128","2.87187187187187","-24.1281281281281","1.3003003003003","-0.1001001001001","-1.16916916916917"
"2612","-0.128128128128128","2.87187187187187","-24.1281281281281","-0.6996996996997","0.8998998998999","-1.16916916916917"
"2624","0.871871871871872","1.87187187187187","-25.1281281281281","-0.6996996996997","0.8998998998999","-1.16916916916917"
"2625","0.871871871871872","1.87187187187187","-25.1281281281281","-1.6996996996997","-1.1001001001001","-0.169169169169169"
"2632","-2.12812812812813","8.87187187187187","-26.1281281281281","-1.6996996996997","-1.1001001001001","-0.169169169169169"
"2633","-2.12812812812813","8.87187187187187","-26.1281281281281","0.3003003003003","-2.1001001001001","-0.169169169169169"
"2641","-0.128128128128128","3.87187187187187","-28.1281281281281","0.3003003003003","-2.1001001001001","-0.169169169169169"
"2641","-0.128128128128128","3.87187187187187","-28.1281281281281","-0.6996996996997","-1.1001001001001","-0.169169169169169"
"2649","-2.12812812812813","2.87187187187187","-25.1281281281281","-0.6996996996997","-1.1001001001001","-0.169169169169169"
"2653","-2.12812812812813","2.87187187187187","-25.1281281281281","-2.6996996996997","0.8998998998999","1.83083083083083"
"2661","-2.12812812812813","5.87187187187187","-26.1281281281281","-2.6996996996997","0.8998998998999","1.83083083083083"
"2661","-2.12812812812813","5.87187187187187","-26.1281281281281","2.3003003003003","-0.1001001001001","-0.169169169169169"
"2669","-0.128128128128128","4.87187187187187","-24.1281281281281","2.3003003003003","-0.1001001001001","-0.169169169169169"
"2670","-0.128128128128128","4.87187187187187","-24.1281281281281","2.3003003003003","0.8998998998999","2.83083083083083"
"2682","-2.12812812812813","4.87187187187187","-27.1281281281281","2.3003003003003","0.8998998998999","2.83083083083083"
"2682","-2.12812812812813","4.87187187187187","-27.1281281281281","-2.6996996996997","0.8998998998999","-0.169169169169169"
"2690","-0.128128128128128","5.87187187187187","-27.1281281281281","-2.6996996996997","0.8998998998999","-0.169169169169169"
"2690","-0.128128128128128","5.87187187187187","-27.1281281281281","0.3003003003003","-0.1001001001001","2.83083083083083"
"2702","0.871871871871872","5.87187187187187","-27.1281281281281","0.3003003003003","-0.1001001001001","2.83083083083083"
"2702","0.871871871871872","5.87187187187187","-27.1281281281281","3.3003003003003","0.8998998998999","0.830830830830831"
"2710","-0.128128128128128","3.87187187187187","-25.1281281281281","3.3003003003003","0.8998998998999","0.830830830830831"
"2711","-0.128128128128128","3.87187187187187","-25.1281281281281","0.3003003003003","-0.1001001001001","-0.169169169169169"
"2719","-1.12812812812813","3.87187187187187","-25.1281281281281","0.3003003003003","-0.1001001001001","-0.169169169169169"
"2723","-1.12812812812813","3.87187187187187","-25.1281281281281","-2.6996996996997","-0.1001001001001","-0.169169169169169"
"2731","0.871871871871872","5.87187187187187","-26.1281281281281","-2.6996996996997","-0.1001001001001","-0.169169169169169"
"2731","0.871871871871872","5.87187187187187","-26.1281281281281","1.3003003003003","1.8998998998999","0.830830830830831"
"2739","-1.12812812812813","4.87187187187187","-27.1281281281281","1.3003003003003","1.8998998998999","0.830830830830831"
"2743","-1.12812812812813","4.87187187187187","-27.1281281281281","1.3003003003003","1.8998998998999","-1.16916916916917"
"2751","1.87187187187187","3.87187187187187","-25.1281281281281","1.3003003003003","1.8998998998999","-1.16916916916917"
"2751","1.87187187187187","3.87187187187187","-25.1281281281281","-1.6996996996997","1.8998998998999","-3.16916916916917"
"2759","-0.128128128128128","6.87187187187187","-26.1281281281281","-1.6996996996997","1.8998998998999","-3.16916916916917"
"2760","-0.128128128128128","6.87187187187187","-26.1281281281281","0.3003003003003","0.8998998998999","1.83083083083083"
"2772","-0.128128128128128","3.87187187187187","-26.1281281281281","0.3003003003003","0.8998998998999","1.83083083083083"
"2772","-0.128128128128128","3.87187187187187","-26.1281281281281","1.3003003003003","-0.1001001001001","0.830830830830831"
"2780","-1.12812812812813","2.87187187187187","-26.1281281281281","1.3003003003003","-0.1001001001001","0.830830830830831"
"2780","-1.12812812812813","2.87187187187187","-26.1281281281281","0.3003003003003","2.8998998998999","-1.16916916916917"
"2792","-1.12812812812813","4.87187187187187","-28.1281281281281","0.3003003003003","2.8998998998999","-1.16916916916917"
"2792","-1.12812812812813","4.87187187187187","-28.1281281281281","1.3003003003003","2.8998998998999","1.83083083083083"
"2800","1.87187187187187","6.87187187187187","-29.1281281281281","1.3003003003003","2.8998998998999","1.83083083083083"
"2801","1.87187187187187","6.87187187187187","-29.1281281281281","3.3003003003003","1.8998998998999","-0.169169169169169"
"2809","-2.12812812812813","2.87187187187187","-27.1281281281281","3.3003003003003","1.8998998998999","-0.169169169169169"
"2813","-2.12812812812813","2.87187187187187","-27.1281281281281","1.3003003003003","0.8998998998999","0.830830830830831"
"2821","-0.128128128128128","4.87187187187187","-25.1281281281281","1.3003003003003","0.8998998998999","0.830830830830831"
"2821","-0.128128128128128","4.87187187187187","-25.1281281281281","1.3003003003003","0.8998998998999","1.83083083083083"
"2829","-0.128128128128128","5.87187187187187","-26.1281281281281","1.3003003003003","0.8998998998999","1.83083083083083"
"2833","-0.128128128128128","5.87187187187187","-26.1281281281281","0.3003003003003","-0.1001001001001","-1.16916916916917"
"2842","-0.128128128128128","4.87187187187187","-26.1281281281281","0.3003003003003","-0.1001001001001","-1.16916916916917"
"2842","-0.128128128128128","4.87187187187187","-26.1281281281281","0.3003003003003","-1.1001001001001","-0.169169169169169"
"2850","-0.128128128128128","3.87187187187187","-26.1281281281281","0.3003003003003","-1.1001001001001","-0.169169169169169"
"2850","-0.128128128128128","3.87187187187187","-26.1281281281281","2.3003003003003","0.8998998998999","1.83083083083083"
"2862","1.87187187187187","7.87187187187187","-27.1281281281281","2.3003003003003","0.8998998998999","1.83083083083083"
"2862","1.87187187187187","7.87187187187187","-27.1281281281281","1.3003003003003","0.8998998998999","1.83083083083083"
"2870","-0.128128128128128","3.87187187187187","-25.1281281281281","1.3003003003003","0.8998998998999","1.83083083083083"
"2870","-0.128128128128128","3.87187187187187","-25.1281281281281","1.3003003003003","-1.1001001001001","0.830830830830831"
"2882","-1.12812812812813","2.87187187187187","-26.1281281281281","1.3003003003003","-1.1001001001001","0.830830830830831"
"2883","-1.12812812812813","2.87187187187187","-26.1281281281281","-0.6996996996997","0.8998998998999","0.830830830830831"
"2891","-2.12812812812813","4.87187187187187","-26.1281281281281","-0.6996996996997","0.8998998998999","0.830830830830831"
"2891","-2.12812812812813","4.87187187187187","-26.1281281281281","1.3003003003003","1.8998998998999","0.830830830830831"
"2899","-2.12812812812813","6.87187187187187","-29.1281281281281","1.3003003003003","1.8998998998999","0.830830830830831"
"2903","-2.12812812812813","6.87187187187187","-29.1281281281281","2.3003003003003","2.8998998998999","-0.169169169169169"
"2911","-2.12812812812813","3.87187187187187","-25.1281281281281","2.3003003003003","2.8998998998999","-0.169169169169169"
"2911","-2.12812812812813","3.87187187187187","-25.1281281281281","1.3003003003003","-0.1001001001001","-0.169169169169169"
"2919","-1.12812812812813","2.87187187187187","-25.1281281281281","1.3003003003003","-0.1001001001001","-0.169169169169169"
"2923","-1.12812812812813","2.87187187187187","-25.1281281281281","-0.6996996996997","-2.1001001001001","0.830830830830831"
"2932","-0.128128128128128","5.87187187187187","-26.1281281281281","-0.6996996996997","-2.1001001001001","0.830830830830831"
"2932","-0.128128128128128","5.87187187187187","-26.1281281281281","-1.6996996996997","0.8998998998999","0.830830830830831"
"2940","0.871871871871872","3.87187187187187","-28.1281281281281","-1.6996996996997","0.8998998998999","0.830830830830831"
"2940","0.871871871871872","3.87187187187187","-28.1281281281281","-0.6996996996997","-0.1001001001001","0.830830830830831"
"2952","-1.12812812812813","3.87187187187187","-26.1281281281281","-0.6996996996997","-0.1001001001001","0.830830830830831"
"2952","-1.12812812812813","3.87187187187187","-26.1281281281281","-1.6996996996997","1.8998998998999","-0.169169169169169"
"2960","-3.12812812812813","4.87187187187187","-27.1281281281281","-1.6996996996997","1.8998998998999","-0.169169169169169"
"2960","-3.12812812812813","4.87187187187187","-27.1281281281281","-0.6996996996997","3.8998998998999","-2.16916916916917"
"2972","-0.128128128128128","7.87187187187187","-26.1281281281281","-0.6996996996997","3.8998998998999","-2.16916916916917"
"2973","-0.128128128128128","7.87187187187187","-26.1281281281281","2.3003003003003","1.8998998998999","-2.16916916916917"
"2981","-1.12812812812813","2.87187187187187","-26.1281281281281","2.3003003003003","1.8998998998999","-2.16916916916917"
"2981","-1.12812812812813","2.87187187187187","-26.1281281281281","2.3003003003003","0.8998998998999","-0.169169169169169"
"2989","-2.12812812812813","4.87187187187187","-27.1281281281281","2.3003003003003","0.8998998998999","-0.169169169169169"
"2993","-2.12812812812813","4.87187187187187","-27.1281281281281","0.3003003003003","1.8998998998999","-0.169169169169169"
"3001","-1.12812812812813","8.87187187187187","-26.1281281281281","0.3003003003003","1.8998998998999","-0.169169169169169"
"3001","-1.12812812812813","8.87187187187187","-26.1281281281281","1.3003003003003","0.8998998998999","1.83083083083083"
"3009","0.871871871871872","3.87187187187187","-25.1281281281281","1.3003003003003","0.8998998998999","1.83083083083083"
"3013","0.871871871871872","3.87187187187187","-25.1281281281281","0.3003003003003","-0.1001001001001","-0.169169169169169"
"3022","-2.12812812812813","3.87187187187187","-24.1281281281281","0.3003003003003","-0.1001001001001","-0.169169169169169"
"3022","-2.12812812812813","3.87187187187187","-24.1281281281281","-1.6996996996997","-1.1001001001001","-1.16916916916917"
"3030","-1.12812812812813","5.87187187187187","-26.1281281281281","-1.6996996996997","-1.1001001001001","-1.16916916916917"
"3030","-1.12812812812813","5.87187187187187","-26.1281281281281","-1.6996996996997","-1.1001001001001","-0.169169169169169"
"3042","-1.12812812812813","4.87187187187187","-27.1281281281281","-1.6996996996997","-1.1001001001001","-0.169169169169169"
"3042","-1.12812812812813","4.87187187187187","-27.1281281281281","2.3003003003003","-0.1001001001001","-2.16916916916917"
"3051","-2.12812812812813","2.87187187187187","-26.1281281281281","2.3003003003003","-0.1001001001001","-2.16916916916917"
"3051","-2.12812812812813","2.87187187187187","-26.1281281281281","1.3003003003003","-1.1001001001001","-0.169169169169169"
"3063","-0.128128128128128","2.87187187187187","-26.1281281281281","1.3003003003003","-1.1001001001001","-0.169169169169169"
"3063","-0.128128128128128","2.87187187187187","-26.1281281281281","-1.6996996996997","1.8998998998999","1.83083083083083"
"3071","1.87187187187187","7.87187187187187","-23.1281281281281","-1.6996996996997","1.8998998998999","1.83083083083083"
"3071","1.87187187187187","7.87187187187187","-23.1281281281281","3.3003003003003","-0.1001001001001","0.830830830830831"
"3079","-1.12812812812813","3.87187187187187","-25.1281281281281","3.3003003003003","-0.1001001001001","0.830830830830831"
"3083","-1.12812812812813","3.87187187187187","-25.1281281281281","2.3003003003003","-1.1001001001001","-1.16916916916917"
"3092","-3.12812812812813","1.87187187187187","-27.1281281281281","2.3003003003003","-1.1001001001001","-1.16916916916917"
"3092","-3.12812812812813","1.87187187187187","-27.1281281281281","-1.6996996996997","-0.1001001001001","-0.169169169169169"
"3100","-2.12812812812813","8.87187187187187","-26.1281281281281","-1.6996996996997","-0.1001001001001","-0.169169169169169"
"3103","-2.12812812812813","8.87187187187187","-26.1281281281281","0.3003003003003","1.8998998998999","0.830830830830831"
"3112","-1.12812812812813","3.87187187187187","-28.1281281281281","0.3003003003003","1.8998998998999","0.830830830830831"
"3112","-1.12812812812813","3.87187187187187","-28.1281281281281","4.3003003003003","-0.1001001001001","0.830830830830831"
"3120","-2.12812812812813","2.87187187187187","-23.1281281281281","4.3003003003003","-0.1001001001001","0.830830830830831"
"3120","-2.12812812812813","2.87187187187187","-23.1281281281281","0.3003003003003","1.8998998998999","-0.169169169169169"
"3132","-1.12812812812813","4.87187187187187","-26.1281281281281","0.3003003003003","1.8998998998999","-0.169169169169169"
"3132","-1.12812812812813","4.87187187187187","-26.1281281281281","-0.6996996996997","0.8998998998999","-1.16916916916917"
"3141","-0.128128128128128","7.87187187187187","-28.1281281281281","-0.6996996996997","0.8998998998999","-1.16916916916917"
"3141","-0.128128128128128","7.87187187187187","-28.1281281281281","2.3003003003003","-1.1001001001001","-0.169169169169169"
"3153","0.871871871871872","3.87187187187187","-25.1281281281281","2.3003003003003","-1.1001001001001","-0.169169169169169"
"3153","0.871871871871872","3.87187187187187","-25.1281281281281","-2.6996996996997","0.8998998998999","-0.169169169169169"
"3161","-0.128128128128128","3.87187187187187","-24.1281281281281","-2.6996996996997","0.8998998998999","-0.169169169169169"
"3161","-0.128128128128128","3.87187187187187","-24.1281281281281","-3.6996996996997","2.8998998998999","-0.169169169169169"
"3169","-0.128128128128128","6.87187187187187","-27.1281281281281","-3.6996996996997","2.8998998998999","-0.169169169169169"
"3173","-0.128128128128128","6.87187187187187","-27.1281281281281","-0.6996996996997","-1.1001001001001","-1.16916916916917"
"3181","-2.12812812812813","3.87187187187187","-25.1281281281281","-0.6996996996997","-1.1001001001001","-1.16916916916917"
"3182","-2.12812812812813","3.87187187187187","-25.1281281281281","1.3003003003003","-0.1001001001001","2.83083083083083"
"3190","-2.12812812812813","3.87187187187187","-27.1281281281281","1.3003003003003","-0.1001001001001","2.83083083083083"
"3193","-2.12812812812813","3.87187187187187","-27.1281281281281","-2.6996996996997","0.8998998998999","-0.169169169169169"
"3202","-1.12812812812813","4.87187187187187","-27.1281281281281","-2.6996996996997","0.8998998998999","-0.169169169169169"
"3202","-1.12812812812813","4.87187187187187","-27.1281281281281","3.3003003003003","-1.1001001001001","-2.16916916916917"
"3210","-0.128128128128128","4.87187187187187","-25.1281281281281","3.3003003003003","-1.1001001001001","-2.16916916916917"
"3210","-0.128128128128128","4.87187187187187","-25.1281281281281","2.3003003003003","0.8998998998999","0.830830830830831"
"3222","-2.12812812812813","4.87187187187187","-25.1281281281281","2.3003003003003","0.8998998998999","0.830830830830831"
"3223","-2.12812812812813","4.87187187187187","-25.1281281281281","-0.6996996996997","-2.1001001001001","-1.16916916916917"
"3231","0.871871871871872","4.87187187187187","-25.1281281281281","-0.6996996996997","-2.1001001001001","-1.16916916916917"
"3231","0.871871871871872","4.87187187187187","-25.1281281281281","-0.6996996996997","-0.1001001001001","-0.169169169169169"
"3239","-2.12812812812813","4.87187187187187","-29.1281281281281","-0.6996996996997","-0.1001001001001","-0.169169169169169"
"3243","-2.12812812812813","4.87187187187187","-29.1281281281281","-1.6996996996997","0.8998998998999","1.83083083083083"
"3251","-1.12812812812813","3.87187187187187","-24.1281281281281","-1.6996996996997","0.8998998998999","1.83083083083083"
"3251","-1.12812812812813","3.87187187187187","-24.1281281281281","-1.6996996996997","0.8998998998999","-0.169169169169169"
"3259","-1.12812812812813","4.87187187187187","-24.1281281281281","-1.6996996996997","0.8998998998999","-0.169169169169169"
"3263","-1.12812812812813","4.87187187187187","-24.1281281281281","2.3003003003003","0.8998998998999","1.83083083083083"
"3272","-0.128128128128128","6.87187187187187","-27.1281281281281","2.3003003003003","0.8998998998999","1.83083083083083"
"3272","-0.128128128128128","6.87187187187187","-27.1281281281281","-1.6996996996997","-0.1001001001001","-0.169169169169169"
"3280","-2.12812812812813","3.87187187187187","-26.1281281281281","-1.6996996996997","-0.1001001001001","-0.169169169169169"
"3284","-2.12812812812813","3.87187187187187","-26.1281281281281","-0.6996996996997","-0.1001001001001","-1.16916916916917"
"3292","-1.12812812812813","5.87187187187187","-25.1281281281281","-0.6996996996997","-0.1001001001001","-1.16916916916917"
"3292","-1.12812812812813","5.87187187187187","-25.1281281281281","-0.6996996996997","1.8998998998999","2.83083083083083"
"3300","-0.128128128128128","5.87187187187187","-25.1281281281281","-0.6996996996997","1.8998998998999","2.83083083083083"
"3300","-0.128128128128128","5.87187187187187","-25.1281281281281","0.3003003003003","1.8998998998999","-0.169169169169169"
"3312","-1.12812812812813","6.87187187187187","-26.1281281281281","0.3003003003003","1.8998998998999","-0.169169169169169"
"3313","-1.12812812812813","6.87187187187187","-26.1281281281281","3.3003003003003","-1.1001001001001","0.830830830830831"
"3321","0.871871871871872","1.87187187187187","-26.1281281281281","3.3003003003003","-1.1001001001001","0.830830830830831"
"3321","0.871871871871872","1.87187187187187","-26.1281281281281","-0.6996996996997","-2.1001001001001","-0.169169169169169"
"3329","-2.12812812812813","4.87187187187187","-26.1281281281281","-0.6996996996997","-2.1001001001001","-0.169169169169169"
"3333","-2.12812812812813","4.87187187187187","-26.1281281281281","0.3003003003003","-0.1001001001001","0.830830830830831"
"3341","-3.12812812812813","7.87187187187187","-28.1281281281281","0.3003003003003","-0.1001001001001","0.830830830830831"
"3341","-3.12812812812813","7.87187187187187","-28.1281281281281","1.3003003003003","2.8998998998999","1.83083083083083"
"3349","-0.128128128128128","3.87187187187187","-25.1281281281281","1.3003003003003","2.8998998998999","1.83083083083083"
"3353","-0.128128128128128","3.87187187187187","-25.1281281281281","1.3003003003003","1.8998998998999","0.830830830830831"
"3362","-1.12812812812813","4.87187187187187","-26.1281281281281","1.3003003003003","1.8998998998999","0.830830830830831"
"3362","-1.12812812812813","4.87187187187187","-26.1281281281281","0.3003003003003","-0.1001001001001","1.83083083083083"
"3370","-0.128128128128128","6.87187187187187","-28.1281281281281","0.3003003003003","-0.1001001001001","1.83083083083083"
"3370","-0.128128128128128","6.87187187187187","-28.1281281281281","-0.6996996996997","0.8998998998999","-0.169169169169169"
"3382","0.871871871871872","4.87187187187187","-26.1281281281281","-0.6996996996997","0.8998998998999","-0.169169169169169"
"3382","0.871871871871872","4.87187187187187","-26.1281281281281","0.3003003003003","-0.1001001001001","0.830830830830831"
"3390","-0.128128128128128","3.87187187187187","-26.1281281281281","0.3003003003003","-0.1001001001001","0.830830830830831"
"3390","-0.128128128128128","3.87187187187187","-26.1281281281281","1.3003003003003","-0.1001001001001","1.83083083083083"
"3402","-1.12812812812813","4.87187187187187","-28.1281281281281","1.3003003003003","-0.1001001001001","1.83083083083083"
"3403","-1.12812812812813","4.87187187187187","-28.1281281281281","3.3003003003003","1.8998998998999","-2.16916916916917"
"3411","-1.12812812812813","6.87187187187187","-26.1281281281281","3.3003003003003","1.8998998998999","-2.16916916916917"
"3411","-1.12812812812813","6.87187187187187","-26.1281281281281","1.3003003003003","0.8998998998999","1.83083083083083"
"3419","-1.12812812812813","1.87187187187187","-25.1281281281281","1.3003003003003","0.8998998998999","1.83083083083083"
"3423","-1.12812812812813","1.87187187187187","-25.1281281281281","-1.6996996996997","0.8998998998999","0.830830830830831"
"3431","-2.12812812812813","4.87187187187187","-24.1281281281281","-1.6996996996997","0.8998998998999","0.830830830830831"
"3432","-2.12812812812813","4.87187187187187","-24.1281281281281","-3.6996996996997","4.8998998998999","-1.16916916916917"
"3439","-2.12812812812813","8.87187187187187","-27.1281281281281","-3.6996996996997","4.8998998998999","-1.16916916916917"
"3443","-2.12812812812813","8.87187187187187","-27.1281281281281","1.3003003003003","2.8998998998999","1.83083083083083"
"3452","0.871871871871872","3.87187187187187","-27.1281281281281","1.3003003003003","2.8998998998999","1.83083083083083"
"3452","0.871871871871872","3.87187187187187","-27.1281281281281","4.3003003003003","-1.1001001001001","-1.16916916916917"
"3460","-0.128128128128128","3.87187187187187","-23.1281281281281","4.3003003003003","-1.1001001001001","-1.16916916916917"
"3460","-0.128128128128128","3.87187187187187","-23.1281281281281","1.3003003003003","0.8998998998999","0.830830830830831"
"3472","-2.12812812812813","6.87187187187187","-25.1281281281281","1.3003003003003","0.8998998998999","0.830830830830831"
"3472","-2.12812812812813","6.87187187187187","-25.1281281281281","1.3003003003003","-0.1001001001001","0.830830830830831"
"3480","0.871871871871872","6.87187187187187","-26.1281281281281","1.3003003003003","-0.1001001001001","0.830830830830831"
"3481","0.871871871871872","6.87187187187187","-26.1281281281281","4.3003003003003","-0.1001001001001","0.830830830830831"
"3493","-1.12812812812813","2.87187187187187","-27.1281281281281","4.3003003003003","-0.1001001001001","0.830830830830831"
"3493","-1.12812812812813","2.87187187187187","-27.1281281281281","0.3003003003003","-0.1001001001001","-1.16916916916917"
"3501","1.87187187187187","4.87187187187187","-26.1281281281281","0.3003003003003","-0.1001001001001","-1.16916916916917"
"3501","1.87187187187187","4.87187187187187","-26.1281281281281","-0.6996996996997","-0.1001001001001","-1.16916916916917"
"3509","-3.12812812812813","7.87187187187187","-26.1281281281281","-0.6996996996997","-0.1001001001001","-1.16916916916917"
"3513","-3.12812812812813","7.87187187187187","-26.1281281281281","1.3003003003003","-1.1001001001001","1.83083083083083"
"3522","-0.128128128128128","2.87187187187187","-23.1281281281281","1.3003003003003","-1.1001001001001","1.83083083083083"
"3522","-0.128128128128128","2.87187187187187","-23.1281281281281","2.3003003003003","1.8998998998999","0.830830830830831"
"3530","-1.12812812812813","3.87187187187187","-26.1281281281281","2.3003003003003","1.8998998998999","0.830830830830831"
"3534","-1.12812812812813","3.87187187187187","-26.1281281281281","-0.6996996996997","0.8998998998999","-0.169169169169169"
"3542","-0.128128128128128","6.87187187187187","-27.1281281281281","-0.6996996996997","0.8998998998999","-0.169169169169169"
"3542","-0.128128128128128","6.87187187187187","-27.1281281281281","0.3003003003003","1.8998998998999","-1.16916916916917"
"3550","-0.128128128128128","3.87187187187187","-27.1281281281281","0.3003003003003","1.8998998998999","-1.16916916916917"
"3550","-0.128128128128128","3.87187187187187","-27.1281281281281","0.3003003003003","1.8998998998999","1.83083083083083"
"3562","-0.128128128128128","2.87187187187187","-26.1281281281281","0.3003003003003","1.8998998998999","1.83083083083083"
"3563","-0.128128128128128","2.87187187187187","-26.1281281281281","-3.6996996996997","-0.1001001001001","0.830830830830831"
"3571","-0.128128128128128","5.87187187187187","-25.1281281281281","-3.6996996996997","-0.1001001001001","0.830830830830831"
"3571","-0.128128128128128","5.87187187187187","-25.1281281281281","1.3003003003003","-0.1001001001001","1.83083083083083"
"3583","0.871871871871872","6.87187187187187","-27.1281281281281","1.3003003003003","-0.1001001001001","1.83083083083083"
"3583","0.871871871871872","6.87187187187187","-27.1281281281281","1.3003003003003","-0.1001001001001","1.83083083083083"
"3591","-1.12812812812813","2.87187187187187","-26.1281281281281","1.3003003003003","-0.1001001001001","1.83083083083083"
"3591","-1.12812812812813","2.87187187187187","-26.1281281281281","-2.6996996996997","-0.1001001001001","1.83083083083083"
"3599","-1.12812812812813","3.87187187187187","-25.1281281281281","-2.6996996996997","-0.1001001001001","1.83083083083083"
"3603","-1.12812812812813","3.87187187187187","-25.1281281281281","0.3003003003003","-2.1001001001001","-0.169169169169169"
"3612","-1.12812812812813","6.87187187187187","-26.1281281281281","0.3003003003003","-2.1001001001001","-0.169169169169169"
"3612","-1.12812812812813","6.87187187187187","-26.1281281281281","1.3003003003003","-2.1001001001001","-2.16916916916917"
"3620","-2.12812812812813","3.87187187187187","-26.1281281281281","1.3003003003003","-2.1001001001001","-2.16916916916917"
"3624","-2.12812812812813","3.87187187187187","-26.1281281281281","0.3003003003003","0.8998998998999","-1.16916916916917"
"3632","-3.12812812812813","2.87187187187187","-26.1281281281281","0.3003003003003","0.8998998998999","-1.16916916916917"
"3632","-3.12812812812813","2.87187187187187","-26.1281281281281","-1.6996996996997","0.8998998998999","-2.16916916916917"
"3640","-1.12812812812813","7.87187187187187","-28.1281281281281","-1.6996996996997","0.8998998998999","-2.16916916916917"
"3640","-1.12812812812813","7.87187187187187","-28.1281281281281","5.3003003003003","2.8998998998999","-0.169169169169169"
"3653","-2.12812812812813","7.87187187187187","-28.1281281281281","5.3003003003003","2.8998998998999","-0.169169169169169"
"3653","-2.12812812812813","7.87187187187187","-28.1281281281281","2.3003003003003","0.8998998998999","-0.169169169169169"
"3661","-1.12812812812813","3.87187187187187","-24.1281281281281","2.3003003003003","0.8998998998999","-0.169169169169169"
"3661","-1.12812812812813","3.87187187187187","-24.1281281281281","2.3003003003003","1.8998998998999","-1.16916916916917"
"3673","-3.12812812812813","3.87187187187187","-27.1281281281281","2.3003003003003","1.8998998998999","-1.16916916916917"
"3673","-3.12812812812813","3.87187187187187","-27.1281281281281","3.3003003003003","-1.1001001001001","-1.16916916916917"
"3681","-1.12812812812813","5.87187187187187","-27.1281281281281","3.3003003003003","-1.1001001001001","-1.16916916916917"
"3681","-1.12812812812813","5.87187187187187","-27.1281281281281","2.3003003003003","-0.1001001001001","0.830830830830831"
"3689","-1.12812812812813","4.87187187187187","-27.1281281281281","2.3003003003003","-0.1001001001001","0.830830830830831"
"3694","-1.12812812812813","4.87187187187187","-27.1281281281281","1.3003003003003","-1.1001001001001","-0.169169169169169"
"3702","-1.12812812812813","4.87187187187187","-26.1281281281281","1.3003003003003","-1.1001001001001","-0.169169169169169"
"3702","-1.12812812812813","4.87187187187187","-26.1281281281281","1.3003003003003","0.8998998998999","1.83083083083083"
"3710","-1.12812812812813","4.87187187187187","-24.1281281281281","1.3003003003003","0.8998998998999","1.83083083083083"
"3714","-1.12812812812813","4.87187187187187","-24.1281281281281","2.3003003003003","0.8998998998999","1.83083083083083"
"3722","1.87187187187187","3.87187187187187","-25.1281281281281","2.3003003003003","0.8998998998999","1.83083083083083"
"3722","1.87187187187187","3.87187187187187","-25.1281281281281","2.3003003003003","-1.1001001001001","-2.16916916916917"
"3730","-1.12812812812813","2.87187187187187","-23.1281281281281","2.3003003003003","-1.1001001001001","-2.16916916916917"
"3731","-1.12812812812813","2.87187187187187","-23.1281281281281","0.3003003003003","-1.1001001001001","-0.169169169169169"
"3743","-1.12812812812813","5.87187187187187","-29.1281281281281","0.3003003003003","-1.1001001001001","-0.169169169169169"
"3743","-1.12812812812813","5.87187187187187","-29.1281281281281","4.3003003003003","2.8998998998999","-0.169169169169169"
"3751","-2.12812812812813","6.87187187187187","-27.1281281281281","4.3003003003003","2.8998998998999","-0.169169169169169"
"3751","-2.12812812812813","6.87187187187187","-27.1281281281281","3.3003003003003","-1.1001001001001","2.83083083083083"
"3763","-2.12812812812813","0.871871871871872","-24.1281281281281","3.3003003003003","-1.1001001001001","2.83083083083083"
"3763","-2.12812812812813","0.871871871871872","-24.1281281281281","-0.6996996996997","-1.1001001001001","0.830830830830831"
"3771","-1.12812812812813","4.87187187187187","-26.1281281281281","-0.6996996996997","-1.1001001001001","0.830830830830831"
"3772","-1.12812812812813","4.87187187187187","-26.1281281281281","-2.6996996996997","-1.1001001001001","-0.169169169169169"
"3780","-0.128128128128128","6.87187187187187","-26.1281281281281","-2.6996996996997","-1.1001001001001","-0.169169169169169"
"3784","-0.128128128128128","6.87187187187187","-26.1281281281281","-1.6996996996997","-1.1001001001001","-2.16916916916917"
"3792","-0.128128128128128","3.87187187187187","-27.1281281281281","-1.6996996996997","-1.1001001001001","-2.16916916916917"
"3792","-0.128128128128128","3.87187187187187","-27.1281281281281","-0.6996996996997","-3.1001001001001","-0.169169169169169"
"3800","-1.12812812812813","2.87187187187187","-26.1281281281281","-0.6996996996997","-3.1001001001001","-0.169169169169169"
"3804","-1.12812812812813","2.87187187187187","-26.1281281281281","-1.6996996996997","-0.1001001001001","-1.16916916916917"
"3812","-1.12812812812813","5.87187187187187","-26.1281281281281","-1.6996996996997","-0.1001001001001","-1.16916916916917"
"3812","-1.12812812812813","5.87187187187187","-26.1281281281281","1.3003003003003","-1.1001001001001","-1.16916916916917"
"3820","-1.12812812812813","4.87187187187187","-27.1281281281281","1.3003003003003","-1.1001001001001","-1.16916916916917"
"3824","-1.12812812812813","4.87187187187187","-27.1281281281281","0.3003003003003","-2.1001001001001","1.83083083083083"
"3833","-0.128128128128128","4.87187187187187","-24.1281281281281","0.3003003003003","-2.1001001001001","1.83083083083083"
"3833","-0.128128128128128","4.87187187187187","-24.1281281281281","1.3003003003003","-0.1001001001001","0.830830830830831"
"3841","-3.12812812812813","5.87187187187187","-27.1281281281281","1.3003003003003","-0.1001001001001","0.830830830830831"
"3841","-3.12812812812813","5.87187187187187","-27.1281281281281","1.3003003003003","1.8998998998999","-0.169169169169169"
"3853","-1.12812812812813","7.87187187187187","-28.1281281281281","1.3003003003003","1.8998998998999","-0.169169169169169"
"3853","-1.12812812812813","7.87187187187187","-28.1281281281281","4.3003003003003","-2.1001001001001","-1.16916916916917"
"3861","-0.128128128128128","3.87187187187187","-26.1281281281281","4.3003003003003","-2.1001001001001","-1.16916916916917"
"3862","-0.128128128128128","3.87187187187187","-26.1281281281281","-1.6996996996997","1.8998998998999","0.830830830830831"
"3874","-1.12812812812813","1.87187187187187","-26.1281281281281","-1.6996996996997","1.8998998998999","0.830830830830831"
"3874","-1.12812812812813","1.87187187187187","-26.1281281281281","-3.6996996996997","-0.1001001001001","0.830830830830831"
"3882","-1.12812812812813","4.87187187187187","-25.1281281281281","-3.6996996996997","-0.1001001001001","0.830830830830831"
"3882","-1.12812812812813","4.87187187187187","-25.1281281281281","0.3003003003003","-0.1001001001001","-1.16916916916917"
"3890","-2.12812812812813","3.87187187187187","-27.1281281281281","0.3003003003003","-0.1001001001001","-1.16916916916917"
"3894","-2.12812812812813","3.87187187187187","-27.1281281281281","-1.6996996996997","-1.1001001001001","0.830830830830831"
"3902","-1.12812812812813","3.87187187187187","-26.1281281281281","-1.6996996996997","-1.1001001001001","0.830830830830831"
"3903","-1.12812812812813","3.87187187187187","-26.1281281281281","1.3003003003003","-3.1001001001001","-0.169169169169169"
"3910","-2.12812812812813","7.87187187187187","-26.1281281281281","1.3003003003003","-3.1001001001001","-0.169169169169169"
"3915","-2.12812812812813","7.87187187187187","-26.1281281281281","-1.6996996996997","0.8998998998999","2.83083083083083"
"3923","-0.128128128128128","7.87187187187187","-24.1281281281281","-1.6996996996997","0.8998998998999","2.83083083083083"
"3923","-0.128128128128128","7.87187187187187","-24.1281281281281","-0.6996996996997","0.8998998998999","-0.169169169169169"
"3931","-2.12812812812813","2.87187187187187","-26.1281281281281","-0.6996996996997","0.8998998998999","-0.169169169169169"
"3931","-2.12812812812813","2.87187187187187","-26.1281281281281","-0.6996996996997","0.8998998998999","-0.169169169169169"
"3943","-2.12812812812813","6.87187187187187","-26.1281281281281","-0.6996996996997","0.8998998998999","-0.169169169169169"
"3943","-2.12812812812813","6.87187187187187","-26.1281281281281","1.3003003003003","0.8998998998999","0.830830830830831"
"3952","-0.128128128128128","5.87187187187187","-30.1281281281281","1.3003003003003","0.8998998998999","0.830830830830831"
"3952","-0.128128128128128","5.87187187187187","-30.1281281281281","-0.6996996996997","1.8998998998999","2.83083083083083"
"3964","-1.12812812812813","3.87187187187187","-26.1281281281281","-0.6996996996997","1.8998998998999","2.83083083083083"
"3964","-1.12812812812813","3.87187187187187","-26.1281281281281","-0.6996996996997","1.8998998998999","-0.169169169169169"
"3972","-1.12812812812813","4.87187187187187","-26.1281281281281","-0.6996996996997","1.8998998998999","-0.169169169169169"
"3972","-1.12812812812813","4.87187187187187","-26.1281281281281","-2.6996996996997","-0.1001001001001","0.830830830830831"
"3980","-2.12812812812813","6.87187187187187","-26.1281281281281","-2.6996996996997","-0.1001001001001","0.830830830830831"
"3984","-2.12812812812813","6.87187187187187","-26.1281281281281","2.3003003003003","-0.1001001001001","0.830830830830831"
"3993","-1.12812812812813","2.87187187187187","-26.1281281281281","2.3003003003003","-0.1001001001001","0.830830830830831"
"3993","-1.12812812812813","2.87187187187187","-26.1281281281281","3.3003003003003","2.8998998998999","-1.16916916916917"
"4001","-2.12812812812813","2.87187187187187","-26.1281281281281","3.3003003003003","2.8998998998999","-1.16916916916917"
"4005","-2.12812812812813","2.87187187187187","-26.1281281281281","-4.6996996996997","0.8998998998999","-1.16916916916917"
"4013","-0.128128128128128","5.87187187187187","-28.1281281281281","-4.6996996996997","0.8998998998999","-1.16916916916917"
"4013","-0.128128128128128","5.87187187187187","-28.1281281281281","-1.6996996996997","-0.1001001001001","0.830830830830831"
"4021","-1.12812812812813","6.87187187187187","-28.1281281281281","-1.6996996996997","-0.1001001001001","0.830830830830831"
"4021","-1.12812812812813","6.87187187187187","-28.1281281281281","-1.6996996996997","-0.1001001001001","-0.169169169169169"
"4033","-1.12812812812813","3.87187187187187","-26.1281281281281","-1.6996996996997","-0.1001001001001","-0.169169169169169"
"4034","-1.12812812812813","3.87187187187187","-26.1281281281281","-1.6996996996997","1.8998998998999","-3.16916916916917"
"4042","-2.12812812812813","3.87187187187187","-29.1281281281281","-1.6996996996997","1.8998998998999","-3.16916916916917"
"4042","-2.12812812812813","3.87187187187187","-29.1281281281281","-2.6996996996997","0.8998998998999","-0.169169169169169"
"4054","-0.128128128128128","7.87187187187187","-28.1281281281281","-2.6996996996997","0.8998998998999","-0.169169169169169"
"4054","-0.128128128128128","7.87187187187187","-28.1281281281281","1.3003003003003","-2.1001001001001","1.83083083083083"
"4062","0.871871871871872","3.87187187187187","-26.1281281281281","1.3003003003003","-2.1001001001001","1.83083083083083"
"4063","0.871871871871872","3.87187187187187","-26.1281281281281","3.3003003003003","1.8998998998999","1.83083083083083"
"4070","-1.12812812812813","3.87187187187187","-24.1281281281281","3.3003003003003","1.8998998998999","1.83083083083083"
"4074","-1.12812812812813","3.87187187187187","-24.1281281281281","-3.6996996996997","0.8998998998999","1.83083083083083"
"4083","-4.12812812812813","7.87187187187187","-29.1281281281281","-3.6996996996997","0.8998998998999","1.83083083083083"
"4083","-4.12812812812813","7.87187187187187","-29.1281281281281","1.3003003003003","-0.1001001001001","-0.169169169169169"
"4091","-3.12812812812813","7.87187187187187","-30.1281281281281","1.3003003003003","-0.1001001001001","-0.169169169169169"
"4095","-3.12812812812813","7.87187187187187","-30.1281281281281","3.3003003003003","-0.1001001001001","-2.16916916916917"
"4103","-2.12812812812813","0.871871871871872","-25.1281281281281","3.3003003003003","-0.1001001001001","-2.16916916916917"
"4103","-2.12812812812813","0.871871871871872","-25.1281281281281","-0.6996996996997","-1.1001001001001","-0.169169169169169"
"4111","-1.12812812812813","6.87187187187187","-26.1281281281281","-0.6996996996997","-1.1001001001001","-0.169169169169169"
"4115","-1.12812812812813","6.87187187187187","-26.1281281281281","-0.6996996996997","1.8998998998999","-1.16916916916917"
"4124","-2.12812812812813","7.87187187187187","-28.1281281281281","-0.6996996996997","1.8998998998999","-1.16916916916917"
"4124","-2.12812812812813","7.87187187187187","-28.1281281281281","-0.6996996996997","-1.1001001001001","1.83083083083083"
"4132","-1.12812812812813","2.87187187187187","-25.1281281281281","-0.6996996996997","-1.1001001001001","1.83083083083083"
"4132","-1.12812812812813","2.87187187187187","-25.1281281281281","1.3003003003003","-1.1001001001001","1.83083083083083"
"4144","-3.12812812812813","3.87187187187187","-28.1281281281281","1.3003003003003","-1.1001001001001","1.83083083083083"
"4144","-3.12812812812813","3.87187187187187","-28.1281281281281","-0.6996996996997","1.8998998998999","-1.16916916916917"
"4152","-2.12812812812813","5.87187187187187","-28.1281281281281","-0.6996996996997","1.8998998998999","-1.16916916916917"
"4153","-2.12812812812813","5.87187187187187","-28.1281281281281","3.3003003003003","-3.1001001001001","1.83083083083083"
"4164","-2.12812812812813","6.87187187187187","-27.1281281281281","3.3003003003003","-3.1001001001001","1.83083083083083"
"4165","-2.12812812812813","6.87187187187187","-27.1281281281281","0.3003003003003","-0.1001001001001","-0.169169169169169"
"4173","0.871871871871872","2.87187187187187","-26.1281281281281","0.3003003003003","-0.1001001001001","-0.169169169169169"
"4173","0.871871871871872","2.87187187187187","-26.1281281281281","0.3003003003003","-1.1001001001001","1.83083083083083"
"4181","0.871871871871872","4.87187187187187","-25.1281281281281","0.3003003003003","-1.1001001001001","1.83083083083083"
"4185","0.871871871871872","4.87187187187187","-25.1281281281281","0.3003003003003","-1.1001001001001","0.830830830830831"
"4193","-1.12812812812813","8.87187187187187","-28.1281281281281","0.3003003003003","-1.1001001001001","0.830830830830831"
"4193","-1.12812812812813","8.87187187187187","-28.1281281281281","1.3003003003003","0.8998998998999","-0.169169169169169"
"4202","-0.128128128128128","3.87187187187187","-26.1281281281281","1.3003003003003","0.8998998998999","-0.169169169169169"
"4205","-0.128128128128128","3.87187187187187","-26.1281281281281","-0.6996996996997","-2.1001001001001","1.83083083083083"
"4214","-1.12812812812813","5.87187187187187","-24.1281281281281","-0.6996996996997","-2.1001001001001","1.83083083083083"
"4214","-1.12812812812813","5.87187187187187","-24.1281281281281","-3.6996996996997","-1.1001001001001","1.83083083083083"
"4222","-2.12812812812813","5.87187187187187","-26.1281281281281","-3.6996996996997","-1.1001001001001","1.83083083083083"
"4222","-2.12812812812813","5.87187187187187","-26.1281281281281","-3.6996996996997","1.8998998998999","-0.169169169169169"
"4234","-0.128128128128128","5.87187187187187","-27.1281281281281","-3.6996996996997","1.8998998998999","-0.169169169169169"
"4234","-0.128128128128128","5.87187187187187","-27.1281281281281","0.3003003003003","0.8998998998999","-1.16916916916917"
"4242","-0.128128128128128","6.87187187187187","-29.1281281281281","0.3003003003003","0.8998998998999","-1.16916916916917"
"4243","-0.128128128128128","6.87187187187187","-29.1281281281281","-0.6996996996997","-1.1001001001001","-0.169169169169169"
"4255","-1.12812812812813","8.87187187187187","-29.1281281281281","-0.6996996996997","-1.1001001001001","-0.169169169169169"
"4255","-1.12812812812813","8.87187187187187","-29.1281281281281","2.3003003003003","-0.1001001001001","0.830830830830831"
"4263","-0.128128128128128","5.87187187187187","-26.1281281281281","2.3003003003003","-0.1001001001001","0.830830830830831"
"4263","-0.128128128128128","5.87187187187187","-26.1281281281281","0.3003003003003","-0.1001001001001","0.830830830830831"
"4271","-0.128128128128128","3.87187187187187","-23.1281281281281","0.3003003003003","-0.1001001001001","0.830830830830831"
"4275","-0.128128128128128","3.87187187187187","-23.1281281281281","-2.6996996996997","-1.1001001001001","-1.16916916916917"
"4283","-1.12812812812813","3.87187187187187","-24.1281281281281","-2.6996996996997","-1.1001001001001","-1.16916916916917"
"4284","-1.12812812812813","3.87187187187187","-24.1281281281281","-2.6996996996997","0.8998998998999","-2.16916916916917"
"4292","-0.128128128128128","5.87187187187187","-29.1281281281281","-2.6996996996997","0.8998998998999","-2.16916916916917"
"4292","-0.128128128128128","5.87187187187187","-29.1281281281281","4.3003003003003","1.8998998998999","-0.169169169169169"
"4304","-0.128128128128128","3.87187187187187","-24.1281281281281","4.3003003003003","1.8998998998999","-0.169169169169169"
"4304","-0.128128128128128","3.87187187187187","-24.1281281281281","0.3003003003003","-0.1001001001001","0.830830830830831"
"4312","-1.12812812812813","6.87187187187187","-26.1281281281281","0.3003003003003","-0.1001001001001","0.830830830830831"
"4312","-1.12812812812813","6.87187187187187","-26.1281281281281","2.3003003003003","-0.1001001001001","-2.16916916916917"
"4324","-0.128128128128128","6.87187187187187","-26.1281281281281","2.3003003003003","-0.1001001001001","-2.16916916916917"
"4324","-0.128128128128128","6.87187187187187","-26.1281281281281","3.3003003003003","-3.1001001001001","-0.169169169169169"
"4333","1.87187187187187","3.87187187187187","-26.1281281281281","3.3003003003003","-3.1001001001001","-0.169169169169169"
"4333","1.87187187187187","3.87187187187187","-26.1281281281281","4.3003003003003","-2.1001001001001","0.830830830830831"
"4344","-0.128128128128128","4.87187187187187","-26.1281281281281","4.3003003003003","-2.1001001001001","0.830830830830831"
"4344","-0.128128128128128","4.87187187187187","-26.1281281281281","0.3003003003003","-1.1001001001001","1.83083083083083"
"4353","-1.12812812812813","6.87187187187187","-28.1281281281281","0.3003003003003","-1.1001001001001","1.83083083083083"
"4353","-1.12812812812813","6.87187187187187","-28.1281281281281","1.3003003003003","-2.1001001001001","1.83083083083083"
"4361","-1.12812812812813","6.87187187187187","-26.1281281281281","1.3003003003003","-2.1001001001001","1.83083083083083"
"4365","-1.12812812812813","6.87187187187187","-26.1281281281281","3.3003003003003","0.8998998998999","0.830830830830831"
"4374","-1.12812812812813","2.87187187187187","-25.1281281281281","3.3003003003003","0.8998998998999","0.830830830830831"
"4374","-1.12812812812813","2.87187187187187","-25.1281281281281","-1.6996996996997","0.8998998998999","-0.169169169169169"
"4382","-1.12812812812813","7.87187187187187","-25.1281281281281","-1.6996996996997","0.8998998998999","-0.169169169169169"
"4386","-1.12812812812813","7.87187187187187","-25.1281281281281","-2.6996996996997","1.8998998998999","-0.169169169169169"
"4394","-2.12812812812813","6.87187187187187","-27.1281281281281","-2.6996996996997","1.8998998998999","-0.169169169169169"
"4394","-2.12812812812813","6.87187187187187","-27.1281281281281","2.3003003003003","0.8998998998999","-0.169169169169169"
"4402","-0.128128128128128","3.87187187187187","-25.1281281281281","2.3003003003003","0.8998998998999","-0.169169169169169"
"4402","-0.128128128128128","3.87187187187187","-25.1281281281281","0.3003003003003","-1.1001001001001","-1.16916916916917"
"4414","-0.128128128128128","4.87187187187187","-23.1281281281281","0.3003003003003","-1.1001001001001","-1.16916916916917"
"4415","-0.128128128128128","4.87187187187187","-23.1281281281281","-1.6996996996997","-0.1001001001001","-1.16916916916917"
"4423","-0.128128128128128","6.87187187187187","-27.1281281281281","-1.6996996996997","-0.1001001001001","-1.16916916916917"
"4423","-0.128128128128128","6.87187187187187","-27.1281281281281","4.3003003003003","0.8998998998999","1.83083083083083"
"4435","-0.128128128128128","4.87187187187187","-26.1281281281281","4.3003003003003","0.8998998998999","1.83083083083083"
"4435","-0.128128128128128","4.87187187187187","-26.1281281281281","3.3003003003003","-1.1001001001001","-1.16916916916917"
"4443","-1.12812812812813","4.87187187187187","-28.1281281281281","3.3003003003003","-1.1001001001001","-1.16916916916917"
"4443","-1.12812812812813","4.87187187187187","-28.1281281281281","-1.6996996996997","-2.1001001001001","1.83083083083083"
"4451","0.871871871871872","6.87187187187187","-27.1281281281281","-1.6996996996997","-2.1001001001001","1.83083083083083"
"4455","0.871871871871872","6.87187187187187","-27.1281281281281","0.3003003003003","-1.1001001001001","-0.169169169169169"
"4464","-1.12812812812813","5.87187187187187","-29.1281281281281","0.3003003003003","-1.1001001001001","-0.169169169169169"
"4464","-1.12812812812813","5.87187187187187","-29.1281281281281","4.3003003003003","-2.1001001001001","-1.16916916916917"
"4472","0.871871871871872","3.87187187187187","-25.1281281281281","4.3003003003003","-2.1001001001001","-1.16916916916917"
"4476","0.871871871871872","3.87187187187187","-25.1281281281281","-0.6996996996997","-2.1001001001001","2.83083083083083"
"4484","1.87187187187187","5.87187187187187","-26.1281281281281","-0.6996996996997","-2.1001001001001","2.83083083083083"
"4484","1.87187187187187","5.87187187187187","-26.1281281281281","0.3003003003003","-0.1001001001001","0.830830830830831"
"4492","-1.12812812812813","5.87187187187187","-31.1281281281281","0.3003003003003","-0.1001001001001","0.830830830830831"
"4492","-1.12812812812813","5.87187187187187","-31.1281281281281","2.3003003003003","0.8998998998999","-0.169169169169169"
"4505","-0.128128128128128","2.87187187187187","-26.1281281281281","2.3003003003003","0.8998998998999","-0.169169169169169"
"4505","-0.128128128128128","2.87187187187187","-26.1281281281281","0.3003003003003","1.8998998998999","-0.169169169169169"
"4513","-0.128128128128128","4.87187187187187","-26.1281281281281","0.3003003003003","1.8998998998999","-0.169169169169169"
"4513","-0.128128128128128","4.87187187187187","-26.1281281281281","-0.6996996996997","0.8998998998999","0.830830830830831"
"4525","-1.12812812812813","4.87187187187187","-26.1281281281281","-0.6996996996997","0.8998998998999","0.830830830830831"
"4525","-1.12812812812813","4.87187187187187","-26.1281281281281","0.3003003003003","-1.1001001001001","0.830830830830831"
"4533","-0.128128128128128","5.87187187187187","-28.1281281281281","0.3003003003003","-1.1001001001001","0.830830830830831"
"4533","-0.128128128128128","5.87187187187187","-28.1281281281281","2.3003003003003","-0.1001001001001","1.83083083083083"
"4541","-0.128128128128128","4.87187187187187","-27.1281281281281","2.3003003003003","-0.1001001001001","1.83083083083083"
"4545","-0.128128128128128","4.87187187187187","-27.1281281281281","4.3003003003003","-2.1001001001001","0.830830830830831"
"4554","-0.128128128128128","5.87187187187187","-27.1281281281281","4.3003003003003","-2.1001001001001","0.830830830830831"
"4554","-0.128128128128128","5.87187187187187","-27.1281281281281","0.3003003003003","-0.1001001001001","-0.169169169169169"
"4562","-3.12812812812813","6.87187187187187","-26.1281281281281","0.3003003003003","-0.1001001001001","-0.169169169169169"
"4566","-3.12812812812813","6.87187187187187","-26.1281281281281","1.3003003003003","-1.1001001001001","3.83083083083083"
"4574","-1.12812812812813","1.87187187187187","-22.1281281281281","1.3003003003003","-1.1001001001001","3.83083083083083"
"4574","-1.12812812812813","1.87187187187187","-22.1281281281281","2.3003003003003","0.8998998998999","0.830830830830831"
"4582","-3.12812812812813","5.87187187187187","-26.1281281281281","2.3003003003003","0.8998998998999","0.830830830830831"
"4586","-3.12812812812813","5.87187187187187","-26.1281281281281","-0.6996996996997","2.8998998998999","-0.169169169169169"
"4595","-1.12812812812813","6.87187187187187","-29.1281281281281","-0.6996996996997","2.8998998998999","-0.169169169169169"
"4595","-1.12812812812813","6.87187187187187","-29.1281281281281","6.3003003003003","-0.1001001001001","0.830830830830831"
"4603","-0.128128128128128","4.87187187187187","-26.1281281281281","6.3003003003003","-0.1001001001001","0.830830830830831"
"4603","-0.128128128128128","4.87187187187187","-26.1281281281281","0.3003003003003","-0.1001001001001","-0.169169169169169"
"4615","-3.12812812812813","4.87187187187187","-25.1281281281281","0.3003003003003","-0.1001001001001","-0.169169169169169"
"4615","-3.12812812812813","4.87187187187187","-25.1281281281281","-2.6996996996997","-1.1001001001001","0.830830830830831"
"4623","-1.12812812812813","9.87187187187187","-26.1281281281281","-2.6996996996997","-1.1001001001001","0.830830830830831"
"4624","-1.12812812812813","9.87187187187187","-26.1281281281281","1.3003003003003","0.8998998998999","1.83083083083083"
"4635","-0.128128128128128","4.87187187187187","-28.1281281281281","1.3003003003003","0.8998998998999","1.83083083083083"
"4635","-0.128128128128128","4.87187187187187","-28.1281281281281","1.3003003003003","-0.1001001001001","-0.169169169169169"
"4644","-2.12812812812813","3.87187187187187","-28.1281281281281","1.3003003003003","-0.1001001001001","-0.169169169169169"
"4644","-2.12812812812813","3.87187187187187","-28.1281281281281","-0.6996996996997","3.8998998998999","-1.16916916916917"
"4652","-2.12812812812813","5.87187187187187","-27.1281281281281","-0.6996996996997","3.8998998998999","-1.16916916916917"
"4656","-2.12812812812813","5.87187187187187","-27.1281281281281","0.3003003003003","-0.1001001001001","-3.16916916916917"
"4664","-2.12812812812813","7.87187187187187","-29.1281281281281","0.3003003003003","-0.1001001001001","-3.16916916916917"
"4664","-2.12812812812813","7.87187187187187","-29.1281281281281","0.3003003003003","-0.1001001001001","0.830830830830831"
"4672","-2.12812812812813","3.87187187187187","-24.1281281281281","0.3003003003003","-0.1001001001001","0.830830830830831"
"4676","-2.12812812812813","3.87187187187187","-24.1281281281281","-1.6996996996997","0.8998998998999","-0.169169169169169"
"4685","-2.12812812812813","3.87187187187187","-26.1281281281281","-1.6996996996997","0.8998998998999","-0.169169169169169"
"4685","-2.12812812812813","3.87187187187187","-26.1281281281281","-0.6996996996997","-2.1001001001001","-2.16916916916917"
"4693","0.871871871871872","7.87187187187187","-30.1281281281281","-0.6996996996997","-2.1001001001001","-2.16916916916917"
"4693","0.871871871871872","7.87187187187187","-30.1281281281281","3.3003003003003","1.8998998998999","-0.169169169169169"
"4705","-0.128128128128128","4.87187187187187","-28.1281281281281","3.3003003003003","1.8998998998999","-0.169169169169169"
"4705","-0.128128128128128","4.87187187187187","-28.1281281281281","2.3003003003003","-1.1001001001001","-1.16916916916917"
"4713","-0.128128128128128","3.87187187187187","-25.1281281281281","2.3003003003003","-1.1001001001001","-1.16916916916917"
"4714","-0.128128128128128","3.87187187187187","-25.1281281281281","-0.6996996996997","1.8998998998999","0.830830830830831"
"4722","-0.128128128128128","3.87187187187187","-25.1281281281281","-0.6996996996997","1.8998998998999","0.830830830830831"
"4726","-0.128128128128128","3.87187187187187","-25.1281281281281","-0.6996996996997","1.8998998998999","0.830830830830831"
"4734","-0.128128128128128","7.87187187187187","-27.1281281281281","-0.6996996996997","1.8998998998999","0.830830830830831"
"4734","-0.128128128128128","7.87187187187187","-27.1281281281281","4.3003003003003","-3.1001001001001","0.830830830830831"
"4742","-3.12812812812813","2.87187187187187","-24.1281281281281","4.3003003003003","-3.1001001001001","0.830830830830831"
"4746","-3.12812812812813","2.87187187187187","-24.1281281281281","-1.6996996996997","-3.1001001001001","-0.169169169169169"
"4754","-1.12812812812813","6.87187187187187","-26.1281281281281","-1.6996996996997","-3.1001001001001","-0.169169169169169"
"4755","-1.12812812812813","6.87187187187187","-26.1281281281281","-0.6996996996997","1.8998998998999","0.830830830830831"
"4763","-0.128128128128128","6.87187187187187","-28.1281281281281","-0.6996996996997","1.8998998998999","0.830830830830831"
"4767","-0.128128128128128","6.87187187187187","-28.1281281281281","1.3003003003003","1.8998998998999","0.830830830830831"
"4775","1.87187187187187","3.87187187187187","-25.1281281281281","1.3003003003003","1.8998998998999","0.830830830830831"
"4775","1.87187187187187","3.87187187187187","-25.1281281281281","-1.6996996996997","-1.1001001001001","-2.16916916916917"
"4783","-1.12812812812813","4.87187187187187","-26.1281281281281","-1.6996996996997","-1.1001001001001","-2.16916916916917"
"4783","-1.12812812812813","4.87187187187187","-26.1281281281281","-1.6996996996997","-0.1001001001001","0.830830830830831"
"4795","1.87187187187187","9.87187187187187","-28.1281281281281","-1.6996996996997","-0.1001001001001","0.830830830830831"
"4795","1.87187187187187","9.87187187187187","-28.1281281281281","0.3003003003003","-0.1001001001001","-2.16916916916917"
"4804","-0.128128128128128","5.87187187187187","-28.1281281281281","0.3003003003003","-0.1001001001001","-2.16916916916917"
"4804","-0.128128128128128","5.87187187187187","-28.1281281281281","0.3003003003003","-0.1001001001001","0.830830830830831"
"4816","-1.12812812812813","3.87187187187187","-27.1281281281281","0.3003003003003","-0.1001001001001","0.830830830830831"
"4816","-1.12812812812813","3.87187187187187","-27.1281281281281","-0.6996996996997","1.8998998998999","1.83083083083083"
"4824","-2.12812812812813","5.87187187187187","-27.1281281281281","-0.6996996996997","1.8998998998999","1.83083083083083"
"4824","-2.12812812812813","5.87187187187187","-27.1281281281281","-0.6996996996997","1.8998998998999","1.83083083083083"
"4832","-0.128128128128128","8.87187187187187","-26.1281281281281","-0.6996996996997","1.8998998998999","1.83083083083083"
"4836","-0.128128128128128","8.87187187187187","-26.1281281281281","2.3003003003003","-2.1001001001001","-1.16916916916917"
"4845","1.87187187187187","2.87187187187187","-29.1281281281281","2.3003003003003","-2.1001001001001","-1.16916916916917"
"4845","1.87187187187187","2.87187187187187","-29.1281281281281","0.3003003003003","-1.1001001001001","0.830830830830831"
"4853","-1.12812812812813","5.87187187187187","-26.1281281281281","0.3003003003003","-1.1001001001001","0.830830830830831"
"4857","-1.12812812812813","5.87187187187187","-26.1281281281281","0.3003003003003","-1.1001001001001","-0.169169169169169"
"4865","-0.128128128128128","7.87187187187187","-32.1281281281281","0.3003003003003","-1.1001001001001","-0.169169169169169"
"4865","-0.128128128128128","7.87187187187187","-32.1281281281281","0.3003003003003","-1.1001001001001","-1.16916916916917"
"4873","-0.128128128128128","4.87187187187187","-28.1281281281281","0.3003003003003","-1.1001001001001","-1.16916916916917"
"4873","-0.128128128128128","4.87187187187187","-28.1281281281281","0.3003003003003","-1.1001001001001","-1.16916916916917"
"4886","-0.128128128128128","4.87187187187187","-25.1281281281281","0.3003003003003","-1.1001001001001","-1.16916916916917"
"4886","-0.128128128128128","4.87187187187187","-25.1281281281281","-0.6996996996997","0.8998998998999","1.83083083083083"
"4894","-1.12812812812813","7.87187187187187","-30.1281281281281","-0.6996996996997","0.8998998998999","1.83083083083083"
"4894","-1.12812812812813","7.87187187187187","-30.1281281281281","3.3003003003003","-0.1001001001001","1.83083083083083"
"4906","-1.12812812812813","5.87187187187187","-28.1281281281281","3.3003003003003","-0.1001001001001","1.83083083083083"
"4906","-1.12812812812813","5.87187187187187","-28.1281281281281","-1.6996996996997","-1.1001001001001","-1.16916916916917"
"4914","-1.12812812812813","3.87187187187187","-24.1281281281281","-1.6996996996997","-1.1001001001001","-1.16916916916917"
"4914","-1.12812812812813","3.87187187187187","-24.1281281281281","-2.6996996996997","-2.1001001001001","-1.16916916916917"
"4922","-1.12812812812813","3.87187187187187","-24.1281281281281","-2.6996996996997","-2.1001001001001","-1.16916916916917"
"4926","-1.12812812812813","3.87187187187187","-24.1281281281281","-2.6996996996997","-2.1001001001001","-1.16916916916917"
"4935","-0.128128128128128","5.87187187187187","-28.1281281281281","-2.6996996996997","-2.1001001001001","-1.16916916916917"
"4935","-0.128128128128128","5.87187187187187","-28.1281281281281","1.3003003003003","-2.1001001001001","-1.16916916916917"
"4943","-2.12812812812813","3.87187187187187","-27.1281281281281","1.3003003003003","-2.1001001001001","-1.16916916916917"
"4947","-2.12812812812813","3.87187187187187","-27.1281281281281","-0.6996996996997","-0.1001001001001","0.830830830830831"
"4955","-1.12812812812813","4.87187187187187","-27.1281281281281","-0.6996996996997","-0.1001001001001","0.830830830830831"
"4955","-1.12812812812813","4.87187187187187","-27.1281281281281","-1.6996996996997","-1.1001001001001","0.830830830830831"
"4963","0.871871871871872","5.87187187187187","-26.1281281281281","-1.6996996996997","-1.1001001001001","0.830830830830831"
"4967","0.871871871871872","5.87187187187187","-26.1281281281281","3.3003003003003","0.8998998998999","-0.169169169169169"
"4976","-0.128128128128128","4.87187187187187","-26.1281281281281","3.3003003003003","0.8998998998999","-0.169169169169169"
"4976","-0.128128128128128","4.87187187187187","-26.1281281281281","3.3003003003003","0.8998998998999","-0.169169169169169"
"4984","-1.12812812812813","4.87187187187187","-26.1281281281281","3.3003003003003","0.8998998998999","-0.169169169169169"
"4984","-1.12812812812813","4.87187187187187","-26.1281281281281","1.3003003003003","1.8998998998999","-0.169169169169169"
"4996","-1.12812812812813","7.87187187187187","-28.1281281281281","1.3003003003003","1.8998998998999","-0.169169169169169"
"4996","-1.12812812812813","7.87187187187187","-28.1281281281281","1.3003003003003","0.8998998998999","-0.169169169169169"
"5004","-1.12812812812813","6.87187187187187","-27.1281281281281","1.3003003003003","0.8998998998999","-0.169169169169169"
"5004","-1.12812812812813","6.87187187187187","-27.1281281281281","0.3003003003003","2.8998998998999","-0.169169169169169"
"5016","-2.12812812812813","4.87187187187187","-25.1281281281281","0.3003003003003","2.8998998998999","-0.169169169169169"
"5017","-2.12812812812813","4.87187187187187","-25.1281281281281","-5.6996996996997","-0.1001001001001","-0.169169169169169"
"5021","-2.12812812812813","4.87187187187187","-25.1281281281281","-5.6996996996997","-0.1001001001001","-0.169169169169169"
"5025","-2.12812812812813","4.87187187187187","-25.1281281281281","-5.6996996996997","-0.1001001001001","-0.169169169169169"
"5033","-2.12812812812813","8.87187187187187","-28.1281281281281","-5.6996996996997","-0.1001001001001","-0.169169169169169"
"5037","-2.12812812812813","8.87187187187187","-28.1281281281281","0.3003003003003","1.8998998998999","1.83083083083083"
"5045","0.871871871871872","3.87187187187187","-26.1281281281281","0.3003003003003","1.8998998998999","1.83083083083083"
"5045","0.871871871871872","3.87187187187187","-26.1281281281281","-2.6996996996997","1.8998998998999","2.83083083083083"
"5053","1.87187187187187","3.87187187187187","-24.1281281281281","-2.6996996996997","1.8998998998999","2.83083083083083"
"5057","1.87187187187187","3.87187187187187","-24.1281281281281","-1.6996996996997","-1.1001001001001","-1.16916916916917"
"5066","0.871871871871872","7.87187187187187","-26.1281281281281","-1.6996996996997","-1.1001001001001","-1.16916916916917"
"5066","0.871871871871872","7.87187187187187","-26.1281281281281","-1.6996996996997","-1.1001001001001","-1.16916916916917"
"5074","0.871871871871872","7.87187187187187","-26.1281281281281","-1.6996996996997","-1.1001001001001","-1.16916916916917"
"5074","0.871871871871872","7.87187187187187","-26.1281281281281","-1.6996996996997","-2.1001001001001","-1.16916916916917"
"5086","-4.12812812812813","2.87187187187187","-26.1281281281281","-1.6996996996997","-2.1001001001001","-1.16916916916917"
"5086","-4.12812812812813","2.87187187187187","-26.1281281281281","-1.6996996996997","-0.1001001001001","1.83083083083083"
"5094","-1.12812812812813","3.87187187187187","-30.1281281281281","-1.6996996996997","-0.1001001001001","1.83083083083083"
"5095","-1.12812812812813","3.87187187187187","-30.1281281281281","-1.6996996996997","-0.1001001001001","1.83083083083083"
"5107","-1.12812812812813","6.87187187187187","-28.1281281281281","-1.6996996996997","-0.1001001001001","1.83083083083083"
"5107","-1.12812812812813","6.87187187187187","-28.1281281281281","-2.6996996996997","-0.1001001001001","-2.16916916916917"
"5115","-1.12812812812813","3.87187187187187","-26.1281281281281","-2.6996996996997","-0.1001001001001","-2.16916916916917"
"5115","-1.12812812812813","3.87187187187187","-26.1281281281281","-0.6996996996997","0.8998998998999","0.830830830830831"
"5123","-1.12812812812813","3.87187187187187","-26.1281281281281","-0.6996996996997","0.8998998998999","0.830830830830831"
"5123","-1.12812812812813","3.87187187187187","-26.1281281281281","0.3003003003003","1.8998998998999","0.830830830830831"
"5135","-1.12812812812813","6.87187187187187","-25.1281281281281","0.3003003003003","1.8998998998999","0.830830830830831"
"5136","-1.12812812812813","6.87187187187187","-25.1281281281281","0.3003003003003","1.8998998998999","-0.169169169169169"
"5144","1.87187187187187","3.87187187187187","-28.1281281281281","0.3003003003003","1.8998998998999","-0.169169169169169"
"5147","1.87187187187187","3.87187187187187","-28.1281281281281","2.3003003003003","-0.1001001001001","1.83083083083083"
"5156","-1.12812812812813","4.87187187187187","-24.1281281281281","2.3003003003003","-0.1001001001001","1.83083083083083"
"5156","-1.12812812812813","4.87187187187187","-24.1281281281281","-3.6996996996997","-1.1001001001001","-0.169169169169169"
"5164","0.871871871871872","6.87187187187187","-29.1281281281281","-3.6996996996997","-1.1001001001001","-0.169169169169169"
"5164","0.871871871871872","6.87187187187187","-29.1281281281281","-1.6996996996997","0.8998998998999","0.830830830830831"
"5172","0.871871871871872","6.87187187187187","-29.1281281281281","-1.6996996996997","0.8998998998999","0.830830830830831"
"5176","0.871871871871872","6.87187187187187","-29.1281281281281","3.3003003003003","-0.1001001001001","-0.169169169169169"
"5184","-0.128128128128128","3.87187187187187","-25.1281281281281","3.3003003003003","-0.1001001001001","-0.169169169169169"
"5185","-0.128128128128128","3.87187187187187","-25.1281281281281","1.3003003003003","1.8998998998999","0.830830830830831"
"5197","-0.128128128128128","6.87187187187187","-28.1281281281281","1.3003003003003","1.8998998998999","0.830830830830831"
"5197","-0.128128128128128","6.87187187187187","-28.1281281281281","-0.6996996996997","2.8998998998999","0.830830830830831"
"5205","1.87187187187187","7.87187187187187","-30.1281281281281","-0.6996996996997","2.8998998998999","0.830830830830831"
"5205","1.87187187187187","7.87187187187187","-30.1281281281281","0.3003003003003","-1.1001001001001","1.83083083083083"
"5217","-1.12812812812813","4.87187187187187","-25.1281281281281","0.3003003003003","-1.1001001001001","1.83083083083083"
"5217","-1.12812812812813","4.87187187187187","-25.1281281281281","2.3003003003003","-2.1001001001001","0.830830830830831"
"5221","-1.12812812812813","4.87187187187187","-25.1281281281281","2.3003003003003","-2.1001001001001","0.830830830830831"
"5225","-1.12812812812813","4.87187187187187","-25.1281281281281","-3.6996996996997","-2.1001001001001","2.83083083083083"
"5234","-0.128128128128128","7.87187187187187","-28.1281281281281","-3.6996996996997","-2.1001001001001","2.83083083083083"
"5238","-0.128128128128128","7.87187187187187","-28.1281281281281","-1.6996996996997","-1.1001001001001","0.830830830830831"
"5246","0.871871871871872","5.87187187187187","-27.1281281281281","-1.6996996996997","-1.1001001001001","0.830830830830831"
"5246","0.871871871871872","5.87187187187187","-27.1281281281281","-0.6996996996997","-0.1001001001001","-4.16916916916917"
"5254","-1.12812812812813","4.87187187187187","-26.1281281281281","-0.6996996996997","-0.1001001001001","-4.16916916916917"
"5254","-1.12812812812813","4.87187187187187","-26.1281281281281","2.3003003003003","-2.1001001001001","0.830830830830831"
"5266","-2.12812812812813","6.87187187187187","-26.1281281281281","2.3003003003003","-2.1001001001001","0.830830830830831"
"5267","-2.12812812812813","6.87187187187187","-26.1281281281281","0.3003003003003","-1.1001001001001","-1.16916916916917"
"5270","-2.12812812812813","6.87187187187187","-26.1281281281281","0.3003003003003","-1.1001001001001","-1.16916916916917"
"5275","-2.12812812812813","6.87187187187187","-26.1281281281281","4.3003003003003","-2.1001001001001","-0.169169169169169"
"5287","-1.12812812812813","0.871871871871872","-27.1281281281281","4.3003003003003","-2.1001001001001","-0.169169169169169"
"5287","-1.12812812812813","0.871871871871872","-27.1281281281281","1.3003003003003","-0.1001001001001","-2.16916916916917"
"5295","-1.12812812812813","4.87187187187187","-28.1281281281281","1.3003003003003","-0.1001001001001","-2.16916916916917"
"5295","-1.12812812812813","4.87187187187187","-28.1281281281281","-0.6996996996997","-1.1001001001001","-2.16916916916917"
"5307","-2.12812812812813","8.87187187187187","-28.1281281281281","-0.6996996996997","-1.1001001001001","-2.16916916916917"
"5307","-2.12812812812813","8.87187187187187","-28.1281281281281","0.3003003003003","-3.1001001001001","-1.16916916916917"
"5315","-0.128128128128128","5.87187187187187","-24.1281281281281","0.3003003003003","-3.1001001001001","-1.16916916916917"
"5316","-0.128128128128128","5.87187187187187","-24.1281281281281","2.3003003003003","-2.1001001001001","0.830830830830831"
"5324","-0.128128128128128","5.87187187187187","-24.1281281281281","2.3003003003003","-2.1001001001001","0.830830830830831"
"5324","-0.128128128128128","5.87187187187187","-24.1281281281281","3.3003003003003","-3.1001001001001","-2.16916916916917"
"5336","-0.128128128128128","3.87187187187187","-26.1281281281281","3.3003003003003","-3.1001001001001","-2.16916916916917"
"5336","-0.128128128128128","3.87187187187187","-26.1281281281281","2.3003003003003","0.8998998998999","-0.169169169169169"
"5344","-1.12812812812813","5.87187187187187","-28.1281281281281","2.3003003003003","0.8998998998999","-0.169169169169169"
"5348","-1.12812812812813","5.87187187187187","-28.1281281281281","0.3003003003003","-2.1001001001001","-1.16916916916917"
"5357","-0.128128128128128","4.87187187187187","-23.1281281281281","0.3003003003003","-2.1001001001001","-1.16916916916917"
"5357","-0.128128128128128","4.87187187187187","-23.1281281281281","1.3003003003003","-2.1001001001001","0.830830830830831"
"5365","-0.128128128128128","4.87187187187187","-26.1281281281281","1.3003003003003","-2.1001001001001","0.830830830830831"
"5365","-0.128128128128128","4.87187187187187","-26.1281281281281","-0.6996996996997","-2.1001001001001","-3.16916916916917"
"5373","-0.128128128128128","4.87187187187187","-26.1281281281281","-0.6996996996997","-2.1001001001001","-3.16916916916917"
"5373","-0.128128128128128","4.87187187187187","-26.1281281281281","6.3003003003003","-2.1001001001001","-3.16916916916917"
"5385","-1.12812812812813","3.87187187187187","-24.1281281281281","6.3003003003003","-2.1001001001001","-3.16916916916917"
"5385","-1.12812812812813","3.87187187187187","-24.1281281281281","2.3003003003003","-0.1001001001001","-1.16916916916917"
"5397","-2.12812812812813","5.87187187187187","-26.1281281281281","2.3003003003003","-0.1001001001001","-1.16916916916917"
"5398","-2.12812812812813","5.87187187187187","-26.1281281281281","0.3003003003003","-0.1001001001001","-2.16916916916917"
"5406","-3.12812812812813","5.87187187187187","-26.1281281281281","0.3003003003003","-0.1001001001001","-2.16916916916917"
"5406","-3.12812812812813","5.87187187187187","-26.1281281281281","2.3003003003003","0.8998998998999","0.830830830830831"
"5414","-0.128128128128128","2.87187187187187","-27.1281281281281","2.3003003003003","0.8998998998999","0.830830830830831"
"5418","-0.128128128128128","2.87187187187187","-27.1281281281281","1.3003003003003","1.8998998998999","-2.16916916916917"
"5422","-0.128128128128128","2.87187187187187","-27.1281281281281","1.3003003003003","1.8998998998999","-2.16916916916917"
"5422","-0.128128128128128","2.87187187187187","-27.1281281281281","1.3003003003003","-2.1001001001001","-1.16916916916917"
"5434","1.87187187187187","8.87187187187187","-26.1281281281281","1.3003003003003","-2.1001001001001","-1.16916916916917"
"5438","1.87187187187187","8.87187187187187","-26.1281281281281","-3.6996996996997","-4.1001001001001","0.830830830830831"
"5447","-0.128128128128128","4.87187187187187","-27.1281281281281","-3.6996996996997","-4.1001001001001","0.830830830830831"
"5447","-0.128128128128128","4.87187187187187","-27.1281281281281","-0.6996996996997","0.8998998998999","-2.16916916916917"
"5455","-2.12812812812813","1.87187187187187","-27.1281281281281","-0.6996996996997","0.8998998998999","-2.16916916916917"
"5455","-2.12812812812813","1.87187187187187","-27.1281281281281","1.3003003003003","-3.1001001001001","-0.169169169169169"
"5467","-2.12812812812813","6.87187187187187","-26.1281281281281","1.3003003003003","-3.1001001001001","-0.169169169169169"
"5467","-2.12812812812813","6.87187187187187","-26.1281281281281","-2.6996996996997","-0.1001001001001","-0.169169169169169"
"5471","-2.12812812812813","6.87187187187187","-26.1281281281281","-2.6996996996997","-0.1001001001001","-0.169169169169169"
"5475","-2.12812812812813","6.87187187187187","-26.1281281281281","1.3003003003003","0.8998998998999","-3.16916916916917"
"5488","-0.128128128128128","2.87187187187187","-25.1281281281281","1.3003003003003","0.8998998998999","-3.16916916916917"
"5488","-0.128128128128128","2.87187187187187","-25.1281281281281","2.3003003003003","0.8998998998999","-1.16916916916917"
"5496","-3.12812812812813","4.87187187187187","-28.1281281281281","2.3003003003003","0.8998998998999","-1.16916916916917"
"5496","-3.12812812812813","4.87187187187187","-28.1281281281281","-0.6996996996997","-2.1001001001001","-2.16916916916917"
"5504","-1.12812812812813","8.87187187187187","-27.1281281281281","-0.6996996996997","-2.1001001001001","-2.16916916916917"
"5508","-1.12812812812813","8.87187187187187","-27.1281281281281","0.3003003003003","-1.1001001001001","0.830830830830831"
"5516","0.871871871871872","4.87187187187187","-25.1281281281281","0.3003003003003","-1.1001001001001","0.830830830830831"
"5517","0.871871871871872","4.87187187187187","-25.1281281281281","2.3003003003003","-1.1001001001001","-2.16916916916917"
"5524","0.871871871871872","4.87187187187187","-25.1281281281281","2.3003003003003","-1.1001001001001","-2.16916916916917"
"5525","0.871871871871872","4.87187187187187","-25.1281281281281","5.3003003003003","-1.1001001001001","-0.169169169169169"
"5537","-0.128128128128128","5.87187187187187","-26.1281281281281","5.3003003003003","-1.1001001001001","-0.169169169169169"
"5537","-0.128128128128128","5.87187187187187","-26.1281281281281","-1.6996996996997","-2.1001001001001","-2.16916916916917"
"5545","0.871871871871872","7.87187187187187","-30.1281281281281","-1.6996996996997","-2.1001001001001","-2.16916916916917"
"5549","0.871871871871872","7.87187187187187","-30.1281281281281","4.3003003003003","-1.1001001001001","-1.16916916916917"
"5557","-1.12812812812813","3.87187187187187","-27.1281281281281","4.3003003003003","-1.1001001001001","-1.16916916916917"
"5557","-1.12812812812813","3.87187187187187","-27.1281281281281","3.3003003003003","-0.1001001001001","-1.16916916916917"
"5565","-2.12812812812813","6.87187187187187","-27.1281281281281","3.3003003003003","-0.1001001001001","-1.16916916916917"
"5566","-2.12812812812813","6.87187187187187","-27.1281281281281","0.3003003003003","0.8998998998999","-2.16916916916917"
"5574","-2.12812812812813","6.87187187187187","-27.1281281281281","0.3003003003003","0.8998998998999","-2.16916916916917"
"5574","-2.12812812812813","6.87187187187187","-27.1281281281281","0.3003003003003","-3.1001001001001","-3.16916916916917"
"5586","1.87187187187187","3.87187187187187","-26.1281281281281","0.3003003003003","-3.1001001001001","-3.16916916916917"
"5586","1.87187187187187","3.87187187187187","-26.1281281281281","3.3003003003003","-3.1001001001001","-1.16916916916917"
"5594","-3.12812812812813","6.87187187187187","-26.1281281281281","3.3003003003003","-3.1001001001001","-1.16916916916917"
"5598","-3.12812812812813","6.87187187187187","-26.1281281281281","1.3003003003003","-2.1001001001001","-1.16916916916917"
"5606","0.871871871871872","7.87187187187187","-26.1281281281281","1.3003003003003","-2.1001001001001","-1.16916916916917"
"5607","0.871871871871872","7.87187187187187","-26.1281281281281","1.3003003003003","-0.1001001001001","-2.16916916916917"
"5614","-0.128128128128128","5.87187187187187","-27.1281281281281","1.3003003003003","-0.1001001001001","-2.16916916916917"
"5619","-0.128128128128128","5.87187187187187","-27.1281281281281","2.3003003003003","0.8998998998999","-2.16916916916917"
"5623","-0.128128128128128","5.87187187187187","-27.1281281281281","2.3003003003003","0.8998998998999","-2.16916916916917"
"5623","-0.128128128128128","5.87187187187187","-27.1281281281281","1.3003003003003","-3.1001001001001","-3.16916916916917"
"5635","1.87187187187187","8.87187187187187","-26.1281281281281","1.3003003003003","-3.1001001001001","-3.16916916916917"
"5639","1.87187187187187","8.87187187187187","-26.1281281281281","1.3003003003003","-1.1001001001001","-2.16916916916917"
"5647","0.871871871871872","6.87187187187187","-29.1281281281281","1.3003003003003","-1.1001001001001","-2.16916916916917"
"5648","0.871871871871872","6.87187187187187","-29.1281281281281","2.3003003003003","-2.1001001001001","-2.16916916916917"
"5656","-0.128128128128128","3.87187187187187","-26.1281281281281","2.3003003003003","-2.1001001001001","-2.16916916916917"
"5656","-0.128128128128128","3.87187187187187","-26.1281281281281","-0.6996996996997","2.8998998998999","-2.16916916916917"
"5668","-3.12812812812813","6.87187187187187","-25.1281281281281","-0.6996996996997","2.8998998998999","-2.16916916916917"
"5668","-3.12812812812813","6.87187187187187","-25.1281281281281","-2.6996996996997","-0.1001001001001","-2.16916916916917"
"5672","-3.12812812812813","6.87187187187187","-25.1281281281281","-2.6996996996997","-0.1001001001001","-2.16916916916917"
"5676","-3.12812812812813","6.87187187187187","-25.1281281281281","-1.6996996996997","-1.1001001001001","-1.16916916916917"
"5684","-2.12812812812813","3.87187187187187","-25.1281281281281","-1.6996996996997","-1.1001001001001","-1.16916916916917"
"5688","-2.12812812812813","3.87187187187187","-25.1281281281281","-1.6996996996997","0.8998998998999","-0.169169169169169"
"5697","-1.12812812812813","3.87187187187187","-27.1281281281281","-1.6996996996997","0.8998998998999","-0.169169169169169"
"5697","-1.12812812812813","3.87187187187187","-27.1281281281281","-1.6996996996997","1.8998998998999","-1.16916916916917"
"5705","-1.12812812812813","6.87187187187187","-27.1281281281281","-1.6996996996997","1.8998998998999","-1.16916916916917"
"5709","-1.12812812812813","6.87187187187187","-27.1281281281281","-0.6996996996997","0.8998998998999","-2.16916916916917"
"5717","-0.128128128128128","5.87187187187187","-26.1281281281281","-0.6996996996997","0.8998998998999","-2.16916916916917"
"5717","-0.128128128128128","5.87187187187187","-26.1281281281281","2.3003003003003","-2.1001001001001","-3.16916916916917"
"5725","-0.128128128128128","5.87187187187187","-26.1281281281281","2.3003003003003","-2.1001001001001","-3.16916916916917"
"5725","-0.128128128128128","5.87187187187187","-26.1281281281281","2.3003003003003","-2.1001001001001","-1.16916916916917"
"5738","-3.12812812812813","5.87187187187187","-28.1281281281281","2.3003003003003","-2.1001001001001","-1.16916916916917"
"5738","-3.12812812812813","5.87187187187187","-28.1281281281281","2.3003003003003","-2.1001001001001","-1.16916916916917"
"5746","0.871871871871872","8.87187187187187","-27.1281281281281","2.3003003003003","-2.1001001001001","-1.16916916916917"
"5746","0.871871871871872","8.87187187187187","-27.1281281281281","0.3003003003003","-0.1001001001001","-0.169169169169169"
"5758","0.871871871871872","5.87187187187187","-26.1281281281281","0.3003003003003","-0.1001001001001","-0.169169169169169"
"5758","0.871871871871872","5.87187187187187","-26.1281281281281","1.3003003003003","0.8998998998999","3.83083083083083"
"5766","-1.12812812812813","5.87187187187187","-25.1281281281281","1.3003003003003","0.8998998998999","3.83083083083083"
"5766","-1.12812812812813","5.87187187187187","-25.1281281281281","0.3003003003003","1.8998998998999","-1.16916916916917"
"5774","-1.12812812812813","5.87187187187187","-25.1281281281281","0.3003003003003","1.8998998998999","-1.16916916916917"
"5775","-1.12812812812813","5.87187187187187","-25.1281281281281","0.3003003003003","1.8998998998999","0.830830830830831"
"5787","-3.12812812812813","4.87187187187187","-26.1281281281281","0.3003003003003","1.8998998998999","0.830830830830831"
"5787","-3.12812812812813","4.87187187187187","-26.1281281281281","2.3003003003003","1.8998998998999","1.83083083083083"
"5795","-3.12812812812813","4.87187187187187","-24.1281281281281","2.3003003003003","1.8998998998999","1.83083083083083"
"5799","-3.12812812812813","4.87187187187187","-24.1281281281281","0.3003003003003","-0.1001001001001","-0.169169169169169"
"5807","-2.12812812812813","5.87187187187187","-28.1281281281281","0.3003003003003","-0.1001001001001","-0.169169169169169"
"5807","-2.12812812812813","5.87187187187187","-28.1281281281281","-0.6996996996997","0.8998998998999","3.83083083083083"
"5815","0.871871871871872","6.87187187187187","-29.1281281281281","-0.6996996996997","0.8998998998999","3.83083083083083"
"5819","0.871871871871872","6.87187187187187","-29.1281281281281","0.3003003003003","-1.1001001001001","0.830830830830831"
"5823","0.871871871871872","6.87187187187187","-29.1281281281281","0.3003003003003","-1.1001001001001","0.830830830830831"
"5824","0.871871871871872","6.87187187187187","-29.1281281281281","2.3003003003003","-1.1001001001001","0.830830830830831"
"5836","0.871871871871872","4.87187187187187","-27.1281281281281","2.3003003003003","-1.1001001001001","0.830830830830831"
"5836","0.871871871871872","4.87187187187187","-27.1281281281281","1.3003003003003","0.8998998998999","-0.169169169169169"
"5848","-0.128128128128128","6.87187187187187","-28.1281281281281","1.3003003003003","0.8998998998999","-0.169169169169169"
"5848","-0.128128128128128","6.87187187187187","-28.1281281281281","3.3003003003003","-0.1001001001001","0.830830830830831"
"5856","-1.12812812812813","1.87187187187187","-28.1281281281281","3.3003003003003","-0.1001001001001","0.830830830830831"
"5857","-1.12812812812813","1.87187187187187","-28.1281281281281","0.3003003003003","1.8998998998999","1.83083083083083"
