Timer,AX,AY,AZ,GX,GY,GZ
"1008","0.7250745279894","8.7250745279894","-27.2749254720106","3.06459092414707","1.95660814839351","-0.0529976813514409"
"1010","0.7250745279894","8.7250745279894","-27.2749254720106","1.06459092414707","-2.04339185160649","-1.05299768135144"
"1019","0.7250745279894","3.7250745279894","-23.2749254720106","1.06459092414707","-2.04339185160649","-1.05299768135144"
"1019","0.7250745279894","3.7250745279894","-23.2749254720106","-2.93540907585293","0.956608148393508","-0.0529976813514409"
"1027","0.7250745279894","8.7250745279894","-27.2749254720106","-2.93540907585293","0.956608148393508","-0.0529976813514409"
"1027","0.7250745279894","8.7250745279894","-27.2749254720106","2.06459092414707","-1.04339185160649","-0.0529976813514409"
"1039","-1.2749254720106","10.7250745279894","-27.2749254720106","2.06459092414707","-1.04339185160649","-0.0529976813514409"
"1039","-1.2749254720106","10.7250745279894","-27.2749254720106","4.06459092414707","-0.0433918516064922","-1.05299768135144"
"1047","-1.2749254720106","3.7250745279894","-27.2749254720106","4.06459092414707","-0.0433918516064922","-1.05299768135144"
"1047","-1.2749254720106","3.7250745279894","-27.2749254720106","-0.935409075852931","-0.0433918516064922","1.94700231864856"
"1059","2.7250745279894","3.7250745279894","-24.2749254720106","-0.935409075852931","-0.0433918516064922","1.94700231864856"
"1059","2.7250745279894","3.7250745279894","-24.2749254720106","-0.935409075852931","-0.0433918516064922","-0.0529976813514409"
"1068","-0.2749254720106","9.7250745279894","-28.2749254720106","-0.935409075852931","-0.0433918516064922","-0.0529976813514409"
"1068","-0.2749254720106","9.7250745279894","-28.2749254720106","2.06459092414707","-0.0433918516064922","-0.0529976813514409"
"1076","2.7250745279894","5.7250745279894","-26.2749254720106","2.06459092414707","-0.0433918516064922","-0.0529976813514409"
"1080","2.7250745279894","5.7250745279894","-26.2749254720106","3.06459092414707","-1.04339185160649","-1.05299768135144"
"1088","1.7250745279894","3.7250745279894","-21.2749254720106","3.06459092414707","-1.04339185160649","-1.05299768135144"
"1088","1.7250745279894","3.7250745279894","-21.2749254720106","2.06459092414707","-1.04339185160649","-0.0529976813514409"
"1096","-0.2749254720106","8.7250745279894","-26.2749254720106","2.06459092414707","-1.04339185160649","-0.0529976813514409"
"1100","-0.2749254720106","8.7250745279894","-26.2749254720106","2.06459092414707","-0.0433918516064922","-0.0529976813514409"
"1109","-0.2749254720106","8.7250745279894","-28.2749254720106","2.06459092414707","-0.0433918516064922","-0.0529976813514409"
"1109","-0.2749254720106","8.7250745279894","-28.2749254720106","2.06459092414707","0.956608148393508","-1.05299768135144"
"1117","-0.2749254720106","4.7250745279894","-26.2749254720106","2.06459092414707","0.956608148393508","-1.05299768135144"
"1117","-0.2749254720106","4.7250745279894","-26.2749254720106","0.0645909241470686","-0.0433918516064922","1.94700231864856"
"1129","-1.2749254720106","3.7250745279894","-25.2749254720106","0.0645909241470686","-0.0433918516064922","1.94700231864856"
"1129","-1.2749254720106","3.7250745279894","-25.2749254720106","2.06459092414707","-1.04339185160649","1.94700231864856"
"1137","0.7250745279894","7.7250745279894","-24.2749254720106","2.06459092414707","-1.04339185160649","1.94700231864856"
"1138","0.7250745279894","7.7250745279894","-24.2749254720106","3.06459092414707","-1.04339185160649","-0.0529976813514409"
"1149","-0.2749254720106","4.7250745279894","-27.2749254720106","3.06459092414707","-1.04339185160649","-0.0529976813514409"
"1150","-0.2749254720106","4.7250745279894","-27.2749254720106","-0.935409075852931","-0.0433918516064922","-2.05299768135144"
"1158","1.7250745279894","2.7250745279894","-26.2749254720106","-0.935409075852931","-0.0433918516064922","-2.05299768135144"
"1158","1.7250745279894","2.7250745279894","-26.2749254720106","-0.935409075852931","-0.0433918516064922","-1.05299768135144"
"1166","-0.2749254720106","7.7250745279894","-27.2749254720106","-0.935409075852931","-0.0433918516064922","-1.05299768135144"
"1170","-0.2749254720106","7.7250745279894","-27.2749254720106","-0.935409075852931","-0.0433918516064922","-1.05299768135144"
"1178","-0.2749254720106","6.7250745279894","-27.2749254720106","-0.935409075852931","-0.0433918516064922","-1.05299768135144"
"1179","-0.2749254720106","6.7250745279894","-27.2749254720106","1.06459092414707","-4.04339185160649","-1.05299768135144"
"1187","0.7250745279894","3.7250745279894","-27.2749254720106","1.06459092414707","-4.04339185160649","-1.05299768135144"
"1187","0.7250745279894","3.7250745279894","-27.2749254720106","-1.93540907585293","-0.0433918516064922","0.947002318648559"
"1199","1.7250745279894","9.7250745279894","-25.2749254720106","-1.93540907585293","-0.0433918516064922","0.947002318648559"
"1199","1.7250745279894","9.7250745279894","-25.2749254720106","1.06459092414707","0.956608148393508","-0.0529976813514409"
"1207","-0.2749254720106","9.7250745279894","-27.2749254720106","1.06459092414707","0.956608148393508","-0.0529976813514409"
"1207","-0.2749254720106","9.7250745279894","-27.2749254720106","2.06459092414707","0.956608148393508","0.947002318648559"
"1219","-0.2749254720106","5.7250745279894","-27.2749254720106","2.06459092414707","0.956608148393508","0.947002318648559"
"1219","-0.2749254720106","5.7250745279894","-27.2749254720106","-1.93540907585293","-0.0433918516064922","-2.05299768135144"
"1228","0.7250745279894","4.7250745279894","-26.2749254720106","-1.93540907585293","-0.0433918516064922","-2.05299768135144"
"1228","0.7250745279894","4.7250745279894","-26.2749254720106","2.06459092414707","-1.04339185160649","-0.0529976813514409"
"1236","-0.2749254720106","7.7250745279894","-28.2749254720106","2.06459092414707","-1.04339185160649","-0.0529976813514409"
"1240","-0.2749254720106","7.7250745279894","-28.2749254720106","2.06459092414707","-1.04339185160649","0.947002318648559"
"1248","0.7250745279894","6.7250745279894","-29.2749254720106","2.06459092414707","-1.04339185160649","0.947002318648559"
"1248","0.7250745279894","6.7250745279894","-29.2749254720106","0.0645909241470686","-0.0433918516064922","-0.0529976813514409"
"1256","1.7250745279894","2.7250745279894","-28.2749254720106","0.0645909241470686","-0.0433918516064922","-0.0529976813514409"
"1260","1.7250745279894","2.7250745279894","-28.2749254720106","1.06459092414707","0.956608148393508","-0.0529976813514409"
"1268","-2.2749254720106","11.7250745279894","-27.2749254720106","1.06459092414707","0.956608148393508","-0.0529976813514409"
"1269","-2.2749254720106","11.7250745279894","-27.2749254720106","4.06459092414707","2.95660814839351","1.94700231864856"
"1277","0.7250745279894","8.7250745279894","-27.2749254720106","4.06459092414707","2.95660814839351","1.94700231864856"
"1277","0.7250745279894","8.7250745279894","-27.2749254720106","2.06459092414707","0.956608148393508","-2.05299768135144"
"1289","-0.2749254720106","2.7250745279894","-24.2749254720106","2.06459092414707","0.956608148393508","-2.05299768135144"
"1289","-0.2749254720106","2.7250745279894","-24.2749254720106","3.06459092414707","-2.04339185160649","-0.0529976813514409"
"1297","-2.2749254720106","3.7250745279894","-25.2749254720106","3.06459092414707","-2.04339185160649","-0.0529976813514409"
"1297","-2.2749254720106","3.7250745279894","-25.2749254720106","3.06459092414707","-1.04339185160649","1.94700231864856"
"1309","1.7250745279894","9.7250745279894","-27.2749254720106","3.06459092414707","-1.04339185160649","1.94700231864856"
"1309","1.7250745279894","9.7250745279894","-27.2749254720106","2.06459092414707","-2.04339185160649","0.947002318648559"
"1318","1.7250745279894","4.7250745279894","-28.2749254720106","2.06459092414707","-2.04339185160649","0.947002318648559"
"1318","1.7250745279894","4.7250745279894","-28.2749254720106","-1.93540907585293","-4.04339185160649","-0.0529976813514409"
"1326","0.7250745279894","2.7250745279894","-24.2749254720106","-1.93540907585293","-4.04339185160649","-0.0529976813514409"
"1330","0.7250745279894","2.7250745279894","-24.2749254720106","0.0645909241470686","-0.0433918516064922","0.947002318648559"
"1338","-1.2749254720106","9.7250745279894","-29.2749254720106","0.0645909241470686","-0.0433918516064922","0.947002318648559"
"1338","-1.2749254720106","9.7250745279894","-29.2749254720106","3.06459092414707","-1.04339185160649","0.947002318648559"
"1346","-0.2749254720106","8.7250745279894","-30.2749254720106","3.06459092414707","-1.04339185160649","0.947002318648559"
"1350","-0.2749254720106","8.7250745279894","-30.2749254720106","-0.935409075852931","0.956608148393508","-1.05299768135144"
"1359","0.7250745279894","3.7250745279894","-23.2749254720106","-0.935409075852931","0.956608148393508","-1.05299768135144"
"1359","0.7250745279894","3.7250745279894","-23.2749254720106","-0.935409075852931","-1.04339185160649","0.947002318648559"
"1367","-0.2749254720106","10.7250745279894","-26.2749254720106","-0.935409075852931","-1.04339185160649","0.947002318648559"
"1367","-0.2749254720106","10.7250745279894","-26.2749254720106","1.06459092414707","-0.0433918516064922","-0.0529976813514409"
"1379","1.7250745279894","9.7250745279894","-27.2749254720106","1.06459092414707","-0.0433918516064922","-0.0529976813514409"
"1379","1.7250745279894","9.7250745279894","-27.2749254720106","1.06459092414707","-0.0433918516064922","-1.05299768135144"
"1387","3.7250745279894","3.7250745279894","-25.2749254720106","1.06459092414707","-0.0433918516064922","-1.05299768135144"
"1387","3.7250745279894","3.7250745279894","-25.2749254720106","-4.93540907585293","-2.04339185160649","-1.05299768135144"
"1399","-1.2749254720106","4.7250745279894","-25.2749254720106","-4.93540907585293","-2.04339185160649","-1.05299768135144"
"1399","-1.2749254720106","4.7250745279894","-25.2749254720106","0.0645909241470686","0.956608148393508","-1.05299768135144"
"1408","1.7250745279894","9.7250745279894","-29.2749254720106","0.0645909241470686","0.956608148393508","-1.05299768135144"
"1408","1.7250745279894","9.7250745279894","-29.2749254720106","0.0645909241470686","0.956608148393508","1.94700231864856"
"1416","0.7250745279894","4.7250745279894","-27.2749254720106","0.0645909241470686","0.956608148393508","1.94700231864856"
"1420","0.7250745279894","4.7250745279894","-27.2749254720106","-2.93540907585293","0.956608148393508","-2.05299768135144"
"1428","1.7250745279894","3.7250745279894","-23.2749254720106","-2.93540907585293","0.956608148393508","-2.05299768135144"
"1428","1.7250745279894","3.7250745279894","-23.2749254720106","-5.93540907585293","0.956608148393508","1.94700231864856"
"1436","0.7250745279894","8.7250745279894","-28.2749254720106","-5.93540907585293","0.956608148393508","1.94700231864856"
"1440","0.7250745279894","8.7250745279894","-28.2749254720106","0.0645909241470686","2.95660814839351","1.94700231864856"
"1449","-0.2749254720106","6.7250745279894","-28.2749254720106","0.0645909241470686","2.95660814839351","1.94700231864856"
"1449","-0.2749254720106","6.7250745279894","-28.2749254720106","1.06459092414707","-0.0433918516064922","-2.05299768135144"
"1457","0.7250745279894","1.7250745279894","-24.2749254720106","1.06459092414707","-0.0433918516064922","-2.05299768135144"
"1457","0.7250745279894","1.7250745279894","-24.2749254720106","-0.935409075852931","0.956608148393508","-2.05299768135144"
"1469","-1.2749254720106","3.7250745279894","-25.2749254720106","-0.935409075852931","0.956608148393508","-2.05299768135144"
"1469","-1.2749254720106","3.7250745279894","-25.2749254720106","4.06459092414707","1.95660814839351","-0.0529976813514409"
"1477","1.7250745279894","10.7250745279894","-27.2749254720106","4.06459092414707","1.95660814839351","-0.0529976813514409"
"1478","1.7250745279894","10.7250745279894","-27.2749254720106","4.06459092414707","1.95660814839351","0.947002318648559"
"1489","0.7250745279894","5.7250745279894","-24.2749254720106","4.06459092414707","1.95660814839351","0.947002318648559"
"1490","0.7250745279894","5.7250745279894","-24.2749254720106","0.0645909241470686","-0.0433918516064922","-1.05299768135144"
"1498","0.7250745279894","3.7250745279894","-27.2749254720106","0.0645909241470686","-0.0433918516064922","-1.05299768135144"
"1498","0.7250745279894","3.7250745279894","-27.2749254720106","-1.93540907585293","2.95660814839351","-2.05299768135144"
"1506","0.7250745279894","9.7250745279894","-28.2749254720106","-1.93540907585293","2.95660814839351","-2.05299768135144"
"1510","0.7250745279894","9.7250745279894","-28.2749254720106","3.06459092414707","1.95660814839351","-1.05299768135144"
"1518","1.7250745279894","9.7250745279894","-26.2749254720106","3.06459092414707","1.95660814839351","-1.05299768135144"
"1518","1.7250745279894","9.7250745279894","-26.2749254720106","-1.93540907585293","-0.0433918516064922","0.947002318648559"
"1527","0.7250745279894","2.7250745279894","-24.2749254720106","-1.93540907585293","-0.0433918516064922","0.947002318648559"
"1530","0.7250745279894","2.7250745279894","-24.2749254720106","-2.93540907585293","0.956608148393508","0.947002318648559"
"1539","0.7250745279894","8.7250745279894","-25.2749254720106","-2.93540907585293","0.956608148393508","0.947002318648559"
"1539","0.7250745279894","8.7250745279894","-25.2749254720106","-1.93540907585293","1.95660814839351","-0.0529976813514409"
"1547","0.7250745279894","11.7250745279894","-28.2749254720106","-1.93540907585293","1.95660814839351","-0.0529976813514409"
"1547","0.7250745279894","11.7250745279894","-28.2749254720106","-1.93540907585293","0.956608148393508","-0.0529976813514409"
"1559","-0.2749254720106","5.7250745279894","-27.2749254720106","-1.93540907585293","0.956608148393508","-0.0529976813514409"
"1559","-0.2749254720106","5.7250745279894","-27.2749254720106","-1.93540907585293","-0.0433918516064922","-0.0529976813514409"
"1568","-0.2749254720106","1.7250745279894","-25.2749254720106","-1.93540907585293","-0.0433918516064922","-0.0529976813514409"
"1568","-0.2749254720106","1.7250745279894","-25.2749254720106","-1.93540907585293","-2.04339185160649","1.94700231864856"
"1580","0.7250745279894","9.7250745279894","-26.2749254720106","-1.93540907585293","-2.04339185160649","1.94700231864856"
"1580","0.7250745279894","9.7250745279894","-26.2749254720106","2.06459092414707","0.956608148393508","-3.05299768135144"
"1588","1.7250745279894","7.7250745279894","-27.2749254720106","2.06459092414707","0.956608148393508","-3.05299768135144"
"1588","1.7250745279894","7.7250745279894","-27.2749254720106","-0.935409075852931","3.95660814839351","1.94700231864856"
"1596","0.7250745279894","4.7250745279894","-27.2749254720106","-0.935409075852931","3.95660814839351","1.94700231864856"
"1600","0.7250745279894","4.7250745279894","-27.2749254720106","-4.93540907585293","0.956608148393508","-1.05299768135144"
"1608","-0.2749254720106","7.7250745279894","-27.2749254720106","-4.93540907585293","0.956608148393508","-1.05299768135144"
"1609","-0.2749254720106","7.7250745279894","-27.2749254720106","0.0645909241470686","2.95660814839351","-0.0529976813514409"
"1617","-0.2749254720106","9.7250745279894","-26.2749254720106","0.0645909241470686","2.95660814839351","-0.0529976813514409"
"1617","-0.2749254720106","9.7250745279894","-26.2749254720106","3.06459092414707","-0.0433918516064922","-0.0529976813514409"
"1629","1.7250745279894","5.7250745279894","-25.2749254720106","3.06459092414707","-0.0433918516064922","-0.0529976813514409"
"1629","1.7250745279894","5.7250745279894","-25.2749254720106","-0.935409075852931","0.956608148393508","-2.05299768135144"
"1637","-0.2749254720106","2.7250745279894","-24.2749254720106","-0.935409075852931","0.956608148393508","-2.05299768135144"
"1637","-0.2749254720106","2.7250745279894","-24.2749254720106","1.06459092414707","-1.04339185160649","0.947002318648559"
"1649","0.7250745279894","7.7250745279894","-28.2749254720106","1.06459092414707","-1.04339185160649","0.947002318648559"
"1649","0.7250745279894","7.7250745279894","-28.2749254720106","-0.935409075852931","-0.0433918516064922","-1.05299768135144"
"1658","-0.2749254720106","4.7250745279894","-27.2749254720106","-0.935409075852931","-0.0433918516064922","-1.05299768135144"
"1658","-0.2749254720106","4.7250745279894","-27.2749254720106","-1.93540907585293","-2.04339185160649","-1.05299768135144"
"1670","0.7250745279894","3.7250745279894","-26.2749254720106","-1.93540907585293","-2.04339185160649","-1.05299768135144"
"1670","0.7250745279894","3.7250745279894","-26.2749254720106","-1.93540907585293","0.956608148393508","2.94700231864856"
"1678","-0.2749254720106","6.7250745279894","-26.2749254720106","-1.93540907585293","0.956608148393508","2.94700231864856"
"1678","-0.2749254720106","6.7250745279894","-26.2749254720106","-0.935409075852931","-1.04339185160649","0.947002318648559"
"1686","1.7250745279894","6.7250745279894","-27.2749254720106","-0.935409075852931","-1.04339185160649","0.947002318648559"
"1690","1.7250745279894","6.7250745279894","-27.2749254720106","0.0645909241470686","-3.04339185160649","-1.05299768135144"
"1699","-0.2749254720106","4.7250745279894","-26.2749254720106","0.0645909241470686","-3.04339185160649","-1.05299768135144"
"1699","-0.2749254720106","4.7250745279894","-26.2749254720106","-3.93540907585293","0.956608148393508","0.947002318648559"
"1707","-0.2749254720106","6.7250745279894","-27.2749254720106","-3.93540907585293","0.956608148393508","0.947002318648559"
"1707","-0.2749254720106","6.7250745279894","-27.2749254720106","0.0645909241470686","-2.04339185160649","0.947002318648559"
"1719","0.7250745279894","3.7250745279894","-28.2749254720106","0.0645909241470686","-2.04339185160649","0.947002318648559"
"1719","0.7250745279894","3.7250745279894","-28.2749254720106","-0.935409075852931","-2.04339185160649","0.947002318648559"
"1727","1.7250745279894","3.7250745279894","-24.2749254720106","-0.935409075852931","-2.04339185160649","0.947002318648559"
"1727","1.7250745279894","3.7250745279894","-24.2749254720106","0.0645909241470686","-1.04339185160649","-0.0529976813514409"
"1739","-0.2749254720106","5.7250745279894","-26.2749254720106","0.0645909241470686","-1.04339185160649","-0.0529976813514409"
"1740","-0.2749254720106","5.7250745279894","-26.2749254720106","0.0645909241470686","-1.04339185160649","2.94700231864856"
"1748","0.7250745279894","7.7250745279894","-27.2749254720106","0.0645909241470686","-1.04339185160649","2.94700231864856"
"1748","0.7250745279894","7.7250745279894","-27.2749254720106","0.0645909241470686","-1.04339185160649","-1.05299768135144"
"1756","-0.2749254720106","5.7250745279894","-27.2749254720106","0.0645909241470686","-1.04339185160649","-1.05299768135144"
"1760","-0.2749254720106","5.7250745279894","-27.2749254720106","-2.93540907585293","-2.04339185160649","0.947002318648559"
"1768","-0.2749254720106","0.7250745279894","-24.2749254720106","-2.93540907585293","-2.04339185160649","0.947002318648559"
"1768","-0.2749254720106","0.7250745279894","-24.2749254720106","-1.93540907585293","-2.04339185160649","1.94700231864856"
"1776","0.7250745279894","9.7250745279894","-25.2749254720106","-1.93540907585293","-2.04339185160649","1.94700231864856"
"1780","0.7250745279894","9.7250745279894","-25.2749254720106","2.06459092414707","-2.04339185160649","0.947002318648559"
"1789","-0.2749254720106","5.7250745279894","-28.2749254720106","2.06459092414707","-2.04339185160649","0.947002318648559"
"1789","-0.2749254720106","5.7250745279894","-28.2749254720106","-0.935409075852931","-3.04339185160649","-1.05299768135144"
"1797","0.7250745279894","0.7250745279894","-27.2749254720106","-0.935409075852931","-3.04339185160649","-1.05299768135144"
"1801","0.7250745279894","0.7250745279894","-27.2749254720106","-0.935409075852931","1.95660814839351","0.947002318648559"
"1809","-0.2749254720106","9.7250745279894","-27.2749254720106","-0.935409075852931","1.95660814839351","0.947002318648559"
"1809","-0.2749254720106","9.7250745279894","-27.2749254720106","-0.935409075852931","-0.0433918516064922","0.947002318648559"
"1817","0.7250745279894","9.7250745279894","-28.2749254720106","-0.935409075852931","-0.0433918516064922","0.947002318648559"
"1818","0.7250745279894","9.7250745279894","-28.2749254720106","-1.93540907585293","-2.04339185160649","0.947002318648559"
"1829","0.7250745279894","3.7250745279894","-23.2749254720106","-1.93540907585293","-2.04339185160649","0.947002318648559"
"1830","0.7250745279894","3.7250745279894","-23.2749254720106","-3.93540907585293","0.956608148393508","-2.05299768135144"
"1838","-0.2749254720106","2.7250745279894","-23.2749254720106","-3.93540907585293","0.956608148393508","-2.05299768135144"
"1838","-0.2749254720106","2.7250745279894","-23.2749254720106","-1.93540907585293","-0.0433918516064922","-1.05299768135144"
"1850","-0.2749254720106","11.7250745279894","-30.2749254720106","-1.93540907585293","-0.0433918516064922","-1.05299768135144"
"1850","-0.2749254720106","11.7250745279894","-30.2749254720106","0.0645909241470686","1.95660814839351","0.947002318648559"
"1858","-0.2749254720106","7.7250745279894","-27.2749254720106","0.0645909241470686","1.95660814839351","0.947002318648559"
"1858","-0.2749254720106","7.7250745279894","-27.2749254720106","-1.93540907585293","-1.04339185160649","-1.05299768135144"
"1866","0.7250745279894","3.7250745279894","-25.2749254720106","-1.93540907585293","-1.04339185160649","-1.05299768135144"
"1870","0.7250745279894","3.7250745279894","-25.2749254720106","-6.93540907585293","-0.0433918516064922","2.94700231864856"
"1879","-0.2749254720106","7.7250745279894","-27.2749254720106","-6.93540907585293","-0.0433918516064922","2.94700231864856"
"1879","-0.2749254720106","7.7250745279894","-27.2749254720106","0.0645909241470686","-1.04339185160649","-2.05299768135144"
"1887","1.7250745279894","6.7250745279894","-28.2749254720106","0.0645909241470686","-1.04339185160649","-2.05299768135144"
"1891","1.7250745279894","6.7250745279894","-28.2749254720106","0.0645909241470686","1.95660814839351","2.94700231864856"
"1899","0.7250745279894","3.7250745279894","-26.2749254720106","0.0645909241470686","1.95660814839351","2.94700231864856"
"1899","0.7250745279894","3.7250745279894","-26.2749254720106","-2.93540907585293","1.95660814839351","-0.0529976813514409"
"1907","-0.2749254720106","3.7250745279894","-26.2749254720106","-2.93540907585293","1.95660814839351","-0.0529976813514409"
"1907","-0.2749254720106","3.7250745279894","-26.2749254720106","0.0645909241470686","1.95660814839351","0.947002318648559"
"1920","0.7250745279894","6.7250745279894","-27.2749254720106","0.0645909241470686","1.95660814839351","0.947002318648559"
"1920","0.7250745279894","6.7250745279894","-27.2749254720106","0.0645909241470686","0.956608148393508","-4.05299768135144"
"1928","-0.2749254720106","3.7250745279894","-26.2749254720106","0.0645909241470686","0.956608148393508","-4.05299768135144"
"1928","-0.2749254720106","3.7250745279894","-26.2749254720106","0.0645909241470686","1.95660814839351","0.947002318648559"
"1940","-0.2749254720106","3.7250745279894","-25.2749254720106","0.0645909241470686","1.95660814839351","0.947002318648559"
"1940","-0.2749254720106","3.7250745279894","-25.2749254720106","3.06459092414707","1.95660814839351","-0.0529976813514409"
"1948","-0.2749254720106","12.7250745279894","-30.2749254720106","3.06459092414707","1.95660814839351","-0.0529976813514409"
"1949","-0.2749254720106","12.7250745279894","-30.2749254720106","-0.935409075852931","-0.0433918516064922","0.947002318648559"
"1957","-1.2749254720106","7.7250745279894","-26.2749254720106","-0.935409075852931","-0.0433918516064922","0.947002318648559"
"1961","-1.2749254720106","7.7250745279894","-26.2749254720106","-0.935409075852931","-0.0433918516064922","-1.05299768135144"
"1969","-0.2749254720106","0.7250745279894","-23.2749254720106","-0.935409075852931","-0.0433918516064922","-1.05299768135144"
"1969","-0.2749254720106","0.7250745279894","-23.2749254720106","-1.93540907585293","-2.04339185160649","-3.05299768135144"
"1977","-0.2749254720106","10.7250745279894","-29.2749254720106","-1.93540907585293","-2.04339185160649","-3.05299768135144"
"1981","-0.2749254720106","10.7250745279894","-29.2749254720106","6.06459092414707","-1.04339185160649","0.947002318648559"
"1989","-0.2749254720106","11.7250745279894","-28.2749254720106","6.06459092414707","-1.04339185160649","0.947002318648559"
"1990","-0.2749254720106","11.7250745279894","-28.2749254720106","2.06459092414707","0.956608148393508","0.947002318648559"
"1998","0.7250745279894","4.7250745279894","-27.2749254720106","2.06459092414707","0.956608148393508","0.947002318648559"
"1998","0.7250745279894","4.7250745279894","-27.2749254720106","-2.93540907585293","0.956608148393508","-0.0529976813514409"
"2010","0.7250745279894","4.7250745279894","-26.2749254720106","-2.93540907585293","0.956608148393508","-0.0529976813514409"
"2010","0.7250745279894","4.7250745279894","-26.2749254720106","0.0645909241470686","-0.0433918516064922","-2.05299768135144"
"2018","-0.2749254720106","8.7250745279894","-27.2749254720106","0.0645909241470686","-0.0433918516064922","-2.05299768135144"
"2018","-0.2749254720106","8.7250745279894","-27.2749254720106","2.06459092414707","2.95660814839351","1.94700231864856"
"2030","1.7250745279894","4.7250745279894","-25.2749254720106","2.06459092414707","2.95660814839351","1.94700231864856"
"2030","1.7250745279894","4.7250745279894","-25.2749254720106","0.0645909241470686","-0.0433918516064922","-1.05299768135144"
"2039","1.7250745279894","3.7250745279894","-25.2749254720106","0.0645909241470686","-0.0433918516064922","-1.05299768135144"
"2039","1.7250745279894","3.7250745279894","-25.2749254720106","-2.93540907585293","3.95660814839351","-1.05299768135144"
"2047","-0.2749254720106","9.7250745279894","-28.2749254720106","-2.93540907585293","3.95660814839351","-1.05299768135144"
"2051","-0.2749254720106","9.7250745279894","-28.2749254720106","-0.935409075852931","1.95660814839351","0.947002318648559"
"2059","3.7250745279894","6.7250745279894","-28.2749254720106","-0.935409075852931","1.95660814839351","0.947002318648559"
"2059","3.7250745279894","6.7250745279894","-28.2749254720106","0.0645909241470686","-1.04339185160649","1.94700231864856"
"2067","-0.2749254720106","6.7250745279894","-26.2749254720106","0.0645909241470686","-1.04339185160649","1.94700231864856"
"2071","-0.2749254720106","6.7250745279894","-26.2749254720106","-5.93540907585293","0.956608148393508","0.947002318648559"
"2079","-0.2749254720106","5.7250745279894","-22.2749254720106","-5.93540907585293","0.956608148393508","0.947002318648559"
"2080","-0.2749254720106","5.7250745279894","-22.2749254720106","-0.935409075852931","3.95660814839351","1.94700231864856"
"2088","-0.2749254720106","7.7250745279894","-28.2749254720106","-0.935409075852931","3.95660814839351","1.94700231864856"
"2088","-0.2749254720106","7.7250745279894","-28.2749254720106","1.06459092414707","0.956608148393508","0.947002318648559"
"2100","2.7250745279894","4.7250745279894","-30.2749254720106","1.06459092414707","0.956608148393508","0.947002318648559"
"2100","2.7250745279894","4.7250745279894","-30.2749254720106","2.06459092414707","-1.04339185160649","-1.05299768135144"
"2108","-1.2749254720106","3.7250745279894","-27.2749254720106","2.06459092414707","-1.04339185160649","-1.05299768135144"
"2108","-1.2749254720106","3.7250745279894","-27.2749254720106","0.0645909241470686","-0.0433918516064922","-0.0529976813514409"
"2120","1.7250745279894","8.7250745279894","-27.2749254720106","0.0645909241470686","-0.0433918516064922","-0.0529976813514409"
"2120","1.7250745279894","8.7250745279894","-27.2749254720106","1.06459092414707","1.95660814839351","-0.0529976813514409"
"2129","-0.2749254720106","7.7250745279894","-27.2749254720106","1.06459092414707","1.95660814839351","-0.0529976813514409"
"2129","-0.2749254720106","7.7250745279894","-27.2749254720106","-0.935409075852931","0.956608148393508","1.94700231864856"
"2141","-0.2749254720106","3.7250745279894","-26.2749254720106","-0.935409075852931","0.956608148393508","1.94700231864856"
"2141","-0.2749254720106","3.7250745279894","-26.2749254720106","-1.93540907585293","-0.0433918516064922","-0.0529976813514409"
"2149","-0.2749254720106","7.7250745279894","-27.2749254720106","-1.93540907585293","-0.0433918516064922","-0.0529976813514409"
"2156","-0.2749254720106","7.7250745279894","-27.2749254720106","4.06459092414707","1.95660814839351","0.947002318648559"
"2157","-1.2749254720106","10.7250745279894","-28.2749254720106","4.06459092414707","1.95660814839351","0.947002318648559"
"2161","-1.2749254720106","10.7250745279894","-28.2749254720106","1.06459092414707","0.956608148393508","-2.05299768135144"
"2170","-0.2749254720106","5.7250745279894","-27.2749254720106","1.06459092414707","0.956608148393508","-2.05299768135144"
"2170","-0.2749254720106","5.7250745279894","-27.2749254720106","-0.935409075852931","-0.0433918516064922","-2.05299768135144"
"2178","-0.2749254720106","2.7250745279894","-25.2749254720106","-0.935409075852931","-0.0433918516064922","-2.05299768135144"
"2182","-0.2749254720106","2.7250745279894","-25.2749254720106","-0.935409075852931","-1.04339185160649","0.947002318648559"
"2190","0.7250745279894","10.7250745279894","-28.2749254720106","-0.935409075852931","-1.04339185160649","0.947002318648559"
"2190","0.7250745279894","10.7250745279894","-28.2749254720106","1.06459092414707","0.956608148393508","-0.0529976813514409"
"2198","-0.2749254720106","5.7250745279894","-27.2749254720106","1.06459092414707","0.956608148393508","-0.0529976813514409"
"2198","-0.2749254720106","5.7250745279894","-27.2749254720106","-0.935409075852931","-1.04339185160649","-2.05299768135144"
"2210","-1.2749254720106","3.7250745279894","-26.2749254720106","-0.935409075852931","-1.04339185160649","-2.05299768135144"
"2211","-1.2749254720106","3.7250745279894","-26.2749254720106","3.06459092414707","0.956608148393508","0.947002318648559"
"2219","-0.2749254720106","7.7250745279894","-26.2749254720106","3.06459092414707","0.956608148393508","0.947002318648559"
"2219","-0.2749254720106","7.7250745279894","-26.2749254720106","4.06459092414707","-0.0433918516064922","-0.0529976813514409"
"2231","1.7250745279894","8.7250745279894","-28.2749254720106","4.06459092414707","-0.0433918516064922","-0.0529976813514409"
"2231","1.7250745279894","8.7250745279894","-28.2749254720106","1.06459092414707","-0.0433918516064922","1.94700231864856"
"2239","1.7250745279894","3.7250745279894","-26.2749254720106","1.06459092414707","-0.0433918516064922","1.94700231864856"
"2239","1.7250745279894","3.7250745279894","-26.2749254720106","0.0645909241470686","2.95660814839351","0.947002318648559"
"2247","-1.2749254720106","3.7250745279894","-27.2749254720106","0.0645909241470686","2.95660814839351","0.947002318648559"
"2251","-1.2749254720106","3.7250745279894","-27.2749254720106","0.0645909241470686","3.95660814839351","-1.05299768135144"
"2260","-0.2749254720106","8.7250745279894","-28.2749254720106","0.0645909241470686","3.95660814839351","-1.05299768135144"
"2260","-0.2749254720106","8.7250745279894","-28.2749254720106","1.06459092414707","1.95660814839351","-1.05299768135144"
"2268","0.7250745279894","3.7250745279894","-26.2749254720106","1.06459092414707","1.95660814839351","-1.05299768135144"
"2272","0.7250745279894","3.7250745279894","-26.2749254720106","1.06459092414707","2.95660814839351","-2.05299768135144"
"2280","-1.2749254720106","4.7250745279894","-23.2749254720106","1.06459092414707","2.95660814839351","-2.05299768135144"
"2280","-1.2749254720106","4.7250745279894","-23.2749254720106","0.0645909241470686","1.95660814839351","0.947002318648559"
"2288","0.7250745279894","9.7250745279894","-27.2749254720106","0.0645909241470686","1.95660814839351","0.947002318648559"
"2289","0.7250745279894","9.7250745279894","-27.2749254720106","-0.935409075852931","3.95660814839351","-0.0529976813514409"
"2300","1.7250745279894","3.7250745279894","-28.2749254720106","-0.935409075852931","3.95660814839351","-0.0529976813514409"
"2301","1.7250745279894","3.7250745279894","-28.2749254720106","0.0645909241470686","-3.04339185160649","0.947002318648559"
"2309","0.7250745279894","1.7250745279894","-25.2749254720106","0.0645909241470686","-3.04339185160649","0.947002318648559"
"2309","0.7250745279894","1.7250745279894","-25.2749254720106","1.06459092414707","0.956608148393508","-2.05299768135144"
"2321","-1.2749254720106","7.7250745279894","-26.2749254720106","1.06459092414707","0.956608148393508","-2.05299768135144"
"2321","-1.2749254720106","7.7250745279894","-26.2749254720106","2.06459092414707","-1.04339185160649","-0.0529976813514409"
"2329","0.7250745279894","8.7250745279894","-29.2749254720106","2.06459092414707","-1.04339185160649","-0.0529976813514409"
"2330","0.7250745279894","8.7250745279894","-29.2749254720106","-0.935409075852931","0.956608148393508","-3.05299768135144"
"2337","-0.2749254720106","3.7250745279894","-26.2749254720106","-0.935409075852931","0.956608148393508","-3.05299768135144"
"2341","-0.2749254720106","3.7250745279894","-26.2749254720106","-2.93540907585293","-0.0433918516064922","-1.05299768135144"
"2350","-0.2749254720106","2.7250745279894","-27.2749254720106","-2.93540907585293","-0.0433918516064922","-1.05299768135144"
"2350","-0.2749254720106","2.7250745279894","-27.2749254720106","4.06459092414707","0.956608148393508","1.94700231864856"
"2358","1.7250745279894","11.7250745279894","-28.2749254720106","4.06459092414707","0.956608148393508","1.94700231864856"
"2362","1.7250745279894","11.7250745279894","-28.2749254720106","3.06459092414707","0.956608148393508","-1.05299768135144"
"2370","0.7250745279894","5.7250745279894","-30.2749254720106","3.06459092414707","0.956608148393508","-1.05299768135144"
"2370","0.7250745279894","5.7250745279894","-30.2749254720106","0.0645909241470686","2.95660814839351","0.947002318648559"
"2379","0.7250745279894","3.7250745279894","-22.2749254720106","0.0645909241470686","2.95660814839351","0.947002318648559"
"2379","0.7250745279894","3.7250745279894","-22.2749254720106","-2.93540907585293","0.956608148393508","-1.05299768135144"
"2391","-0.2749254720106","10.7250745279894","-29.2749254720106","-2.93540907585293","0.956608148393508","-1.05299768135144"
"2391","-0.2749254720106","10.7250745279894","-29.2749254720106","-0.935409075852931","-1.04339185160649","0.947002318648559"
"2399","2.7250745279894","9.7250745279894","-30.2749254720106","-0.935409075852931","-1.04339185160649","0.947002318648559"
"2399","2.7250745279894","9.7250745279894","-30.2749254720106","-1.93540907585293","0.956608148393508","-0.0529976813514409"
"2411","-0.2749254720106","2.7250745279894","-24.2749254720106","-1.93540907585293","0.956608148393508","-0.0529976813514409"
"2411","-0.2749254720106","2.7250745279894","-24.2749254720106","-1.93540907585293","-1.04339185160649","-0.0529976813514409"
"2419","-1.2749254720106","1.7250745279894","-23.2749254720106","-1.93540907585293","-1.04339185160649","-0.0529976813514409"
"2420","-1.2749254720106","1.7250745279894","-23.2749254720106","0.0645909241470686","0.956608148393508","1.94700231864856"
"2428","0.7250745279894","9.7250745279894","-27.2749254720106","0.0645909241470686","0.956608148393508","1.94700231864856"
"2432","0.7250745279894","9.7250745279894","-27.2749254720106","-0.935409075852931","2.95660814839351","1.94700231864856"
"2440","2.7250745279894","5.7250745279894","-26.2749254720106","-0.935409075852931","2.95660814839351","1.94700231864856"
"2440","2.7250745279894","5.7250745279894","-26.2749254720106","-3.93540907585293","0.956608148393508","1.94700231864856"
"2448","-0.2749254720106","0.7250745279894","-26.2749254720106","-3.93540907585293","0.956608148393508","1.94700231864856"
"2452","-0.2749254720106","0.7250745279894","-26.2749254720106","-1.93540907585293","-0.0433918516064922","-0.0529976813514409"
"2461","-0.2749254720106","9.7250745279894","-27.2749254720106","-1.93540907585293","-0.0433918516064922","-0.0529976813514409"
"2461","-0.2749254720106","9.7250745279894","-27.2749254720106","-0.935409075852931","-1.04339185160649","0.947002318648559"
"2469","1.7250745279894","5.7250745279894","-27.2749254720106","-0.935409075852931","-1.04339185160649","0.947002318648559"
"2473","1.7250745279894","5.7250745279894","-27.2749254720106","-1.93540907585293","0.956608148393508","0.947002318648559"
"2481","0.7250745279894","3.7250745279894","-25.2749254720106","-1.93540907585293","0.956608148393508","0.947002318648559"
"2481","0.7250745279894","3.7250745279894","-25.2749254720106","-1.93540907585293","-0.0433918516064922","0.947002318648559"
"2489","-1.2749254720106","9.7250745279894","-26.2749254720106","-1.93540907585293","-0.0433918516064922","0.947002318648559"
"2489","-1.2749254720106","9.7250745279894","-26.2749254720106","1.06459092414707","-3.04339185160649","2.94700231864856"
"2501","-1.2749254720106","8.7250745279894","-29.2749254720106","1.06459092414707","-3.04339185160649","2.94700231864856"
"2502","-1.2749254720106","8.7250745279894","-29.2749254720106","0.0645909241470686","-2.04339185160649","0.947002318648559"
"2510","0.7250745279894","3.7250745279894","-27.2749254720106","0.0645909241470686","-2.04339185160649","0.947002318648559"
"2510","0.7250745279894","3.7250745279894","-27.2749254720106","-3.93540907585293","-0.0433918516064922","-1.05299768135144"
"2522","0.7250745279894","2.7250745279894","-25.2749254720106","-3.93540907585293","-0.0433918516064922","-1.05299768135144"
"2522","0.7250745279894","2.7250745279894","-25.2749254720106","-3.93540907585293","-0.0433918516064922","-0.0529976813514409"
"2530","-0.2749254720106","9.7250745279894","-27.2749254720106","-3.93540907585293","-0.0433918516064922","-0.0529976813514409"
"2530","-0.2749254720106","9.7250745279894","-27.2749254720106","1.06459092414707","-3.04339185160649","0.947002318648559"
"2538","1.7250745279894","6.7250745279894","-28.2749254720106","1.06459092414707","-3.04339185160649","0.947002318648559"
"2542","1.7250745279894","6.7250745279894","-28.2749254720106","-3.93540907585293","-1.04339185160649","0.947002318648559"
"2551","-0.2749254720106","3.7250745279894","-26.2749254720106","-3.93540907585293","-1.04339185160649","0.947002318648559"
"2551","-0.2749254720106","3.7250745279894","-26.2749254720106","-1.93540907585293","-1.04339185160649","-1.05299768135144"
"2559","-0.2749254720106","9.7250745279894","-27.2749254720106","-1.93540907585293","-1.04339185160649","-1.05299768135144"
"2563","-0.2749254720106","9.7250745279894","-27.2749254720106","1.06459092414707","-0.0433918516064922","0.947002318648559"
"2571","2.7250745279894","8.7250745279894","-26.2749254720106","1.06459092414707","-0.0433918516064922","0.947002318648559"
"2571","2.7250745279894","8.7250745279894","-26.2749254720106","-0.935409075852931","-1.04339185160649","-2.05299768135144"
"2579","0.7250745279894","4.7250745279894","-26.2749254720106","-0.935409075852931","-1.04339185160649","-2.05299768135144"
"2579","0.7250745279894","4.7250745279894","-26.2749254720106","-0.935409075852931","-0.0433918516064922","-0.0529976813514409"
"2591","-0.2749254720106","2.7250745279894","-24.2749254720106","-0.935409075852931","-0.0433918516064922","-0.0529976813514409"
"2592","-0.2749254720106","2.7250745279894","-24.2749254720106","0.0645909241470686","0.956608148393508","-0.0529976813514409"
"2600","-0.2749254720106","10.7250745279894","-28.2749254720106","0.0645909241470686","0.956608148393508","-0.0529976813514409"
"2600","-0.2749254720106","10.7250745279894","-28.2749254720106","2.06459092414707","2.95660814839351","-0.0529976813514409"
"2612","-0.2749254720106","3.7250745279894","-26.2749254720106","2.06459092414707","2.95660814839351","-0.0529976813514409"
"2612","-0.2749254720106","3.7250745279894","-26.2749254720106","-0.935409075852931","-0.0433918516064922","-4.05299768135144"
"2620","0.7250745279894","3.7250745279894","-23.2749254720106","-0.935409075852931","-0.0433918516064922","-4.05299768135144"
"2620","0.7250745279894","3.7250745279894","-23.2749254720106","-0.935409075852931","-2.04339185160649","0.947002318648559"
"2628","0.7250745279894","8.7250745279894","-28.2749254720106","-0.935409075852931","-2.04339185160649","0.947002318648559"
"2632","0.7250745279894","8.7250745279894","-28.2749254720106","0.0645909241470686","0.956608148393508","-0.0529976813514409"
"2641","2.7250745279894","6.7250745279894","-26.2749254720106","0.0645909241470686","0.956608148393508","-0.0529976813514409"
"2641","2.7250745279894","6.7250745279894","-26.2749254720106","1.06459092414707","-1.04339185160649","-1.05299768135144"
"2649","1.7250745279894","4.7250745279894","-26.2749254720106","1.06459092414707","-1.04339185160649","-1.05299768135144"
"2653","1.7250745279894","4.7250745279894","-26.2749254720106","-2.93540907585293","-1.04339185160649","-0.0529976813514409"
"2661","-0.2749254720106","7.7250745279894","-27.2749254720106","-2.93540907585293","-1.04339185160649","-0.0529976813514409"
"2661","-0.2749254720106","7.7250745279894","-27.2749254720106","-0.935409075852931","-1.04339185160649","-1.05299768135144"
"2669","2.7250745279894","6.7250745279894","-26.2749254720106","-0.935409075852931","-1.04339185160649","-1.05299768135144"
"2673","2.7250745279894","6.7250745279894","-26.2749254720106","1.06459092414707","-1.04339185160649","-1.05299768135144"
"2682","-0.2749254720106","4.7250745279894","-26.2749254720106","1.06459092414707","-1.04339185160649","-1.05299768135144"
"2682","-0.2749254720106","4.7250745279894","-26.2749254720106","0.0645909241470686","-1.04339185160649","-1.05299768135144"
"2690","-1.2749254720106","3.7250745279894","-23.2749254720106","0.0645909241470686","-1.04339185160649","-1.05299768135144"
"2690","-1.2749254720106","3.7250745279894","-23.2749254720106","0.0645909241470686","1.95660814839351","-1.05299768135144"
"2702","1.7250745279894","9.7250745279894","-30.2749254720106","0.0645909241470686","1.95660814839351","-1.05299768135144"
"2702","1.7250745279894","9.7250745279894","-30.2749254720106","0.0645909241470686","-1.04339185160649","0.947002318648559"
"2710","-0.2749254720106","3.7250745279894","-26.2749254720106","0.0645909241470686","-1.04339185160649","0.947002318648559"
"2711","-0.2749254720106","3.7250745279894","-26.2749254720106","-4.93540907585293","1.95660814839351","-0.0529976813514409"
"2722","1.7250745279894","0.7250745279894","-25.2749254720106","-4.93540907585293","1.95660814839351","-0.0529976813514409"
"2723","1.7250745279894","0.7250745279894","-25.2749254720106","-1.93540907585293","-0.0433918516064922","-1.05299768135144"
"2731","0.7250745279894","10.7250745279894","-27.2749254720106","-1.93540907585293","-0.0433918516064922","-1.05299768135144"
"2731","0.7250745279894","10.7250745279894","-27.2749254720106","4.06459092414707","1.95660814839351","-1.05299768135144"
"2739","1.7250745279894","6.7250745279894","-28.2749254720106","4.06459092414707","1.95660814839351","-1.05299768135144"
"2743","1.7250745279894","6.7250745279894","-28.2749254720106","-1.93540907585293","0.956608148393508","-2.05299768135144"
"2751","0.7250745279894","2.7250745279894","-28.2749254720106","-1.93540907585293","0.956608148393508","-2.05299768135144"
"2752","0.7250745279894","2.7250745279894","-28.2749254720106","-4.93540907585293","1.95660814839351","-1.05299768135144"
"2760","-0.2749254720106","9.7250745279894","-28.2749254720106","-4.93540907585293","1.95660814839351","-1.05299768135144"
"2760","-0.2749254720106","9.7250745279894","-28.2749254720106","1.06459092414707","-2.04339185160649","0.947002318648559"
"2772","-0.2749254720106","8.7250745279894","-27.2749254720106","1.06459092414707","-2.04339185160649","0.947002318648559"
"2772","-0.2749254720106","8.7250745279894","-27.2749254720106","-1.93540907585293","1.95660814839351","-1.05299768135144"
"2780","0.7250745279894","3.7250745279894","-25.2749254720106","-1.93540907585293","1.95660814839351","-1.05299768135144"
"2780","0.7250745279894","3.7250745279894","-25.2749254720106","-3.93540907585293","0.956608148393508","1.94700231864856"
"2792","-0.2749254720106","0.7250745279894","-25.2749254720106","-3.93540907585293","0.956608148393508","1.94700231864856"
"2792","-0.2749254720106","0.7250745279894","-25.2749254720106","-0.935409075852931","1.95660814839351","0.947002318648559"
"2801","-0.2749254720106","11.7250745279894","-30.2749254720106","-0.935409075852931","1.95660814839351","0.947002318648559"
"2801","-0.2749254720106","11.7250745279894","-30.2749254720106","3.06459092414707","0.956608148393508","0.947002318648559"
"2809","0.7250745279894","6.7250745279894","-29.2749254720106","3.06459092414707","0.956608148393508","0.947002318648559"
"2813","0.7250745279894","6.7250745279894","-29.2749254720106","-1.93540907585293","-0.0433918516064922","-1.05299768135144"
"2821","-0.2749254720106","0.7250745279894","-23.2749254720106","-1.93540907585293","-0.0433918516064922","-1.05299768135144"
"2821","-0.2749254720106","0.7250745279894","-23.2749254720106","-1.93540907585293","-2.04339185160649","-1.05299768135144"
"2829","0.7250745279894","10.7250745279894","-27.2749254720106","-1.93540907585293","-2.04339185160649","-1.05299768135144"
"2833","0.7250745279894","10.7250745279894","-27.2749254720106","3.06459092414707","-0.0433918516064922","-2.05299768135144"
"2841","3.7250745279894","9.7250745279894","-27.2749254720106","3.06459092414707","-0.0433918516064922","-2.05299768135144"
"2842","3.7250745279894","9.7250745279894","-27.2749254720106","3.06459092414707","-0.0433918516064922","0.947002318648559"
"2850","-1.2749254720106","3.7250745279894","-27.2749254720106","3.06459092414707","-0.0433918516064922","0.947002318648559"
"2853","-1.2749254720106","3.7250745279894","-27.2749254720106","-3.93540907585293","-1.04339185160649","0.947002318648559"
"2862","0.7250745279894","2.7250745279894","-21.2749254720106","-3.93540907585293","-1.04339185160649","0.947002318648559"
"2862","0.7250745279894","2.7250745279894","-21.2749254720106","2.06459092414707","-3.04339185160649","-3.05299768135144"
"2870","2.7250745279894","10.7250745279894","-29.2749254720106","2.06459092414707","-3.04339185160649","-3.05299768135144"
"2871","2.7250745279894","10.7250745279894","-29.2749254720106","3.06459092414707","0.956608148393508","-1.05299768135144"
"2878","2.7250745279894","10.7250745279894","-29.2749254720106","3.06459092414707","0.956608148393508","-1.05299768135144"
"2882","2.7250745279894","10.7250745279894","-29.2749254720106","3.06459092414707","0.956608148393508","-1.05299768135144"
"2890","-0.2749254720106","0.7250745279894","-25.2749254720106","3.06459092414707","0.956608148393508","-1.05299768135144"
"2891","-0.2749254720106","0.7250745279894","-25.2749254720106","-1.93540907585293","0.956608148393508","2.94700231864856"
"2903","0.7250745279894","11.7250745279894","-27.2749254720106","-1.93540907585293","0.956608148393508","2.94700231864856"
"2903","0.7250745279894","11.7250745279894","-27.2749254720106","5.06459092414707","3.95660814839351","2.94700231864856"
"2911","0.7250745279894","10.7250745279894","-27.2749254720106","5.06459092414707","3.95660814839351","2.94700231864856"
"2911","0.7250745279894","10.7250745279894","-27.2749254720106","-1.93540907585293","0.956608148393508","-2.05299768135144"
"2919","1.7250745279894","1.7250745279894","-26.2749254720106","-1.93540907585293","0.956608148393508","-2.05299768135144"
"2923","1.7250745279894","1.7250745279894","-26.2749254720106","-1.93540907585293","0.956608148393508","-0.0529976813514409"
"2932","0.7250745279894","7.7250745279894","-27.2749254720106","-1.93540907585293","0.956608148393508","-0.0529976813514409"
"2932","0.7250745279894","7.7250745279894","-27.2749254720106","1.06459092414707","-1.04339185160649","-0.0529976813514409"
"2940","-0.2749254720106","10.7250745279894","-26.2749254720106","1.06459092414707","-1.04339185160649","-0.0529976813514409"
"2944","-0.2749254720106","10.7250745279894","-26.2749254720106","-0.935409075852931","0.956608148393508","0.947002318648559"
"2952","1.7250745279894","6.7250745279894","-30.2749254720106","-0.935409075852931","0.956608148393508","0.947002318648559"
"2952","1.7250745279894","6.7250745279894","-30.2749254720106","-2.93540907585293","-0.0433918516064922","-0.0529976813514409"
"2960","-0.2749254720106","0.7250745279894","-27.2749254720106","-2.93540907585293","-0.0433918516064922","-0.0529976813514409"
"2960","-0.2749254720106","0.7250745279894","-27.2749254720106","-1.93540907585293","1.95660814839351","-0.0529976813514409"
"2972","2.7250745279894","11.7250745279894","-28.2749254720106","-1.93540907585293","1.95660814839351","-0.0529976813514409"
"2973","2.7250745279894","11.7250745279894","-28.2749254720106","2.06459092414707","-0.0433918516064922","1.94700231864856"
"2981","2.7250745279894","11.7250745279894","-28.2749254720106","2.06459092414707","-0.0433918516064922","1.94700231864856"
"2981","2.7250745279894","11.7250745279894","-28.2749254720106","2.06459092414707","-0.0433918516064922","1.94700231864856"
"2993","-0.2749254720106","3.7250745279894","-24.2749254720106","2.06459092414707","-0.0433918516064922","1.94700231864856"
"2993","-0.2749254720106","3.7250745279894","-24.2749254720106","-1.93540907585293","-0.0433918516064922","-0.0529976813514409"
"3001","1.7250745279894","5.7250745279894","-27.2749254720106","-1.93540907585293","-0.0433918516064922","-0.0529976813514409"
"3001","1.7250745279894","5.7250745279894","-27.2749254720106","3.06459092414707","-0.0433918516064922","-0.0529976813514409"
"3009","1.7250745279894","6.7250745279894","-26.2749254720106","3.06459092414707","-0.0433918516064922","-0.0529976813514409"
"3013","1.7250745279894","6.7250745279894","-26.2749254720106","2.06459092414707","2.95660814839351","-0.0529976813514409"
"3022","-0.2749254720106","7.7250745279894","-26.2749254720106","2.06459092414707","2.95660814839351","-0.0529976813514409"
"3022","-0.2749254720106","7.7250745279894","-26.2749254720106","1.06459092414707","-1.04339185160649","-1.05299768135144"
"3030","1.7250745279894","3.7250745279894","-26.2749254720106","1.06459092414707","-1.04339185160649","-1.05299768135144"
"3034","1.7250745279894","3.7250745279894","-26.2749254720106","1.06459092414707","-1.04339185160649","-1.05299768135144"
"3042","0.7250745279894","6.7250745279894","-28.2749254720106","1.06459092414707","-1.04339185160649","-1.05299768135144"
"3042","0.7250745279894","6.7250745279894","-28.2749254720106","1.06459092414707","-2.04339185160649","-0.0529976813514409"
"3050","1.7250745279894","4.7250745279894","-27.2749254720106","1.06459092414707","-2.04339185160649","-0.0529976813514409"
"3054","1.7250745279894","4.7250745279894","-27.2749254720106","-1.93540907585293","-1.04339185160649","-2.05299768135144"
"3063","-0.2749254720106","6.7250745279894","-27.2749254720106","-1.93540907585293","-1.04339185160649","-2.05299768135144"
"3063","-0.2749254720106","6.7250745279894","-27.2749254720106","1.06459092414707","-1.04339185160649","-0.0529976813514409"
"3071","2.7250745279894","8.7250745279894","-27.2749254720106","1.06459092414707","-1.04339185160649","-0.0529976813514409"
"3071","2.7250745279894","8.7250745279894","-27.2749254720106","0.0645909241470686","0.956608148393508","0.947002318648559"
"3079","2.7250745279894","8.7250745279894","-27.2749254720106","0.0645909241470686","0.956608148393508","0.947002318648559"
"3079","2.7250745279894","8.7250745279894","-27.2749254720106","0.0645909241470686","0.956608148393508","0.947002318648559"
"3091","-0.2749254720106","3.7250745279894","-25.2749254720106","0.0645909241470686","0.956608148393508","0.947002318648559"
"3091","-0.2749254720106","3.7250745279894","-25.2749254720106","0.0645909241470686","-0.0433918516064922","0.947002318648559"
"3099","0.7250745279894","8.7250745279894","-27.2749254720106","0.0645909241470686","-0.0433918516064922","0.947002318648559"
"3103","0.7250745279894","8.7250745279894","-27.2749254720106","0.0645909241470686","-0.0433918516064922","0.947002318648559"
"3112","0.7250745279894","6.7250745279894","-27.2749254720106","0.0645909241470686","-0.0433918516064922","0.947002318648559"
"3112","0.7250745279894","6.7250745279894","-27.2749254720106","1.06459092414707","-0.0433918516064922","1.94700231864856"
"3120","1.7250745279894","3.7250745279894","-24.2749254720106","1.06459092414707","-0.0433918516064922","1.94700231864856"
"3124","1.7250745279894","3.7250745279894","-24.2749254720106","-1.93540907585293","1.95660814839351","-1.05299768135144"
"3132","0.7250745279894","2.7250745279894","-23.2749254720106","-1.93540907585293","1.95660814839351","-1.05299768135144"
"3132","0.7250745279894","2.7250745279894","-23.2749254720106","-1.93540907585293","1.95660814839351","-1.05299768135144"
"3140","1.7250745279894","7.7250745279894","-27.2749254720106","-1.93540907585293","1.95660814839351","-1.05299768135144"
"3140","1.7250745279894","7.7250745279894","-27.2749254720106","1.06459092414707","-2.04339185160649","0.947002318648559"
"3152","-0.2749254720106","4.7250745279894","-27.2749254720106","1.06459092414707","-2.04339185160649","0.947002318648559"
"3152","-0.2749254720106","4.7250745279894","-27.2749254720106","-3.93540907585293","0.956608148393508","0.947002318648559"
"3160","2.7250745279894","3.7250745279894","-24.2749254720106","-3.93540907585293","0.956608148393508","0.947002318648559"
"3160","2.7250745279894","3.7250745279894","-24.2749254720106","-3.93540907585293","0.956608148393508","0.947002318648559"
"3172","-0.2749254720106","9.7250745279894","-27.2749254720106","-3.93540907585293","0.956608148393508","0.947002318648559"
"3172","-0.2749254720106","9.7250745279894","-27.2749254720106","3.06459092414707","-0.0433918516064922","-2.05299768135144"
"3176","-0.2749254720106","9.7250745279894","-27.2749254720106","3.06459092414707","-0.0433918516064922","-2.05299768135144"
"3180","-0.2749254720106","9.7250745279894","-27.2749254720106","3.06459092414707","-0.0433918516064922","-2.05299768135144"
"3193","1.7250745279894","3.7250745279894","-25.2749254720106","3.06459092414707","-0.0433918516064922","-2.05299768135144"
"3193","1.7250745279894","3.7250745279894","-25.2749254720106","-3.93540907585293","-2.04339185160649","1.94700231864856"
"3201","-0.2749254720106","0.7250745279894","-24.2749254720106","-3.93540907585293","-2.04339185160649","1.94700231864856"
"3201","-0.2749254720106","0.7250745279894","-24.2749254720106","0.0645909241470686","0.956608148393508","-2.05299768135144"
"3209","1.7250745279894","9.7250745279894","-29.2749254720106","0.0645909241470686","0.956608148393508","-2.05299768135144"
"3213","1.7250745279894","9.7250745279894","-29.2749254720106","0.0645909241470686","0.956608148393508","-2.05299768135144"
"3221","1.7250745279894","3.7250745279894","-27.2749254720106","0.0645909241470686","0.956608148393508","-2.05299768135144"
"3222","1.7250745279894","3.7250745279894","-27.2749254720106","3.06459092414707","1.95660814839351","1.94700231864856"
"3230","1.7250745279894","3.7250745279894","-27.2749254720106","3.06459092414707","1.95660814839351","1.94700231864856"
"3230","1.7250745279894","3.7250745279894","-27.2749254720106","-0.935409075852931","-1.04339185160649","1.94700231864856"
"3242","0.7250745279894","10.7250745279894","-27.2749254720106","-0.935409075852931","-1.04339185160649","1.94700231864856"
"3242","0.7250745279894","10.7250745279894","-27.2749254720106","2.06459092414707","-1.04339185160649","1.94700231864856"
"3250","1.7250745279894","6.7250745279894","-29.2749254720106","2.06459092414707","-1.04339185160649","1.94700231864856"
"3250","1.7250745279894","6.7250745279894","-29.2749254720106","1.06459092414707","-0.0433918516064922","-0.0529976813514409"
"3262","-0.2749254720106","1.7250745279894","-27.2749254720106","1.06459092414707","-0.0433918516064922","-0.0529976813514409"
"3262","-0.2749254720106","1.7250745279894","-27.2749254720106","-0.935409075852931","0.956608148393508","-1.05299768135144"
"3270","-1.2749254720106","8.7250745279894","-25.2749254720106","-0.935409075852931","0.956608148393508","-1.05299768135144"
"3270","-1.2749254720106","8.7250745279894","-25.2749254720106","-3.93540907585293","0.956608148393508","-3.05299768135144"
"3278","-1.2749254720106","8.7250745279894","-25.2749254720106","-3.93540907585293","0.956608148393508","-3.05299768135144"
"3278","-1.2749254720106","8.7250745279894","-25.2749254720106","0.0645909241470686","2.95660814839351","-0.0529976813514409"
"3291","0.7250745279894","4.7250745279894","-27.2749254720106","0.0645909241470686","2.95660814839351","-0.0529976813514409"
"3291","0.7250745279894","4.7250745279894","-27.2749254720106","2.06459092414707","-0.0433918516064922","-1.05299768135144"
"3299","-0.2749254720106","0.7250745279894","-26.2749254720106","2.06459092414707","-0.0433918516064922","-1.05299768135144"
"3303","-0.2749254720106","0.7250745279894","-26.2749254720106","-1.93540907585293","-2.04339185160649","0.947002318648559"
"3311","-0.2749254720106","10.7250745279894","-27.2749254720106","-1.93540907585293","-2.04339185160649","0.947002318648559"
"3311","-0.2749254720106","10.7250745279894","-27.2749254720106","-2.93540907585293","0.956608148393508","-2.05299768135144"
"3319","0.7250745279894","4.7250745279894","-27.2749254720106","-2.93540907585293","0.956608148393508","-2.05299768135144"
"3323","0.7250745279894","4.7250745279894","-27.2749254720106","2.06459092414707","-1.04339185160649","-1.05299768135144"
"3328","0.7250745279894","4.7250745279894","-27.2749254720106","2.06459092414707","-1.04339185160649","-1.05299768135144"
"3328","0.7250745279894","4.7250745279894","-27.2749254720106","0.0645909241470686","-2.04339185160649","2.94700231864856"
"3340","0.7250745279894","9.7250745279894","-27.2749254720106","0.0645909241470686","-2.04339185160649","2.94700231864856"
"3340","0.7250745279894","9.7250745279894","-27.2749254720106","0.0645909241470686","-0.0433918516064922","0.947002318648559"
"3352","0.7250745279894","8.7250745279894","-29.2749254720106","0.0645909241470686","-0.0433918516064922","0.947002318648559"
"3352","0.7250745279894","8.7250745279894","-29.2749254720106","4.06459092414707","-0.0433918516064922","1.94700231864856"
"3361","0.7250745279894","3.7250745279894","-24.2749254720106","4.06459092414707","-0.0433918516064922","1.94700231864856"
"3361","0.7250745279894","3.7250745279894","-24.2749254720106","-0.935409075852931","-3.04339185160649","-1.05299768135144"
"3373","-0.2749254720106","2.7250745279894","-24.2749254720106","-0.935409075852931","-3.04339185160649","-1.05299768135144"
"3373","-0.2749254720106","2.7250745279894","-24.2749254720106","-1.93540907585293","1.95660814839351","1.94700231864856"
"3377","-0.2749254720106","2.7250745279894","-24.2749254720106","-1.93540907585293","1.95660814839351","1.94700231864856"
"3381","-0.2749254720106","2.7250745279894","-24.2749254720106","1.06459092414707","0.956608148393508","0.947002318648559"
"3389","-0.2749254720106","3.7250745279894","-24.2749254720106","1.06459092414707","0.956608148393508","0.947002318648559"
"3393","-0.2749254720106","3.7250745279894","-24.2749254720106","1.06459092414707","-0.0433918516064922","-1.05299768135144"
"3402","0.7250745279894","3.7250745279894","-24.2749254720106","1.06459092414707","-0.0433918516064922","-1.05299768135144"
"3402","0.7250745279894","3.7250745279894","-24.2749254720106","-2.93540907585293","-2.04339185160649","-0.0529976813514409"
"3410","0.7250745279894","7.7250745279894","-27.2749254720106","-2.93540907585293","-2.04339185160649","-0.0529976813514409"
"3414","0.7250745279894","7.7250745279894","-27.2749254720106","-0.935409075852931","0.956608148393508","-1.05299768135144"
"3422","1.7250745279894","5.7250745279894","-27.2749254720106","-0.935409075852931","0.956608148393508","-1.05299768135144"
"3422","1.7250745279894","5.7250745279894","-27.2749254720106","0.0645909241470686","2.95660814839351","-0.0529976813514409"
"3430","1.7250745279894","5.7250745279894","-27.2749254720106","0.0645909241470686","2.95660814839351","-0.0529976813514409"
"3430","1.7250745279894","5.7250745279894","-27.2749254720106","-0.935409075852931","0.956608148393508","1.94700231864856"
"3443","-0.2749254720106","6.7250745279894","-27.2749254720106","-0.935409075852931","0.956608148393508","1.94700231864856"
"3443","-0.2749254720106","6.7250745279894","-27.2749254720106","0.0645909241470686","0.956608148393508","-1.05299768135144"
"3451","0.7250745279894","10.7250745279894","-31.2749254720106","0.0645909241470686","0.956608148393508","-1.05299768135144"
"3451","0.7250745279894","10.7250745279894","-31.2749254720106","0.0645909241470686","0.956608148393508","-0.0529976813514409"
"3463","0.7250745279894","4.7250745279894","-26.2749254720106","0.0645909241470686","0.956608148393508","-0.0529976813514409"
"3463","0.7250745279894","4.7250745279894","-26.2749254720106","1.06459092414707","-1.04339185160649","0.947002318648559"
"3471","-0.2749254720106","1.7250745279894","-26.2749254720106","1.06459092414707","-1.04339185160649","0.947002318648559"
"3471","-0.2749254720106","1.7250745279894","-26.2749254720106","-3.93540907585293","-1.04339185160649","-1.05299768135144"
"3479","-0.2749254720106","1.7250745279894","-26.2749254720106","-3.93540907585293","-1.04339185160649","-1.05299768135144"
"3480","-0.2749254720106","1.7250745279894","-26.2749254720106","-1.93540907585293","-0.0433918516064922","-1.05299768135144"
"3492","1.7250745279894","7.7250745279894","-25.2749254720106","-1.93540907585293","-0.0433918516064922","-1.05299768135144"
"3492","1.7250745279894","7.7250745279894","-25.2749254720106","1.06459092414707","-2.04339185160649","-2.05299768135144"
"3500","1.7250745279894","3.7250745279894","-28.2749254720106","1.06459092414707","-2.04339185160649","-2.05299768135144"
"3504","1.7250745279894","3.7250745279894","-28.2749254720106","0.0645909241470686","-1.04339185160649","1.94700231864856"
"3512","-0.2749254720106","7.7250745279894","-27.2749254720106","0.0645909241470686","-1.04339185160649","1.94700231864856"
"3512","-0.2749254720106","7.7250745279894","-27.2749254720106","-0.935409075852931","0.956608148393508","0.947002318648559"
"3520","1.7250745279894","7.7250745279894","-25.2749254720106","-0.935409075852931","0.956608148393508","0.947002318648559"
"3524","1.7250745279894","7.7250745279894","-25.2749254720106","1.06459092414707","-0.0433918516064922","-1.05299768135144"
"3529","1.7250745279894","7.7250745279894","-25.2749254720106","1.06459092414707","-0.0433918516064922","-1.05299768135144"
"3529","1.7250745279894","7.7250745279894","-25.2749254720106","1.06459092414707","-0.0433918516064922","-1.05299768135144"
"3541","-0.2749254720106","3.7250745279894","-24.2749254720106","1.06459092414707","-0.0433918516064922","-1.05299768135144"
"3541","-0.2749254720106","3.7250745279894","-24.2749254720106","-1.93540907585293","-3.04339185160649","2.94700231864856"
"3553","-0.2749254720106","10.7250745279894","-27.2749254720106","-1.93540907585293","-3.04339185160649","2.94700231864856"
"3553","-0.2749254720106","10.7250745279894","-27.2749254720106","2.06459092414707","0.956608148393508","0.947002318648559"
"3561","0.7250745279894","5.7250745279894","-27.2749254720106","2.06459092414707","0.956608148393508","0.947002318648559"
"3562","0.7250745279894","5.7250745279894","-27.2749254720106","2.06459092414707","0.956608148393508","0.947002318648559"
"3574","2.7250745279894","3.7250745279894","-23.2749254720106","2.06459092414707","0.956608148393508","0.947002318648559"
"3574","2.7250745279894","3.7250745279894","-23.2749254720106","0.0645909241470686","-0.0433918516064922","-2.05299768135144"
"3578","2.7250745279894","3.7250745279894","-23.2749254720106","0.0645909241470686","-0.0433918516064922","-2.05299768135144"
"3582","2.7250745279894","3.7250745279894","-23.2749254720106","1.06459092414707","-1.04339185160649","0.947002318648559"
"3590","1.7250745279894","5.7250745279894","-27.2749254720106","1.06459092414707","-1.04339185160649","0.947002318648559"
"3594","1.7250745279894","5.7250745279894","-27.2749254720106","1.06459092414707","-0.0433918516064922","-1.05299768135144"
"3602","1.7250745279894","3.7250745279894","-29.2749254720106","1.06459092414707","-0.0433918516064922","-1.05299768135144"
"3602","1.7250745279894","3.7250745279894","-29.2749254720106","-3.93540907585293","-0.0433918516064922","-1.05299768135144"
"3610","-0.2749254720106","7.7250745279894","-27.2749254720106","-3.93540907585293","-0.0433918516064922","-1.05299768135144"
"3614","-0.2749254720106","7.7250745279894","-27.2749254720106","-1.93540907585293","1.95660814839351","-0.0529976813514409"
"3623","-0.2749254720106","9.7250745279894","-26.2749254720106","-1.93540907585293","1.95660814839351","-0.0529976813514409"
"3623","-0.2749254720106","9.7250745279894","-26.2749254720106","-1.93540907585293","1.95660814839351","-1.05299768135144"
"3631","-0.2749254720106","9.7250745279894","-26.2749254720106","-1.93540907585293","1.95660814839351","-1.05299768135144"
"3631","-0.2749254720106","9.7250745279894","-26.2749254720106","1.06459092414707","0.956608148393508","1.94700231864856"
"3643","-1.2749254720106","3.7250745279894","-24.2749254720106","1.06459092414707","0.956608148393508","1.94700231864856"
"3643","-1.2749254720106","3.7250745279894","-24.2749254720106","-4.93540907585293","-0.0433918516064922","-0.0529976813514409"
"3651","0.7250745279894","10.7250745279894","-31.2749254720106","-4.93540907585293","-0.0433918516064922","-0.0529976813514409"
"3652","0.7250745279894","10.7250745279894","-31.2749254720106","-1.93540907585293","-0.0433918516064922","2.94700231864856"
"3664","-0.2749254720106","6.7250745279894","-28.2749254720106","-1.93540907585293","-0.0433918516064922","2.94700231864856"
"3664","-0.2749254720106","6.7250745279894","-28.2749254720106","3.06459092414707","0.956608148393508","-1.05299768135144"
"3672","-0.2749254720106","3.7250745279894","-23.2749254720106","3.06459092414707","0.956608148393508","-1.05299768135144"
"3672","-0.2749254720106","3.7250745279894","-23.2749254720106","1.06459092414707","2.95660814839351","-1.05299768135144"
"3680","-0.2749254720106","3.7250745279894","-23.2749254720106","1.06459092414707","2.95660814839351","-1.05299768135144"
"3680","-0.2749254720106","3.7250745279894","-23.2749254720106","-1.93540907585293","-2.04339185160649","-0.0529976813514409"
"3692","-0.2749254720106","8.7250745279894","-27.2749254720106","-1.93540907585293","-2.04339185160649","-0.0529976813514409"
"3693","-0.2749254720106","8.7250745279894","-27.2749254720106","1.06459092414707","0.956608148393508","1.94700231864856"
"3701","-0.2749254720106","3.7250745279894","-27.2749254720106","1.06459092414707","0.956608148393508","1.94700231864856"
"3705","-0.2749254720106","3.7250745279894","-27.2749254720106","1.06459092414707","1.95660814839351","-2.05299768135144"
"3713","0.7250745279894","7.7250745279894","-26.2749254720106","1.06459092414707","1.95660814839351","-2.05299768135144"
"3713","0.7250745279894","7.7250745279894","-26.2749254720106","-2.93540907585293","0.956608148393508","-0.0529976813514409"
"3721","0.7250745279894","10.7250745279894","-25.2749254720106","-2.93540907585293","0.956608148393508","-0.0529976813514409"
"3725","0.7250745279894","10.7250745279894","-25.2749254720106","1.06459092414707","-1.04339185160649","0.947002318648559"
"3729","0.7250745279894","10.7250745279894","-25.2749254720106","1.06459092414707","-1.04339185160649","0.947002318648559"
"3730","0.7250745279894","10.7250745279894","-25.2749254720106","3.06459092414707","1.95660814839351","-1.05299768135144"
"3742","1.7250745279894","1.7250745279894","-25.2749254720106","3.06459092414707","1.95660814839351","-1.05299768135144"
"3742","1.7250745279894","1.7250745279894","-25.2749254720106","0.0645909241470686","-2.04339185160649","1.94700231864856"
"3754","-0.2749254720106","10.7250745279894","-29.2749254720106","0.0645909241470686","-2.04339185160649","1.94700231864856"
"3754","-0.2749254720106","10.7250745279894","-29.2749254720106","-0.935409075852931","-0.0433918516064922","-0.0529976813514409"
"3762","-0.2749254720106","10.7250745279894","-28.2749254720106","-0.935409075852931","-0.0433918516064922","-0.0529976813514409"
"3762","-0.2749254720106","10.7250745279894","-28.2749254720106","1.06459092414707","-0.0433918516064922","-0.0529976813514409"
"3774","1.7250745279894","3.7250745279894","-27.2749254720106","1.06459092414707","-0.0433918516064922","-0.0529976813514409"
"3774","1.7250745279894","3.7250745279894","-27.2749254720106","1.06459092414707","-0.0433918516064922","2.94700231864856"
"3778","1.7250745279894","3.7250745279894","-27.2749254720106","1.06459092414707","-0.0433918516064922","2.94700231864856"
"3779","1.7250745279894","3.7250745279894","-27.2749254720106","2.06459092414707","0.956608148393508","0.947002318648559"
"3791","0.7250745279894","8.7250745279894","-29.2749254720106","2.06459092414707","0.956608148393508","0.947002318648559"
"3795","0.7250745279894","8.7250745279894","-29.2749254720106","0.0645909241470686","-0.0433918516064922","-1.05299768135144"
"3803","0.7250745279894","4.7250745279894","-26.2749254720106","0.0645909241470686","-0.0433918516064922","-1.05299768135144"
"3803","0.7250745279894","4.7250745279894","-26.2749254720106","-1.93540907585293","2.95660814839351","1.94700231864856"
"3811","-0.2749254720106","3.7250745279894","-24.2749254720106","-1.93540907585293","2.95660814839351","1.94700231864856"
"3815","-0.2749254720106","3.7250745279894","-24.2749254720106","0.0645909241470686","-0.0433918516064922","-1.05299768135144"
"3824","-0.2749254720106","7.7250745279894","-27.2749254720106","0.0645909241470686","-0.0433918516064922","-1.05299768135144"
"3824","-0.2749254720106","7.7250745279894","-27.2749254720106","-2.93540907585293","-2.04339185160649","-1.05299768135144"
"3832","-0.2749254720106","7.7250745279894","-27.2749254720106","-2.93540907585293","-2.04339185160649","-1.05299768135144"
"3832","-0.2749254720106","7.7250745279894","-27.2749254720106","4.06459092414707","-1.04339185160649","-0.0529976813514409"
"3844","1.7250745279894","3.7250745279894","-20.2749254720106","4.06459092414707","-1.04339185160649","-0.0529976813514409"
"3844","1.7250745279894","3.7250745279894","-20.2749254720106","3.06459092414707","-0.0433918516064922","-1.05299768135144"
"3852","0.7250745279894","7.7250745279894","-28.2749254720106","3.06459092414707","-0.0433918516064922","-1.05299768135144"
"3852","0.7250745279894","7.7250745279894","-28.2749254720106","-0.935409075852931","0.956608148393508","-2.05299768135144"
"3860","1.7250745279894","7.7250745279894","-26.2749254720106","-0.935409075852931","0.956608148393508","-2.05299768135144"
"3864","1.7250745279894","7.7250745279894","-26.2749254720106","-0.935409075852931","-0.0433918516064922","0.947002318648559"
"3873","-0.2749254720106","3.7250745279894","-27.2749254720106","-0.935409075852931","-0.0433918516064922","0.947002318648559"
"3873","-0.2749254720106","3.7250745279894","-27.2749254720106","-0.935409075852931","0.956608148393508","-0.0529976813514409"
"3881","-0.2749254720106","3.7250745279894","-27.2749254720106","-0.935409075852931","0.956608148393508","-0.0529976813514409"
"3881","-0.2749254720106","3.7250745279894","-27.2749254720106","2.06459092414707","-3.04339185160649","-0.0529976813514409"
"3893","-0.2749254720106","9.7250745279894","-26.2749254720106","2.06459092414707","-3.04339185160649","-0.0529976813514409"
"3893","-0.2749254720106","9.7250745279894","-26.2749254720106","1.06459092414707","-3.04339185160649","-0.0529976813514409"
"3901","2.7250745279894","5.7250745279894","-28.2749254720106","1.06459092414707","-3.04339185160649","-0.0529976813514409"
"3905","2.7250745279894","5.7250745279894","-28.2749254720106","1.06459092414707","0.956608148393508","-2.05299768135144"
"3914","-0.2749254720106","4.7250745279894","-25.2749254720106","1.06459092414707","0.956608148393508","-2.05299768135144"
"3914","-0.2749254720106","4.7250745279894","-25.2749254720106","4.06459092414707","0.956608148393508","-0.0529976813514409"
"3922","-0.2749254720106","5.7250745279894","-28.2749254720106","4.06459092414707","0.956608148393508","-0.0529976813514409"
"3922","-0.2749254720106","5.7250745279894","-28.2749254720106","2.06459092414707","-1.04339185160649","0.947002318648559"
"3930","-0.2749254720106","5.7250745279894","-28.2749254720106","2.06459092414707","-1.04339185160649","0.947002318648559"
"3930","-0.2749254720106","5.7250745279894","-28.2749254720106","4.06459092414707","2.95660814839351","0.947002318648559"
"3942","-0.2749254720106","3.7250745279894","-25.2749254720106","4.06459092414707","2.95660814839351","0.947002318648559"
"3943","-0.2749254720106","3.7250745279894","-25.2749254720106","-1.93540907585293","0.956608148393508","-0.0529976813514409"
"3954","2.7250745279894","10.7250745279894","-28.2749254720106","-1.93540907585293","0.956608148393508","-0.0529976813514409"
"3955","2.7250745279894","10.7250745279894","-28.2749254720106","-1.93540907585293","-2.04339185160649","2.94700231864856"
"3963","-0.2749254720106","9.7250745279894","-27.2749254720106","-1.93540907585293","-2.04339185160649","2.94700231864856"
"3963","-0.2749254720106","9.7250745279894","-27.2749254720106","3.06459092414707","0.956608148393508","0.947002318648559"
"3971","1.7250745279894","4.7250745279894","-26.2749254720106","3.06459092414707","0.956608148393508","0.947002318648559"
"3975","1.7250745279894","4.7250745279894","-26.2749254720106","4.06459092414707","-1.04339185160649","-1.05299768135144"
"3979","1.7250745279894","4.7250745279894","-26.2749254720106","4.06459092414707","-1.04339185160649","-1.05299768135144"
"3979","1.7250745279894","4.7250745279894","-26.2749254720106","-1.93540907585293","-2.04339185160649","-0.0529976813514409"
"3991","0.7250745279894","8.7250745279894","-28.2749254720106","-1.93540907585293","-2.04339185160649","-0.0529976813514409"
"3995","0.7250745279894","8.7250745279894","-28.2749254720106","-0.935409075852931","-1.04339185160649","-0.0529976813514409"
"4004","-0.2749254720106","5.7250745279894","-27.2749254720106","-0.935409075852931","-1.04339185160649","-0.0529976813514409"
"4004","-0.2749254720106","5.7250745279894","-27.2749254720106","2.06459092414707","-0.0433918516064922","-0.0529976813514409"
"4012","0.7250745279894","1.7250745279894","-24.2749254720106","2.06459092414707","-0.0433918516064922","-0.0529976813514409"
"4012","0.7250745279894","1.7250745279894","-24.2749254720106","-0.935409075852931","-3.04339185160649","-1.05299768135144"
"4024","-1.2749254720106","8.7250745279894","-28.2749254720106","-0.935409075852931","-3.04339185160649","-1.05299768135144"
"4024","-1.2749254720106","8.7250745279894","-28.2749254720106","1.06459092414707","0.956608148393508","2.94700231864856"
"4028","-1.2749254720106","8.7250745279894","-28.2749254720106","1.06459092414707","0.956608148393508","2.94700231864856"
"4032","-1.2749254720106","8.7250745279894","-28.2749254720106","0.0645909241470686","-0.0433918516064922","-0.0529976813514409"
"4045","-0.2749254720106","2.7250745279894","-25.2749254720106","0.0645909241470686","-0.0433918516064922","-0.0529976813514409"
"4045","-0.2749254720106","2.7250745279894","-25.2749254720106","-3.93540907585293","-3.04339185160649","0.947002318648559"
"4053","1.7250745279894","6.7250745279894","-25.2749254720106","-3.93540907585293","-3.04339185160649","0.947002318648559"
"4053","1.7250745279894","6.7250745279894","-25.2749254720106","-0.935409075852931","-1.04339185160649","2.94700231864856"
"4061","-0.2749254720106","8.7250745279894","-28.2749254720106","-0.935409075852931","-1.04339185160649","2.94700231864856"
"4065","-0.2749254720106","8.7250745279894","-28.2749254720106","1.06459092414707","1.95660814839351","0.947002318648559"
"4073","1.7250745279894","3.7250745279894","-28.2749254720106","1.06459092414707","1.95660814839351","0.947002318648559"
"4074","1.7250745279894","3.7250745279894","-28.2749254720106","2.06459092414707","-0.0433918516064922","0.947002318648559"
"4082","1.7250745279894","3.7250745279894","-28.2749254720106","2.06459092414707","-0.0433918516064922","0.947002318648559"
"4082","1.7250745279894","3.7250745279894","-28.2749254720106","2.06459092414707","-0.0433918516064922","0.947002318648559"
"4094","-0.2749254720106","10.7250745279894","-27.2749254720106","2.06459092414707","-0.0433918516064922","0.947002318648559"
"4094","-0.2749254720106","10.7250745279894","-27.2749254720106","-0.935409075852931","0.956608148393508","-0.0529976813514409"
"4102","1.7250745279894","8.7250745279894","-27.2749254720106","-0.935409075852931","0.956608148393508","-0.0529976813514409"
"4102","1.7250745279894","8.7250745279894","-27.2749254720106","2.06459092414707","-0.0433918516064922","-2.05299768135144"
"4114","-0.2749254720106","3.7250745279894","-26.2749254720106","2.06459092414707","-0.0433918516064922","-2.05299768135144"
"4114","-0.2749254720106","3.7250745279894","-26.2749254720106","1.06459092414707","-4.04339185160649","-3.05299768135144"
"4123","-1.2749254720106","6.7250745279894","-25.2749254720106","1.06459092414707","-4.04339185160649","-3.05299768135144"
"4123","-1.2749254720106","6.7250745279894","-25.2749254720106","1.06459092414707","-2.04339185160649","-1.05299768135144"
"4131","-1.2749254720106","6.7250745279894","-25.2749254720106","1.06459092414707","-2.04339185160649","-1.05299768135144"
"4131","-1.2749254720106","6.7250745279894","-25.2749254720106","0.0645909241470686","0.956608148393508","-1.05299768135144"
"4143","-0.2749254720106","5.7250745279894","-28.2749254720106","0.0645909241470686","0.956608148393508","-1.05299768135144"
"4143","-0.2749254720106","5.7250745279894","-28.2749254720106","4.06459092414707","-0.0433918516064922","-1.05299768135144"
"4151","-0.2749254720106","5.7250745279894","-28.2749254720106","4.06459092414707","-0.0433918516064922","-1.05299768135144"
"4155","-0.2749254720106","5.7250745279894","-28.2749254720106","-1.93540907585293","-0.0433918516064922","-1.05299768135144"
"4164","-1.2749254720106","10.7250745279894","-26.2749254720106","-1.93540907585293","-0.0433918516064922","-1.05299768135144"
"4164","-1.2749254720106","10.7250745279894","-26.2749254720106","-1.93540907585293","-0.0433918516064922","-1.05299768135144"
"4172","2.7250745279894","9.7250745279894","-27.2749254720106","-1.93540907585293","-0.0433918516064922","-1.05299768135144"
"4176","2.7250745279894","9.7250745279894","-27.2749254720106","0.0645909241470686","2.95660814839351","-1.05299768135144"
"4180","2.7250745279894","9.7250745279894","-27.2749254720106","0.0645909241470686","2.95660814839351","-1.05299768135144"
"4180","2.7250745279894","9.7250745279894","-27.2749254720106","0.0645909241470686","-1.04339185160649","-1.05299768135144"
"4192","-0.2749254720106","8.7250745279894","-28.2749254720106","0.0645909241470686","-1.04339185160649","-1.05299768135144"
"4192","-0.2749254720106","8.7250745279894","-28.2749254720106","-2.93540907585293","-2.04339185160649","0.947002318648559"
"4204","-0.2749254720106","8.7250745279894","-28.2749254720106","-2.93540907585293","-2.04339185160649","0.947002318648559"
"4205","-0.2749254720106","8.7250745279894","-28.2749254720106","3.06459092414707","-1.04339185160649","-0.0529976813514409"
"4213","0.7250745279894","8.7250745279894","-28.2749254720106","3.06459092414707","-1.04339185160649","-0.0529976813514409"
"4213","0.7250745279894","8.7250745279894","-28.2749254720106","3.06459092414707","-2.04339185160649","0.947002318648559"
"4225","-1.2749254720106","3.7250745279894","-25.2749254720106","3.06459092414707","-2.04339185160649","0.947002318648559"
"4225","-1.2749254720106","3.7250745279894","-25.2749254720106","-1.93540907585293","-0.0433918516064922","-2.05299768135144"
"4229","-1.2749254720106","3.7250745279894","-25.2749254720106","-1.93540907585293","-0.0433918516064922","-2.05299768135144"
"4233","-1.2749254720106","3.7250745279894","-25.2749254720106","-3.93540907585293","-0.0433918516064922","-0.0529976813514409"
"4241","0.7250745279894","9.7250745279894","-27.2749254720106","-3.93540907585293","-0.0433918516064922","-0.0529976813514409"
"4245","0.7250745279894","9.7250745279894","-27.2749254720106","0.0645909241470686","0.956608148393508","1.94700231864856"
"4254","0.7250745279894","6.7250745279894","-22.2749254720106","0.0645909241470686","0.956608148393508","1.94700231864856"
"4254","0.7250745279894","6.7250745279894","-22.2749254720106","1.06459092414707","-2.04339185160649","-0.0529976813514409"
"4262","0.7250745279894","6.7250745279894","-26.2749254720106","1.06459092414707","-2.04339185160649","-0.0529976813514409"
"4266","0.7250745279894","6.7250745279894","-26.2749254720106","-1.93540907585293","-0.0433918516064922","-2.05299768135144"
"4274","-0.2749254720106","5.7250745279894","-27.2749254720106","-1.93540907585293","-0.0433918516064922","-2.05299768135144"
"4274","-0.2749254720106","5.7250745279894","-27.2749254720106","-0.935409075852931","-0.0433918516064922","-1.05299768135144"
"4282","-0.2749254720106","5.7250745279894","-27.2749254720106","-0.935409075852931","-0.0433918516064922","-1.05299768135144"
"4282","-0.2749254720106","5.7250745279894","-27.2749254720106","0.0645909241470686","-1.04339185160649","0.947002318648559"
"4295","0.7250745279894","5.7250745279894","-25.2749254720106","0.0645909241470686","-1.04339185160649","0.947002318648559"
"4295","0.7250745279894","5.7250745279894","-25.2749254720106","-0.935409075852931","-0.0433918516064922","1.94700231864856"
"4303","-0.2749254720106","9.7250745279894","-27.2749254720106","-0.935409075852931","-0.0433918516064922","1.94700231864856"
"4303","-0.2749254720106","9.7250745279894","-27.2749254720106","2.06459092414707","-0.0433918516064922","2.94700231864856"
"4315","0.7250745279894","6.7250745279894","-28.2749254720106","2.06459092414707","-0.0433918516064922","2.94700231864856"
"4315","0.7250745279894","6.7250745279894","-28.2749254720106","2.06459092414707","-1.04339185160649","-0.0529976813514409"
"4323","2.7250745279894","4.7250745279894","-25.2749254720106","2.06459092414707","-1.04339185160649","-0.0529976813514409"
"4323","2.7250745279894","4.7250745279894","-25.2749254720106","0.0645909241470686","0.956608148393508","0.947002318648559"
"4331","-0.2749254720106","4.7250745279894","-25.2749254720106","0.0645909241470686","0.956608148393508","0.947002318648559"
"4332","-0.2749254720106","4.7250745279894","-25.2749254720106","1.06459092414707","1.95660814839351","-0.0529976813514409"
"4344","0.7250745279894","5.7250745279894","-26.2749254720106","1.06459092414707","1.95660814839351","-0.0529976813514409"
"4344","0.7250745279894","5.7250745279894","-26.2749254720106","2.06459092414707","-1.04339185160649","-0.0529976813514409"
"4352","-0.2749254720106","6.7250745279894","-27.2749254720106","2.06459092414707","-1.04339185160649","-0.0529976813514409"
"4352","-0.2749254720106","6.7250745279894","-27.2749254720106","-1.93540907585293","0.956608148393508","0.947002318648559"
"4364","1.7250745279894","4.7250745279894","-25.2749254720106","-1.93540907585293","0.956608148393508","0.947002318648559"
"4364","1.7250745279894","4.7250745279894","-25.2749254720106","-1.93540907585293","0.956608148393508","-0.0529976813514409"
"4372","-0.2749254720106","6.7250745279894","-28.2749254720106","-1.93540907585293","0.956608148393508","-0.0529976813514409"
"4373","-0.2749254720106","6.7250745279894","-28.2749254720106","-0.935409075852931","-2.04339185160649","-0.0529976813514409"
"4381","1.7250745279894","5.7250745279894","-25.2749254720106","-0.935409075852931","-2.04339185160649","-0.0529976813514409"
"4381","1.7250745279894","5.7250745279894","-25.2749254720106","3.06459092414707","-2.04339185160649","-0.0529976813514409"
"4393","2.7250745279894","5.7250745279894","-26.2749254720106","3.06459092414707","-2.04339185160649","-0.0529976813514409"
"4393","2.7250745279894","5.7250745279894","-26.2749254720106","1.06459092414707","0.956608148393508","2.94700231864856"
"4401","0.7250745279894","7.7250745279894","-27.2749254720106","1.06459092414707","0.956608148393508","2.94700231864856"
"4401","0.7250745279894","7.7250745279894","-27.2749254720106","2.06459092414707","-0.0433918516064922","-1.05299768135144"
"4409","0.7250745279894","7.7250745279894","-27.2749254720106","2.06459092414707","-0.0433918516064922","-1.05299768135144"
"4413","0.7250745279894","7.7250745279894","-27.2749254720106","-1.93540907585293","2.95660814839351","-0.0529976813514409"
"4422","-0.2749254720106","4.7250745279894","-25.2749254720106","-1.93540907585293","2.95660814839351","-0.0529976813514409"
"4422","-0.2749254720106","4.7250745279894","-25.2749254720106","0.0645909241470686","1.95660814839351","-2.05299768135144"
"4430","-0.2749254720106","3.7250745279894","-24.2749254720106","0.0645909241470686","1.95660814839351","-2.05299768135144"
"4430","-0.2749254720106","3.7250745279894","-24.2749254720106","1.06459092414707","-1.04339185160649","-1.05299768135144"
"4442","0.7250745279894","8.7250745279894","-26.2749254720106","1.06459092414707","-1.04339185160649","-1.05299768135144"
"4442","0.7250745279894","8.7250745279894","-26.2749254720106","2.06459092414707","0.956608148393508","-1.05299768135144"
"4450","0.7250745279894","6.7250745279894","-28.2749254720106","2.06459092414707","0.956608148393508","-1.05299768135144"
"4450","0.7250745279894","6.7250745279894","-28.2749254720106","-0.935409075852931","0.956608148393508","1.94700231864856"
"4458","0.7250745279894","4.7250745279894","-26.2749254720106","-0.935409075852931","0.956608148393508","1.94700231864856"
"4462","0.7250745279894","4.7250745279894","-26.2749254720106","1.06459092414707","-0.0433918516064922","-2.05299768135144"
"4470","1.7250745279894","6.7250745279894","-26.2749254720106","1.06459092414707","-0.0433918516064922","-2.05299768135144"
"4471","1.7250745279894","6.7250745279894","-26.2749254720106","3.06459092414707","2.95660814839351","0.947002318648559"
"4479","-1.2749254720106","8.7250745279894","-27.2749254720106","3.06459092414707","2.95660814839351","0.947002318648559"
"4479","-1.2749254720106","8.7250745279894","-27.2749254720106","6.06459092414707","-2.04339185160649","-2.05299768135144"
"4491","0.7250745279894","5.7250745279894","-25.2749254720106","6.06459092414707","-2.04339185160649","-2.05299768135144"
"4491","0.7250745279894","5.7250745279894","-25.2749254720106","0.0645909241470686","-0.0433918516064922","-0.0529976813514409"
"4499","0.7250745279894","3.7250745279894","-25.2749254720106","0.0645909241470686","-0.0433918516064922","-0.0529976813514409"
"4500","0.7250745279894","3.7250745279894","-25.2749254720106","1.06459092414707","-1.04339185160649","0.947002318648559"
"4508","-0.2749254720106","9.7250745279894","-30.2749254720106","1.06459092414707","-1.04339185160649","0.947002318648559"
"4511","-0.2749254720106","9.7250745279894","-30.2749254720106","1.06459092414707","-1.04339185160649","1.94700231864856"
"4520","0.7250745279894","5.7250745279894","-26.2749254720106","1.06459092414707","-1.04339185160649","1.94700231864856"
"4520","0.7250745279894","5.7250745279894","-26.2749254720106","-1.93540907585293","-1.04339185160649","-1.05299768135144"
"4528","-2.2749254720106","2.7250745279894","-23.2749254720106","-1.93540907585293","-1.04339185160649","-1.05299768135144"
"4528","-2.2749254720106","2.7250745279894","-23.2749254720106","-1.93540907585293","-2.04339185160649","-0.0529976813514409"
"4536","-0.2749254720106","9.7250745279894","-26.2749254720106","-1.93540907585293","-2.04339185160649","-0.0529976813514409"
"4540","-0.2749254720106","9.7250745279894","-26.2749254720106","3.06459092414707","-3.04339185160649","-1.05299768135144"
"4549","-0.2749254720106","9.7250745279894","-27.2749254720106","3.06459092414707","-3.04339185160649","-1.05299768135144"
"4549","-0.2749254720106","9.7250745279894","-27.2749254720106","0.0645909241470686","-2.04339185160649","-1.05299768135144"
"4557","1.7250745279894","2.7250745279894","-27.2749254720106","0.0645909241470686","-2.04339185160649","-1.05299768135144"
"4561","1.7250745279894","2.7250745279894","-27.2749254720106","-1.93540907585293","0.956608148393508","-1.05299768135144"
"4569","-0.2749254720106","6.7250745279894","-26.2749254720106","-1.93540907585293","0.956608148393508","-1.05299768135144"
"4569","-0.2749254720106","6.7250745279894","-26.2749254720106","1.06459092414707","-0.0433918516064922","-0.0529976813514409"
"4577","-0.2749254720106","8.7250745279894","-27.2749254720106","1.06459092414707","-0.0433918516064922","-0.0529976813514409"
"4577","-0.2749254720106","8.7250745279894","-27.2749254720106","5.06459092414707","4.95660814839351","-0.0529976813514409"
"4589","-0.2749254720106","5.7250745279894","-25.2749254720106","5.06459092414707","4.95660814839351","-0.0529976813514409"
"4589","-0.2749254720106","5.7250745279894","-25.2749254720106","0.0645909241470686","0.956608148393508","1.94700231864856"
"4598","1.7250745279894","3.7250745279894","-22.2749254720106","0.0645909241470686","0.956608148393508","1.94700231864856"
"4598","1.7250745279894","3.7250745279894","-22.2749254720106","0.0645909241470686","1.95660814839351","0.947002318648559"
"4610","-1.2749254720106","7.7250745279894","-28.2749254720106","0.0645909241470686","1.95660814839351","0.947002318648559"
"4610","-1.2749254720106","7.7250745279894","-28.2749254720106","4.06459092414707","0.956608148393508","0.947002318648559"
"4618","0.7250745279894","7.7250745279894","-28.2749254720106","4.06459092414707","0.956608148393508","0.947002318648559"
"4618","0.7250745279894","7.7250745279894","-28.2749254720106","1.06459092414707","0.956608148393508","1.94700231864856"
"4626","1.7250745279894","4.7250745279894","-24.2749254720106","1.06459092414707","0.956608148393508","1.94700231864856"
"4630","1.7250745279894","4.7250745279894","-24.2749254720106","-1.93540907585293","-2.04339185160649","1.94700231864856"
"4639","-0.2749254720106","6.7250745279894","-26.2749254720106","-1.93540907585293","-2.04339185160649","1.94700231864856"
"4639","-0.2749254720106","6.7250745279894","-26.2749254720106","1.06459092414707","-1.04339185160649","0.947002318648559"
"4647","0.7250745279894","10.7250745279894","-27.2749254720106","1.06459092414707","-1.04339185160649","0.947002318648559"
"4647","0.7250745279894","10.7250745279894","-27.2749254720106","4.06459092414707","-0.0433918516064922","1.94700231864856"
"4659","0.7250745279894","5.7250745279894","-29.2749254720106","4.06459092414707","-0.0433918516064922","1.94700231864856"
"4659","0.7250745279894","5.7250745279894","-29.2749254720106","-1.93540907585293","-1.04339185160649","-2.05299768135144"
"4667","0.7250745279894","3.7250745279894","-27.2749254720106","-1.93540907585293","-1.04339185160649","-2.05299768135144"
"4668","0.7250745279894","3.7250745279894","-27.2749254720106","2.06459092414707","1.95660814839351","-0.0529976813514409"
"4680","2.7250745279894","7.7250745279894","-27.2749254720106","2.06459092414707","1.95660814839351","-0.0529976813514409"
"4680","2.7250745279894","7.7250745279894","-27.2749254720106","1.06459092414707","-0.0433918516064922","0.947002318648559"
"4688","0.7250745279894","7.7250745279894","-25.2749254720106","1.06459092414707","-0.0433918516064922","0.947002318648559"
"4688","0.7250745279894","7.7250745279894","-25.2749254720106","0.0645909241470686","-2.04339185160649","0.947002318648559"
"4696","1.7250745279894","6.7250745279894","-23.2749254720106","0.0645909241470686","-2.04339185160649","0.947002318648559"
"4700","1.7250745279894","6.7250745279894","-23.2749254720106","-3.93540907585293","-0.0433918516064922","0.947002318648559"
"4708","-1.2749254720106","6.7250745279894","-29.2749254720106","-3.93540907585293","-0.0433918516064922","0.947002318648559"
"4708","-1.2749254720106","6.7250745279894","-29.2749254720106","0.0645909241470686","0.956608148393508","-0.0529976813514409"
"4716","-0.2749254720106","8.7250745279894","-28.2749254720106","0.0645909241470686","0.956608148393508","-0.0529976813514409"
"4720","-0.2749254720106","8.7250745279894","-28.2749254720106","-0.935409075852931","-1.04339185160649","0.947002318648559"
"4729","-0.2749254720106","3.7250745279894","-24.2749254720106","-0.935409075852931","-1.04339185160649","0.947002318648559"
"4729","-0.2749254720106","3.7250745279894","-24.2749254720106","-0.935409075852931","-1.04339185160649","1.94700231864856"
"4737","-0.2749254720106","7.7250745279894","-26.2749254720106","-0.935409075852931","-1.04339185160649","1.94700231864856"
"4737","-0.2749254720106","7.7250745279894","-26.2749254720106","-0.935409075852931","0.956608148393508","0.947002318648559"
"4749","-0.2749254720106","7.7250745279894","-29.2749254720106","-0.935409075852931","0.956608148393508","0.947002318648559"
"4749","-0.2749254720106","7.7250745279894","-29.2749254720106","2.06459092414707","0.956608148393508","-1.05299768135144"
"4757","0.7250745279894","5.7250745279894","-28.2749254720106","2.06459092414707","0.956608148393508","-1.05299768135144"
"4758","0.7250745279894","5.7250745279894","-28.2749254720106","-0.935409075852931","-1.04339185160649","0.947002318648559"
"4770","-0.2749254720106","3.7250745279894","-24.2749254720106","-0.935409075852931","-1.04339185160649","0.947002318648559"
"4770","-0.2749254720106","3.7250745279894","-24.2749254720106","1.06459092414707","-0.0433918516064922","-0.0529976813514409"
"4778","0.7250745279894","5.7250745279894","-27.2749254720106","1.06459092414707","-0.0433918516064922","-0.0529976813514409"
"4778","0.7250745279894","5.7250745279894","-27.2749254720106","2.06459092414707","0.956608148393508","0.947002318648559"
"4786","0.7250745279894","5.7250745279894","-26.2749254720106","2.06459092414707","0.956608148393508","0.947002318648559"
"4790","0.7250745279894","5.7250745279894","-26.2749254720106","0.0645909241470686","-0.0433918516064922","-1.05299768135144"
"4798","-0.2749254720106","4.7250745279894","-24.2749254720106","0.0645909241470686","-0.0433918516064922","-1.05299768135144"
"4799","-0.2749254720106","4.7250745279894","-24.2749254720106","0.0645909241470686","1.95660814839351","-1.05299768135144"
"4807","-0.2749254720106","6.7250745279894","-31.2749254720106","0.0645909241470686","1.95660814839351","-1.05299768135144"
"4811","-0.2749254720106","6.7250745279894","-31.2749254720106","0.0645909241470686","-0.0433918516064922","-2.05299768135144"
"4819","1.7250745279894","7.7250745279894","-27.2749254720106","0.0645909241470686","-0.0433918516064922","-2.05299768135144"
"4819","1.7250745279894","7.7250745279894","-27.2749254720106","1.06459092414707","-0.0433918516064922","-2.05299768135144"
"4827","-0.2749254720106","4.7250745279894","-26.2749254720106","1.06459092414707","-0.0433918516064922","-2.05299768135144"
"4827","-0.2749254720106","4.7250745279894","-26.2749254720106","1.06459092414707","-1.04339185160649","-0.0529976813514409"
"4839","-0.2749254720106","3.7250745279894","-26.2749254720106","1.06459092414707","-1.04339185160649","-0.0529976813514409"
"4840","-0.2749254720106","3.7250745279894","-26.2749254720106","1.06459092414707","-4.04339185160649","-0.0529976813514409"
"4848","0.7250745279894","6.7250745279894","-26.2749254720106","1.06459092414707","-4.04339185160649","-0.0529976813514409"
"4848","0.7250745279894","6.7250745279894","-26.2749254720106","1.06459092414707","-0.0433918516064922","-0.0529976813514409"
"4860","0.7250745279894","6.7250745279894","-29.2749254720106","1.06459092414707","-0.0433918516064922","-0.0529976813514409"
"4860","0.7250745279894","6.7250745279894","-29.2749254720106","0.0645909241470686","-1.04339185160649","-1.05299768135144"
"4868","0.7250745279894","5.7250745279894","-27.2749254720106","0.0645909241470686","-1.04339185160649","-1.05299768135144"
"4868","0.7250745279894","5.7250745279894","-27.2749254720106","-3.93540907585293","0.956608148393508","-0.0529976813514409"
"4876","-0.2749254720106","7.7250745279894","-27.2749254720106","-3.93540907585293","0.956608148393508","-0.0529976813514409"
"4880","-0.2749254720106","7.7250745279894","-27.2749254720106","-1.93540907585293","-0.0433918516064922","2.94700231864856"
"4889","1.7250745279894","5.7250745279894","-26.2749254720106","-1.93540907585293","-0.0433918516064922","2.94700231864856"
"4889","1.7250745279894","5.7250745279894","-26.2749254720106","0.0645909241470686","-3.04339185160649","1.94700231864856"
"4897","-0.2749254720106","4.7250745279894","-25.2749254720106","0.0645909241470686","-3.04339185160649","1.94700231864856"
"4901","-0.2749254720106","4.7250745279894","-25.2749254720106","1.06459092414707","-1.04339185160649","0.947002318648559"
"4909","0.7250745279894","8.7250745279894","-27.2749254720106","1.06459092414707","-1.04339185160649","0.947002318648559"
"4909","0.7250745279894","8.7250745279894","-27.2749254720106","4.06459092414707","-0.0433918516064922","0.947002318648559"
"4917","2.7250745279894","7.7250745279894","-26.2749254720106","4.06459092414707","-0.0433918516064922","0.947002318648559"
"4917","2.7250745279894","7.7250745279894","-26.2749254720106","-0.935409075852931","-1.04339185160649","-2.05299768135144"
"4929","-0.2749254720106","5.7250745279894","-26.2749254720106","-0.935409075852931","-1.04339185160649","-2.05299768135144"
"4930","-0.2749254720106","5.7250745279894","-26.2749254720106","-1.93540907585293","-0.0433918516064922","-2.05299768135144"
"4938","-0.2749254720106","3.7250745279894","-21.2749254720106","-1.93540907585293","-0.0433918516064922","-2.05299768135144"
"4938","-0.2749254720106","3.7250745279894","-21.2749254720106","0.0645909241470686","-0.0433918516064922","0.947002318648559"
"4950","2.7250745279894","9.7250745279894","-27.2749254720106","0.0645909241470686","-0.0433918516064922","0.947002318648559"
"4950","2.7250745279894","9.7250745279894","-27.2749254720106","4.06459092414707","0.956608148393508","0.947002318648559"
"4958","-0.2749254720106","3.7250745279894","-30.2749254720106","4.06459092414707","0.956608148393508","0.947002318648559"
"4958","-0.2749254720106","3.7250745279894","-30.2749254720106","0.0645909241470686","-2.04339185160649","0.947002318648559"
"4966","2.7250745279894","3.7250745279894","-24.2749254720106","0.0645909241470686","-2.04339185160649","0.947002318648559"
"4970","2.7250745279894","3.7250745279894","-24.2749254720106","-1.93540907585293","-0.0433918516064922","0.947002318648559"
"4979","0.7250745279894","7.7250745279894","-26.2749254720106","-1.93540907585293","-0.0433918516064922","0.947002318648559"
"4979","0.7250745279894","7.7250745279894","-26.2749254720106","4.06459092414707","-0.0433918516064922","-0.0529976813514409"
"4987","1.7250745279894","6.7250745279894","-27.2749254720106","4.06459092414707","-0.0433918516064922","-0.0529976813514409"
"4991","1.7250745279894","6.7250745279894","-27.2749254720106","-1.93540907585293","0.956608148393508","-1.05299768135144"
"4999","1.7250745279894","2.7250745279894","-26.2749254720106","-1.93540907585293","0.956608148393508","-1.05299768135144"
"4999","1.7250745279894","2.7250745279894","-26.2749254720106","-2.93540907585293","2.95660814839351","-0.0529976813514409"
"5007","0.7250745279894","3.7250745279894","-26.2749254720106","-2.93540907585293","2.95660814839351","-0.0529976813514409"
"5008","0.7250745279894","3.7250745279894","-26.2749254720106","-0.935409075852931","0.956608148393508","-0.0529976813514409"
"5020","-0.2749254720106","9.7250745279894","-28.2749254720106","-0.935409075852931","0.956608148393508","-0.0529976813514409"
"5020","-0.2749254720106","9.7250745279894","-28.2749254720106","3.06459092414707","-2.04339185160649","0.947002318648559"
"5028","2.7250745279894","5.7250745279894","-27.2749254720106","3.06459092414707","-2.04339185160649","0.947002318648559"
"5028","2.7250745279894","5.7250745279894","-27.2749254720106","3.06459092414707","-1.04339185160649","-0.0529976813514409"
"5040","-1.2749254720106","2.7250745279894","-26.2749254720106","3.06459092414707","-1.04339185160649","-0.0529976813514409"
"5040","-1.2749254720106","2.7250745279894","-26.2749254720106","-0.935409075852931","0.956608148393508","0.947002318648559"
"5048","-0.2749254720106","9.7250745279894","-26.2749254720106","-0.935409075852931","0.956608148393508","0.947002318648559"
"5048","-0.2749254720106","9.7250745279894","-26.2749254720106","0.0645909241470686","0.956608148393508","0.947002318648559"
"5056","-0.2749254720106","8.7250745279894","-28.2749254720106","0.0645909241470686","0.956608148393508","0.947002318648559"
"5060","-0.2749254720106","8.7250745279894","-28.2749254720106","2.06459092414707","2.95660814839351","1.94700231864856"
"5068","2.7250745279894","3.7250745279894","-26.2749254720106","2.06459092414707","2.95660814839351","1.94700231864856"
"5069","2.7250745279894","3.7250745279894","-26.2749254720106","1.06459092414707","-1.04339185160649","-2.05299768135144"
"5077","-2.2749254720106","7.7250745279894","-25.2749254720106","1.06459092414707","-1.04339185160649","-2.05299768135144"
"5080","-2.2749254720106","7.7250745279894","-25.2749254720106","1.06459092414707","-1.04339185160649","-2.05299768135144"
"5089","-0.2749254720106","8.7250745279894","-28.2749254720106","1.06459092414707","-1.04339185160649","-2.05299768135144"
"5089","-0.2749254720106","8.7250745279894","-28.2749254720106","2.06459092414707","-0.0433918516064922","2.94700231864856"
"5097","-0.2749254720106","7.7250745279894","-29.2749254720106","2.06459092414707","-0.0433918516064922","2.94700231864856"
"5097","-0.2749254720106","7.7250745279894","-29.2749254720106","0.0645909241470686","2.95660814839351","-1.05299768135144"
"5109","0.7250745279894","3.7250745279894","-25.2749254720106","0.0645909241470686","2.95660814839351","-1.05299768135144"
"5109","0.7250745279894","3.7250745279894","-25.2749254720106","-1.93540907585293","-1.04339185160649","-1.05299768135144"
"5118","-0.2749254720106","7.7250745279894","-27.2749254720106","-1.93540907585293","-1.04339185160649","-1.05299768135144"
"5118","-0.2749254720106","7.7250745279894","-27.2749254720106","1.06459092414707","0.956608148393508","0.947002318648559"
"5130","-0.2749254720106","8.7250745279894","-26.2749254720106","1.06459092414707","0.956608148393508","0.947002318648559"
"5130","-0.2749254720106","8.7250745279894","-26.2749254720106","1.06459092414707","0.956608148393508","-0.0529976813514409"
"5138","2.7250745279894","5.7250745279894","-22.2749254720106","1.06459092414707","0.956608148393508","-0.0529976813514409"
"5138","2.7250745279894","5.7250745279894","-22.2749254720106","-0.935409075852931","0.956608148393508","-1.05299768135144"
"5146","0.7250745279894","4.7250745279894","-27.2749254720106","-0.935409075852931","0.956608148393508","-1.05299768135144"
"5150","0.7250745279894","4.7250745279894","-27.2749254720106","0.0645909241470686","-0.0433918516064922","1.94700231864856"
"5159","0.7250745279894","6.7250745279894","-28.2749254720106","0.0645909241470686","-0.0433918516064922","1.94700231864856"
"5159","0.7250745279894","6.7250745279894","-28.2749254720106","1.06459092414707","-2.04339185160649","-1.05299768135144"
"5167","0.7250745279894","5.7250745279894","-24.2749254720106","1.06459092414707","-2.04339185160649","-1.05299768135144"
"5171","0.7250745279894","5.7250745279894","-24.2749254720106","-1.93540907585293","-0.0433918516064922","0.947002318648559"
"5179","-0.2749254720106","5.7250745279894","-24.2749254720106","-1.93540907585293","-0.0433918516064922","0.947002318648559"
"5179","-0.2749254720106","5.7250745279894","-24.2749254720106","-1.93540907585293","-0.0433918516064922","-0.0529976813514409"
"5188","2.7250745279894","5.7250745279894","-26.2749254720106","-1.93540907585293","-0.0433918516064922","-0.0529976813514409"
"5188","2.7250745279894","5.7250745279894","-26.2749254720106","-0.935409075852931","-1.04339185160649","0.947002318648559"
"5200","0.7250745279894","7.7250745279894","-25.2749254720106","-0.935409075852931","-1.04339185160649","0.947002318648559"
"5200","0.7250745279894","7.7250745279894","-25.2749254720106","-0.935409075852931","1.95660814839351","-0.0529976813514409"
"5208","-0.2749254720106","5.7250745279894","-28.2749254720106","-0.935409075852931","1.95660814839351","-0.0529976813514409"
"5208","-0.2749254720106","5.7250745279894","-28.2749254720106","0.0645909241470686","-2.04339185160649","-2.05299768135144"
"5216","-0.2749254720106","9.7250745279894","-25.2749254720106","0.0645909241470686","-2.04339185160649","-2.05299768135144"
"5220","-0.2749254720106","9.7250745279894","-25.2749254720106","5.06459092414707","-1.04339185160649","0.947002318648559"
"5228","0.7250745279894","6.7250745279894","-26.2749254720106","5.06459092414707","-1.04339185160649","0.947002318648559"
"5229","0.7250745279894","6.7250745279894","-26.2749254720106","4.06459092414707","-1.04339185160649","-1.05299768135144"
"5237","-0.2749254720106","3.7250745279894","-25.2749254720106","4.06459092414707","-1.04339185160649","-1.05299768135144"
"5241","-0.2749254720106","3.7250745279894","-25.2749254720106","2.06459092414707","2.95660814839351","0.947002318648559"
"5249","-1.2749254720106","8.7250745279894","-27.2749254720106","2.06459092414707","2.95660814839351","0.947002318648559"
"5249","-1.2749254720106","8.7250745279894","-27.2749254720106","-0.935409075852931","0.956608148393508","-0.0529976813514409"
"5257","0.7250745279894","6.7250745279894","-27.2749254720106","-0.935409075852931","0.956608148393508","-0.0529976813514409"
"5257","0.7250745279894","6.7250745279894","-27.2749254720106","4.06459092414707","-1.04339185160649","2.94700231864856"
"5270","0.7250745279894","3.7250745279894","-26.2749254720106","4.06459092414707","-1.04339185160649","2.94700231864856"
"5270","0.7250745279894","3.7250745279894","-26.2749254720106","2.06459092414707","0.956608148393508","0.947002318648559"
"5278","-0.2749254720106","4.7250745279894","-22.2749254720106","2.06459092414707","0.956608148393508","0.947002318648559"
"5278","-0.2749254720106","4.7250745279894","-22.2749254720106","2.06459092414707","2.95660814839351","1.94700231864856"
"5290","1.7250745279894","7.7250745279894","-27.2749254720106","2.06459092414707","2.95660814839351","1.94700231864856"
"5290","1.7250745279894","7.7250745279894","-27.2749254720106","1.06459092414707","0.956608148393508","-0.0529976813514409"
"5298","-0.2749254720106","3.7250745279894","-26.2749254720106","1.06459092414707","0.956608148393508","-0.0529976813514409"
"5298","-0.2749254720106","3.7250745279894","-26.2749254720106","-1.93540907585293","-1.04339185160649","-4.05299768135144"
"5306","-0.2749254720106","1.7250745279894","-27.2749254720106","-1.93540907585293","-1.04339185160649","-4.05299768135144"
"5310","-0.2749254720106","1.7250745279894","-27.2749254720106","1.06459092414707","-0.0433918516064922","-0.0529976813514409"
"5319","-0.2749254720106","10.7250745279894","-27.2749254720106","1.06459092414707","-0.0433918516064922","-0.0529976813514409"
"5319","-0.2749254720106","10.7250745279894","-27.2749254720106","5.06459092414707","1.95660814839351","0.947002318648559"
"5327","0.7250745279894","7.7250745279894","-26.2749254720106","5.06459092414707","1.95660814839351","0.947002318648559"
"5331","0.7250745279894","7.7250745279894","-26.2749254720106","-1.93540907585293","0.956608148393508","-2.05299768135144"
"5339","3.7250745279894","3.7250745279894","-22.2749254720106","-1.93540907585293","0.956608148393508","-2.05299768135144"
"5339","3.7250745279894","3.7250745279894","-22.2749254720106","-2.93540907585293","-0.0433918516064922","1.94700231864856"
"5347","-0.2749254720106","5.7250745279894","-27.2749254720106","-2.93540907585293","-0.0433918516064922","1.94700231864856"
"5348","-0.2749254720106","5.7250745279894","-27.2749254720106","-1.93540907585293","1.95660814839351","1.94700231864856"
"5360","-0.2749254720106","7.7250745279894","-26.2749254720106","-1.93540907585293","1.95660814839351","1.94700231864856"
"5360","-0.2749254720106","7.7250745279894","-26.2749254720106","-0.935409075852931","-0.0433918516064922","-2.05299768135144"
"5368","1.7250745279894","4.7250745279894","-27.2749254720106","-0.935409075852931","-0.0433918516064922","-2.05299768135144"
"5368","1.7250745279894","4.7250745279894","-27.2749254720106","0.0645909241470686","-0.0433918516064922","-2.05299768135144"
"5380","2.7250745279894","3.7250745279894","-26.2749254720106","0.0645909241470686","-0.0433918516064922","-2.05299768135144"
"5380","2.7250745279894","3.7250745279894","-26.2749254720106","1.06459092414707","-1.04339185160649","0.947002318648559"
"5388","-0.2749254720106","8.7250745279894","-29.2749254720106","1.06459092414707","-1.04339185160649","0.947002318648559"
"5388","-0.2749254720106","8.7250745279894","-29.2749254720106","-1.93540907585293","-0.0433918516064922","0.947002318648559"
"5396","-0.2749254720106","5.7250745279894","-25.2749254720106","-1.93540907585293","-0.0433918516064922","0.947002318648559"
"5400","-0.2749254720106","5.7250745279894","-25.2749254720106","-0.935409075852931","-2.04339185160649","-3.05299768135144"
"5409","-0.2749254720106","3.7250745279894","-23.2749254720106","-0.935409075852931","-2.04339185160649","-3.05299768135144"
"5409","-0.2749254720106","3.7250745279894","-23.2749254720106","-3.93540907585293","1.95660814839351","0.947002318648559"
"5417","0.7250745279894","7.7250745279894","-28.2749254720106","-3.93540907585293","1.95660814839351","0.947002318648559"
"5421","0.7250745279894","7.7250745279894","-28.2749254720106","2.06459092414707","-0.0433918516064922","0.947002318648559"
"5429","0.7250745279894","9.7250745279894","-30.2749254720106","2.06459092414707","-0.0433918516064922","0.947002318648559"
"5430","0.7250745279894","9.7250745279894","-30.2749254720106","3.06459092414707","-0.0433918516064922","0.947002318648559"
"5437","-1.2749254720106","6.7250745279894","-27.2749254720106","3.06459092414707","-0.0433918516064922","0.947002318648559"
"5438","-1.2749254720106","6.7250745279894","-27.2749254720106","-1.93540907585293","0.956608148393508","-0.0529976813514409"
"5450","-0.2749254720106","3.7250745279894","-23.2749254720106","-1.93540907585293","0.956608148393508","-0.0529976813514409"
"5450","-0.2749254720106","3.7250745279894","-23.2749254720106","-1.93540907585293","0.956608148393508","0.947002318648559"
"5458","-0.2749254720106","11.7250745279894","-28.2749254720106","-1.93540907585293","0.956608148393508","0.947002318648559"
"5458","-0.2749254720106","11.7250745279894","-28.2749254720106","2.06459092414707","-0.0433918516064922","-0.0529976813514409"
"5470","-0.2749254720106","6.7250745279894","-27.2749254720106","2.06459092414707","-0.0433918516064922","-0.0529976813514409"
"5470","-0.2749254720106","6.7250745279894","-27.2749254720106","-1.93540907585293","-1.04339185160649","0.947002318648559"
"5478","2.7250745279894","2.7250745279894","-25.2749254720106","-1.93540907585293","-1.04339185160649","0.947002318648559"
"5479","2.7250745279894","2.7250745279894","-25.2749254720106","-1.93540907585293","-2.04339185160649","0.947002318648559"
"5487","-0.2749254720106","9.7250745279894","-25.2749254720106","-1.93540907585293","-2.04339185160649","0.947002318648559"
"5491","-0.2749254720106","9.7250745279894","-25.2749254720106","1.06459092414707","-0.0433918516064922","1.94700231864856"
"5499","-0.2749254720106","8.7250745279894","-29.2749254720106","1.06459092414707","-0.0433918516064922","1.94700231864856"
"5499","-0.2749254720106","8.7250745279894","-29.2749254720106","1.06459092414707","-1.04339185160649","0.947002318648559"
"5507","0.7250745279894","6.7250745279894","-27.2749254720106","1.06459092414707","-1.04339185160649","0.947002318648559"
"5511","0.7250745279894","6.7250745279894","-27.2749254720106","-5.93540907585293","1.95660814839351","-1.05299768135144"
"5519","-0.2749254720106","3.7250745279894","-24.2749254720106","-5.93540907585293","1.95660814839351","-1.05299768135144"
"5519","-0.2749254720106","3.7250745279894","-24.2749254720106","0.0645909241470686","0.956608148393508","2.94700231864856"
"5528","0.7250745279894","13.7250745279894","-25.2749254720106","0.0645909241470686","0.956608148393508","2.94700231864856"
"5528","0.7250745279894","13.7250745279894","-25.2749254720106","3.06459092414707","0.956608148393508","-0.0529976813514409"
"5540","3.7250745279894","6.7250745279894","-25.2749254720106","3.06459092414707","0.956608148393508","-0.0529976813514409"
"5540","3.7250745279894","6.7250745279894","-25.2749254720106","1.06459092414707","0.956608148393508","-0.0529976813514409"
"5548","-1.2749254720106","3.7250745279894","-25.2749254720106","1.06459092414707","0.956608148393508","-0.0529976813514409"
"5548","-1.2749254720106","3.7250745279894","-25.2749254720106","-2.93540907585293","0.956608148393508","0.947002318648559"
"5560","-1.2749254720106","8.7250745279894","-26.2749254720106","-2.93540907585293","0.956608148393508","0.947002318648559"
"5560","-1.2749254720106","8.7250745279894","-26.2749254720106","0.0645909241470686","-1.04339185160649","-0.0529976813514409"
"5569","-0.2749254720106","9.7250745279894","-27.2749254720106","0.0645909241470686","-1.04339185160649","-0.0529976813514409"
"5569","-0.2749254720106","9.7250745279894","-27.2749254720106","0.0645909241470686","-0.0433918516064922","-0.0529976813514409"
"5577","-1.2749254720106","4.7250745279894","-27.2749254720106","0.0645909241470686","-0.0433918516064922","-0.0529976813514409"
"5581","-1.2749254720106","4.7250745279894","-27.2749254720106","-3.93540907585293","0.956608148393508","-0.0529976813514409"
"5589","-1.2749254720106","5.7250745279894","-26.2749254720106","-3.93540907585293","0.956608148393508","-0.0529976813514409"
"5589","-1.2749254720106","5.7250745279894","-26.2749254720106","3.06459092414707","0.956608148393508","-0.0529976813514409"
"5597","-0.2749254720106","7.7250745279894","-27.2749254720106","3.06459092414707","0.956608148393508","-0.0529976813514409"
"5597","-0.2749254720106","7.7250745279894","-27.2749254720106","2.06459092414707","1.95660814839351","-0.0529976813514409"
"5609","-2.2749254720106","8.7250745279894","-26.2749254720106","2.06459092414707","1.95660814839351","-0.0529976813514409"
"5610","-2.2749254720106","8.7250745279894","-26.2749254720106","-1.93540907585293","-0.0433918516064922","-0.0529976813514409"
"5618","-0.2749254720106","3.7250745279894","-26.2749254720106","-1.93540907585293","-0.0433918516064922","-0.0529976813514409"
"5618","-0.2749254720106","3.7250745279894","-26.2749254720106","0.0645909241470686","0.956608148393508","-0.0529976813514409"
"5630","0.7250745279894","7.7250745279894","-26.2749254720106","0.0645909241470686","0.956608148393508","-0.0529976813514409"
"5630","0.7250745279894","7.7250745279894","-26.2749254720106","1.06459092414707","0.956608148393508","-0.0529976813514409"
"5638","-1.2749254720106","7.7250745279894","-25.2749254720106","1.06459092414707","0.956608148393508","-0.0529976813514409"
"5638","-1.2749254720106","7.7250745279894","-25.2749254720106","3.06459092414707","1.95660814839351","0.947002318648559"
"5650","0.7250745279894","3.7250745279894","-22.2749254720106","3.06459092414707","1.95660814839351","0.947002318648559"
"5650","0.7250745279894","3.7250745279894","-22.2749254720106","2.06459092414707","-1.04339185160649","-1.05299768135144"
"5659","-1.2749254720106","6.7250745279894","-31.2749254720106","2.06459092414707","-1.04339185160649","-1.05299768135144"
"5659","-1.2749254720106","6.7250745279894","-31.2749254720106","2.06459092414707","0.956608148393508","2.94700231864856"
"5667","-0.2749254720106","9.7250745279894","-27.2749254720106","2.06459092414707","0.956608148393508","2.94700231864856"
"5671","-0.2749254720106","9.7250745279894","-27.2749254720106","0.0645909241470686","-0.0433918516064922","-1.05299768135144"
"5679","0.7250745279894","7.7250745279894","-26.2749254720106","0.0645909241470686","-0.0433918516064922","-1.05299768135144"
"5679","0.7250745279894","7.7250745279894","-26.2749254720106","-0.935409075852931","0.956608148393508","-1.05299768135144"
"5687","-0.2749254720106","4.7250745279894","-23.2749254720106","-0.935409075852931","0.956608148393508","-1.05299768135144"
"5691","-0.2749254720106","4.7250745279894","-23.2749254720106","2.06459092414707","0.956608148393508","1.94700231864856"
"5700","-0.2749254720106","7.7250745279894","-26.2749254720106","2.06459092414707","0.956608148393508","1.94700231864856"
"5700","-0.2749254720106","7.7250745279894","-26.2749254720106","0.0645909241470686","0.956608148393508","0.947002318648559"
"5708","0.7250745279894","5.7250745279894","-23.2749254720106","0.0645909241470686","0.956608148393508","0.947002318648559"
"5708","0.7250745279894","5.7250745279894","-23.2749254720106","0.0645909241470686","1.95660814839351","0.947002318648559"
"5720","0.7250745279894","5.7250745279894","-25.2749254720106","0.0645909241470686","1.95660814839351","0.947002318648559"
"5720","0.7250745279894","5.7250745279894","-25.2749254720106","-1.93540907585293","-0.0433918516064922","-1.05299768135144"
"5728","1.7250745279894","6.7250745279894","-27.2749254720106","-1.93540907585293","-0.0433918516064922","-1.05299768135144"
"5728","1.7250745279894","6.7250745279894","-27.2749254720106","0.0645909241470686","-0.0433918516064922","-2.05299768135144"
"5740","-0.2749254720106","6.7250745279894","-27.2749254720106","0.0645909241470686","-0.0433918516064922","-2.05299768135144"
"5741","-0.2749254720106","6.7250745279894","-27.2749254720106","1.06459092414707","-0.0433918516064922","-1.05299768135144"
"5749","0.7250745279894","5.7250745279894","-25.2749254720106","1.06459092414707","-0.0433918516064922","-1.05299768135144"
"5749","0.7250745279894","5.7250745279894","-25.2749254720106","3.06459092414707","-1.04339185160649","1.94700231864856"
"5757","1.7250745279894","5.7250745279894","-27.2749254720106","3.06459092414707","-1.04339185160649","1.94700231864856"
"5761","1.7250745279894","5.7250745279894","-27.2749254720106","2.06459092414707","0.956608148393508","0.947002318648559"
"5769","-0.2749254720106","6.7250745279894","-25.2749254720106","2.06459092414707","0.956608148393508","0.947002318648559"
"5769","-0.2749254720106","6.7250745279894","-25.2749254720106","1.06459092414707","0.956608148393508","-1.05299768135144"
"5778","1.7250745279894","3.7250745279894","-25.2749254720106","1.06459092414707","0.956608148393508","-1.05299768135144"
"5781","1.7250745279894","3.7250745279894","-25.2749254720106","-1.93540907585293","-0.0433918516064922","-0.0529976813514409"
"5790","-1.2749254720106","4.7250745279894","-25.2749254720106","-1.93540907585293","-0.0433918516064922","-0.0529976813514409"
"5790","-1.2749254720106","4.7250745279894","-25.2749254720106","-0.935409075852931","0.956608148393508","-0.0529976813514409"
"5798","-0.2749254720106","9.7250745279894","-27.2749254720106","-0.935409075852931","0.956608148393508","-0.0529976813514409"
"5798","-0.2749254720106","9.7250745279894","-27.2749254720106","1.06459092414707","1.95660814839351","-0.0529976813514409"
"5810","0.7250745279894","6.7250745279894","-30.2749254720106","1.06459092414707","1.95660814839351","-0.0529976813514409"
"5810","0.7250745279894","6.7250745279894","-30.2749254720106","-0.935409075852931","-2.04339185160649","-1.05299768135144"
"5818","-1.2749254720106","3.7250745279894","-26.2749254720106","-0.935409075852931","-2.04339185160649","-1.05299768135144"
"5818","-1.2749254720106","3.7250745279894","-26.2749254720106","-0.935409075852931","-1.04339185160649","-0.0529976813514409"
"5831","-0.2749254720106","6.7250745279894","-25.2749254720106","-0.935409075852931","-1.04339185160649","-0.0529976813514409"
"5831","-0.2749254720106","6.7250745279894","-25.2749254720106","0.0645909241470686","-1.04339185160649","1.94700231864856"
