Timer,AX,AY,AZ,GX,GY,GZ
"1003","-2,12812708534586","2,86990185644154","-26,1280965131313","2,30029641279936","0,899899170981571","0,83083029909944"
"1005","-2,12812789481152","2,87152890154732","-26,1281204465704","-1,13067696311611","-0,813881161102133","2,5501288767591"
"1012","-2,12812807317377","2,87181030363984","-26,128126144629","-0,142688180614981","-0,322627621586239","2,05000885554403"
"1012","-2,12812811514838","2,87186080870296","-26,1281276139335","0,162091951969051","-0,170031822405212","1,89810898313327"
"1024","1,39941562899005","6,51247946169939","-20,9060422151969","0,257147977498733","-0,122094208372019","1,851496552364"
"1024","0,232723786249188","5,16668149807041","-22,5519204692705","-1,4009244088918","1,57844925008741","-1,54844416728095"
"1036","-1,80665370022516","4,92484780535217","-28,2007829273","-0,918658396119574","1,11332755690623","-0,592869002955896"
"1036","-1,28841641789423","4,88139140339893","-26,665587587675","-0,768070000486923","0,967030462239059","-0,299325703122223"
"1044","-2,9297627905975","3,05327788733086","-19,3047353098961","-0,721048467412974","0,921014842558205","-0,209152012931761"
"1044","-2,31749851378826","3,72477429884144","-21,3959950263982","-0,706365896581379","-4,14985229893596","-5,25988017300173"
"1052","-0,409093434608821","3,84543911472967","-30,6417305003164","-0,701781233467408","-2,74481986690153","-3,8114156192853"
"1057","-0,958270356763805","3,86712202701893","-28,0392392517562","-0,700349662925102","2,75350626284723","0,0191579597902181"
"1065","-1,0880025782028","3,87101834660375","-27,3643880664096","-0,699902652061526","1,48292484449347","-0,804126425915715"
"1065","-1,11864925798943","3,87171849730789","-27,1893926182537","-0,699763071994564","1,08328192362046","-1,05703152528759"
"1073","-1,12588893192338","5,69214891172936","-23,6626339733424","-0,699719487829881","0,957580050527575","-1,1347215560945"
"1077","-1,12759916216805","5,01927188219968","-24,7481113007813","2,67578998365926","-0,767422179078402","2,22703191229546"
"1085","2,39953625745631","3,07805437504401","-28,5109667148213","1,72979979964979","-0,309996562423452","1,25973046670621"
"1085","1,23275246673994","3,72922651969774","-27,4867115661663","-1,94108345468921","1,5193445500634","-0,730224849711599"
"1093","-2,57041662975965","5,66654375889586","-30,702492916828","-1,08732434546699","1,09473721275115","-0,341520115093113"
"1094","-1,46884035350414","5,01467075403357","-29,5363761652387","0,867011633833049","-0,724281386888345","1,47069581840306"
"1106","-1,20861467460573","6,71783677460239","-27,4933004827449","0,477257086652639","-0,296427253168192","1,02739124309698"
"1106","-1,14714148802956","6,02388787297938","-27,9635111715045","0,35555542294086","-3,53278101732777","2,58402186384061"
"1110","-1,13261965957732","5,899188447912","-28,0854413569941","0,317553826660935","-2,5507290626914","2,06220392177817"
"1114","-1,12918916388739","5,87678053491471","-28,1170590349604","0,305687749601854","-2,24183889167908","1,90190643432097"
"1126","-4,65591820471345","2,23214473491601","-24,6438771746585","0,301982542490687","-2,14468197722301","1,85266457731709"
"1126","-3,48903841501729","3,57722044902567","-25,7432474812268","-3,07467027833895","1,25680638260525","0,144728397314155"
"1134","0,314153359348752","7,45953356787032","-31,2503957945104","-2,1290371075265","0,326695115277055","0,620066716825258"
"1135","-0,787417559707872","6,15716737450827","-29,678452687749","1,54173466870312","0,03414213264807","0,766086108202655"
"1142","2,4798974547307","2,2825289600542","-22,3080713553998","0,687940750210613","-0,0578761566163642","0,810941870473525"
"1146","1,25173621536323","3,5862742624873","-24,3968600952871","3,79683769500923","-0,0868191722816373","-0,868088419697739"
"1155","-2,56593209339116","5,64085589593572","-28,4198838754406","2,76759719795179","-0,0959227772551328","-0,383870486936048"
"1155","-1,4677809701948","5,01005476323821","-27,4630929037963","-2,61702906999297","1,58667834823743","1,45768618869874"
"1163","-1,20836441618348","4,89670270173158","-27,2149877385242","-1,29838976229476","1,11591608046247","1,02339480911829"
"1163","-1,14708236941087","4,87633385776191","-27,1506516663214","-4,26213777260539","-2,40308441396616","-2,4956344581557"
"1175","0,63116401993306","3,05236906964765","-21,9118977541034","-3,18757422045861","-1,50993488087348","-1,57664663570347"
"1176","0,0512396732401963","3,72461098848483","-23,553438128406","0,523456334083908","0,456456857526995","2,09127674905661"
"1184","-0,0857560210941516","3,8454097686099","-30,9418667062639","-0,317766697589884","0,0749568029567122","1,21802777727679"
"1184","-0,118118553160924","3,86711675365622","-28,8577577919209","-0,580440329618038","-0,0450384951953691","0,949774034318772"
"1196","-1,88953327727209","7,51162660012679","-24,8359475358542","-0,662460714658587","-0,0827812724403832","0,867369046810663"
"1196","-1,30799508434676","6,16652825274758","-25,7930531860469","4,37517204378764","1,59081181760269","-2,54356408199665"
"1204","0,593151563246977","4,10451566736954","-20,8191690049002","2,94818329486119","1,11721620318315","-1,59137015832921"
"1204","0,0422599797219619","4,73398149219185","-22,5293926656786","2,50260310574296","0,968253585026249","2,08675382354336"
"1212","-0,0878772966630349","4,84709360501648","-22,9728702240846","2,36346976983964","0,921399558230928","1,21663837776158"
"1212","-0,118619662695454","4,86741933131189","-23,0878682499686","0,632277166732124","-2,46426675929235","-4,12908143159245"
"1225","1,63788777328356","4,87107177081743","-28,3397592974267","1,09170869478512","-1,52917889848529","-2,77123549533133"
"1225","1,05282802741784","4,8717280973933","-26,7016255095224","1,23516713992756","2,13586846358609","-0,661308641814725"
"1233","-0,849150517634521","6,69215063682054","-26,2768415533284","1,27996233622133","1,2886558503366","-1,01315926619065"
"1237","-0,298455453484159","6,01927219219063","-26,1666909595416","-2,08154613330368","1,02217743465305","2,26437468660505"
"1245","1,59540511297492","4,07805443074795","-26,1381278437868","-1,13118410746454","0,938360521501995","1,27120181028027"
"1245","1,04279233641893","4,72922652970749","-26,1307211512436","0,853316332408809","2,59746166165171","2,6589181412291"
"1253","-2,61529096569256","1,20562995901148","-24,3881102089302","0,472980700449009","2,11930781499229","2,08521134279138"
"1257","-1,47944103072002","2,57245586577847","-24,936234314758","-3,0212757497421","0,283446938983122","-3,16945456135953"
"1261","-1,21111887561727","2,8180681930585","-25,078368203869","-2,11236455550535","0,706003579425548","-1,78363773515632"
"1262","-1,14773305615096","2,86220359831622","-25,115224897853","-6,89179894804367","-0,846551902118519","0,334881508575789"
"1274","0,631010308018289","6,51074372871546","-25,1247821955527","-5,38418722518151","-0,334885666881342","-0,0143296155994434"
"1274","0,0512033618305932","5,16636960481667","-25,1272604954066","1,83755937883437","-0,173948488193922","1,57120561456186"
"1286","-0,0857645989488308","1,2841825585052","-28,60928377297","0,0925646968526221","-0,123328037399743","1,05826689241907"
"1286","-0,118120579509989","2,58657140652146","-27,5122061315249","4,61093029058765","1,57805842191607","2,59350656839174"
"1294","-1,88953375595711","8,28151849247369","-25,4870329589211","3,0217992951796","1,11320480790408","2,06511753241949"
"1294","-1,30799519742666","6,30487428386768","-25,9618859418772","-4,22540187034218","-0,718472673206707","-3,17562718797203"
"1306","0,59315153653408","4,12937581269247","-24,344329604007","-2,48835542785304","-0,294600206692685","-1,78553390709147"
"1307","0,0422599734115666","4,73844874593577","-24,9248815798953","1,42953677979531","-1,8467418142677","0,334299022669326"
"1310","-0,0878772981537414","4,84789634996239","-25,0754243297701","0,65290672727538","-1,33494540098804","-0,0145085497060713"
"1314","-0,118619663047604","4,86756358088559","-25,1144615227884","7,16139411111013","-1,17396727668912","1,57115064771347"
"1323","-0,125881940701805","4,87109769180219","-28,6059648754146","5,19368276198035","-1,12333394704787","1,05825000712828"
"1327","-0,127597510629779","4,87173275527501","-27,5113455092459","-2,17173090222768","0,578056563122136","2,59350138139169"
"1335","-0,128002780204685","6,69215147382046","-25,4868097912292","-0,471596557020589","0,113204223247464","2,06511593902262"
"1335","-0,128098517152311","6,01927234259566","-25,9618280723334","0,0592739096412527","-5,08940192138613","0,209991426319364"
"1343","1,63564858078334","-1,38285934390804","-26,0850049130786","0,225039311162761","-3,72580607916889","0,640114895950786"
"1347","1,05229906233288","1,28701164598581","-26,1169458608263","1,96454783185806","1,75948677345828","-2,61337438643555"
"1356","-0,849275475207876","5,40738438108737","-22,6438478275094","1,50771296627646","0,484805927197011","-1,61281521703292"
"1356","-0,298484972247463","4,14779640555889","-23,7432398712268","1,36506533436291","-3,28705547343548","0,387356554466448"
"1364","-0,168371574153161","3,92145424116777","-24,0283228755496","1,32052331617732","-2,4734396637786","0,00179021726262401"
"1364","-0,137634848896184","3,88078159552763","-24,1022476595411","-2,06888088339669","-3,90299316657368","-1,80946163052537"
"1376","-0,130373903495018","3,87347290822308","-31,0841783327952","-1,12722935697822","-3,35263844640324","-1,36586089729858"
"1376","-0,12865864828556","3,87215957073852","-28,8946605749395","-0,833196719691717","0,191396697277564","-1,22959098927398"
"1384","-1,89202316695888","3,87192357003463","-24,8455167848868","-0,741384420381285","-0,693878550699926","-1,18773017516316"
"1384","-1,30858327169982","3,87188116179388","-25,7955345849973","2,66278002227041","4,08406458142072","2,21074817084974"
"1396","0,593012615580284","5,69217814178915","-27,7825737164986","1,7257374122901","2,58689715988077","1,25472825687449"
"1397","0,0422271560749063","5,01927713470695","-27,2978322073642","-5,31784780579041","-2,94040869194119","-0,731761480791376"
"1405","-3,61542447840692","15,8201875228226","-25,4314437242186","-3,51722186245613","-1,67894242403777","-0,341992153483099"
"1405","-2,47947257046674","11,7610614293196","-25,9474711149485","-1,26722475525242","0,403297990866299","-0,222258739165337"
"1413","-2,21112632626066","11,0316551445744","-26,0812820149845","-1,56465850355804","0,0582364539607942","-0,185477777966586"
"1413","-2,14773481621858","10,9005841908838","-26,115980477295","3,40571098654465","5,00609595843673","4,90424963763773"
"1425","1,39477960613919","-1,86510086042166","-26,1249781246196","1,95771914291842","3,56237326257226","3,46776528322631"
"1425","0,231628801638426","2,8409642651719","-26,1273113017112","-5,24541103045976","-0,26265779531273","-2,05193764496872"
"1433","-0,0431426456837009","10,9678409199454","-29,6092969475368","-3,49460332949627","0,534234271324384","-0,747537660949004"
"1437","-0,10805198329612","8,42820326661613","-28,5122095478176","-1,26016207154071","-2,58604397394784","1,34597110654856"
"1446","1,64038417921146","4,33123286294882","-26,4870338447989","-1,56245316595723","-1,56748215167139","0,989077002971241"
"1446","1,0534177541044","5,59502612977218","-26,9618861715939","1,7186516766513","-2,93257286450156","-2,50617656040438"
"1454","-2,61278092023281","4,00181936510126","-25,3443296635748","0,743183451962179","-2,36194231053008","-1,57988506881733"
"1458","-1,47884808196295","4,71552743913485","-25,9248815953418","0,438591480678031","1,18847030202154","0,397472381453328"
"1462","-1,21097880316274","4,84377749658113","-26,0754243337755","0,343482007480858","0,305200994199083","0,00489770268778903"
"1462","-1,14769996679495","4,86682344188201","-26,114461523827","-1,37396405341665","0,0273814692186158","-0,115697488801253"
"1474","0,631018124726325","10,3318784939114","-24,3838939300699","-0,910240139118657","-0,0600026250511774","-0,152743179715425"
"1475","0,0512052083737689","8,31392374444177","-24,9351409928158","0,922306543630975","-0,0874880220256664","-0,164123262108122"
"1487","-0,0857641627394081","0,670088157441949","-26,8187750101054","0,494523036635476","-0,0961331542222976","-0,167619114717934"
"1487","-0,118120476464113","3,2965260683902","-26,3072195533985","3,7364426137877","-1,78431688706455","-1,86150255913153"
"1495","-0,125764017712371","3,7684848778997","-24,4338779539599","2,7487387088903","-1,3153105473042","-1,38184737347749"
"1495","-0,127569653648247","3,85329370469325","-24,9481023342955","-0,935169741096563","-1,16779141879935","-2,92731143393902"
"1507","-0,127996199541968","7,50914266182192","-26,822136011479","-0,0854777761629367","-1,12139142069709","-2,40206323121962"
"1507","-0,128096962600475","6,1660819004617","-26,3080910936053","-3,19565556444676","2,2641320886988","2,83771665519749"
"1511","-0,128120765886614","5,92474006047827","-26,1747942679808","-2,16681501341748","1,32899930967058","1,44732698653599"
"1515","-0,128126388943709","5,88137204214111","-26,1402291101439","-5,22105328505633","-0,650597648632419","1,02021256116378"
"1524","1,63564199662208","4,05327440820211","-20,9091950843463","-4,17474550422261","-0,273251104082345","0,889007089436824"
"1528","1,05229750695458","4,724773673658","-22,5527372999632","1,21521005839142","-3,52549129643191","-2,53691708198596"
"1536","-0,849275842635336","4,84543900238708","-33,4230656050707","-0,101765166020645","-2,54843618691887","-1,5893282634173"
"1536","-0,298485059044957","4,86712200683148","-30,2418470114897","2,86250245773887","4,50074042764314","0,394571522272515"
"1544","-1,93214130855954","1,2304091418541","-24,1948552751091","1,78810115596652","2,71795649211743","0,0040065864561132"
"1548","-1,31806039176786","2,57690857093715","-25,6268117539884","-3,61062666668268","-1,2137213514169","-1,80878078307963"
"1556","-2,93676559500913","4,6391729242516","-20,7760609915532","-2,29639059861533","-0,450373481399538","-1,36565174746662"
"1556","-2,31915278827885","4,00975234096919","-22,5182143403255","-3,57376559848869","1,4751910301768","0,463282811440463"
"1564","-2,17325393824727","3,89664835784115","-22,9699715760607","-2,97262858493247","1,08084936471605","0,025114038166254"
"1564","-2,13878821116297","3,87632409241481","-23,0871166024632","0,590573553473291","-2,4141141398097","1,58332232823749"
"1577","4,92443249301544","11,1538903176648","-28,339564387949","-0,296809206978196","-1,51340412085202","1,06198903112278"
"1577","2,59297914073556","8,46163548745471","-26,7015749676072","1,11385162130573","2,14083019064932","0,901840421964238"
"1585","-3,24908989340377","0,696631278104484","-26,2768284473203","0,55433338342286","1,29021648947982","0,852644298951647"
"1585","-1,62916353274174","3,30129574506001","-26,1666875610268","0,379622656068834","1,02266831101612","0,837531719877832"
"1597","-1,24648786510514","5,5896465674151","-27,8788172777237","0,325068869997319","0,938514919528513","0,832889279939956"
"1597","-1,15608828265667","5,0008526824947","-27,322789094889","-1,37971359369043","4,28297475744931","2,52427271861893"
"1605","0,629036550470433","10,3559629318398","-28,9192959172655","-0,912035444964242","3,33492599730171","2,04384955508297"
"1606","0,0507371005203754","8,31825160713558","-28,3332855981496","-4,1414978376989","-0,334198027307604","-3,18216050746056"
"1614","-0,0858747439915399","7,95208425670155","-28,1813274470128","-3,14990415119472","0,511732330983213","-1,78754088043284"
"1614","-0,118146599104941","7,88628566840379","-28,1419232267394","3,91071475338989","0,777807432003423","0,333682499629234"
"1626","-0,125770188671287","2,41354816311402","-24,6503247003914","2,11540761390715","0,861497488388155","-0,014697939695031"
"1626","-0,127571111415637","4,43012241107634","-25,7449193870923","-0,132928685789965","-0,797643552713911","1,57109246891789"
"1634","-0,127996543910775","6,6127961266233","-31,2508293358934","0,165023653095599","-0,319502256319206","1,05823213515799"
"1638","-0,128097043950817","6,00501255178345","-29,6785651092284","-3,11743597490383","3,20181920432867","0,90068633940929"
"1646","-1,89189049900621","2,2551874384081","-24,0487908225829","-2,1423907847559","2,30939969743165","0,85228977581443"
"1647","-1,30855193151141","3,58136111683383","-25,588935826844","1,53756495536111","-1,34222695397992","-0,855386738127402"
"1655","-1,17074969482022","0,179059224581935","-25,9883103424381","0,68663874859294","-0,49079305122406","-0,379968651682628"
"1658","-1,13819663302174","1,56768122704177","-26,0918720221921","-4,64230851329844","3,14794217401352","-3,61954386043282"
"1663","-1,13050661391972","1,81721021244353","-26,1187265687259","-3,30628332076698","2,29245346049468","-2,61471042051478"
"1663","-1,12868999850716","1,8620494231469","-26,125690212723","0,486389171917946","3,70883644988296","4,46520302171112"
"1675","2,39927856887584","7,33102062470786","-19,1647346922341","-0,32934099566365","3,15433913611618","2,64008480465208"
"1675","1,23269159289285","5,31376958929258","-21,359691510342","1,10369350298439","-3,76192806446377","0,386616369804917"
"1687","-2,57043101000596","4,95127885871495","-37,595077907827","0,55116148996111","-1,93733940422849","0,694372391488604"
"1687","-1,46884375055384","4,88614094209088","-32,805070837089","2,06638015689492","0,322022975808939","0,788912101700061"
"1696","-2,97238519099393","3,05413135758347","-19,3781434069758","1,5395103204479","0,0326725790745688","0,81795379764469"
"1696","-2,32756721562902","3,72492766351939","-22,8964110873036","1,37499412398779","-0,0583383833371477","0,826875129235974"
"1708","-2,17524168082755","7,48607587477879","-25,5494222857196","1,32362360127914","-0,0869645589795154","0,829615677085293"
"1708","-2,1392577761614","6,16193690495021","-25,2373737833393","-5,44340867520309","1,58949602561392","-4,24797110844432"
"1712","-2,1307572880672","5,92399522385416","-25,1564565845462","-3,55642850370039","1,11680233993436","-2,80775726843984"
"1716","-2,12874921533273","5,88123819842643","-25,1354739712326","3,78377668327062","-2,40280565392852","4,40590087398961"
"1724","-3,89204456163834","2,23294575654131","-32,0927942372069","2,07577093889299","-1,50984720095462","2,62186775131926"
"1728","-3,30858832577107","3,57736438892659","-29,8968947623967","-0,145305319566588","3,82741350025548","-1,31178928685559"
"1737","-1,40698857834441","7,45955943320831","-25,8460961313321","0,161159023593101","2,50617129199022","-0,520171155147796"
"1737","-1,95777312596627","6,15717202239051","-26,7956848151414","-8,18188650682676","-2,96579984056638","-0,276993626531604"
"1745","1,43965431057512","7,74344359694035","-25,3012320422206","-5,78701973444558","-1,68692884085004","-0,202291812544217"
"1749","0,242229565905881","7,02848930114776","-25,913705964733","-3,35146969896007","0,400785979517742","-1,87215368071419"
"1757","-5,33194756581448","1,43910150170162","-22,5911457541156","-3,59096416152328","0,0574463372960115","-1,3851192962894"
"1757","-3,64873702440072","3,43471422846084","-23,729573713187","1,3974969904218","-0,0505461577043675","2,15011211827772"
"1765","-3,25111171663967","3,79331665452133","-24,024779108416","-0,0448456943646963","-0,0845136276444545","1,2361014407129"
"1765","-3,15718057642755","3,85775586071205","-24,1013287264027","2,8802756805229","-3,46612666597819","-0,737483460795034"
"1777","-1,37122148239957","9,33024909129111","-29,3432497293281","1,79365088155147","-2,5297639051049","-0,343749891084534"
"1778","-1,94932385465833","7,31363094828708","-27,7025306123186","1,45435003997825","-0,549780073886802","1,47001085251705"
"1786","1,44165028435351","3,31064474444203","-25,5363859400445","1,34840265022489","-0,927004933183524","1,02718082811952"
"1786","0,242701075362595","4,59132653959341","-25,9746836478561","-2,06017550366139","0,63980900135204","-0,801661877398297"
"1798","-1,80429675319626","1,1808499652053","-26,0883384883152","-1,1245110841455","0,132627555297473","-0,363464887640276"
"1798","-1,28785963587835","2,56800301489337","-26,1178102891701","0,85539999774585","-1,71236353026824","-3,61447406176105"
"1806","-1,1658615479028","6,45787723736211","-29,6068332429695","0,47363132926135","-1,29267866456032","-2,61315302678894"
"1806","-1,13704190467695","5,15686973953599","-28,5115706853629","-4,70882052067115","-2,84613742111409","1,08006233441996"
"1814","-1,13023383211247","4,92308467754103","-28,2275584967818","-3,32705183267435","-2,3347552979047","0,214582816219195"
"1815","-1,12862555918279","4,88107457744298","-28,1539113856828","2,16765209222912","-0,488442950384767","3,33433487895544"
"1827","2,39929379139587","3,05322095516436","-24,6534333461082","0,883384760653536","-0,907712232345753","2,29269291311868"
"1827","1,23269518891311","3,72476406839304","-25,7457254890333","3,85786549161989","-1,0395872921058","-1,41290865291099"
"1835","-2,57043016051707","3,84543727636515","-27,7696577355242","2,78665325370255","-1,08106667572622","-0,551234058519576"
"1839","-1,46884354987884","3,86712169667328","-27,2944829684089","2,45216501620519","-1,09411341305972","-1,97934540562201"
"1847","2,31892399811812","12,9725412900473","-28,9119558645302","2,34772037203121","-1,09821707469094","-1,41804757029818"
"1847","1,21370940965348","9,60874330093808","-28,3313822513884","0,627359384682854","0,585956710320051","-1,24562223673842"
"1855","-0,81114546268118","-0,0972387251520583","-22,95876294515","1,09017310716595","0,115689099742507","-1,19265482125562"
"1855","-0,289477508479368","3,15864095772221","-24,5655907263242","4,61018351176007","-3,40315580745311","0,516425814725937"
"1863","-0,166243738410208","3,74370755786153","-24,9822567317808","3,70931404306747","-2,50995733665729","0,0414390611597571"
"1864","-0,137132189649857","3,84884133427196","-25,0903022623206","-3,32297603680813","1,14191432652862","1,58833721936637"
"1876","1,63351455374473","7,50834259134062","-25,1183195147885","-1,5188231632011","0,290557488665835","1,06352955777591"
"1876","1,05179494051501","6,16593813147699","-25,1255846596947","0,732275235277066","0,0227755673546357","-0,790495894846695"
"1888","-0,849394564049139","4,10440962529211","-28,6088492125398","0,435185367450332","-0,061451344548872","-0,360034804456592"
"1888","-0,298513104638505","4,73396243691839","-27,5120934457967","2,03016637270045","-1,77340822783276","-0,227801269203087"
"1896","-1,93214793377812","1,20648097974944","-25,4870037384204","1,52820249141127","-1,31187938706902","-0,18718039025258"
"1896","-1,31806195684514","2,57260879028991","-25,9618783647184","-2,00403263126697","-6,22310579363576","3,21091705952279"
"1908","0,590773463076574","8,27900947457275","-26,0850179543811","-1,10698035608758","-4,76786068918134","2,25478013786165"
"1908","0,0416982004383383","6,30442342489377","-26,1169492425623","0,860874003850878","2,43172363916453","0,268254456552317"
"1913","-0,0880100059439291","5,94959939597009","-26,1252293348357","0,475340598992697","0,696248264263258","0,658012742316652"
"1913","-0,118651012646848","5,8858391503621","-26,1273764429532","2,04270492682584","-3,22054935902137","0,777742764777583"
"1925","1,63788036747557","0,413467925876162","-24,3872428936777","1,53211768087767","-2,45252113196595","0,814522684030313"
"1929","1,0528262779417","2,43010799281383","-24,9360094115133","4,74818161923106","1,15998005004319","-2,55979797986045"
"1937","0,914618782988408","8,25340273684992","-26,8190001994841","3,75240423762656","0,296239799463684","-1,59635705668866"
"1937","0,881969986914729","6,29982201193034","-26,3072779471853","1,75372275895664","-3,34636620864423","2,08522189600161"
"1945","-2,65328207532686","7,76907714379067","-33,1373446720577","2,12963033221337","-2,49209499362648","1,21616778425355"
"1946","-1,48841568141811","7,03309553158807","-30,9084471216154","-1,12848761257377","-5,59432546161751","-0,743606889655376"
"1958","2,31430046788505","-0,380375380440531","-18,1456401939363","-0,145841681482831","-4,57008697327013","-0,34563094994015"
"1958","1,21261719178375","2,2874580027933","-21,8361207524164","5,22423533684041","-2,56246310899762","-0,223376542679582"
"1966","0,952366236281147","2,76685538823012","-22,7930981027791","3,90105299584725","-2,93099419756596","-0,185821156529033"
"1966","0,890887078605537","2,85300089289619","-23,0412515978579","5,17563450349078","0,324018768355192","-0,17428450062827"
"1978","-4,41494530210776","8,32939464545012","-31,8090517784711","4,5736252162064","-0,65216420552524","-0,170740550132353"
"1978","-2,66834360339075","6,31347740830038","-29,0826272796542","-4,05309308484093","-6,01560197035592","1,52315766949243"
"1986","1,27179604340047","2,31061715401279","-21,412877741429","-1,7468037219726","-4,70259337704371","1,04350702264213"
"1987","0,202576359427329","3,59132158172021","-23,4240374062128","4,0365836963802","0,766787991581471","-2,48945617827071"
"1994","1,71376400148311","3,82145827542035","-27,4269312153703","2,84245838288516","-0,512897580744679","-1,57474872713701"
"1999","1,07075229051344","3,86281278052036","-26,4649203472921","-0,905905578997076","-2,60086861308939","0,399050216555782"
"2007","0,918853450066824","7,51085319595497","-26,215461612321","-0,0763399810033839","-2,2576095586217","0,00538239855996525"
"2007","0,882970343530192","6,166389275576","-26,1507745463863","-4,88055020012498","-2,14964241132824","1,57726095702477"
"2015","0,874493667006965","5,92479529437221","-26,1340005637084","-3,3806747803716","-2,115682914141","1,06012703578374"
"2015","0,872491219286725","5,88138196741775","-26,1296509075474","2,15090821587131","-3,79046597994709","-2,48435066898604"
"2027","-0,891751533413301","4,05327619172866","-26,1285229995794","0,878156450619767","-3,31724465511091","-1,57318036345199"
"2028","-0,308519103629638","4,72477399414952","-26,1282305221197","3,85623294099511","-3,16839976430322","2,09234155478284"
"2036","-1,93451165378249","4,84543905997793","-31,3502256254959","2,78614348639241","-3,12158276693477","1,21835487542498"
"2039","-1,31862033909803","4,86712201718029","-29,704339529755","-0,923490021935598","3,63500096780459","-2,4357445880222"
"2048","-2,93689787152713","4,87101834483579","-24,0554743794454","-0,0818307596910087","1,76018619393197","-1,55824903965954"
"2048","-2,31918403599854","4,87171849699019","-25,5906689378674","-1,50676884488639","1,17049045188502","-1,28869078893808"
"2056","1,35427810789932","8,5124535122333","-25,9887597549113","-0,951708710012024","0,98501022576647","-1,20588506910555"
"2056","0,222061121121832","7,16667684504886","-26,0919885591988","0,909357896576098","0,92667011606588","-1,18044794292361"
"2064","-0,0454028215894286","6,92484696928351","-26,1187567879004","0,490479794803417","0,908320082366324","-1,172633900733"
"2064","-0,108585905296961","6,88139125316157","-26,1256980488476","7,11067596540421","-5,83930978263694","0,52257605027298"
"2076","-1,88728137713991","-2,22794054191001","-20,9054270394218","5,17784591605401","-3,96167869915774","0,0433283547734732"
"2076","-1,30746311733427","1,13515444255249","-22,5517602094215","1,19881987211086","-1,68563259570896","3,28172714420203"
"2084","2,35704694386871","12,6613147425028","-31,6821219208256","1,95636075776928","-1,96973536969453","2,27653231950541"
"2088","1,22271520403504","8,73251272160003","-29,049713138277","-1,18259139566759","2,99729782779646","-1,41787303290488"
"2096","0,95475169260429","8,02652507313727","-28,3671040466219","-0,162735699688014","1,55960593843505","-0,552759068634516"
"2096","0,891450595635227","7,89966234064777","-28,1900968982264","5,21896014470418","-2,26352821690494","-0,28700432227876"
"2104","-4,41481218231861","0,595647289015036","-21,1814359695507","3,89940580618898","-1,46603950713836","-0,20536700265674"
"2108","-2,66831215646488","3,28314938680364","-23,3640223132986","6,86286809623393","-2,90066555484261","-1,87309834974289"
"2112","-2,25573595568759","3,76608114975883","-23,9299880901344","5,78821532734306","-2,35190632995842","-1,38540948959165"
"2113","-2,15827296174082","3,85286176580483","-24,0767484973306","-2,9860868786777","-0,49383755827603","2,15002297366716"
"2125","1,39229017700753","5,68876044382981","-27,5961855226705","-0,725880895470453","-0,909409027862741","1,23607405634003"
"2125","0,231040723082434","5,01866299010698","-26,5088096283683","-0,0201269011230483","-4,41105005876178","-0,737491873012805"
"2137","-0,043281567649231","4,89824956049722","-26,2268425279628","0,200246243731","-3,51244035868606","-0,343752475237481"
"2137","-0,108084800871782","4,87661182116568","-26,153725728034","5,3323020075022","-1,54433120410899","3,16281961057379"
"2145","-1,88716300109819","1,23211441783148","-27,8754561488959","3,93479703733818","-1,92529107037866","2,24000506096576"
"2145","-1,30743515332807","2,57721500118506","-27,3219175216321","-4,94031643647201","-2,04511646015088","0,26371569405972"
"2157","-1,17048587799046","6,45953258891842","-25,4376892794696","-2,71158898019826","-2,08280579518414","0,656618477832658"
"2158","-1,13813431149657","5,15716719859511","-25,9490906479121","1,35983164123248","1,2762686364721","-0,915495091837892"
"2162","-1,130491891688","4,92313812956548","-26,0817019755667","0,631141153547692","0,332816684402636","-0,398433363794477"
"2165","-1,12868652067014","4,88108418252586","-26,1160893771412","5,46684983456156","-6,70579054531136","1,45321261203074"
"2174","0,635509676544094","3,05322268115357","-22,643625732995","3,97680987470053","-4,9196821633775","1,02202056909696"
"2178","0,0522662489447037","3,72476437854536","-23,7431822799683","3,5115418145227","2,38397040074736","-4,18886616344752"
"2186","-1,84928322672395","5,66574193265913","-24,0283079415785","3,36626090014921","0,681228177075984","-2,78960079390039"
"2186","-1,29848680339032","5,01452666954768","-24,1022437870177","1,6331487029458","1,83111988725418","1,0258592657719"
"2194","-1,16837200672456","6,71781088328314","-29,3434870134077","2,09198083377094","1,19280161430102","0,197932151271927"
"2198","-1,13763495108265","6,02388322042843","-27,7025921423785","-1,14024374635465","-0,693436654466654","-3,44201825380653"
"2207","2,3971655001698","5,89918761187","-29,0177825257943","-0,149512558577918","-0,286725490824983","-2,56017624986316"
"2207","1,23219242206788","5,87678038468181","-28,3588241295637","-1,52790262661423","-3,5297294689701","-0,596473257620301"
"2215","0,956990498531599","5,8727539090419","-28,1879498355439","-0,958307777079762","-2,54976924250103","-0,993242455466182"
"2215","0,891979469399953","5,87203036989346","-28,143640476222","-5,84369440025557","4,50032113438193","0,577683388732698"
"2227","-2,65091753241569","7,6922049537982","-26,3914603150181","-4,36916648061222","2,71782460951534","0,0602568027694026"
"2228","-1,48785710476971","7,01928195270163","-26,9371030297117","1,15450170628045","-6,27015642959912","3,28692740172781"
"2235","-1,21310700719785","1,43744698354482","-23,5972128396604","-0,120721474565486","-4,097195250835","2,27812978894507"
"2235","-1,14820271304304","3,43441691915977","-24,7311469672272","-0,518912551066099","3,32813623873301","-1,41738230555185"
"2247","4,15843878864066","7,43387243052977","-30,2472580140393","-0,643248538512263","1,66366635280435","-0,552608321879038"
"2248","2,41202822880198","6,1525561861838","-28,6776390308841","-2,36982063895012","2,82559607064047","3,0986610894523"
"2256","1,99947316260703","5,92230955184841","-28,2706216271134","-1,90894634937926","2,19106417805806","2,22029617611198"
"2256","1,90201516128869","5,88093529092203","-28,1650780724354","3,29820639439734","-3,06491220407239","-4,82076734276192"
"2260","-3,4123165119518","2,23289132545631","-21,1749483457209","1,92415061160652","-1,7181031944759","-2,9837148003391"
"2264","-1,66772260354012","3,57735460791103","-23,3623400096082","-0,192649080445784","3,76190960389905","4,35184840091606"
"2276","0,508173028470671","3,81894847448275","-25,6702421676994","0,146375836310096","2,48556799330324","2,60526334789401"
"2276","0,0221854761395813","3,86236178083837","-25,2687035488525","0,252237067968387","-2,97228030875831","-1,3168900009845"
"2284","-0,0926195023875724","3,87016295226491","-28,6459613265755","0,285292456567686","-1,68896717794473","-0,521738045806766"
"2285","-0,119739915310496","3,87156478688049","-27,5217169763894","-3,07988179219816","2,0856093823481","-3,66309406414297"
"2297","-3,65368600601873","11,1530350923558","-27,2301895283097","-2,13066441351102","1,2728475867053","-2,62808862710805"
"2297","-2,48851110208101","8,46148180740119","-27,154593637639","-3,52201725432257","1,01720517505576","-2,31014484310264"
"2305","1,31427792663455","-2,94400553861618","-27,1349908910573","-2,95647005740557","0,93679656950325","-2,21247554961827"
"2305","0,212611866857691","1,00648085694511","-27,1299077090201","-6,15537263736351","-2,45942385314819","-0,489662923701772"
"2313","1,71613469227452","5,35697428889577","-20,1658283298696","-5,15423658609527","-1,52765563273545","-0,960431341126313"
"2313","1,07131231947734","4,13873794390676","-22,3599751011725","5,28485780387247","2,13634758469139","0,587762649649953"
"2325","-2,60855368193516","9,38074027896598","-26,4103192392431","2,54448662435497","1,28880655091762","0,0633530554472538"
"2325","-1,47784948025049","7,32270398242446","-25,4606127009987","3,37654798517814","-0,663239696811282","1,59506898909156"
"2333","2,31679652460984","1,49197052637445","-26,9550349131232","2,63636086652881","-0,277227476620965","1,06559749313441"
"2334","1,21320683597796","3,44421454896737","-26,3425530659003","4,09298383849531","-0,155812942344534","0,902948907026601"
"2342","-0,811264185804335","3,79502381840955","-31,4058015367681","3,5478173750674","-0,117623765001147","0,852984814974685"
"2346","-0,289505554476717","3,85806263020885","-29,7187509017892","-8,43664749887341","-1,79107644638043","-0,855173228736305"
"2354","-0,166250363724186","7,50999961579734","-24,0592113877851","-5,17882145015985","-1,31743666845613","-0,3799030636371"
"2354","-0,137133754749674","6,16623589114862","-25,591637980322","-2,47381059528189","2,20246890497359","-1,92671416052788"
"2362","1,63351418402075","9,56537693301833","-29,4703916674141","-2,62916535950819","1,30960405132796","-1,4018797545328"
"2362","1,05179485317501","8,1761869402865","-28,4761900634126","2,38556858731739","1,02876638685265","0,452153913715448"
"2374","-2,61316429858367","0,645337487401819","-19,5149323828326","0,951429637087538","0,940432980664789","0,0216953470870678"
"2375","-1,47893864754046","3,29207848685095","-22,1911914783118","-6,24737494166768","2,5981135235641","1,5822721389929"
"2383","2,31653923030933","3,76768566795846","-22,8851713807911","-4,49521656483403","2,11951284868388","1,06166642301813"
"2383","1,21314605527174","3,85315009034362","-23,0651270905573","-2,26035355554364","-3,08741763493295","-2,48387778393168"
"2391","-0,811278544047955","11,1497260561061","-33,555933240162","-2,5625129572333","-1,72518195070098","-1,57303509768024"
"2395","-0,289508946328715","8,46088718881053","-30,2763008760647","0,718633006701648","5,44514761614003","2,09238617904036"
"2403","-3,69379059278671","0,696496812280719","-25,9444798110768","-0,256822377768227","3,70047058114176","1,21836858357065"
"2403","-2,49798502008705","3,30127158217009","-26,821196656125","-0,56141033966735","-0,21922129060655","-0,742930825126941"
"2411","-2,21549952753084","5,58964222545495","-23,5671571944599","-0,656518560925753","0,547896592654254","-0,345423269374705"
"2412","-2,1487678988058","5,00085190226443","-24,723353247344","-5,74946009314634","2,47464690710995","-0,223312745193617"
"2424","-2,13300386706031","4,89504898995291","-28,5045467117883","-4,33974162325806","2,08067821871265","-0,185801558550731"
"2424","-2,12927992533102","4,87603669336329","-27,4850467972035","4,53918554110928","0,271296560844141","-1,86708803220038"
"2432","-3,89216993141307","4,87262027113336","-30,702061226113","2,31164891760205","0,702181854552953","-1,38356317745244"
"2432","-3,30861794190883","4,8720063557761","-29,5362642236555","1,6160959984099","-2,53321850228144","2,15059014312056"
"2440","2,12054385323125","3,05159143744973","-27,4932714552082","1,39890816037787","-1,55086666722598","1,23624828537858"
"2444","0,403076297368554","3,72447125155641","-27,9635036443831","-0,3566571225046","-1,24188217318574","-0,737438351516378"
"2452","1,76112815918556","5,66568925908776","-22,8633684595245","0,0951639858645635","-1,14469559079196","-0,34373603394501"
"2453","1,08194113903827","5,01451720434923","-24,5408540123254","-8,20249359389319","-1,11412696362922","-0,222794442585892"
"2461","0,92149659495495","6,71780918243052","-28,4572228926803","-5,79345434001563","-1,10451204618281","-0,185642340940404"
"2467","0,883594734403312","6,02388291479304","-27,4727752725872","8,46075659999069","-1,10148781362539","-0,174229570187469"
"2473","-2,6528982607628","5,89918755694872","-23,7361178401141","4,91166345623429","-1,10053658522303","-0,170723676025628"
"2473","-1,48832501279383","5,87678037481271","-24,7671663791114","-1,25979201391049","0,585227141989638","1,52316285305684"
"2481","2,3143218865601","2,23214470614641","-23,2938369355627","-0,186841752453037","0,115459624626366","1,0435086149836"
"2481","1,21262225152348","3,5772204438559","-23,9117883419565","-3,22730667575306","1,65316561091015","-2,48945568911862"
"2489","0,952367431544913","9,27983816750237","-31,034790387186","-2,17669813840517","1,13682868273383","-1,57474857687416"
"2493","0,890887360963039","7,30457233720077","-28,8818538023309","-0,160895517915392","0,974422405457575","-2,98656884105259"
"2501","-0,88740580760201","3,30901695370452","-26,5828861799231","-0,53145697921731","0,923339871051427","-2,42026654066504"
"2502","-0,307492511577934","4,59103403308663","-26,9867416104019","2,72833030008818","-0,77819192994947","2,83212477241176"
"2509","-1,93426914164841","1,18079740313172","-20,1287039739635","1,74620562215424","-0,313384031052397","1,44560921355722"
"2509","-1,31856305038721","2,56799356973057","-22,3503483961442","-6,99920449603587","4,88920813531752","-2,36593422605501"
"2522","-2,93688433819859","6,45787554010981","-22,9264423109872","-4,7299768986293","3,52560789644057","-1,53680396328369"
"2522","-2,31918083901646","5,15686943454756","-23,0758290424576","-0,645910024339979","-5,3306154033762","-1,2821030663163"
"2530","-0,409490850778867","8,56369382385807","-26,5959470991172","-1,37065169340611","-3,11621174243818","-1,2038613836413"
"2530","-0,958364238499352","7,17588449331365","-25,5087478028319","1,77854208326928","-0,734238718776684","-1,179826286079"
"2542","-4,6155641837164","-0,354716860927777","-26,9675168112071","0,7618843553346","-0,985023719354399","-1,17244293368833"
"2542","-3,47950557309196","2,29206872070616","-26,3457897429581","0,444430876445961","0,621560035299236","0,522634713525008"
"2551","3,84394473312845","4,5879885135882","-26,1845698928617","0,345305370890393","0,126887608222131","0,0433463755641515"
"2551","1,57396549419009","4,00055473784998","-26,1427640243505","0,314353226702067","1,65676011707712","-0,103886423750891"
"2559","-0,726042064762617","11,1762139931189","-26,1319233577642","0,304688355643046","1,13795928241277","-0,149114933349876"
"2563","-0,269373508441169","8,46564694923237","-26,1291122679288","-1,38607745146235","-0,71068651298554","1,52980085240263"
"2571","3,36604486307488","0,697352119330954","-20,9063123794956","-0,914022572719572","-0,292151183144704","1,04554774497723"
"2571","2,2248407850634","3,30142527691213","-22,551989786677","2,60887340203547","-1,84597150950024","-0,796019735978263"
"2579","-6,86359475029214","1,94906064257095","-28,200800822022","1,7089049585955","-1,33470311281761","-0,361731675689121"
"2583","-4,0105584769908","2,70604693941588","-26,6655922310656","-10,3863475676462","-1,17389106846608","1,46448702004644"
"2592","1,95472423980517","8,30298769608034","-34,9709493512731","-7,16311519256971","-1,12330997685878","1,02548395954755"
"2592","0,363904682648283","6,30873220098541","-32,1246088882266","-2,78115835273326","5,63445769902305","0,890626412668531"
"2600","3,51564435133545","4,13006906264994","-22,6830736639104","-3,41288326375924","3,76001531663159","0,84919946241092"
"2600","2,26018071497528","4,73857331976379","-25,2347921409092","4,82859898141986","-1,88595689151287","-2,54914560477049"
"2612","-1,56393724683185","1,20730953418411","-22,4150968244567","2,4020188631002","-0,661815401514339","-1,59308474881127"
"2612","-0,467309727021371","2,57275767771","-23,6839225207286","-1,73118166138744","1,40868504690872","-1,29939198604285"
"2624","1,55551661962838","0,99781782671306","-25,7536316272937","-1,02178207624727","1,05993087415347","-1,20917237463954"
"2625","1,03336946622367","1,71480838109581","-25,2903272433351","-2,48801851924767","-2,42069374702568","0,511351780100149"
"2632","-4,38128664691683","14,5857804890868","-26,9108782447712","-1,94585388203919","-1,51547364068602","0,0398803661893042"
"2633","-2,66039240964533","9,89863496320008","-26,3311028141483","1,59893400984532","-2,91621434316618","-0,104951148723926"
"2641","1,27367435617377","-0,0451465271078604","-29,6621420603908","0,705801362820735","-2,35679697536839","-0,149442006691462"
"2641","0,203020073791146","3,16800168605741","-28,5259127973748","-1,26082908511715","-0,495375839718184","-0,163109173287582"
"2649","-3,57744032145231","1,92508503711773","-23,0092065997128","-0,874913511204666","-0,909892871935846","-0,167307596318722"
"2653","-2,47049956220216","2,70173863341717","-24,5786712544888","-4,12990643708171","2,33065588368468","3,21702179199665"
"2661","-2,20900662995116","8,302213513313","-26,7263389546208","-3,14628471237081","1,34992340265015","2,25665545336592"
"2661","-2,14723407975295","6,3085930839038","-26,2832499889871","5,59959286177261","-0,644016279257588","-1,42397901632141"
"2669","1,39489789525773","4,13004406395039","-22,686972098563","3,33051122845457","-0,271181029986886","-0,554634768416431"
"2670","0,231656745110741","4,73856882761248","-23,7544224123607","2,62198579399743","1,53155341171849","4,79084813631624"
"2682","-3,5706754723936","4,84791792808725","-29,2532935623803","2,40074726123534","1,09857733276385","3,43292942521831"
"2682","-2,46890149997361","4,86756745837535","-27,679204107022","-6,10707458394408","0,96239099919857","-2,0626388878007"
"2690","1,31891030855065","6,69140298913029","-27,2710274665134","-3,76365955674871","0,919555567054762","-0,750824980529961"
"2690","0,213706175763045","6,01913784334029","-27,1651833105223","2,03132042709869","-0,779382227777578","4,73058037714108"
"2702","1,71639320118031","5,89833488943866","-27,1377368957948","0,840814916162945","-0,313758421936651","3,41441574527034"
"2702","1,07137338711012","5,8766271543839","-27,130619774643","5,53232090072765","1,5181613118214","-0,375516561556357"
"2710","-0,844769542008626","2,23211717314026","-23,6473936057912","3,99725335056256","1,09436504235712","0,460252434779655"
"2711","-0,297420534358666","3,57721549630137","-24,7441593258754","-1,54531846120964","-0,724398447677356","-0,975816864598141"
"2719","-1,93188983558833","3,81892347676649","-25,0285612990447","-0,275997976341647","-0,296464072938231","-0,416963636199859"
"2723","-1,31800098623593","3,86235728886376","-25,1023094850624","-4,94289382223743","-0,161863534167179","-0,245289262537031"
"2731","2,35455758008321","7,51077134619979","-26,8621234191376","-3,40014170535758","-0,1195268907309","-0,192552534761486"
"2731","1,22212714091579","6,16637456755155","-26,318460215681","3,83257755939151","3,26471854950405","1,51645723615991"
"2739","-2,57292665351897","4,10448805084685","-27,9181733969626","2,09100911342481","2,32918377239434","1,04144871352414"
"2743","-1,46943329713492","4,73397652962978","-27,3329945177636","1,54720076307868","2,03492490357879","-2,49008847117102"
"2751","4,08255439585727","3,02678811270588","-23,6998713366403","1,37739548060984","1,94237005260456","-1,5749429614764"
"2751","2,3941020369844","3,72001420820915","-24,7577673097207","-3,73887036351283","1,91325826925086","-4,67943810602951"
"2759","-1,53230097461904","9,30549755002522","-26,772780296251","-2,33643495827113","1,90410158085352","-3,63310936065921"
"2760","-0,45983628138547","7,30918321019257","-26,2952926786467","1,47697426072721","0,215756945442345","5,15236059492713"
"2772","-0,20648764007309","1,48954090580751","-26,171475515032","0,667719178838737","0,684712675637901","2,85117304749472"
"2772","-0,146639018053372","3,44377795732911","-26,1393685253629","2,10277553639062","-0,853248646502484","0,451460661715799"
"2780","-1,89627067485327","1,97464076433969","-26,131042871992","1,55087485299304","-0,336992030509278","0,714291938578482"
"2780","-1,30958666170492","2,71064356961481","-26,1288839494407","-0,309205208334929","4,88178258216316","-2,59058790747082"
"2792","-1,17099412942986","6,48350908881898","-29,6097047503238","0,109980944236275","3,52327229660506","-1,60581542834875"
"2792","-1,13825437587951","5,16147566532189","-28,5123152950298","1,92862061874351","3,09597262834726","3,77512592645674"
"2800","4,160788887175","8,56452154233697","-29,9684418964845","1,49649461965242","2,96157172727627","2,4280997125262"
"2801","2,4125833932511","7,17603323051634","-29,3460296265298","4,7370582446637","1,23383334483529","-1,37131297752302"
"2809","-5,05547454634503","-0,354690133536728","-25,7032514665857","3,748930940905","1,69039834437815","-0,538456264357451"
"2813","-2,81965601001094","2,29207352349537","-26,7586438101514","0,0648902837477308","0,148539697974814","1,41019891446027"
"2821","1,23605147029443","6,40829397718836","-23,5509366356874","0,914540966718878","0,66357046725758","1,00880717206516"
"2821","0,194132408696045","5,14795985579358","-24,7191470993615","1,17984615030042","0,825565911235154","2,57831301473252"
"2829","-0,0520004293161161","6,74178821298401","-26,7627657016761","1,26268824275787","0,876519223997489","2,06045021786243"
"2833","-0,110144460057798","6,0281918362665","-26,2926957972841","-0,399192073603866","-0,792918684075991","-3,17706094242231"
"2842","-0,123879841074786","4,07965724975302","-26,1708021185445","0,0818823593841835","-0,31801611755161","-1,78597434276354"
"2842","-0,127124554062092","4,72951454890883","-26,1391939071319","0,232098846369121","-1,85410694874503","0,334163725037856"
"2850","-0,127891053539388","3,02598631529794","-26,1309975917936","0,279004255209787","-1,3372619970067","-0,0145501118461114"
"2850","-0,128072123930204","3,71987012890366","-26,1288722078468","3,66914642840541","2,1962331359825","3,26394743210489"
"2862","3,39942452956392","11,1257762601979","-27,8690113904101","2,72772533577707","1,3076426808109","2,27107056177891"
"2862","2,23272607322795","8,45658352066834","-27,3202463333406","0,746016720796495","1,02814946625942","1,96606827105931"
"2870","-1,57042286470654","0,695723462914854","-23,6965656089558","1,12722410585501","0,940238937257367","1,8723744806967"
"2870","-0,468841826387429","3,30113261484689","-24,7569101025168","1,24625690051119","-2,45834110639611","0,150783091365663"
"2882","-1,97238473644755","1,94900805254424","-26,7725580141212","1,28342513690694","-1,52731507047921","0,621926661004147"
"2883","-1,3275671082514","2,70603748923002","-26,2952350387377","-2,08046486662549","2,13645470359999","0,766657465288438"
"2891","-2,93901136936389","6,48268139736439","-26,1714605684454","-1,13084647970726","1,28884024361365","0,811117385912742"
"2891","-2,31968330819718","5,16132693297535","-26,1393646495682","2,5411696884963","2,70769996502081","0,82477504885253"
"2899","-2,17337926311936","8,56449481581855","-31,353112812575","1,68776433397216","2,15398167131835","0,828970552451223"
"2903","-2,13881781669336","7,17602842788394","-29,7050882053264","3,10903467755202","3,66528216088926","-0,862550180802066"
"2911","-2,13065335631619","1,46561360401335","-22,3149782030672","2,55282928277009","3,14063976745033","-0,382169192847912"
"2911","-2,12872466350546","3,43947833127571","-24,3986511077786","0,691405066406431","-2,08077246965435","-0,234600741891794"
"2919","-0,364499333948804","1,97386814131858","-24,9389676719159","1,11017150378685","-0,723091810531078","-0,189269123314777"
"2923","-0,947735879606612","2,71050473281241","-25,079076989852","-2,1345636720079","-3,66698215349629","1,51746586879357"
"2932","0,678255698252117","8,30378874104535","-26,8560990081276","-1,14773894361176","-2,59294007984323","1,04175855583486"
"2932","0,0623641538823336","6,30887614508037","-26,3168980275609","-2,52734881167165","2,80127784271859","0,89562581319494"
"2940","1,68064163205281","2,30979032818055","-29,6584586216583","-1,95813484721817","1,49795070071908","0,85073523049894"
"2940","1,06292778370668","3,59117300492202","-28,5249576460381","-0,0926486780614155","-0,597456443803733","0,83694527228436"
"2952","-2,61053436321907","3,82143157685325","-24,7496492349255","-0,510146762278505","-0,256536310359021","0,832709128840921"
"2952","-1,47831737715686","3,86280798291068","-25,7706752008348","-2,32825933394976","3,22162422760038","-0,861401725845598"
"2960","-4,73839286241892","5,69054773328555","-27,7761274374272","-1,89596874590762","2,31562907969235","-0,381816398455194"
"2960","-3,50852142700288","5,01898415779965","-27,2961606247701","-0,0732371843131046","5,40159053625229","-3,62011147059189"
"2972","2,07332059575553","10,3592210745371","-25,431010266663","-0,504085483195578","4,37223486678284","-2,6148847849339"
"2973","0,391920733744594","8,31883708038901","-25,9473587152064","4,42462503747103","0,677536935409891","-2,30608874890831"
"2981","-1,76904655060527","-1,14933353925346","-26,0812528686428","2,96362509445105","1,51542339297185","-2,21122955622511"
"2981","-1,27953247043527","2,14927975929355","-26,1159729193663","2,5074248396121","0,0935038697708213","1,20352938545087"
"2989","-2,92766413312997","6,38263459469272","-27,8656664799802","2,36497536621586","0,64625974728449","0,252510714952959"
"2993","-2,31700274733522","5,14334898280667","-27,3193789656713","-1,05500063880628","2,50558560797155","-0,0396331366041242"
"3001","-0,40897631955786","12,201873462004","-25,4370310073236","-0,122895221888331","2,09040953746307","-0,129376937278324"
"3001","-0,958242690641808","9,47025783774306","-25,9489199515694","1,85590455407867","0,274357405740179","3,22867372814461"
"3009","2,43954338517747","-0,122123925777378","-24,3409673971472","1,47378887802014","0,703144598834369","2,26023481685264"
"3013","1,24220336196746","3,15416920165572","-24,9240097270942","-0,333275463501714","-0,847451152916362","-1,42287947004796"
"3022","-4,33195375597835","3,74290400386896","-23,3345079346904","0,10246495726202","-0,335168513151763","-0,554296998303964"
"3022","-2,6487384867049","3,8486969393163","-23,9223347259206","-3,13697005710419","-1,85950198552001","-1,98028631146693"
"3030","-0,487342348178031","7,50831664423138","-27,5561445362781","-2,1484903423366","-1,33895892742283","-1,41833660758632"
"3030","-0,976755120003101","6,16593346890083","-26,498426612808","-1,83983550635626","-1,17522967310405","0,447098525651357"
"3042","-1,09236923911126","4,10440878744862","-27,9648404266753","-1,74345739525213","-1,12373101549486","0,0201423801622587"
"3042","-1,11968079554513","4,73396228636177","-27,3450957305288","5,03762859382181","0,57793167101239","-3,49663357326417"
"3051","-2,88990232623746","1,20648095269511","-25,4436996135127","3,15503672315129","0,113164940249293","-2,57695355432136"
"3051","-2,30808226488944","2,57260878542837","-25,9506491857383","0,879445585559321","-1,71848521299816","1,09118246658885"
"3063","1,35690068246462","2,81809567201607","-26,0821061195192","1,16888754492527","-1,29460415090186","0,217998814603266"
"3063","0,222680652661705","2,86220853615847","-26,1161941755821","-3,80397739780786","3,89511507370699","3,3353842410298"
"3071","3,48228295832784","11,9716584177061","-20,902962593041","-2,35676476442828","2,52746583807051","2,29301526712454"
"3071","2,25229974356047","8,60858465284007","-22,5511211546073","6,53387003006007","-1,2736374184101","0,279999923044365"
"3079","-3,32956868486608","0,72303736707563","-26,4598852621091","4,30998913827979","-0,469219209563452","0,661620837431678"
"3083","-1,64817506067368","3,3060407977653","-25,4734656507646","1,92782979776087","-1,90166568403254","-2,60676796663488"
"3092","-4,77851839159201","0,12958542987325","-28,6990581226804","2,18399561528625","-1,35222090606109","-1,61078578797391"
"3092","-3,51800029223926","1,55879101373983","-27,535485489851","-4,48700780270267","0,506063496382339","0,387979975688507"
"3100","-1,4564580270955","14,5577448859403","-25,4930695219908","-2,57004242146342","0,0905598503179364","0,00198172630719318"
"3103","-1,96945930799784","9,89359709429417","-25,9634512811441","1,40402984704002","3,33079828089059","1,57621630299154"
"3112","-0,326876033451768","-0,04605180897323","-29,566806457253","0,644942134751805","2,34996819162193","1,05980612804315"
"3112","-0,938848116566252","3,16783901107101","-28,5011913521753","7,15890715061687","-1,32946672367949","0,901169854989014"
"3120","-2,84718417074644","1,92505580517107","-19,5214154591411","5,19290620342112","-0,486779506216539","0,852438307182036"
"3120","-2,29799094279622","2,70173338057084","-22,1928726027858","-2,17197338424441","3,14920457627023","-0,855341110710028"
"3132","-0,404485155532376","6,48190796883965","-28,1076782582626","-0,471672272531977","2,29285053077911","-0,379954635375838"
"3132","-0,957181741679155","5,16118795142766","-26,6414446484098","-1,6284976638056","0,338032278286462","-1,92673000287341"
"3141","0,676024299552279","10,3847744420349","-29,742616703612","-0,98971878556165","0,723172604661507","-1,40188462115002"
"3141","0,0618370299290727","8,32342890296852","-28,5467806517425","4,27298503409106","-2,52661616687535","0,452152418737123"
"3153","1,68051710941052","0,671796190700143","-23,0146178364513","2,91627518967096","-1,54878999857008","0,021694887844006"
"3153","1,06289836768727","3,29683299410878","-24,5800744405818","-5,94609992172555","2,12970007704571","-0,110537553966024"
"3161","-0,84677159827157","3,7685400310393","-23,2453221839549","-3,713394885434","1,2867156739902","-0,151158097021141"
"3161","-0,297893480682446","3,8533036154587","-23,8992079970091","-4,70397604977891","4,39249624466239","-0,163636339844964"
"3169","-0,168231845931532","9,32944904330191","-29,2908378666984","-4,0132870677374","3,36937438952277","-0,167469536849716"
"3173","-0,137601840858413","7,31348718334409","-27,6889397087405","1,26562578922177","-3,69429185042758","-1,86145661023917"
"3181","-3,65790553380117","1,49031430998215","-23,7921713719169","-0,0860227497648602","-1,91606541600248","-1,38183325841665"
"3182","-2,48950788233625","3,4439169345012","-24,7817016027748","2,86741805978388","0,32871439964881","5,53674066149206"
"3190","-2,21349697085468","3,79497033845917","-28,5196770054434","1,78963606287486","0,0347772692026784","3,66206048427357"
"3193","-2,14829483426926","3,85805302010781","-27,488970228882","-5,29789531994679","1,62778814849908","-1,99225201509219"
"3202","-0,369122400987321","5,68969328834537","-27,2216979795355","-3,5109916574722","1,12884657072132","-0,729202805561139"
"3202","-0,94882798805577","5,01883061797482","-27,1523916968029","7,17346029475222","-2,39901731616296","-3,72682525666023"
"3210","0,677997709160722","4,89827968245389","-23,6530392760638","4,50970252166429","-1,50865563436312","-2,6476662406964"
"3210","0,0623032090454634","4,87661723394272","-24,7456233028543","1,99019071490535","2,14232375806873","2,76226975665764"
"3222","-3,61068190666998","4,87272459160467","-25,0289409224537","2,20346794068176","1,29068626940686","1,42415041996456"
"3223","-2,47835223138848","4,87202510168487","-25,102407925089","-2,79317959769027","-4,03357752296101","-2,37252616247478"
"3231","3,08044747346686","4,87189940656432","-25,1214586303852","-1,35339312900223","-2,70824732589236","-1,53882894318643"
"3231","1,39360431810533","4,87187681972943","-25,1263986627707","-0,903816825411517","1,07954509199303","0,410084431083797"
"3239","-4,29618826479442","4,87187276097911","-32,0904409218302","-0,763435694496692","0,270940152301244","0,00877200386543587"
"3243","-2,64028959449009","4,87187203164035","-29,8962845249281","-2,40734932705885","1,70206975142516","3,27111176328133"
"3251","-0,485346463952917","3,0515673000205","-20,6238669452324","-1,9206647598835","1,15221076945091","2,27327137588346"
"3251","-0,976283631701584","3,72446691417143","-23,219439265351","-1,76869649689189","0,979260617299762","-1,41887476363739"
"3259","-1,09225785929491","5,66568847967963","-23,8924963055444","-1,72124409236893","0,924861660276805","-0,553066790747127"
"3263","-1,11965448425925","5,01451706429318","-24,0670265144862","5,04456474360371","0,907751258878607","3,09852025219526"
"3272","0,637643317089485","8,53811375782412","-29,3343548335682","3,15720255027074","0,902369430769588","2,22025291225188"
"3272","0,0527702794611715","7,17128787313","-27,7002240797028","-4,18312192380712","-0,784787877194705","-1,4351615292388"
"3280","-3,61293387335302","1,46476174813328","-25,5357878337989","-2,47515342707541","-0,315458690405143","-0,558069929570588"
"3284","-2,4788842141223","3,43932525669308","-25,9745285531141","-0,25408879927032","-0,167838015058916","-1,98144531991344"
"3292","-0,447217624770905","7,4347544362034","-24,3476079555419","-0,560556774125937","-0,121406076873391","-1,41869264391037"
"3292","-0,967276445113039","6,15271467854563","-24,9257316881984","-0,656252033319524","3,26412747881153","5,52541781034496"
"3300","0,67363962487202","5,92233803219667","-25,0756447710863","-0,686133075984559","2,32899785969753","3,65858221255573"
"3300","0,0612736975471049","5,88094040870959","-25,1145186853566","0,99228443774482","2,03486642744172","-1,99332050693986"
"3312","-1,8471553945636","7,69380604678228","-26,8652893830175","0,516373778848266","1,94235165978542","-0,729531036050633"
"3313","-1,29798414499031","7,01956966174494","-26,3192811807768","5,43101348437194","-3,14314111236939","1,35150256972015"
"3321","2,35928616421744","-2,20311051758578","-26,1776959659581","3,96561990021278","-1,74270896074712","0,99077621562166"
"3321","1,22324417569865","1,13961628369151","-26,1409815485318","-3,24294400264889","-2,98768791087544","-0,812845026625008"
"3329","-4,33643248997481","7,20120271314547","-26,1314611445215","-1,49383299495835","-2,3792779474273","-0,366900244262579"
"3333","-2,64979649931824","5,29044190782004","-26,1289924115585","0,740078467012481","1,18301762935946","1,46289928515024"
"3341","-4,01513171060473","10,4080007833579","-29,6097328756014","0,437621942703652","0,30348593525224","1,0249962225533"
"3341","-3,33766523818637","8,32760256965007","-28,5123225881867","2,03092719836428","5,08323561877664","2,58328613640655"
"3349","2,11368200212124","0,672546179401608","-23,005682526852","1,52844006079886","3,58663642172768","2,06197791333801"
"3353","0,401455320317675","3,29696776362807","-24,577757428266","1,37153741250936","1,43043836094602","0,20902745480311"
"3362","-1,76679419249128","5,58886884906292","-26,726101990631","1,32254423596849","1,75223759510375","0,639818773108737"
"3362","-1,27900039523361","5,00071293008475","-26,2831885419296","-0,380501915889089","-1,51747419650832","2,46496330310744"
"3370","0,600000986951495","8,53563321841363","-29,6497174255646","0,087718399798283","-0,545914524643539","2,02563026915449"
"3370","0,0438780210432853","7,17084213160981","-28,5226909692343","-1,45382676905929","1,44513998344042","-1,49494774618544"
"3382","1,6762746476034","3,28498625099379","-24,7490614636779","-0,935177437304306","1,0713972446712","-0,576435684345596"
"3382","1,06189616972081","4,58671582636423","-25,7705227860578","0,914519820680273","-0,731622634668161","1,39853199941492"
"3390","-0,847008347783913","3,00032604181091","-26,0353975995948","0,492091616284338","-0,298736335973277","1,00522320720424"
"3390","-0,29794940808748","3,7152590958097","-26,1040822040032","2,04793546663097","-0,162578241484004","2,57721205496087"
"3402","-1,9320147715806","5,66403387708116","-29,6032734175321","1,53375092775317","-0,119751691531179","2,06011201353682"
"3403","-1,31803049990112","5,01421973981833","-28,5106475881508","4,74869160394693","3,26464784167916","-4,86997438744449"
"3411","-1,17298881974272","8,53806032998386","-24,7459384983253","3,75256348140919","2,32916153227556","-2,99883073444562"
"3411","-1,13872558214279","7,17127827239291","-25,7697129708966","0,0660245520354481","0,349453376130535","4,34720493034419"
"3419","-1,13063156772192","-2,17584917819706","-24,2944972914759","0,914895144338381","0,726764945015343","2,60383691808823"
"3423","-1,1287195163796","1,1445150209622","-24,9119595786402","-3,88328705037047","0,845442815862728","0,375481365288102"
"3431","-2,89203754584615","7,20208299369608","-23,3313832144931","-2,38152936752297","0,882771215494091","0,690951824461308"
"3432","-2,30858666842848","5,2906000901852","-23,9215244557112","-5,28809828634362","7,6363704497049","-2,59775776758555"
"3439","-2,17075790073208","12,2283338085622","-29,2966247405702","-4,19568044458251","5,7606169445622","-1,60801794089033"
"3443","-2,13819857150664","9,47501264028714","-27,6904403011802","4,58416894219575","1,79969687395185","3,77444933564212"
"3452","3,16080206985797","-0,121269509634966","-27,2739411204788","2,32569507765648","2,55384702639464","2,42789187029066"
"3452","1,41258650740007","3,15432273630572","-27,1659388492136","6,68372573431202","-3,95080413114002","-3,06418637655634"
"3460","-0,764164668982199","3,74293159333922","-20,1751715534759","5,04452982308744","-1,99674762622767","-1,75130035429426"
"3460","-0,278379222142755","3,84870189701718","-22,3623978895408","-0,530556284854486","1,98880151504991","2,03762479497755"
"3472","-3,69116141485807","9,32862213566845","-26,4109474917312","0,728611543766396","1,24239807887234","1,20154640946093"
"3472","-2,49736392863276","7,31333859184659","-25,4607756129534","1,12178930331817","-0,677836807278613","0,944711115553852"
"3480","3,07595633478764","6,95120141045674","-26,9550771577708","1,24455987217512","-0,281818785591181","0,865813766526491"
"3481","1,39254337513023","6,88612702499519","-26,3425640203466","6,34613902966338","-0,157257071859561","0,841577254523599"
"3493","-2,53266917775478","-0,406784944937687","-27,9244237469528","4,93911767613512","-0,118077994953804","0,834132029540658"
"3493","-1,45992326211757","2,28271232555197","-27,3346152940494","-2,25121937694702","-0,10575478566901","-2,55377417622587"
"3501","4,08480095415021","6,40661181298469","-25,4409819348328","-0,496416997703676","-0,101878699271107","-1,59450660175079"
"3501","2,39463274209268","5,14765757862508","-25,9499444653364","-1,63622425543429","-0,100659532622484","-1,29982876568449"
"3509","-6,82348474770601","10,3823430962895","-26,0819233786939","-0,992131429783085","-0,100276061470263","-1,20930654917339"
"3513","-4,00108327960449","8,32299200132364","-26,1161467891163","2,58448374981967","-1,78561997833408","3,89692966673266"
"3522","1,95696256839457","-1,14858691907648","-20,9029503052715","1,7012892392319","-1,31572041572632","2,46551665808378"
"3522","0,364433443651338","2,14941392350449","-22,5511179682696","3,11325785720075","3,88847325947101","0,332990702633793"
"3530","-1,77553988100805","4,56235410282316","-28,2005747510656","2,55414797935265","2,52537675192237","0,677899098759779"
"3534","-1,28106639173404","3,99594835216818","-26,6655336086772","-2,68367903010099","0,411170022042988","-0,9089578883591"
"3542","0,59951293600712","9,35508164624278","-28,0081728891013","-1,31920135022914","0,746177019112038","-0,396425197328401"
"3542","0,0437627286290652","7,31809324416821","-27,3563322577018","0,794607559370783","2,53701313381292","-1,93178960218035"
"3550","-0,0875223018587767","1,49114199792178","-27,1873036690369","0,454648764606583","2,1002946090072","-1,40343888172841"
"3550","-0,118535802171281","3,44406566621612","-27,1434729189888","0,348495927608114","1,96293114348521","3,83729406850125"
"3562","-0,125862130222999","1,97469246430306","-25,3914168658048","0,315349484638049","1,91972546159067","2,4471971719394"
"3563","-0,127592830794703","2,71065285986038","-25,9370917629099","-6,44599228524241","-1,46479332206233","0,327363131475843"
"3571","-0,128001674685906","8,3038153587944","-24,3379002332743","-4,55723524128034","-0,529344521152507","0,676170362653962"
"3571","-0,128098255995294","6,30888092816742","-24,9232143817971","4,47127270891401","-0,235112694901216","2,47613016418957"
"3583","1,63564864247654","7,77070498936238","-28,5563726395662","2,2904429952457","-0,142566349772579","2,02906062221436"
"3583","1,05229907690668","7,0333880479483","-27,4984857621998","1,60947440528166","-0,113457241809004","1,89172512927591"
"3591","-2,61304518566728","-0,380322816596336","-25,4834751342761","1,3968405542243","-0,104301394916755","1,84953697765789"
"3591","-1,47891050946214","2,28746744827428","-25,96096336349","-5,420546530169","-0,101421556330866","1,83657718045716"
"3599","-1,21099355042874","4,58716168610063","-24,3440903704962","-3,5492897516145","-0,100515744953898","1,83259605454758"
"3603","-1,14770345054582","4,00040616075434","-24,924819544329","2,09825784225687","-3,47115989943284","-1,55424601307229"
"3612","-1,13275241214332","9,3558826939373","-26,8160985585517","0,861716262531447","-2,53134703554439","-0,594651545523078"
"3612","-1,12922052406403","7,31823718875364","-26,3065255235898","2,16335152713001","-2,23574255670236","-3,68549239479454"
"3620","-2,89215589903478","1,49116786410156","-26,1743883005136","1,56978983142577","-2,14276446364889","-2,63496918033796"
"3624","-2,30861462703609","3,44407031424963","-26,140123838848","-0,303298967186524","2,9428740407765","-0,619448931448777"
"3632","-3,93453421930413","1,9746932995333","-26,1312387320938","0,111825180254158","1,54248772712213","-1,00030036300532"
"3632","-3,31862566975766","2,71065300994741","-26,128934737862","-3,13404730810973","1,10201656277504","-2,8101038368147"
"3640","0,354410010916151","11,9444245868864","-29,6097179202533","-2,14757770791627","0,963472759019211","-2,36605817693638"
"3640","-0,777907719390765","8,60369085873267","-28,5123187101201","9,97468498348204","4,29082488317024","1,15596751207336"
"3653","-2,80916517467698","8,00337637703285","-28,2277524668458","6,75988658835649","3,33739514026809","0,23790016175688"
"3653","-2,28900970447758","7,8955026264548","-28,1539616839989","0,692815345086808","-0,333421394269467","-0,0441213589876524"
"3661","-0,402363515034851","0,594899807511577","-21,1720657585394","1,79835979734427","0,511976609619217","-0,130755676323565"
"3661","-0,956680545937428","3,2830150678163","-23,3615925268348","2,1435683397985","2,46334879844058","-1,85017846297207"
"3673","-4,61516644454079","3,76605701325475","-29,1514289685864","2,25136042137427","2,07712456281641","-1,37836871930375"
"3673","-3,47941161505272","3,85285742858609","-27,6527896313135","3,97276665297677","-3,10075025425997","-1,23343327272071"
"3681","0,316427501058591","7,50906426501258","-27,2641779371434","3,51027931017452","-1,72937553235877","-1,18891048793695"
"3681","-0,78688033856113","6,16606781291573","-27,1634071612203","1,67811874943275","0,387434989545023","2,21038559003984"
"3689","-1,04751506516847","4,10443292845004","-27,1372763230791","2,10602282382405","0,053246977418576","1,25461687551302"
"3694","-1,10908488120195","4,73396662438866","-27,1305003436773","0,551888825212374","-1,73733153747021","-0,731795696081718"
"3702","-1,12362953645852","4,84709093334065","-25,3880529513898","1,06660726883189","-1,30053198838708","-0,342002664093471"
"3702","-1,12706542453098","4,86741885122403","-25,9362194673233","1,22732916774187","2,2077860264281","3,16335713584324"
"3710","-1,12787708535334","4,87107168454785","-22,596983723376","1,27751491319054","1,31127647461231","2,24017018359416"
"3714","-1,12806882422162","4,87172808189105","-23,7310875551557","2,98093344715686","1,02929242329285","1,95657597003777"
"3722","4,16319502295721","3,05154143291281","-25,7658619775044","2,51282940855336","0,940598437782618","1,86945853649224"
"3722","2,41315179539532","3,72446226597118","-25,2934986915932","2,36666295404916","-2,45822803073021","-4,92854131449272"
"3730","-3,29157055864171","2,02507844329738","-21,6896296864053","2,32102217622963","-1,52727950417173","-3,01682193501035"
"3731","-1,63919875244452","2,71970698848188","-22,7551115506264","-1,06872511331328","-1,23446317381903","0,956059101612869"
"3743","-1,24885848792658","8,30544234405361","-33,4755432082209","-0,127180717447407","-1,14236205235511","0,176490207565332"
"3743","-1,15664829556401","6,30917328993345","-30,2554549622214","6,91781019258951","5,62846514554315","-0,0629859103345467"
"3751","-2,89863516934324","7,7707575254267","-25,9390742637288","5,11762317947683","3,75813044601913","-0,136550686305328"
"3751","-2,31014522691476","7,03339748843737","-26,8197949453461","2,8677631291429","-3,57201428231491","4,91927957285018"
"3763","-2,17112607944919","-4,02093032130594","-21,8261034020749","3,16523967373967","-1,87760478390763","3,47238233575938"
"3763","-2,13828554647032","-0,00734217260708672","-23,5311908220243","-3,49286438425435","-1,34465289958322","-0,357709778648264"
"3771","-0,366757904066943","7,99509955520099","-27,4547171338491","-1,57187115116948","-1,17702062930148","0,465722508400699"
"3772","-0,948269422271791","5,43310151796655","-26,4721255050546","-4,34753290208121","-1,12429433474033","-0,974136510231264"
"3780","0,678129659315676","8,6133314584259","-26,2173299795093","-3,21423902630956","-1,10771004501213","-0,416447447388904"
"3784","0,0623343796683188","7,18480414788452","-26,1512590320929","-1,17261773783106","-1,10249369768338","-3,63074979803257"
"3792","-0,0831351154204649","1,46719056052422","-27,874816510749","-1,53511726663782","-1,10085297143582","-2,61815277750761"
"3792","-0,117499415863794","3,43976170310583","-27,3217516572659","0,0394394366466579","-4,4712659691221","1,07852645875623"
"3800","-1,88938701829125","1,97391906193279","-25,4376462692331","-0,468901975186685","-3,53138039822373","0,214111009885801"
"3804","-1,30796053354587","2,71051388301252","-25,9490794949412","-2,3153805638499","1,82064054597796","-1,74423871109508"
"3812","-1,17060998870962","8,30379038529421","-26,0816990834934","-1,89194732329933","0,504040957647764","-1,34582503945134"
"3812","-1,13816363020726","6,30887644054433","-26,1160886271985","3,30351437545972","-1,5955408419913","-1,2234361651235"
"3820","-1,13049881765542","4,13009498183509","-27,8656964841417","1,92580803967481","-1,25593378564672","-1,1858394719743"
"3824","-1,12868815679341","4,73857797732212","-27,319386746041","-0,192131545102443","-2,83457985343362","3,90413852869342"
"3833","0,635509290042227","4,84791957224798","-21,9556523944394","0,146537437791772","-2,33112003294702","2,46773115161992"
"3833","0,0522661576412571","4,86756775382347","-23,5647841303999","1,94003545948715","1,19816500152158","0,333670973895509"
"3841","-5,37682267609695","6,69140304222096","-29,2041185192599","1,50005892729053","0,308250321042068","0,678108071593506"
"3841","-3,65933788454142","6,01913785288044","-27,6664525420906","1,36267534485427","3,39926965494801","-0,908893693900663"
"3853","0,273923466940762","9,53894409227504","-29,0084111774351","1,31977703700865","2,37150486729595","-0,396405477403947"
"3853","-0,796921078701096","8,17143708041083","-28,3563940481746","6,3696257449978","-4,69362173960443","-1,93178354440792"
"3861","0,713882721817813","0,644483959434182","-24,7059390614955","4,94645145158945","-2,91585464238121","-1,40343702083858"
"3862","0,0707803358520719","3,29192511180188","-25,7593407295403","-5,62442525263227","4,38517429185467","2,14448508826498"
"3874","-1,84490963867699","0,127048906045698","-26,0324979840438","-2,92520337338213","2,68160684352867","1,23437287084172"
"3874","-1,29745362943471","1,55833521207745","-26,1033303056087","-5,45786161946845","-1,22515460514223","0,954795090935485"
"3882","-1,16812793974544","7,27644457823444","-24,3810074973823","-4,24868939657041","-0,453969645209175","0,868911467442767"
"3882","-1,13757729507034","5,30396252482174","-24,9343925128654","2,87986885614669","-0,211404623031648","-2,54309026511149"
"3890","-2,89413002144045","3,12921197378651","-28,5592712372101","1,10577591867655","-0,135109320295076","-1,59122460630793"
"3894","-2,30908097453677","3,73841930483812","-27,4992373966412","-2,8236841336743","-1,79657627369556","2,086798535734"
"3902","-0,40710495690328","3,84789105953259","-25,4836700403662","-2,05066616459519","-1,31916655921383","1,21665211291946"
"3903","-0,957800618106523","3,86756263021969","-25,9610139045268","3,25395408889513","-4,5399333355936","-0,743458108515459"
"3910","-2,85166132560757","11,152315923216","-26,0847937914813","1,91033273766082","-3,55297872046341","-0,345585245795108"
"3915","-2,29904858236997","8,46135257601535","-26,1168911149514","-3,57245960241638","3,49931163972945","4,85506615284875"
"3923","1,35903471187071","7,9777988424645","-22,6438336313739","-2,28447285383517","1,71750708764253","3,45265658649407"
"3923","0,223184775038847","7,89090646116387","-23,7432361900314","-0,194548395781169","1,15706635922052","-2,05657889228835"
"3931","-3,57267680830749","-1,22623070280729","-27,5097025513894","-0,541965159954606","0,980787872499671","-0,748963407792939"
"3931","-2,46937427612913","2,13546169277303","-26,4863837563453","-0,650446763330739","0,925342036205647","-0,34727642114717"
"3943","-2,20874080330019","10,0207607528319","-26,2210272821573","-0,684320368420164","0,907902354146132","-0,223882015717028"
"3943","-2,14717128344713","7,43771271712492","-26,1522177784772","2,68059839055385","0,90241695559025","1,50683311886593"
"3952","1,39491272964701","5,15324626801747","-33,0971360685857","1,73130123465063","0,900691603189089","1,03849227661988"
"3952","0,231660249442766","5,74273815694018","-30,898020641323","-1,94061462850391","2,58561345080646","4,28024154718691"
"3964","-1,80690493066206","2,20805793626413","-23,3650074522322","-1,08717795352069","2,1155811324508","3,27607595829261"
"3964","-1,28847576638728","3,57289216212071","-25,4116241766101","-0,820690586100626","1,96773929728847","-2,11082277459418"
"3972","-1,1660070965892","5,63845119406502","-25,9423317143054","-0,737479354293799","1,92123779649671","-0,765626610306028"
"3972","-1,13707628768478","5,00962264937502","-26,0799493186237","-4,08699233725176","-1,4643176390951","1,34041435408963"
"3980","-2,89401166832242","8,53723425398039","-26,1156348962217","-3,13288469591486","-0,529194901987857","0,98737002169331"
"3984","-2,30905301594584","7,1711298303355","-26,1248885121004","5,60377704463398","-0,235065634367262","0,878918175019616"
"3993","-0,407098352237345","-0,355571251990834","-26,1272880643171","3,3318177482096","-0,142551547565515","0,8456028036409"
"3993","-0,9577990578844","2,2919151905628","-26,1279102914461","4,31014168861574","4,9429410104364","-2,55025046398977"
"4001","-2,85166095703585","2,76765632436674","-26,1280716409668","3,61562536304066","3,54250879145544","-1,59342415100995"
"4005","-2,29904849530217","2,85314481743519","-26,1281134804601","-10,1032222454641","-0,268905876029211","-1,29949624715635"
"4013","1,35903473243876","8,32942050802764","-29,6095049602553","-6,38696079384476","0,532269028333011","-1,20920440265772"
"4013","0,223184779897643","6,31348205568658","-28,5122634875301","-0,163306673718907","-0,901197580429494","2,20415149328274"
"4021","-1,80890709325752","7,7715317908098","-28,2277381470934","-1,21995779872712","-0,352073670875297","1,25270182053661"
"4021","-1,28894873783002","7,03353662036466","-28,1539579707485","-1,54989929859344","-0,179354725071705","-0,73238398267809"
"4033","-1,16611882676843","1,44000848174439","-24,6534454260669","-1,65292421453548","-0,125028490645447","-0,342183380116632"
"4034","-1,13710268173698","3,43487720860191","-25,7457286214835","-1,68509395768439","3,26298810120096","-5,30074613781212"
"4042","-2,89401790339693","3,79334594130288","-31,2510391782083","-1,69513902653792","2,32863948502772","-3,82396925336067"
"4042","-2,30905448885927","3,85776112341196","-29,6786195233729","-3,38602355119123","0,349289173755194","1,70811115519308"
"4054","1,35667101371807","11,1505546375351","-27,5301855631069","-2,9140057422484","0,726713297544392","0,407513414911312"
"4054","0,222626397948","8,46103608108139","-27,9730758300668","3,98437451962846","-4,21096702552499","3,39360131602299"
"4062","1,71850042781912","0,696523567536805","-24,6065409351817","2,13840802830823","-2,7640426160744","2,31089899647971"
"4063","1,07187117786188","3,30127638996652","-25,7335658327366","4,93749703455715","4,43292455857553","1,97830318576281"
"4070","-2,6084216626591","3,76933848883282","-22,5444336732687","3,81151836773268","2,69662599601206","1,87613292962713"
"4074","-1,47781829329914","3,85344709465084","-23,7174608182264","-8,35430631834844","0,465033983153051","1,84474720286067"
"4083","-6,5020446775986","11,1497794264137","-32,7250896934652","-5,15311024618705","0,763119145320471","1,83510580739083"
"4083","-4,68891911378189","8,46089677920928","-30,0608550978565","4,28520950583907","-0,82858703087779","-1,55347504097171"
"4091","-2,49683422920802","7,97771693787537","-31,1106835798532","2,23234437514344","-0,329235077700633","-0,594414710258016"
"4095","-2,97899738977442","7,89089174328601","-30,3829142726089","4,96682885319931","-0,172171177482295","-3,68541964126334"
"4103","-1,32912921723868","-4,86684254866429","-21,4907450669202","3,82067728878765","-0,122769010143532","-2,63494683114811"
"4103","-1,93938038681686","-0,159348708192555","-24,1849194730465","-3,288202632935","-1,79269480846853","1,07336748589271"
"4111","-0,319770481295673","11,6083938811937","-26,6242353042874","-1,50796509589978","-1,31794570073268","0,21252622270004"
"4115","-0,937169569947535","7,72300308628843","-26,2567735236027","-0,952082241865852","3,88777332841042","-1,74472554258084"
"4124","-2,84678764719848","8,84512083598246","-29,6428677554884","-0,778506670639827","2,52515659877876","-1,34597458943361"
"4124","-2,29789727192504","8,04676023323129","-28,5209147834459","-0,724307339417781","-2,95982828821322","3,85494655020196"
"4132","-0,404463027635678","-1,19822449698157","-23,0079105662963","-0,707383486111881","-1,6850505758368","2,4526198457034"
"4132","-0,957176514399787","2,14049427911565","-24,578335180472","2,67339688433983","-1,28408777165965","2,02183847694324"
"4144","-4,61528360731255","4,56075128376186","-30,2076324377828","1,72905254943627","-1,15797074845417","1,88950655523371"
"4144","-3,47943929244781","3,99566033295673","-28,6673637351952","-1,94131678511435","3,93809112487089","-3,22957320274784"
"4152","-1,44734875108255","7,53472528995451","-28,2679571434271","-1,08739720337498","2,54098333043003","-1,80210560754454"
"4153","-1,96730742111915","6,17067898104269","-28,1643871460105","5,93023267716587","-6,32577928405281","3,71482745834879"
"4164","-2,09013740650094","7,74587073527056","-26,3968401274215","4,1215021259864","-4,11469061138418","2,4095765990874"
"4165","-2,11915356908908","7,0289254467395","-26,9384980671703","-1,50652152402796","1,63716879517524","-1,37700310104079"
"4173","3,1653010762278","-0,381124725503088","-25,3382649015887","-0,263883552440529","0,446332584670321","-0,540204215950712"
"4173","1,41364930896197","2,28732334893297","-25,9233089438228","0,124132725054289","-1,61369217208507","3,1024715123109"
"4181","0,999856110837012","6,40744039267296","-24,3343262148012","0,245291610460473","-1,26164302275001","2,22146670161743"
"4185","0,902105625258619","5,14780647058313","-24,9222876041934","0,283123723091534","-1,15091107885492","0,258020887144165"
"4193","-2,64852542772012","12,2026744520504","-30,2968226323626","0,294936878530616","-1,11608195507507","0,654869087544334"
"4193","-1,4872920171931","9,47040177196941","-28,6904916164385","1,98637349187822","2,2658021039523","-0,916032487824492"
"4202","0,550796197504224","-0,122098061459081","-24,7925737966129","1,51452807377239","1,32952458869967","-0,398598446708417"
"4205","0,0322543595547734","3,15417384935473","-25,7818059553959","-2,00830249646541","-4,02136149403143","3,14597145202027"
"4214","-1,85401064107989","7,38351404016115","-22,5569428042699","-1,10831363032963","-2,70440495151763","2,23482946758977"
"4214","-1,29960356183613","6,14350701511141","-23,7207045570434","-5,89053403827668","-0,604710877127424","1,95493535309513"
"4222","-2,9324055327939","5,92068345743796","-27,5038598807413","-4,38379225448982","-0,944282619080624","1,86895455463844"
"4222","-2,31812280953434","5,88064308923742","-26,4848686952612","-3,91330901523711","4,00530362061908","-1,54307702913654"
"4234","1,35452880173057","5,87344801927994","-27,9613247273498","-3,76639965040792","2,56212404422609","-0,591220540342855"
"4234","0,222120342597312","5,87215509830994","-27,3441840756448","3,03046482718468","0,422728348820248","-1,9916288708919"
"4242","-0,0453888316833329","7,69222736692082","-30,6655341581862","1,15279982219789","0,749812522832578","-1,42182093349885"
"4243","-0,108582600457442","7,01928598023665","-29,5267924011849","-1,12125289139125","-2,51823696774972","0,446028174012902"
"4255","-1,88728059643673","10,5389707100795","-29,2315056351136","-0,831330555947607","-1,54615444325282","0,0198135783627997"
"4255","-1,30746293290854","9,17144186350783","-29,1549349168795","4,322442086474","0,445064520528398","1,58169407761524"
"4263","0,593277273533476","3,46478941949574","-23,9130084424555","2,93171825659815","0,0713735089088637","1,06148884808449"
"4263","0,042289676298907","5,43933022910961","-25,5537261406525","-0,878033998762386","-0,0461655682651816","0,901686770512565"
"4271","-0,087870281432167","2,15353692747966","-20,757109184196","-0,0676370224121966","-0,0831357768957068","0,852597098693354"
"4275","-0,118618005485459","3,56309498766937","-22,5132999531334","-4,87783268329952","-1,7802287509062","-2,54810188335835"
"4283","-1,8896512630376","3,81638608632758","-24,7093875430716","-3,37982623012064","-1,31402468348497","-1,59276412756297"
"4284","-1,3080229561579","3,86190133147531","-24,2788543238014","-2,91207061592261","2,20354209526282","-2,99210304614175"
"4292","0,593144979081057","7,51068941275475","-32,870664466442","-2,76601295765987","1,30994160773769","-2,42196659560634"
"4292","0,0422584243425628","6,16635984448841","-30,0986040463513","9,09382936616061","2,71433709245801","1,13879297988867"
"4304","-0,0878776640907554","2,28418080461912","-20,6763303565606","5,79708966834309","2,15606928330204","0,23262430951888"
"4304","-0,11861974949301","3,5865710913562","-23,2330435360058","-1,98331584734051","-1,39045480752502","1,64706750148301"
"4312","-1,88965167502501","9,28151843583995","-27,3774046550891","-0,412763566324264","-0,505962421702651","1,08157093945731"
"4312","-1,30802305348181","7,30487427369086","-26,4520776305566","3,45314049494802","-0,227758195311255","-4,17057285849104"
"4324","0,593144956090204","6,94968041142477","-26,2121313714924","2,66027703616503","-0,14025309880319","-2,78398126535328"
"4324","0,0422584189114269","6,88585370846659","-26,1499109826867","4,10045171194387","-5,16912323875935","1,02758553126449"
"4333","3,4396617624306","1,41347054190056","-26,1337766332777","3,55014923400184","-3,75088126102712","0,198462443542162"
"4333","2,24223132625983","3,43010846290138","-26,129592840218","5,0660640778774","-1,6193293248833","1,63657330256513"
"4344","-1,56817743606338","5,61279362020043","-26,1285079421585","4,53941162412075","-1,94888063938488","1,07834722178911"
"4344","-0,468311388136644","5,00501210139079","-26,1282266175846","-2,37602841863165","-0,367071684132724","2,59967505376924"
"4353","-1,97225943086781","8,53640575971873","-29,6095342978074","-0,535388879184411","-0,86953666433066","2,0670124322068"
"4353","-1,32753750727845","7,17098095372822","-28,5122710950415","1,72710255618883","-2,71304425410152","1,90338356279431"
"4361","-1,1752346628154","6,92562039781187","-24,7463594893854","1,43357018770339","-2,29289277634971","1,85311833707474"
"4365","-1,13925611829438","6,88153023470992","-25,7698221379557","4,71740996060463","2,89565336170243","0,144867787977445"
"4374","-1,1307568964288","-0,407610967004137","-24,2945255995516","3,74279572355765","1,527635148737","0,620109536305578"
"4374","-1,12874912281588","2,2825638931868","-24,9119669191984","-5,00026924392732","1,09734490008378","-0,926710289945842"
"4382","-1,12827482588088","11,8674989420546","-25,0720754331756","-2,73030936836123","0,96200335540894","-0,40187856552697"
"4386","-1,12816278258023","8,58986767425753","-25,1135931214681","-3,70925763206694","2,60489817147612","-0,240655272917162"
"4394","-2,89190602846144","6,18058781381604","-28,605739690542","-3,01493625273379","2,12164686108914","-0,191129017413593"
"4394","-2,30855560003906","6,74765130693374","-27,5112871166276","5,64060669003824","0,284182651941536","-0,175915024791937"
"4402","1,3567888663668","1,38863620615369","-23,746104334253","3,34331788118313","0,706234987245132","-0,171241431580854"
"4402","0,222654238312927","3,42564584701955","-24,7697559737588","-0,749511164436226","-2,53194364829381","-1,86261530027187"
"4414","-0,0452627093456866","5,611991708657","-21,5538181273298","-0,0275055014957598","-1,55046568043054","-1,38218919692702"
"4415","-0,108552806541536","5,00486800157568","-22,719894298051","-3,17755360174435","0,443708483525659","-1,23460688695382"
"4423","-0,123503844309271","8,53637986564489","-29,9850304031468","-2,1611626381129","0,0709469871757746","-1,18927101101913"
"4423","-0,127035732238602","7,17097630068227","-27,8689505565542","8,2826951298008","1,63916480766404","3,90308439267651"
"4435","-0,127870071134613","3,28501036055886","-25,5795402433279","5,54381132490178","1,13242493353443","2,46740733110451"
"4435","-0,128067167250721","4,58672015874215","-25,9858739766381","3,00084125928322","-2,39789179414137","-3,05204760444142"
"4443","-1,8918834412248","4,82063142088032","-29,5726208793538","3,20679359519843","-1,50830161776748","-1,7475714394487"
"4443","-1,30855026424969","4,86266419856351","-28,5026990881376","-5,16763701743062","-2,91395848758201","3,73157983388379"
"4451","2,35679012684185","8,51082649646088","-26,484567690497","-2,78257030190118","-2,3560874287768","2,41472276883501"
"4455","1,22265453607531","7,16638447779974","-26,9612466738993","1,33766757667903","-0,495152662149032","-1,37542224684994"
"4464","-2,57280206680955","5,10448983167286","-30,5662347812432","0,624220378536127","-0,909822674674718","-0,539718592643418"
"4464","-1,46940386598091","5,73397684963602","-29,5010431110494","7,15243673936773","-2,72571563321322","-1,97580796449925"
"4472","2,31879163448502","2,2064835696485","-22,2620673339862","5,19088580412208","-2,29687837450701","-1,41696090217449"
"4476","1,21367814135457","3,57260925568285","-24,384930806995","-3,86035218922727","-2,16199384670495","5,52594978486482"
"4484","2,71638657860398","7,45870495764069","-26,6761001802491","-1,6866199785598","-2,11956787864593","3,65874563004688"
"4484","2,07137182265702","6,15701847706207","-26,2702225882402","0,679880332530136","1,26470565735102","-0,300460754763683"
"4492","-3,37230933938419","5,92311140499019","-34,8684261738144","0,41882495066893","0,329179717354953","0,483308861702016"
"4492","-1,6582716977185","5,88107938024263","-32,0980236353956","3,71280572983452","1,72038816026717","-0,968734150479903"
"4505","0,510405618656794","0,412612617083306","-22,6761798503786","2,74135804297409","1,15797255874644","-0,414787894075999"
"4505","0,0227128815579883","2,42995429775866","-25,2330045082952","-0,9374743692986","2,66653743653362","-0,244620895339017"
"4513","-0,0924949132546926","6,43307051799455","-25,8960139044164","-0,0861974010870177","2,14103459616242","-0,192347218742422"
"4513","-0,119710483583991","5,15241208619047","-26,0679386619409","-1,50813233769634","0,290280782263515","1,51652030727981"
"4525","-1,88990933945137","4,92228365774255","-26,1125204166231","-0,952134463462833","0,708153065519014","1,04146808836972"
"4525","-1,30808392162296","4,88093063787033","-26,1240808973774","0,909224954180251","-2,53134034464655","0,895536584364162"
"4533","0,593130577191804","6,69380429100742","-29,6084592724072","0,490438283265272","-1,55027592003558","0,850707820254428"
"4533","0,0422550221801441","6,01956934624027","-28,5119923305438","3,735167141097","0,443768169900267","2,52974640400291"
"4541","-0,0878784677845569","4,0781078279636","-26,4869775182561","2,74834043990383","0,0709657606575365","2,04553101894892"
"4545","-0,118619939349826","4,72923612494148","-26,9618715655759","5,81569762307554","-3,41722288383636","0,203975125945606"
"4554","-0,125882005972758","6,66654548491397","-27,0850161912976","4,77348624950939","-2,5143819311089","0,63826674594297"
"4554","-0,127597526048755","6,01467106419108","-27,1169487853777","-2,30293813258215","1,1405226346427","-0,921132568580793"
"4562","-5,41931192555365","7,71783683033626","-25,3845389010786","-0,512566286150554","0,290119752207385","-0,400165142801374"
"4566","-3,66937513209665","7,0238878829945","-25,9353082400447","1,73422895808082","-1,66282664842921","6,5311092817131"
"4574","0,271552365079153","-2,20233455309348","-19,1153668029082","1,43579542143782","-1,27709755825486","4,66033057819576"
"4574","-0,797481204772231","1,1397557209409","-21,3468899385218","3,03035686332017","2,21515698587371","-0,992783425715433"
"4582","-4,57755873863076","9,02153236993873","-28,88830676025","2,52826197250138","1,3135949027901","0,270633950171374"
"4586","-3,47052753592611","6,43785137316914","-26,8438691792024","-2,6917619892953","4,40095071546863","-1,03406585185606"
"4595","0,318526189612386","7,79388038499278","-31,5357976600913","-1,32172527096022","3,37203362045331","-0,434857168697933"
"4595","-0,786384564763637","7,03755255992326","-29,7524601555528","10,9203070466315","-2,00799089584061","1,44202356708035"
"4603","0,716371765519732","3,26103472816853","-24,0679525237532","7,74290696507356","-0,70019942416014","1,01858340136466"
"4603","0,0713683233578864","4,58241184790297","-25,5939046415347","-3,37573037077738","-0,288852621754539","-0,804302924775766"
"4615","-5,37231016602462","4,81985723724317","-24,2489084890046","-0,847547882003516","-0,159469462808039","-0,364276192167657"
"4615","-3,65827189299601","4,86252508132559","-24,9001379606412","-5,1213614627475","-1,80423840251796","1,46370536888916"
"4623","0,274175286428511","13,9717152994163","-26,8096983848653","-3,45586859533467","-1,32157657048777","1,02524384377827"
"4624","-0,79686159131146","10,6085948742217","-26,3048658965685","3,81517672270402","2,20116675895118","2,58336220328161"
"4635","0,713896774540886","0,902734603249857","-29,6553385735632","2,08557566616893","1,30919448021958","2,06200128035545"
"4635","0,0707836555308639","4,15863616495873","-28,52414858735","1,54550415793189","-0,656826969929634","-1,48377491895618"
"4644","-3,60867856837049","2,92340209606295","-28,2308200685815","1,37686571214268","-0,275210446571001","-0,573003498542315"
"4644","-2,47787898220884","3,7014362166521","-28,1547571428381","-2,05128785369095","6,58667961371428","-1,98603276965784"
"4652","-2,21074987245057","7,48185456985057","-26,3943429743343","-1,12173589705477","4,74498741421564","-1,42010186465306"
"4656","-2,14764588642732","6,16117835587499","-26,9378505311904","0,856266555656456","-2,57614823197229","-4,63187240010955"
"4664","-2,13273881375514","9,56446811719715","-30,560167934852","0,473901913761739","-0,878905057697218","-3,61849763014269"
"4664","-2,1292173117129","8,1760236302645","-29,499469919024","0,354507763264233","-0,345061881807968","3,46403962708841"
"4672","-2,12838542627797","0,645308141342184","-20,5209690748532","0,317226692759428","-0,177149268716891","1,6397274209366"
"4676","-2,12818890974368","3,29207321349904","-23,1927568510169","-3,06991026087924","1,56112973574305","-0,613493415058792"
"4685","-2,12814248658656","3,76768472036139","-27,3669579275032","-2,12755078222681","1,10788013567843","-0,305661333372875"
"4685","-2,12813152003087","3,85314992006479","-26,4493686929191","-0,145549154268802","-4,09107653576058","-3,59671736202294"
"4693","3,16318021230825","11,1497260255077","-33,1741901785463","-0,526665045418905","-2,72633280478464","-2,60769833823933"
"4693","1,41314829667148","8,46088718331216","-30,918001518289","6,10532245357421","4,44478563171239","1,08173796263985"
"4705","-0,764031957341887","2,51680141185371","-26,8515693175496","4,17617427090933","2,70035672420046","0,215097553202939"
"4705","-0,278347871633995","4,44867654485199","-27,7971040653343","1,88604582857778","-2,90472163479494","-1,7439356544114"
"4713","-0,163614581114061","2,9755210179813","-22,8202194371313","2,17094848446289","-1,6677175788218","-1,34573194333288"
"4714","-0,136511103069592","3,71080174714454","-24,5296650529294","-2,80333386517341","3,77775766709212","2,16221153688254"
"4722","-0,130108440696901","3,84292831147131","-24,9729408567367","-1,35656382003178","2,49055277127431","1,23981826653606"
"4726","-0,128595937932813","3,86667084722451","-25,0878865656994","-0,904806880245269","2,08568117713927","0,956467864478997"
"4734","-0,128238638972128","11,1521556739145","-28,5990737316684","-0,763744841166833","1,95833470085562","0,869425327497195"
"4734","-0,128154234136423","8,4613237799531","-27,5095585689332","7,71904172798446","-6,50904294335277","0,842686691556589"
"4742","-5,41944343686447","-1,12372933486055","-22,0049657898906","5,36780938405438","-4,17233353220344","0,834472837999979"
"4746","-3,66940619905123","2,15388071702926","-23,5775715714305","-5,49285536648184","-3,43735554431962","-0,860859931238681"
"4754","0,271545026123584","10,0240705667529","-27,4667441113582","-2,88412040422959","-3,20617889903531","-0,381649964327108"
"4755","-0,797482938455805","7,43830747545952","-26,4752442168015","-0,381789583989587","5,29385701595747","1,45836831203403"
"4763","0,713749993527211","6,97365774391501","-29,6995193220788","-0,600431608351901","2,96741978928874","1,02360435089133"
"4767","0,0707489814100098","6,89016232480591","-28,5356050833216","2,70679282944079","2,23567276775644","0,890049014843143"
"4775","3,44639209616073","1,41424478043469","-23,0117199033266","1,73948050238619","2,00551237598515","0,849022091314198"
"4775","2,24382123492244","3,43024759000403","-24,5793229784567","-3,62580856635335","-3,12327482694927","-4,24200964336102"
"4783","-3,33157156538732","5,61281862070071","-26,7265079529575","-2,301131178197","-1,7364603093679","-2,80592596330947"
"4783","-1,64864820171224","5,00501659386568","-26,2832938118925","-1,88749792314897","0,385206575893788","2,7136538815494"
"4795","4,04021840767597","13,9973203686789","-29,6497447230855","-1,75834008350339","0,0525460622882038","1,4092160875045"
"4795","2,3841009943841","10,6131959873705","-28,5226980477458","1,65748558138133","-0,0520874679965807","-4,06992339863934"
"4804","-1,53466352377378","2,72386600267602","-28,2304439296139","0,724084212168929","-0,08499842439833","-2,75306271267879"
"4804","-0,460394387048215","5,3061896997705","-28,154659606361","0,432627703538587","-0,0953500874678054","2,72989296719951"
"4816","-1,97038919543565","2,12961218687855","-26,3943176821812","0,341619805730738","-0,0986060526544703","1,41420457950235"
"4816","-1,32709570102724","3,55879582185058","-26,9378439726901","-1,3745455297658","3,2712988950964","2,70284722598828"
"4824","-2,93890000870045","7,45622274713058","-27,07878560376","-0,910421706311681","2,3312535244739","2,09870593802388"
"4824","-2,3196570014358","6,15657243525297","-27,1153331336872","-0,765498082222462","2,03557591401749","1,91311950504863"
"4832","1,35416637913876","11,3839450550122","-25,384119946948","-0,720245380771273","1,94257481847747","1,85610912553868"
"4836","0,22203472740476","9,3232798659362","-25,9351996011812","4,35712866224451","-4,82853545318787","-3,23983257414179"
"4845","3,48213037121959","-1,96883979169097","-31,3001708382315","2,94254921164479","-2,95828979040362","-1,80525718844043"
"4845","2,25226369786423","2,00201825591906","-29,691359838647","-0,874652010641145","-0,684566663708459","2,02104977091726"
"4853","-3,32957719995121","8,17647698058289","-24,0521086198354","-0,0665809896244174","-0,969400096274051","1,19645472039232"
"4857","-1,64817707219468","6,28599880743079","-25,5897961638038","0,185740858488595","-1,05899031324764","-0,749662554576649"
"4865","0,512790274932337","9,58689777809763","-36,4326753273721","0,264528877585061","-1,08716961405892","-0,347491192360957"
"4865","0,0232762095922048","8,18005413713929","-33,2443389055506","0,289130599550749","-1,09603300362351","-1,91675754326628"
"4873","-0,0923618381120027","2,46633700544602","-25,4548111321679","0,296812538132502","-1,09882085400701","-1,39882117681449"
"4873","-0,119679047204961","4,43960832318511","-27,4349111405477","0,29921123934765","-1,09969773183171","-1,23971607230851"
"4886","-0,126132199324385","4,7941961008277","-22,7262993039698","0,299960238764701","-1,09997354100855","-1,19084050395775"
"4886","-0,127656629295789","4,85791389316736","-24,5053106528033","-1,38755381573951","2,27086877150716","3,90260225943738"
"4894","-1,89178645972625","10,3302774889963","-33,6700771009401","-0,914483570519534","1,33111823534952","2,46725922437873"
"4894","-1,30852735428254","8,31363605122405","-31,0465897998291","5,98422531676223","-0,649931171352638","2,02633555423865"
"4906","-1,17074388893441","4,31064566141633","-26,8849135043041","4,13836143940456","-0,273041473339332","1,8908880144233"
"4906","-1,13819526149567","5,59132670436947","-27,8057505358914","-4,87675303077683","-1,83996082798598","-3,22914883168034"
"4914","-1,13050628992373","2,1808499948148","-21,0817712354814","-2,69174117526499","-1,33281254029538","-1,80197524480614"
"4914","-1,12868992196949","3,56800302021406","-23,3381782825219","-3,69721463397974","-2,85876094849537","-1,36356115111472"
"4922","-1,128260840848","3,81726803719616","-23,9232864826599","-3,01117580166557","-2,33872584499558","-1,22888452921321"
"4926","-1,12815947889191","3,86205981398892","-24,0750107056088","-2,79695875694467","-2,17515636041374","-1,18751315738052"
"4935","0,635634179774151","7,51071789133333","-31,0771155268563","-2,73006904154159","-2,12370795605352","-1,17480426712805"
"4935","0,0522956603783602","6,16636496195797","-28,8928291209577","4,0418091349668","-2,10752560811753","-1,17090021743634"
"4943","-3,61304599275474","2,28418172420485","-26,5857321863367","2,15634210577285","-2,10243568573844","-1,16970093066207"
"4947","-2,47891070012064","3,58657125660153","-26,9874796074279","-1,8078947371382","1,2700943396626","2,21628658254722"
"4955","-0,447223881565872","5,64090926441171","-27,0916566045584","-1,04573589286045","0,330874649066967","1,2564296040457"
"4955","-0,967277923157504","5,01006435330782","-27,1186707088473","-2,49549814804266","-1,65000778787798","0,961570708692391"
"4963","2,43740898961533","6,717009025584","-25,3849854125107","-1,94818941160487","-1,27306557195398","0,870992872497775"
"4967","1,24169915309317","6,02373913028889","-25,9354240247835","6,66144852927183","2,21642518857126","-0,849641325476085"
"4976","-0,804533437580619","4,07885711897379","-26,0781580878311","4,34982578860304","1,31399379751891","-0,378203715795657"
"4976","-0,287915547898176","4,72937076908885","-26,1151704127295","3,62801680536326","1,0301471177246","-0,233382585219118"
"4984","-1,92964446991742","4,84626507928678","-26,1247680670324","3,40263045701175","0,940867269495583","-0,188894917220622"
"4984","-1,31747056286109","4,86727044904994","-26,1272568317445","-0,0432427588014663","2,59825012280468","-0,175228730552521"
"4996","-1,17285654565555","10,331958819043","-29,6092828229469","0,880776200468794","2,11955581398993","-0,171030608545908"
"4996","-1,13869433499734","8,31393817849838","-28,5122058851747","1,16930303218364","0,283524943463872","-0,169740985565451"
"5004","-1,13062418619981","6,1310045528586","-26,4870328950401","1,25939613231348","0,706028114601396","-0,169344825704183"
"5004","-1,12871777264052","6,7387414230505","-26,9618859253123","-0,400220041901103","4,20984941149077","-0,169223129178875"
"5016","-2,89203713392216","3,20733974157137","-23,6036392845069","0,0815613741566301","3,31192548239837","-0,169185745168731"
"5017","-2,30858657111956","4,57276310583852","-24,7328134066147","-9,89448896866291","-2,02689703716579","-0,169174261157902"
"5021","-2,17075787774476","4,81812340268381","-25,0256191922975","-7,00953132744164","-0,706146076167242","-0,16917073337947"
"5025","-2,13819856607634","4,86221351923189","-25,1015465682892","-6,10869733534425","-0,290723054725781","-0,169169649679632"
"5033","-2,13050707056577","12,1513547125804","-30,343306217839","-5,82741005759601","-0,160057780317746","-0,169169316777394"
"5037","-2,12869010638078","9,46117985088624","-28,7025452603365","4,38691006356065","3,25197014718515","3,21644988925468"
"5045","3,163048257295","-0,123755198251716","-24,7956994232127","1,5763526535763","2,32517394770652","2,25647977030634"
"5045","1,41311712490095","3,15387606949685","-25,7826164606443","-4,36449350575767","2,03366367149458","3,65439567117232"
"5053","2,7635001067462","3,74285132936859","-22,5571529761304","-3,21953500989695","1,94197335038087","3,08382208318804"
"5057","2,08250146488913","3,84868747395091","-23,7207590566423","-1,17427141966297","-3,14326010409495","-3,86269088052347"
"5066","0,157859246988829","11,1489241444708","-27,5038740130152","-1,5356336322111","-1,74274638786518","-1,99659331069069"
"5066","0,703200465218293","8,46074308897893","-26,4848723598966","-1,64846973069367","-1,30223515088944","-1,42334596198529"
"5074","0,832026577221575","7,97768932044804","-26,2206353624206","-1,683703035889","-1,16367874287061","-1,24724985205508"
"5074","0,86245920651698","7,89088678056138","-26,1521161498938","-1,69470470832966","-2,80556237039178","-1,19315480913411"
"5086","-7,94920025426875","-1,22623423932102","-26,134348454491","-1,69814000331038","-2,3219930053424","-1,17653732865835"
"5086","-5,03078108968674","2,13546105727778","-26,1297411189966","-1,69921268127531","1,20103577541935","3,90699605826709"
"5094","0,949947046222367","4,55984683695324","-33,0913076531006","-1,6995476271891","0,309153281253118","2,46860895741016"
"5095","-0,637223835158529","3,99549780802618","-30,8965092767407","-1,69965221474365","0,0286246036762655","2,02675017933342"
"5107","-1,01216166655327","9,35500068553323","-26,8459961711681","-1,69968487242393","-0,0596116151729303","1,89101538329196"
"5107","-1,10073333773255","7,31807869590117","-27,7956588945028","-3,38744300097394","-0,0873650355506749","-4,92191925706434"
"5115","-1,12165664895539","1,49113938366512","-24,5605350055432","-2,91444896837972","-0,096094470613846","-3,01478770222147"
"5115","-1,12659936875168","3,44406519644623","-25,7216360496233","0,608740259108427","1,58662434458652","2,6494935503787"
"5123","-1,12776698886325","3,7949969804486","-26,0227207953793","-0,291136615558923","1,11589909439887","1,38950664662089"
"5123","-1,12804281609627","3,85805780755074","-26,1007949858979","1,1156228997123","2,65330383974066","1,00245070503504"
"5135","-1,12810797484243","9,3303033497489","-24,3803500644273","0,55488646876987","2,1368721606037","0,883550816893259"
"5136","-1,12812336731168","7,31364069828232","-24,934222034133","0,379795358112704","1,97443608078972","-0,845783644909819"
"5144","4,16318213822744","1,4903418959103","-30,2999173456284","0,325122796567817","1,92334417242842","-0,377018673173817"
"5147","2,41314875163192","3,44392189156557","-28,69129410556","3,6835470383581","-1,46365510915594","3,15260055232261"
"5156","-3,29157127767081","5,61527582978186","-21,3114012594047","2,73222195602791","-0,528986512823472","2,23686586388226"
"5156","-1,63919892230097","5,00545814303302","-23,397723571645","-7,6913188558361","-1,92046462072604","-1,43005818918293"
"5164","2,27868089975254","8,53648591134979","-32,6421787288369","-4,94609103937724","-1,35813383840921","-0,556502232251937"
"5164","1,20420277101312","7,17099535660758","-30,0393554817527","-0,713392111902365","2,1896682015819","1,40465536549608"
"5172","0,950378495255155","6,92562298594303","-29,3644182059734","-1,39172311485969","1,30557777609775","1,00710424677469"
"5176","0,890417513974279","6,88153069978518","-29,1894004337344","6,83520628169152","-0,657964551652699","-0,807829211418253"
"5184","-0,887516799690587","1,41269371712878","-22,1812553695628","4,40408200627972","-0,275568256370492","-0,365359433741548"
"5185","-0,307518731270773","3,42996887106372","-24,3639754819727","0,269462559338761","3,21563800555741","1,46337260742466"
"5197","-0,170505621631776","9,25337773731146","-30,1520468919321","0,978419083007304","2,31374620054136","1,02514162263488"
"5197","-0,138138975542604","7,29981751962829","-28,6529498648215","-2,17570363797603","3,71553377183552","0,890521250038921"
"5205","3,39704643432742","8,76907633654466","-31,7456001176532","-1,16058498309889","3,15644568140993","0,849167157455605"
"5205","2,23216429510987","8,03309538652968","-30,5475542798971","0,844135848165151","-3,76126548125424","2,52927312710734"
"5217","-3,33432528761427","2,43992919405417","-21,5334378153148","0,470114075250623","-1,93713099830869","2,04538563280729"
"5217","-1,64929871430174","4,43486296096874","-24,1959901161757","3,72882086509611","-3,04884053742175","0,203930464711608"
"5221","-1,25124440480569","4,79334338106874","-24,886415714063","2,74635880209288","-2,39851261742878","0,638253026438485"
"5225","-1,15721192139097","4,85776066334966","-25,0654497582258","-7,68690459640489","-2,19396142085273","4,15729187257001"
"5234","0,628771112970759","10,330249954303","-30,3339459653993","-4,94471267773729","-2,12962281453679","3,23830699265131"
"5238","0,0506743961438864","8,31363110336634","-28,7001180562268","-0,712961715628627","-0,423921508755788","-0,429615488190573"
"5246","1,67788015723784","4,31064477230906","-26,5357603408848","-1,39158872273278","-0,887417950516115","0,443633761264287"
"5246","1,06227543972109","5,59132654460099","-26,9745214239352","0,0842565214240876","0,652260511466416","-7,7521601698978"
"5254","-2,61068846662542","4,00115456666616","-25,3476061068767","-0,454907747743842","0,136543996856836","-5,26982978027915"
"5254","-1,47835378104863","4,71540797791451","-25,9257312088216","4,43998088710858","-3,39659620263212","3,95676616389938"
"5266","-2,97463174821851","8,48436523107149","-26,0756446467792","2,96841999026976","-2,50789410828596","1,79108830657828"
"5267","-2,32809792048492","7,16162951014593","-26,1145186531226","-0,866573806492007","-0,5429012471124","-2,25980634865511"
"5270","-2,1753670493875","6,92393998642202","-26,1245990594542","-0,0640585536660287","-0,924841298185724","-1,5042024930676"
"5275","-2,13928739201218","6,88122827251399","-26,1272130064427","6,93752021882231","-2,73043952298584","0,420721345812472"
"5287","-0,366994570325922","-4,04827442934361","-27,868581143417","5,12377767594566","-2,29836420538675","0,0120395624675112"
"5287","-0,94832533000986","-0,0122557830232173","-27,3201347661284","-0,505810978845349","1,20846787106832","-3,49912268146283"
"5295","-1,08565326168746","7,99421660201457","-28,9186076241113","0,736338316762774","0,311490938935232","-2,57771818458431"
"5295","-1,11809427827688","5,43294285534103","-28,3331071170687","-2,25129385807151","-1,65610465221309","-2,29467152429196"
"5307","-2,88952754280928","12,2539121486041","-28,18128116514","-1,18418818571067","-1,27498325203009","-2,20772229387897"
"5307","-2,30799372969297","9,47960895031796","-28,1419112254016","0,836765699317472","-4,52603611839705","-0,488202768941207"
"5315","1,35692159715941","3,52016562725402","-21,1689409579189","0,467812731024995","-3,54860755275057","-0,959982795531096"
"5316","0,222685593346039","5,44928107888215","-23,3607822357708","3,72810226560046","-1,55570706941518","2,28070999045619"
"5324","-0,0452553023372441","5,79593425052635","-23,929147906652","2,74613441791367","-1,92886918349503","1,27621985959042"
"5324","-0,108551056781813","5,85822623067174","-24,0765306296166","4,12726085702335","-3,73170643577608","-4,11077856949002"
"5336","-0,123503430963031","2,22881061180375","-27,5961290274623","3,55852044501776","-3,29876269439396","-2,76561303092027"
"5336","-0,127035634593702","3,57662132244123","-26,5087949786137","1,69318214359259","3,57927159642618","1,03322807743107"
"5344","-1,89163976197011","7,45942590757942","-29,7082193595489","2,11072639981478","1,74265733003203","0,200195779827589"
"5348","-1,30849269982963","6,15714802844929","-28,5378610872957","-1,13439040457517","-3,89141659394904","-1,7485133368523"
"5357","0,593034011399091","4,10283008421743","-19,5309242765967","-0,147684840497424","-2,66353267157446","-1,34713816365323"
"5357","0,0422322104153044","4,73367860065405","-22,195338331243","1,84816394438128","-2,27731962757517","2,16177955943218"
"5365","-0,0878838566142913","4,84703917680061","-28,1083176455316","1,47137185662775","-2,15584192708803","1,23968556718951"
"5365","-0,118621212354616","4,86740955081189","-26,641610447721","-2,02177811455379","-2,117632881731","-5,81481110702811"
"5373","-0,125882306695044","4,87107001330657","-26,2612790665697","-1,11252141995713","-2,10561478177323","-3,98188510161495"
"5373","-0,127597597088466","4,87172778157669","-26,1626554560056","10,9856313819245","-2,10183466308024","-3,41882774064833"
"5385","-1,89177251453102","3,05154137894769","-22,6557007682275","7,7633046239169","-2,10064568167859","-3,24586189761789"
"5385","-1,30852406000508","3,72446225627389","-23,7463134535483","0,00613470264027161","1,27065735942704","0,192890660979106"
"5397","-2,93451282462848","7,48599224323791","-27,510500515622","1,58394234608171","0,331051738751986","-0,750757399584906"
"5398","-2,31862061568731","6,16192187674707","-26,4865906761989","-1,29887981520538","0,0355124452510384","-2,73344662205735"
"5406","-3,9368979368659","5,92399252335519","-26,2210809384793","-0,199046999275267","-0,0574451447006779","-2,34250981278373"
"5406","-3,31918405143353","5,88123771315919","-26,1522316920811","3,51987393516262","1,59878092839501","2,85601089649366"
"5414","2,11804781815529","0,41264106877999","-27,8750687309039","2,6811146909354","1,11972277117462","1,4529468027177"
"5418","0,402486658288449","2,42995941039766","-27,3218170603947","0,731462450512935","2,65450652170426","-4,05648974063656"
"5422","-0,00278084532520526","2,7924622355902","-27,1783535441025","1,12267950484795","2,13725044673781","-2,74893602125707"
"5422","-0,0985173036500092","2,85760232556093","-27,1411520649132","1,24483783944451","-4,76730306337247","-0,654458456381102"
"5434","3,40640627321429","13,7911353034139","-25,390815045866","1,282982032153","-2,93903003202498","-1,01105495465762"
"5438","2,23437537252794","9,75584087914834","-25,9369357051713","-7,14384702036696","-5,73490238302228","2,26502111100786"
"5447","-1,57003325026104","1,74949863348197","-27,8192403964006","-4,77514182609945","-4,6143034010142","1,27140038568225"
"5447","-0,468749787655501","4,31079576560184","-27,307340232572","1,02773506473851","4,16548738478326","-4,11225906583956"
"5455","-3,73613270801375","-0,689864724843071","-27,174599562443","-0,1603046206517","1,92704298728862","-2,76606782525732"
"5455","-2,50798751008112","1,41153959086775","-27,1401786211123","2,84422339191932","-5,51888529711964","1,03308836895487"
"5467","-2,21786241860383","10,8906752815673","-25,3905626224608","1,78239347984721","-3,86089383369242","0,20015286271818"
"5467","-2,14932608523999","7,59403235584379","-25,9368702493376","-5,3001568314812","1,71699688338735","-0,0557169686945252"
"5471","-2,13313572760135","7,00164078849825","-26,0785331078643","-3,51169781912761","0,471441349744319","-0,134317736865599"
"5475","-2,12931107478435","6,89519074917981","-26,1152676590561","3,79774393207081","1,76513448936899","-5,23689179771388"
"5488","1,39913185184919","-0,405156235399927","-24,3841029687421","2,08013224122739","1,17204686630541","-3,80435381001173"
"5488","0,232656933887668","2,28300499716293","-24,9351951985679","3,23155236835388","0,985499773304366","0,0213272801415925"
"5496","-5,33420891141485","6,40666440472673","-30,3001696965913","2,59108568519716","0,926824096129751","-0,803460031424704"
"5496","-3,64927122271886","5,14766702911917","-28,6913595426086","-2,67214515503143","-4,14802508186852","-2,74963636714912"
"5504","0,276301517343154","12,2026493950609","-26,5334891734792","-1,31559987387649","-2,74424514237853","-2,34748314783336"
"5508","-0,796359311174184","9,47039726934367","-26,9739324882311","0,795732127812915","-0,617242030199406","2,85448313547114"
"5516","2,47778514222359","1,69820573000082","-23,6067630749402","0,454999913429234","-0,948224111174918","1,45247748912458"
"5517","1,25123722317535","4,30157866682242","-24,7336234357274","3,72410143679802","-1,05232971486714","-4,05663390928954"
"5524","0,961489457345893","4,76939280659318","-25,0258292406914","2,74488515084288","-1,0850746196311","-2,74898030849019"
"5525","0,893042259727796","4,85345685530248","-25,101601035872","7,50236663303946","-1,09537405357099","1,03833749088776"
"5537","-0,886896755250299","6,68886737867479","-26,8619397114013","5,98790006850519","-1,09861359084395","0,20176534283696"
"5537","-0,307372257995251","6,01868220580667","-26,3184125784859","-6,29923076736996","-2,78509707235783","-3,44084073397195"
"5545","1,59329869369418","9,53886221459211","-33,1402319897906","-3,13591279144941","-2,31555594325044","-2,55981452701751"
"5549","1,0422947363896","8,17142236736789","-30,9091958310666","7,97832737778211","-0,482404072386019","-0,596362139817252"
"5557","-2,61540851388985","0,644481315568053","-25,1085956023668","5,44877186463413","-0,90581279102908","-0,99320832113847"
"5557","-1,4794687991643","3,2919246367113","-26,6044437854391","2,97116499118957","0,646474681699499","-1,11511567741172"
"5565","-2,97489514926698","9,22857182347925","-26,9923317062932","3,1975271190896","0,134724148184153","-1,15256445281396"
"5566","-2,32816014378996","7,29536001103376","-27,0929148007858","-1,79503463152326","1,65922498684046","-2,85687791079501"
"5574","-2,17538174841665","6,94797074219623","-27,1189969713144","-0,353972367154422","1,138734571377","-2,38042672568261"
"5574","-2,13929086436804","6,88554648877166","-27,1257603307329","0,0960023062770885","-5,76683625353473","-3,9268750245063"
"5586","4,92431375110499","1,41341533593477","-25,3868238201272","0,236507828998881","-3,93888320377426","-3,40192917041042"
"5586","2,59295109030009","3,43009854264331","-25,935900741683","5,3436247625229","-3,36392713604556","0,144948285513703"
"5594","-6,77663594757052","9,25340103869775","-26,07828170514","3,93833259101879","-3,18308306028477","-0,765484839387876"
"5598","-3,99001617414515","7,29982170678021","-26,1152024678949","0,124031340844713","-1,44073665216393","-1,04516119900618"
"5606","3,72334666778569","8,7690770889566","-26,1247763792473","0,933007884153056","-1,89270690951509","-1,13107510524483"
"5607","1,54547657871132","8,03309552173464","-26,1272589871823","1,18561248347504","1,33606147841528","-2,85027658848553"
"5614","-0,732772009416783","4,26023381891091","-27,8685930666681","1,26448879222149","0,351623653917788","-2,3783988625242"
"5619","-0,270963325192245","5,58226792819401","-27,3201378579429","2,97686601393482","1,72744757435454","-2,23344253243011"
"5623","-0,161870127595423","5,81983137553358","-27,177918110644","2,51155934411475","1,16019299485921","-2,18891333243123"
"5623","-0,1360990103158","5,86252043409536","-27,1410391528003","0,678518442678823","-5,76008681826526","-3,86804393941316"
"5635","3,39752833589658","11,3311052632084","-25,3907857666616","1,10614762886705","-3,936760266994","-3,3838568230175"
"5639","2,23227813485542","9,31378479844174","-25,93692811279","1,23967572696703","0,00766966715203532","-1,542309613876"
"5647","0,193241032585745","5,31067239060703","-31,300619058032","1,28137015185213","-0,751667218078603","-1,97660390147277"
"5648","0,711558714552505","6,59133150748207","-29,6914760663822","2,98213725340496","-2,67597013267848","-2,1100149582939"
"5656","-0,929768665049105","1,360546257351","-24,0521387588128","2,51320529954486","-2,28123165022249","-2,15099756062244"
"5656","-0,317499901512583","3,42059821244923","-25,5898039791326","-2,6964634665764","6,27025026374878","-2,16358702459671"
"5668","-5,46417261804012","9,25169387306872","-24,2478451475297","-1,32319331696803","3,95999462843818","-2,16745438767651"
"5668","-3,67997258631728","7,29951493697059","-24,8998622258985","-4,26988273386765","-1,82305630511188","-2,16864240467402"
"5672","-3,25849050236765","6,94871736327209","-25,0689365689714","-3,18999260063613","-0,642030936142168","-2,16900735214785"
"5676","-3,15892366909112","6,88568065314412","-25,1127791835807","-1,16504674125163","-1,95602110130331","-0,476309908642034"
"5684","-1,37163325367818","1,41343944465527","-25,1241479981556","-1,53275320729243","-1,36931761266296","-0,95632942244641"
"5688","-1,94942112750528","3,43010287486947","-25,1270960418795","-1,64757031205357","2,18615050791458","0,589022719887369"
"5697","-0,322142408341132","3,79248801549577","-28,6092411285777","-1,68342219055784","1,30447133667432","0,0637401369881432"
"5697","-0,937729890952087","3,85760695809136","-27,5121950734209","-1,69461701379397","2,71261649818978","-1,79043120692413"
"5705","-1,08315029808751","9,33022233417521","-27,2277204066523","-1,69811262051018","2,15552809537889","-1,36001493294467"
"5709","-1,11750300246957","7,31362614015645","-27,1539533704803","-0,0114561998175229","0,294839501820467","-2,92060471674828"
"5717","0,638151562248195","5,13094848100411","-25,3941345483775","-0,4847942429695","0,709586944507693","-2,4000029917604"
"5717","0,0528903423604212","5,73873134719621","-25,9377964843212","4,43064876714285","-4,21635387099008","-3,93288866645518"
"5725","-0,0853660830556281","5,84794713210876","-26,078773289566","2,96550601650344","-2,76573697003304","-3,4037765037755"
"5725","-0,118026437986524","5,86757270620367","-26,1153299404975","2,50801216141435","-2,30946650440793","0,144380802349462"
"5738","-5,41705094468244","5,87109933157987","-29,606190064537","2,36515875866371","-2,16595326003279","-0,765659164795397"
"5738","-3,66884101993859","5,87173304993552","-28,5114039029663","2,32055248810853","-2,12081325456945","-1,04521475010624"
"5746","3,79921796635142","11,3327607278917","-26,4868249332864","2,30662408784273","-2,10661512183193","-1,13109155563125"
"5746","1,56339967727812","9,31408227782926","-26,9618319988155","-1,07322094619998","1,26877975877556","0,535337461880582"
"5758","1,03523168318759","3,49042124572336","-25,3443156160487","-0,128584550567611","0,330461166752622","0,0472485385238072"
"5758","0,91046240683587","5,44393615036193","-25,9248779526822","1,85412804942804","1,72079122155301","6,66855049097268"
"5766","-2,64655130281727","5,79497379146094","-24,334733073994","1,47323416076761","1,15809933581656","4,70255120485783"
"5766","-1,48682566910251","5,85805364059634","-24,9223931067224","-0,333448675111459","2,66657731241868","-4,36543275625905"
"5774","-1,21286335085509","5,86938879928327","-25,0747790445761","0,102410871578523","2,14104713854259","-2,15103081278466"
"5775","-1,14814515403548","5,87142567515123","-25,1142941940881","0,238508916772795","1,97574925942902","1,91483141630821"
"5787","-4,66039618368941","4,0514870918129","-26,8652311702574","0,281005812954989","1,92375721368611","1,1638254564418"
"5787","-3,49009624927192","4,72445250112552","-26,3192660856443","3,66977141895233","1,90740387125348","2,62593315097638"
"5795","-3,21363596094422","4,84538128916056","-22,6963114212347","2,72792049036837","1,90226016504039","2,07507866885454"
