Timer,AX,AY,AZ,GX,GY,GZ
"1002","-0.99999964000013","2.99999808000123","-29.99997000003","1.99999712000415","-0.999999000001","1.99999902000048"
"1008","0.735294187716244","-0.604938600920422","-29.9999929411819","1.99999919157978","-0.999999728997488","1.99999980157033"
"1012","0.209302347029524","0.670103023398974","-29.9999982417596","1.99999975366547","0.707516658930696","-3.36659370407728"
"1021","-1.65380517770279","0.932077321204523","-29.9999995605405","1.99999992438598","0.208245240998957","-1.50058669270656"
"1021","-1.18725617504544","0.986014383106258","-29.9999998901367","-3.07849486162041","-1.64418033029886","0.682566907526245"
"1029","-1.05363404068397","0.997120283491433","-29.9999999725342","-1.63848944096785","-1.18971550204913","0.144390269586215"
"1029","-1.01536194641704","0.999407050237795","-29.9999999931336","-1.19613773205736","0.649619233561041","-1.7579155321302"
"1041","-2.71797834524706","4.58806670148993","-26.4999999965372","-1.06025163416716","0.191318147392454","-1.16032955234472"
"1041","-2.20564454576335","3.32699183250857","-27.6249999992161","0.674300827239078","3.46732846867188","4.33146346647461"
"1049","-2.058901051202","3.06732945060054","-27.9062499998053","0.207138773173353","2.43214018171852","2.49319809156753"
"1049","-2.01687053658688","3.01386351115682","-27.9765624999513","3.44925015634897","-1.28371491266191","-6.83796814562061"
"1061","-2.00483208701584","1.20876017809518","-31.4941406249879","2.44519580495912","-0.378064494498837","-3.81188429162073"
"1061","-2.00138401436187","1.83707928698571","-30.373535156247","0.44395034694078","-6.93331050181723","2.19363349032115"
"1070","-2.00039641168455","0.172359315734254","-28.3433837890617","0.829186857901912","-4.86388382743033","0.464041520093678"
"1070","-2.00011354089089","0.829584145454659","-28.8358459472654","-0.745281717549086","2.5675466083751","0.0981634048353841"
"1078","-2.00003252056992","0.964910420629958","-28.9589614868164","-0.228943424786682","0.756163382558629","0.0207654997055656"
"1078","-2.00000931459547","0.992774858984503","-28.9897403717041","-0.0703292332534681","1.92818813071019","-1.78406713052452"
"1090","-0.286424323251191","0.998512302979089","-28.997435092926","-0.0216044686787985","1.27335896231803","-1.16586166499985"
"1090","-0.795616473448582","0.999693674847137","-28.9993587732315","-1.6994462382986","1.08050644024333","0.753373468433749"
"1098","-0.941460131999007","0.999936925934543","-27.2498396933079","-1.2148632033761","1.02370980217986","0.159368723641734"
"1102","-0.983232914103224","0.999987012696489","-27.812459923327","-1.06600392372878","1.00698272980036","1.82217274807266"
"1111","0.718380801148601","4.58818611891284","-36.7031149808317","-1.02027577490767","1.00205647078348","1.17392253240052"
"1111","0.205759818236166","3.32701642122837","-33.9257787452079","5.76500968315559","2.70609750483462","-4.32858800565673"
"1119","-3.36822262155774","-0.520854279515648","-24.481444686302","3.84938456361407","2.2079514646123","-2.49258981620428"
"1119","-2.39188858815298","0.686847581795074","-27.1203611715755","1.56811327283571","-3.05523217274708","-3.89266238228105"
"1127","-2.11224537813129","0.935520162353211","-27.7800902928939","1.86732852274698","-1.60528260971717","-3.18883391898958"
"1127","-2.03214950700968","0.986723240118058","-27.9450225732235","5.3448636932181","-1.17826065710928","2.32543364895584"
"1139","-0.295629970365715","0.997266240744458","-29.7362556433059","4.41312928057482","-1.05249921501607","0.491922543168538"
"1140","-0.798253170133686","0.999437103650762","-29.1840639108265","0.741290265061994","-1.01546144630003","1.89252122725438"
"1151","-0.942215339028209","-0.794210300048182","-30.7960159777066","1.61333639247623","-1.00455352183105","1.18880405903648"
"1152","-0.983449221750659","-0.16353235110898","-30.1990039944267","1.88122063313456","-2.7068329067005","1.03993963574212"
"1160","-0.995259498696504","3.55451656563038","-31.7997509986067","1.96351211306565","-2.20816804644986","1.00844883585318"
"1160","-0.998642217769467","2.32008367154137","-31.1999377496517","1.98879126966183","3.05516838763239","1.0017872678593"
"1168","0.713967242884735","2.06590702154779","-29.2999844374129","1.9965567851046","1.60526382448152","1.0003780788805"
"1168","0.204495679572249","2.01357062504433","-29.8249961093532","0.306132725389479","1.17825512470442","-0.788379888235505"
"1176","-3.36858469824645","0.208699871203436","-26.4562490273383","0.786850600979258","1.0524975856778","-0.166773986339226"
"1176","-2.39199229475752","0.837066869458769","-27.6140622568346","4.32014164436682","1.01546096644664","-0.0352793912357742"
"1188","-0.398696737297973","2.76054555196729","-29.6535155642086","3.40553490330984","1.00455338051032","-0.00746300711092422"
"1192","-0.827773724129928","2.15660059083991","-29.1633788910522","1.43176689679065","2.7068328650804","3.57534100866813"
"1197","-0.950670664970642","2.03224493915976","-29.040844722763","1.82544421839069","2.2081680341924","2.33324784634887"
"1201","-0.985871010203609","2.00663941365636","-29.0102111806908","1.94637813122617","3.7667990385335","3.85895516080003"
"1209","-0.995953151354104","2.00136709247556","-30.7525527951727","1.98352787410254","3.22582856055226","3.18170348887754"
"1209","-0.998840894911894","2.00028149200117","-30.1881381987932","0.30213036838029","-2.04996722242751","-7.69232162236584"
"1217","-2.7132463518526","0.205963564244667","-30.0470345496983","0.785621115136085","-0.603732038977904","-3.99261433964172"
"1217","-2.2042892007695","0.83650344852316","-30.0117586374246","0.934144854292012","1.527687856043","2.15540183194235"
"1225","1.36864383824693","0.96633514390383","-21.2529396593561","0.979769928279209","1.15540837033261","0.455953989998938"
"1225","0.392009233734358","0.993068217489979","-24.063234914839","-2.39183358856502","-0.659722826959635","1.88491243473638"
"1238","-1.60129841101224","4.5867615002106","-31.7658087287098","-1.42755798377441","-0.194293744369707","1.18719449405596"
"1238","-1.17222488624105","3.32672308425477","-29.6914521821774","3.94708692702023","-5.17369666209644","1.03959914815222"
"1246","-2.76290728166018","-0.520914679242214","-29.1728630455444","2.59812650563245","-3.6401713664343","1.00837680906316"
"1250","-2.21851316649117","0.686835145152926","-29.0432157613861","3.87654830117923","0.222448034841774","-0.786687835789571"
"1258","-0.349008558211365","0.935517601578905","-30.7608039403465","3.2692672654347","-0.639979099887459","-0.166416049339926"
"1258","-0.813541953624647","0.986722712840279","-30.1902009850866","-0.302902771835791","0.811520944017454","7.11863579517317"
"1266","0.766983966946694","2.79136052871071","-30.0475502462717","0.599760713667982","0.23899952586791","4.65971663060216"
"1267","0.219680817439274","2.162945567222","-30.0118875615679","0.877050314277977","0.070387306435134","-3.01428292464943"
"1274","0.0629213433794526","2.03355140535068","-30.002971890392","0.962231030947311","0.0207296348777346","-0.637641810502247"
"1275","0.0180220353275469","2.00690842236581","-30.000742972598","4.37401683723951","0.00610504626370666","1.65357303375088"
"1287","-3.42199478811004","0.207328086340513","-28.2501857431495","3.42208484795075","0.00179798583534298","1.13825692642466"
"1287","-2.40729010110861","0.836784411268745","-28.8125464357874","1.43685088170119","1.70602137891266","-0.759212978500831"
"1295","-2.11665670496693","2.76048739224322","-25.4531366089468","1.82700596999357","1.20792904490843","-0.160604014377441"
"1299","-2.03341300654423","2.15658861542683","-26.6132841522367","1.9468578864009","1.06123679679943","-3.61089392873121"
"1307","-0.295991863993934","2.0322424733551","-32.1533210380592","1.98367525030965","1.01803473528148","-2.34076871578427"
"1308","-0.798356824305741","2.00663890593336","-30.5383302595148","-1.39063391094045","6.1217869487211","1.50483347475642"
"1315","-2.65582337247841","0.207272591396847","-28.3845825648787","-0.427189454267319","4.62488353316751","0.318332673254177"
"1316","-2.18784201596205","0.836772984548881","-28.8461456412197","4.94720013576466","-2.63793414110879","1.85580000310124"
"1324","1.37335466814532","2.76048503941757","-32.4615364103049","3.59816128227738","-0.77689308408313","1.18103604639859"
"1324","0.393358517431922","2.15658813096684","-31.3653841025762","-0.201869671419165","-0.228801339157961","-2.538623344868"
"1336","0.112666397708613","0.238147977066369","-25.8413460256441","0.63079711705953","-0.0673838574097473","-1.32548058686852"
"1336","0.0322700961339477","0.843130399467356","-27.460336506411","-0.806225150940104","3.3911386202039","0.719607660487039"
"1344","-5.13149217959902","2.76179406677283","-24.3650841266028","-0.247664665399806","2.40970165107423","0.152225900140946"
"1348","-3.61050551844492","2.15685766703438","-25.5912710316507","3.30953888422098","-4.7013069575158","1.82066175423997"
"1356","-1.46128365654224","2.03229787258871","-32.8978177579127","2.40227783666937","-2.7955568945317","1.17360289656432"
"1357","-1.84569997314309","2.00665031294599","-30.7244544394782","0.430766357029818","-0.528806125862235","-0.751735887279728"
"1365","1.47135155841413","-1.58681945637104","-30.1811136098695","0.825136862133198","-0.861229567343899","-0.159022309506765"
"1365","0.421426948961803","-0.326735017752964","-30.0452784024674","0.9462837143197","0.7463608798072","-1.82209946758051"
"1373","-1.5928725403202","1.72681782553236","-24.7613196006168","0.983498870130733","0.219809356388516","-1.17390703063547"
"1377","-1.16981153440968","1.14965586297485","-26.4403299001542","-0.697878541362807","0.0647356452664218","0.751671550717897"
"1385","0.664940643867631","6.41309817038492","-25.1100824750386","-0.21438162185189","0.019065174644581","0.159008699741924"
"1385","0.190453399925621","4.49687043499169","-25.7775206187596","10.0910013248185","-1.69987700827187","1.82209658856905"
"1393","-3.37260671122772","4.10230840676053","-31.1943801546899","7.25671653021479","-1.20611947772383","1.173906421609"
"1397","-2.39314428637345","4.0210658742335","-29.5485950386725","6.38605131407166","2.35027985035884","2.82524805463283"
"1406","1.31455165200711","-1.37794560806056","-30.8871487596681","6.1185912761655","1.39766841066004","2.17457308315899"
"1406","0.376516060210082","0.510367674567019","-30.221787189917","-7.50604630780281","-0.58837527246725","-3.32845038806282"
"1414","-1.60573599141968","-0.894912435979609","-24.8054467974793","-3.69140483264225","-0.173281308620238","-1.49256070456018"
"1414","-1.1734959053671","-0.184267485178084","-26.4513616993698","-0.826773856601359","1.65445910110253","2.47272337727642"
"1426","-2.76327132906224","3.55024708533697","-30.3628404248425","-0.946786583383938","1.1927435342446","1.31154009896557"
"1426","-2.2186174375507","2.31920456162507","-29.3407101062106","-4.36927245047161","-2.35421917462784","-4.2994763673351"
"1434","1.36453992094982","0.271631611354262","-25.5851775265527","-3.42062741765348","-1.39882857373343","-2.48643153636456"
"1434","0.390833782948703","0.850024867391583","-26.6462943816382","0.256406378848775","3.99901730988335","-2.10289979185314"
"1442","0.111943259078611","-0.824975116720079","-26.9115735954095","-0.614043961465448","2.58872687487113","-2.0217674356448"
"1446","0.0320629735704957","-0.169866999251275","-26.9778933988524","4.1969906640821","-1.23759885649678","1.57231504795491"
"1455","-3.41797315933584","3.55321222608191","-33.9944733497131","2.67489454660639","-0.364482940456355","0.332607734217416"
"1455","-2.4061382195379","2.31981510071952","-31.7486183374283","-4.56391704933221","1.59814866365679","1.85881975139467"
"1463","1.31082990816065","3.85994611784635","-25.9371545843571","-2.78761082731701","1.17615965190594","1.18167484435393"
"1467","0.375450072176793","3.17706772434193","-27.4842886460893","1.14367258078304","-2.35910326301177","-0.75002834637149"
"1475","-1.60604131347676","-2.34582395297244","-29.6210721615223","0.351325292588902","-1.40026697753146","-0.158661096076091"
"1475","-1.1735833562161","-0.483018296657789","-29.1552680403806","-1.58488577781892","-1.11788188407931","-1.82202305644338"
"1483","-1.04971803222851","1.69463822267809","-23.7888170100951","-1.17967132418496","-1.03471717472121","-1.17389086661336"
"1487","-1.0142403210916","1.1430299024299","-25.4472042525238","-2.74800286647385","0.695267366802017","0.751674970057282"
"1496","-2.71765708099042","2.82354505490897","-32.8618010631309","-2.22977933574427","0.204761900776696","0.159009423069432"
"1496","-2.20555252911045","2.16957254151107","-30.7154502657827","6.39346174230411","-1.64518781037996","-3.54328285969456"
"1504","1.36828199365227","-1.5532728565806","-30.1788625664457","4.04243903328343","-1.19001306363481","-2.32646626125422"
"1504","0.391905593606574","-0.319827584878938","-30.0447156416114","3.32022731376811","5.76600703534334","6.87323861916503"
"1516","-1.6013280957892","3.52233450120238","-28.2611789104029","3.09837077201546","3.81461159427593","3.81934541228204"
"1516","-1.17223338860401","2.31345720414459","-28.8152947276007","-5.43382919788226","1.53441789009087","3.17332443741159"
"1524","-2.76290971692105","3.85863699131533","-30.7038236819002","-3.05483953005179","1.86288227760334","3.03666507452623"
"1525","-2.21851386400262","3.17679816785355","-30.175955920475","1.06158247584044","-1.45136600062246","-2.35762346653805"
"1533","-0.349008757993749","-0.551785059628142","-26.5439889801188","0.326107996465684","-0.42743910501232","-0.498731981458159"
"1537","-0.813542010846648","0.68047876085039","-27.6359972450297","1.7929868134524","1.57960756057096","-0.105501829643062"
"1545","-0.946594394093588","-0.859885610102465","-26.1589993112574","1.24359797457465","1.17069914607519","-0.0223178710647161"
"1545","-0.984703477951351","-0.177055265458412","-26.7897498278144","-4.00359768468176","1.05027228844651","-0.00472112541125062"
"1553","-2.7091970894844","3.55173212179066","-37.4474374569536","-2.61548607060188","1.01480559829242","-0.000998707496970652"
"1557","-2.20312940433905","2.31951033895224","-34.1118593642384","-3.88188099372129","1.00436036925253","-0.000211266716645252"
"1565","1.36897602906041","7.44807215876216","-29.7779648410596","-3.27090541764636","1.00128416424942","-4.46913893181447E-05"
"1566","0.392104380377045","5.50407177517406","-30.6944912102649","-3.08321955664388","1.00037819682783","-1.78846932111457"
"1574","-3.314849503604","-3.86668077962199","-29.1736228025662","-3.02556425289746","1.00011138204529","-1.16679290498235"
"1577","-2.37660137135751","-0.796171239331858","-29.7934057006416","2.07057556134821","-0.705459054524682","-1.03528339328806"
"1586","1.31928990111027","1.63015827704016","-21.1983514251604","0.636061034548916","-0.207763435797409","-1.0074638537056"
"1586","0.377873197361669","1.12975312031198","-24.0495878562901","0.195391874232307","1.6443038338762","-2.79003877169702"
"1594","-1.60534727795019","2.82081129107492","-28.2623969640725","0.060022517403678","1.18975272535662","-2.16712490676715"
"1594","-1.17338456941171","2.16900964421909","-27.3155992410181","-6.75279986351708","-0.649608134754228","1.54156610919453"
"1606","0.663917249267728","0.240705636248512","-34.0788998102545","-4.8456338236479","-0.191314885155766","0.326103099625271"
"1606","0.190160277550242","0.843657035824712","-31.7697249525636","5.89708667807449","-0.056343791470548","0.0689838930363963"
"1614","-3.37269066782369","2.76190250414979","-29.4424312381409","3.1971478029852","-0.0165937053705563","0.0145928619014212"
"1615","-2.39316833336065","2.15687999489792","-29.8606078095352","-1.01786673370739","1.70060487609715","0.00308697594613274"
"1623","-2.1126119248721","2.03230247002093","-28.2151519523838","-0.312678938050102","1.20633384072508","0.000653019301928301"
"1627","-2.03225449393394","2.00665125958305","-28.803787988096","3.28956712067159","-0.644724861265555","0.000138139789921313"
"1635","-0.295660040894353","2.00136953161824","-28.950946997024","2.39614270167497","-0.189876721351023","2.92221095198191E-05"
"1635","-0.798261782984275","2.00028199423432","-28.987736749256","-1.26392784972221","-1.76141209796368","-3.57691355253534"
"1643","0.77136053871553","2.00005806419299","-27.246934187314","-0.388266562542655","-1.22424206269098","-2.33358050248754"
"1647","0.220934362370059","2.0000119557427","-27.8117335468285","-1.81208133121984","2.34494260152185","-2.07056566383169"
"1655","-3.36387630350774","0.20590806521871","-29.7029333867071","-1.24946362804419","1.3960965474187","-2.01492746990569"
"1656","-2.39064370854242","0.836492020962728","-29.1757333466768","-2.76944239557142","-2.29433005643476","3.36222184230858"
"1664","1.3152678716488","6.34861598051222","-32.5439333366692","-2.23636535429515","-1.38119074077507","1.49970472247982"
"1664","0.37672120102545","4.48359319077326","-31.3859833341673","-5.45822828287275","0.593228080418725","-0.682752263684068"
"1676","-1.60567723464776","-1.28270864182972","-25.8464958335418","-4.44795379967133","0.174710500076208","-0.144429504602873"
"1676","-1.17347907615522","0.529977499570889","-27.4616239583855","0.940821527195162","1.75694552230644","-1.81901250369164"
"1684","0.66389018048981","0.903219733407347","-29.6154059895964","-0.403798165347437","1.22292661979058","-1.17325401388413"
"1684","0.190152524466062","0.980072400803804","-29.1538514973991","-2.50966204312925","-2.34533001016708","4.32872942415254"
"1696","-1.65911454382424","-0.798197600873792","-29.0384628743498","-2.15656331141667","-1.39621064241921","2.49261973189168"
"1696","-1.18878467870696","-0.164353358691671","-29.0096157185874","1.33752434997505","0.588804597084132","-3.261170757719"
"1705","0.659506324470821","3.55434751556862","-34.2524039296469","0.410874704435106","0.173407748215709","-1.47832836261525"
"1705","0.18889689316829","2.32004886318638","-32.5631009824117","-3.25940231919268","1.75656185127579","-2.88964551249337"
"1713","0.0541041608316088","0.271805457776749","-25.1407752456029","-2.38687636279132","1.222813625548","-2.18819572995373"
"1717","0.0154966033066762","0.850060663344115","-27.2851938114007","1.26677438051627","-4.05085514533554","1.53710878445717"
"1725","-3.42271812652993","4.55731544347424","-27.8212984528502","0.38914098961286","-2.60399353950428","0.325160196557915"
"1725","-2.40749728089621","3.32065997617283","-27.9553246132125","-3.26607870878815","-5.58886473032316","1.85724429828834"
"1733","-0.403137701093985","-2.3162575037064","-27.9888311533031","-2.38892728590296","-4.46793360050029","1.18134157279443"
"1737","-0.829045712331728","-0.476930399079369","-27.9972077883258","-0.426665195357285","-0.726826540634997","-4.32701858086575"
"1746","0.762543354713675","1.6958917549028","-29.7493019470814","-0.823877024441216","-1.62504004933076","-2.49225781987541"
"1746","0.218408929932728","1.14328801173909","-29.1873254867704","-2.63870625609839","1.52141247349241","3.26124731663503"
"1754","0.0625570472544097","1.02950380452634","-29.0468313716926","-2.19620446102546","0.448068361629851","1.47834455789853"
"1754","0.0179176930283748","1.00607499867549","-29.0117078429231","1.32534696746289","0.131959780921739","-6.05265039701494"
"1766","-3.4220246740041","1.00125087626832","-30.7529269607308","0.407133928844313","0.0388632299713641","-3.64575807070578"
"1766","-2.40729866107586","1.00025756243289","-30.1882317401827","0.125067654044976","0.0114455376725949","0.440315986080844"
"1774","-3.83023750137758","6.38233622315529","-28.2970579350457","0.0384195886909124","0.00337080404051119","-0.695315364875137"
"1774","-3.23779799947766","4.49053637768364","-28.8242644837614","-1.68100742121744","1.70648458668084","0.852912895301433"
"1786","2.07262453730283","0.51281539579673","-23.7060661209404","-1.20919897489421","1.20806546336785","0.180425307230897"
"1786","0.593644550891933","1.69378035660872","-25.4265165302351","2.32135517692449","2.76676883059048","1.8266270605637"
"1795","0.170032654955582","0.142853262999192","-29.3566291325588","1.40590768892004","2.22581966406707","1.17486479825688"
"1795","0.0487010344958206","0.823508683860397","-28.3391572831397","-2.26092813891455","-3.04996984251483","-2.5399288115201"
"1803","-3.41320765838381","0.963659449044067","-33.3347893207849","-1.38734508003543","-1.60373281061496","-1.32575674545761"
"1807","-2.40477327686665","0.992517276925194","-31.5836973301962","-1.11898870871167","2.23317948623355","-1.06891062522974"
"1815","1.3112208573","2.79255366192543","-27.6459243325491","-1.0365521947499","1.36318139992886","-1.01457736281986"
"1815","0.375562048476445","2.16319124003659","-28.6614810831373","-4.39684758885254","-4.0095156928279","-1.00308369726836"
"1823","-3.31958758569031","0.239507594224117","-27.1653702707843","-3.42909823676958","-2.59181873413197","-1.00065232573"
"1827","-2.37795846067186","0.843410352258703","-27.7913425676961","-3.1318148796391","6.35316385110069","-2.78859786016376"
"1836","-0.394677143308259","0.967757314085567","-29.697835641924","-3.04049227194471","3.98753405747374","-2.1668200961499"
"1836","-0.826622425365561","0.993361050299479","-29.174458910481","0.373180264603751","4.99632867842138","1.54163058887302"
"1844","0.763237436577911","2.79272739959125","-30.7936147276203","-0.578172139172112","4.2934269084572","0.326116739665028"
"1844","0.218607730009231","2.16322701359552","-30.1984036819051","2.51520059336329","-1.03005895854617","0.0689867784522193"
"1856","-3.36454270139992","2.03360935673606","-26.5496009204763","1.46545514926113","0.402131106839306","0.0145934722826679"
"1856","-2.39083457932982","2.00692035488078","-27.6374002301191","-3.93544527977203","0.823922742783204","-3.57383262911801"
"1864","-2.11194348717941","0.20733054331221","-29.6593500575298","-2.59455030279747","0.948143814030718","-2.33292876353836"
"1865","-2.0320630389035","0.836784917172985","-29.1648375143824","2.89578848170758","-2.42625578389776","5.08341167348079"
"1876","-0.29560520402761","2.76048749641173","-30.7912093785956","1.5823681132292","-1.42004394172555","2.65226531521779"
"1877","-0.798246076518129","2.15658863687571","-30.1978023446489","-0.513911630212407","2.2872773538184","-1.43893944271191"
"1885","-2.65579165191376","0.23814808123584","-31.7994505861622","-0.157868743977053","1.37911366242752","-0.304393440957646"
"1885","-2.18783293050542","0.843130420916434","-31.1998626465406","-1.74130532208969","2.8171439179831","-0.0643914289564625"
"1893","-0.340221074233817","0.967699674653608","-24.0499656616351","-1.22772191408362","2.24065553748617","-0.0136213714395774"
"1897","-0.811025027917442","0.993349182017458","-26.2624914154088","0.622855555050627","0.365383157896927","-1.79134133381685"
"1905","-0.945873475676519","2.79272495584548","-28.5656228538522","0.191335277067639","0.81310017259744","-1.1674004509311"
"1905","-0.984496991304962","2.16322651041457","-28.1414057134631","0.0587763695028369","4.35594019387553","0.753047953453334"
"1914","-0.995559602586672","0.239514856592578","-24.5353514283658","0.0180555392862172","3.39933542791537","0.159299864159513"
"1917","-0.998728174022466","0.843411847621063","-25.6338378570914","1.69835604108816","-1.99886803719968","0.0336983144365082"
"1926","-2.71321406614886","0.967757621989056","-32.9084594642729","1.2145283052065","-0.588682912850329","0.00712854591466994"
"1926","-2.20427995344479","0.993361113698533","-30.7271148660682","-2.31971805755771","-1.87886376866199","1.78996784064236"
"1934","1.36864648688098","0.998633016109765","-26.6817787165171","-1.40540478148813","-1.25883253606845","1.16710990200242"
"1934","0.392009992360507","0.999718530357155","-27.6704446791293","2.26108262727392","0.629263568013363","2.82381031797195"
"1946","-3.31487653837595","6.38222523343045","-33.1676111697823","1.38739253738377","0.185323244593806","2.17426894415466"
"1947","-2.37660911470165","4.49051352427737","-31.5419027924456","-2.26661581661191","1.76007106198174","-1.54005485857608"
"1955","-2.10786900605249","2.30690508668803","-29.3854756981114","-1.38909228029602","1.22384711667484","-0.325783409468587"
"1955","-2.03089601927444","2.85728787361646","-29.8463689245278","0.573284119941172","1.06592479854843","-1.8573761328303"
"1967","-2.00884928898429","4.76470917003103","-31.711592231132","0.176107405702605","1.01941538996888","-1.18136946109095"
"1967","-2.00253462799955","4.15745790312992","-31.177898057783","1.7469080647582","1.00571799043674","6.11547254846394"
"1975","-0.287147627696663","2.23832706802848","-27.5444745144457","1.22944302311464","1.00168399474268","3.65904747697286"
"1975","-0.795823643505175","2.84316727529999","-28.6361186286114","-0.622326846796132","-0.704995907280213","-2.22596461040497"
"1983","-2.65509781464022","-0.620481529893715","-27.1590296571529","-0.191172862942018","-0.207627035162711","-0.470880849533271"
"1987","-2.18763420048499","0.66633377268449","-27.7897574142882","-1.75153602931865","-0.0611478524701889","1.6888496695981"
"1995","-0.340164153652397","0.931296254108945","-26.1974393535721","-1.23086468962183","-0.0180085404522865","1.14571935066032"
"1996","-0.811008724630288","0.985853513742045","-26.799359838393","2.31469967630856","-5.12177923413061","-0.757634376286204"
"2004","-2.65944715071269","8.17346474535297","-35.6998399595983","1.40386318270339","-3.6248812611578","-0.16027007665515"
"2004","-2.18887994452253","5.65343417346457","-32.9249599898996","-2.26155619169542","1.9324429527902","1.75455631377535"
"2016","-2.05409930637243","-2.0418318283314","-26.9812399974749","-1.38753801185063","0.569120184621763","1.15961894290251"
"2016","-2.01549521288444","0.373669781750521","-28.4953099993687","2.26657112824525","-3.2433731864238","-4.3316137888802"
"2024","1.42271852477697","6.25331828805053","-28.8738274998422","1.38907855245664","-2.36618352763767","-2.49322989078953"
"2024","0.407497394962788","4.46397086189818","-28.9684568749605","-0.573288337002303","4.71412339921662","1.47258181753252"
"2036","-1.59686226623488","0.507345407237584","-27.2421142187401","-0.176108701143503","2.79933144097119","0.311510153398534"
"2036","-1.17095427831055","1.6926540553135","-27.810528554685","3.33152019294626","2.23540961796707","-1.72256296784006"
"2045","-1.04896500738276","0.142621351251318","-29.7026321386713","2.40903028474687","2.06933004932731","-1.15285106625119"
"2045","-1.01402463846876","0.823460931932","-29.1756580346678","3.81845974834831","-1.3905654508372","2.54458559931439"
"2053","-1.0040169601659","0.963649616654434","-30.793914508667","3.25142301686016","-0.409532848028676","1.32674184296654"
"2057","-1.00115054438019","0.992515252381073","-30.1984786271667","-2.00119390643555","-1.82610261583257","-2.50780072129657"
"2065","2.4268271484754","2.79255324506045","-30.0496196567917","-0.614747652885256","-1.24329394694954","-1.31896036498165"
"2065","1.4086741937637","2.16319115420176","-30.0124049141979","1.50396494491567","0.633839809032715","2.50944681618371"
"2073","-2.31010355022497","5.62179076615736","-28.2531012285495","1.15481321726348","0.186670984836304","1.31930858011286"
"2077","-1.37524202753448","4.33393580639845","-28.8132753071374","-4.03087151406606","1.7604679824572","-0.720913287616441"
"2086","0.606100901967594","0.4805704606634","-30.7033188267843","-2.62386433047229","1.22396401298681","-0.152502092677427"
"2086","0.173600423650285","1.68714094378142","-30.1758297066961","1.19397394052622","-4.05051634686771","-0.0322603129537104"
"2094","0.0497229207112611","0.141486170694339","-26.543957426674","0.366777389829262","-2.60389376059682","-0.0068243508898772"
"2094","0.0142417212589233","0.823227191894375","-27.6359893566685","-4.96575814491101","2.9386239425973","-1.78990349118639"
"2106","0.00407913737800466","2.75769588480664","-36.6589973391671","-3.6038621254232","1.57094053644901","-1.16709628950995"
"2106","0.00116835328020545","2.15601382840352","-33.9147493347918","0.200118426858563","2.8736384943435","2.54157216289292"
"2114","-1.71324370297011","0.238029724950498","-26.2286873336979","-0.631335082660862","2.25729365023457","1.32610438022543"
"2114","-1.20428844207219","0.843106050694077","-28.3071718334245","4.19167899681365","-3.04070049730981","-0.719475703157411"
"2126","-1.05851263374705","0.967694656688267","-27.0767929583561","2.67326285315795","-1.60100291297591","-0.152197985869898"
"2127","-1.01675928541668","0.993348148790276","-27.769198239589","-2.87160873808998","0.528491605872643","-1.82065584925136"
"2135","0.708778122379144","-0.795464049973197","-31.4422995598973","-1.57494032695197","0.155645081202015","-1.17360164742225"
"2135","0.20300940308723","-0.163790505243884","-30.3605748899743","0.516193375207418","1.75133060120674","0.751736151523409"
"2143","-3.3690104000176","3.55446341024745","-28.3401437224936","0.158569674244558","1.22127297980692","0.159022365404908"
"2147","-2.3921142249635","2.32007272655017","-28.8350359306234","-1.64409846259503","-2.34581702060713","0.0336396123130773"
"2155","4.74200337320258","0.27181037137707","-25.4587589826559","-1.19786089535549","-1.39635407095932","0.00711612805967739"
"2155","2.78536914512615","0.850061675081954","-26.614689745664","4.01764767854262","0.588762356211197","0.00150534667553354"
"2163","-4.62936664799532","-2.61906193434608","-30.403672436416","2.61980209451203","0.173395307934681","0.000318441235814776"
"2167","-2.75310754783916","-1.3333739246376","-29.350918109104","0.497587731272637","3.46205004495568","6.73631013476023E-05"
"2176","-2.21570631050817","2.51954523393964","-30.837729527276","0.845663750030587","2.43058564306388","1.42499994121577E-05"
"2176","-2.06178295852505","1.31288287838564","-30.209432381819","-2.43302972555636","-8.10614016671367","-3.5769167197375"
"2184","-2.01769597725312","2.85851873442334","-26.5523580954548","-1.44021304355743","-5.20929171357362","-2.3335811724779"
"2184","-2.00506851109786","2.17677381809684","-27.6380895238637","3.94319941353455","-0.94516254148508","5.08327366280701"
"2196","-2.00145173133881","0.242304323156213","-31.4095223809659","2.59693229862273","-1.68934177939423","2.65223612042151"
"2196","-2.00041580729318","0.843986214417192","-30.3523805952415","-2.89505675534261","3.20796694785223","-1.438945618583"
"2204","-0.286540751562558","0.967875887330823","-28.3380951488104","-1.58214333387924","1.6502642446371","-0.304394747402236"
"2205","-0.795649821038253","0.993385465195098","-28.8345237872026","3.89959978404934","1.19150811485868","-3.6413114395062"
"2217","-0.941469683470843","6.38092121982647","-30.7086309468007","2.58353890890347","1.05640069919144","-2.34720324005634"
"2217","-0.983235649851598","4.49024502056932","-30.1771577367002","-4.59198062861611","-2.39437324973017","3.29193218172885"
"2225","-2.7087766717303","-1.28133899280142","-26.544289434175","-2.79623169081298","-1.41065427580787","1.48483563833873"
"2225","-2.20300898758999","0.530259517980595","-27.6360723585438","1.14102433386257","0.584550829443078","1.10256219537264"
"2233","-2.05814617027632","-0.890816593957519","-29.6590180896359","0.35051177643068","0.172154979008878","1.02169602044045"
"2237","-2.01665432234277","-0.183424128354831","-29.164754522409","-3.27794523409596","-1.65479081434427","1.00458957904755"
"2245","-0.291191813923475","1.75632634069689","-29.0411886306022","-2.39257256912984","-1.19284122649529","1.00097088016171"
"2245","-0.7969819860188","1.15573183159714","-29.0102971576506","1.26502456033858","-1.05679331142336","2.78866524721058"
"2253","0.771727100280892","2.82616045329931","-30.7525742894126","0.388603461568352","-1.0167260926569","2.16683435121474"
"2257","0.221039353540398","2.17011106669493","-30.1881435723532","3.50499437526636","0.700565886963349","-3.33008744044684"
"2266","0.0633104575383883","0.24093242530807","-26.5470358930883","2.46231989655037","0.206322358107705","-1.49290700683907"
"2266","0.0181334860490692","0.843703732962879","-27.6367589732721","-6.3220275032249","1.76625547189804","-1.10426961373795"
"2274","-1.70838452155923","0.967817722816505","-29.659189743318","-4.02049511736985","1.2256684757521","-1.02205720794838"
"2274","-1.20289666728884","0.993373488795677","-29.1647974358295","0.0721327513624954","-0.639030653816749","-2.79312585179311"
"2286","0.655464345340927","2.79272996074732","-30.7911993589574","-0.670651059668948","-0.188199730891947","-2.16777794810098"
"2286","0.187739182815019","2.1632275409519","-30.1977998397393","4.17960150421841","-1.76091821061849","-2.03549176944029"
"2294","-1.65980577713485","2.03360946532169","-23.0494499599348","2.6695527627955","-1.22409660884632","-2.00750793362453"
"2295","-1.18898266289602","2.00692037723918","-25.2623624899837","2.20568021324056","-1.06599827602444","-0.213128362184662"
"2307","-1.054128727139","0.207330547915928","-34.5655906224959","2.06318299687399","-1.01943702968386","-0.833545069155115"
"2307","-1.01550363962911","0.836784918120917","-31.891397655624","2.01940921312304","-4.41670807839691","6.18905136656264"
"2315","0.709137766524154","0.966393100071213","-31.222849413906","2.00596232487685","-3.41723206471282","3.67461234993267"
"2315","0.203112412958581","0.993080150989599","-31.0557123534765","0.309022017366889","1.99359733193846","-5.79959174929464"
"2327","0.058175793541595","0.998575164313631","-29.2639280883691","0.787738163876538","0.587130647233887","-2.80376614364141"
"2327","0.016662807087445","0.999706618348161","-29.8159820220923","2.62760474332712","0.172914756354582","3.19535080442366"
"2335","-1.70880575586191","0.999939591073932","-28.2039955055231","2.19279418234248","0.0509248037145193","1.46440480094717"
"2336","-1.20301731791511","0.999987561463623","-28.8009988763808","3.75203408315182","0.0149977693519943","-2.47867948086886"
"2344","-2.77172690091249","-0.794096957700043","-25.4502497190952","3.23101768700203","0.00441696519433986","-1.31280005391113"
"2347","-2.22103929643697","-0.163509013284389","-26.6125624297738","-3.70027178074247","-1.70419102522883","6.0876697033906"
"2356","-2.06331044118273","3.55452137101924","-32.1531406074434","-1.82949769836169","-1.20738999084478","3.65316605943083"
"2356","-2.01813348136445","2.32008466099786","-30.5382851518609","-2.94762332155489","2.34990567389949","-4.01566863334564"
"2364","-2.00519382174965","2.06590722528243","-28.3845712879652","-2.29110083279377","1.39755821264601","-1.63793494350401"
"2364","-2.00148762302313","2.01357066699444","-28.8461428219913","6.37462436414632","-2.29389958412363","0.653511024356726"
"2376","-0.286847742798157","2.0027942763769","-32.4615357054978","4.0366523706458","-1.38106396317429","0.138243808949176"
"2376","-0.795737749976131","2.00057535716363","-31.3653839263745","-0.0671693974883292","-4.52321015487741","0.0292441137187982"
"2385","-0.941494868222783","-1.58807032380742","-22.3413459815936","0.672175754569712","-3.44859779343545","0.00618630370284726"
"2385","-0.983242863309938","-0.326992578367307","-25.0853364953984","-2.48632358062476","-3.13211570289942","1.78976851859964"
"2397","-2.70877873782098","1.72676479235864","-29.2713341238496","-1.45658440677773","-3.03890915026339","1.16706773739102"
"2397","-2.2030095793631","1.14964494314721","-28.3178335309624","-2.83306792040474","5.51600022564726","-0.753118335719824"
"2405","-2.05814633977295","4.61900152539551","-33.3294583827406","-2.25591050778033","3.03549069568202","-0.159314752833521"
"2405","-2.01665437089027","3.33336148609618","-31.5823645956851","1.30700584020502","2.30496044141938","-0.0337014639885866"
"2413","-2.00477017247919","-0.519547795105022","-29.3955911489213","0.401499709743012","2.08981333315549","-0.00712921217133521"
"2417","-2.00136628069779","0.687116594256061","-29.8488977872303","0.123336875754462","2.02645075792439","-1.78996798158239"
"2426","-3.7139696770298","-0.858518843009374","-26.4622244468076","0.0378879101322598","2.00778996358551","-1.1671099318169"
"2426","-3.20449637676411","-0.176773840455314","-27.6155561117019","1.70444835597556","0.296802350262195","-4.61227019137104"
"2434","-1.34499384609506","8.93407325838287","-27.9038890279255","1.21639980614682","0.792902566325941","-3.34105985056602"
"2438","-1.81239205313454","5.81004772834007","-27.9759722569814","-7.39757180599673","6.05548369181239","7.65861135643454"
"2446","-1.9462650213021","1.57860457326733","-29.7439930642453","-5.04370160559095","4.60535668412991","3.98548326550625"
"2446","-1.98460913845119","2.70732671689722","-29.1859982660613","0.757813491730498","4.17828247262699","-2.15691034031274"
"2454","-1.99559172395794","-2.44254625858227","-29.0464995665153","-0.460016485770684","4.05250563986367","-0.456273100060104"
"2454","-1.9987373742788","-0.502933961362839","-29.0116248916288","-2.5269317741724","-2.80650409130585","3.48039966195527"
"2466","-1.99963835665085","1.6905374757186","-29.0029062229072","-2.16186840783466","-0.826538307006431","2.31316394124678"
"2467","-1.99989641751329","1.14218553565255","-29.0007265557268","-0.356914876854734","-0.243422261547883","-1.51067299243098"
"2475","-1.99997033173269","2.82337119505814","-30.7501816389317","-0.802450392844173","-0.0716898381052594","-0.31956796559917"
"2475","-1.99999150236577","2.16953674279356","-30.1875454097329","-0.939314647652631","5.09536233127134","5.29777815136046"
"2483","-0.286419221442874","3.82900296186998","-30.0468863524332","-0.981358039418325","3.61710126816463","3.48607229553158"
"2487","-0.795615012180199","3.17069635513753","-30.0117215881083","4.08415528787638","3.18174134825615","-0.474095936184691"
"2495","-0.941459713460098","1.24105293947804","-26.5029303970271","2.6402325968264","3.05352430690055","0.688169549740548"
"2495","-0.983232794224617","1.84372854750577","-27.6257325992568","-1.18894576545002","1.31027148676293","-0.854424521984739"
"2503","-0.995197509166232","0.17372843573423","-31.4064331498142","-0.365232782474396","1.79686933669861","-0.18074507694039"
"2507","-0.998624462625592","0.829866054934469","-30.3516082874536","-1.80500557399886","1.94017636565493","-0.0382348375984123"
"2516","-0.999606016308227","6.34725165697863","-30.0879020718634","-1.24729002301271","1.98238145256808","-0.00808820262727874"
"2516","-0.999887154538822","4.48331226891275","-30.0219755179658","5.69527307455145","1.99481119432129","-0.00171097945876028"
"2524","-2.71354602326687","-1.28276648521494","-28.2554938794915","3.82796214356687","1.99847185447748","-0.000361940822108776"
"2528","-2.20437503315204","0.52996558929375","-28.8138734698729","-0.13127704186217","1.99954994870061","-7.65650096136721E-05"
"2536","1.36861925399384","0.903217281014545","-25.4534683674682","0.652482498566841","1.99986745622776","-1.61965723097681E-05"
"2536","0.392002192271892","0.980071895842385","-26.6133670918671","-0.799563608877303","3.70545282222378","-3.42622505906018E-06"
"2544","0.112277916811085","0.995896691687527","-32.1533417729668","-0.245618303308389","3.20776160033405","-7.24784104365846E-07"
"2544","0.0321588267922062","0.99915510582572","-30.5383354432417","-0.075451596658834","1.3556956255649","1.78845971377121"
"2556","-3.41794570489741","4.58801482462659","-33.6345838608104","-0.0231780097887066","1.81024711544438","1.16679087264366"
"2557","-2.4061303559922","3.32698115077499","-32.4086459652026","5.0713085924381","5.35509994531278","2.82374283045899"
"2565","-0.40274618420024","-0.520861541899636","-28.6021614913007","3.6362862146979","4.39908796787187","2.1742546678372"
"2565","-0.828933573414924","0.686846086429517","-29.6505403728252","-1.88296760822835","-0.998940916197449","0.248401988501961"
"2577","-0.951002870922806","0.935519854449064","-29.9126350932063","-0.578429663359873","0.411295623691407","0.841006856754418"
"2577","-0.985966161182345","0.986723176718869","-29.9781587733016","-3.56330717125889","0.82662176761874","-0.822093297745745"
"2585","0.717597939995721","4.58545502076162","-28.2445396933254","-2.48023303048222","0.948938698821744","-0.173905725467799"
"2586","0.205535589848849","3.32645407281542","-28.8111349233313","-0.454713447950167","0.984962031033497","1.75167182681324"
"2593","-3.36828684542361","1.27312432633073","-30.7027837308328","-0.832493179724098","0.99557119569186","1.15900875814717"
"2597","-2.39190698325896","1.85033222576961","-30.1756959327082","-0.948543504816933","-2.41228803381844","2.8220966009241"
"2606","1.31490604241333","3.76327696316364","-33.5439239831771","-0.984193056186227","-1.415930325594","2.17390642422259"
"2606","0.376617565296872","3.1571630037106","-32.3859809957943","4.08328439780503","-4.53347858251133","-3.32859141318283"
"2614","-1.60570691816469","-0.555828049950116","-28.5964952489486","2.63996506771512","-3.45162192898489","-1.49259053703281"
"2614","-1.17348757815728","0.679646286488343","-29.6491238122371","3.88940070781394","5.39445295177685","2.4727170665112"
"2626","0.663887745332307","0.934037375297354","-26.4122809530593","3.27321540198819","2.99969403382169","1.31153876398546"
"2626","0.190151826984219","0.986417925954513","-27.6030702382648","-0.301689941998701","-1.11656568186272","1.06590295153944"
"2634","-1.65911474359814","2.79129777138307","-29.6507675595662","0.600133283409126","-0.328837685007215","1.01394111912767"
"2634","-1.18878473592653","2.16293264513658","-29.1626918898916","4.2627838679114","3.314138339074","1.00294910619315"
"2647","-2.76765038121943","0.239454348085177","-27.2906729724729","3.38791514225756","2.38702444130237","1.00062385431606"
"2647","-2.21987169291842","0.843399388580332","-27.8226682431182","-1.95926482927039","2.11398184933175","1.00013197022493"
"2655","-3.77655435890082","2.76184945313846","-31.4556670607796","-0.601867440881795","2.0335685827318","1.00002791699892"
"2655","-3.22242198494512","2.15686907139742","-30.3639167651949","-1.87769748075485","5.42086993583649","-0.788453961526473"
"2667","0.363450216187258","2.03230022081097","-28.3409791912987","-1.2696202824235","4.41845776561693","-0.166789655813042"
"2667","-0.609478332093233","2.00665079645811","-28.8352447978247","2.30279432838881","-0.993236353041863","-3.61220244014262"
"2675","0.825432207222303","3.79546383279393","-27.2088111994562","1.40020597354094","0.412975663990452","-2.34104551846215"
"2676","0.23642165917127","3.16379046052546","-27.802202799864","1.1229394523508","2.53260841061058","3.29323478697329"
"2683","-1.64586206167039","-0.55446341945522","-29.700550699966","1.0377658254588","2.15685751371865","1.48511119162527"
"2688","-1.18498888083097","0.679927271553901","-29.1751376749915","-4.06682735480537","-1.36478789987667","-0.685839381140634"
"2696","-1.05298482146883","0.934095231696842","-29.0437844187479","-2.63490962130139","-0.401941149375645","-0.145082553839937"
"2696","-1.01517600027349","0.986429838911364","-29.010946104687","1.19058093268686","1.58711691612449","-0.0306907827219127"
"2704","-2.71792507977058","4.58539462086335","-29.0027365261717","0.365735090230626","1.17291071243106","-0.00649233225603979"
"2708","-2.20562928976469","3.32644163613791","-29.0006841315429","1.80515987814359","-2.36006010214179","-1.78983325592046"
"2716","-2.05889668156271","4.86131055862055","-25.5001710328857","1.24733742377208","-1.40054877444637","-1.16708143193247"
"2717","-2.01686928502778","4.17734867034293","-26.6250427582214","4.46159879781213","2.29301883932261","0.753115438774706"
"2725","1.42232496075911","-3.13986050115227","-30.4062606895554","3.44898918966594","1.38080457665888","0.159314140013366"
"2725","0.407384669705306","-0.646514871283462","-29.3515651723888","-3.63331301716259","1.11215004854865","1.82216120144467"
"2737","-1.59689455318973","3.45506775835115","-30.8378912930972","-1.80892860577228","1.03302910248563","1.17392008982529"
"2737","-1.1709635259936","2.29960660486473","-30.2094728232743","0.44431441098268","-0.695764517820616","-0.751668788175145"
"2745","-2.76254600077011","2.06169067877656","-24.8023682058186","0.136489143014235","-0.204908315799753","-0.159008115353264"
"2745","-2.21840968782059","2.01270245644161","-26.4505920514546","1.73473771288938","5.05612840485139","3.54328313632901"
"2757","-0.348978919679244","3.79670990349479","-32.1126480128637","1.22570440727033","3.60554655736951","2.3264663197735"
"2757","-0.813533464507215","3.16404703346508","-30.5281620032159","6.1477628936627","-0.232645323045804","0.280600861582693"
"2766","0.766986398413762","-0.554410589649255","-28.382040500804","4.65977224575149","0.636975915479382","0.8478182106454"
"2766","0.219681513864097","0.679938149506979","-28.845510125201","-0.875752923824529","-2.51789726372318","-0.820652423038365"
"2778","-1.65065680180006","-0.859996925007369","-28.9613775313003","0.423786618775154","-1.44703310373002","-0.173600922640696"
"2778","-1.18636219823588","-0.177078185821081","-28.9903443828251","-0.86981679867283","3.98482068329127","-3.61364329643261"
"2786","-1.05337816931326","3.55172740235956","-30.7475860957063","-0.267199412163267","2.58454585274293","-2.34135031739324"
"2786","-1.01528866361422","2.31950936719493","-30.1868965239266","1.61072844472504","3.87764537077411","1.50471044267476"
"2794","-2.71795734899113","0.271694372529062","-30.0467241309816","1.18760994461237","3.2584737079696","0.318306647031271"
"2798","-2.20563853236826","0.850037790269154","-30.0116810327454","-0.635177568927324","-2.04035296069816","-1.72112523667368"
"2806","1.3682573604568","0.969121940708531","-30.0029202581864","-0.195120482032115","-0.600900560613946","-1.15254692840917"
"2807","0.391898538125952","0.993642034567784","-30.0007300645466","-1.75274870019593","-0.1769701079673","2.54464993667391"
"2815","-1.60133011663164","-0.79540353724483","-26.5001825161366","-1.23123721053204","-0.0521191377853927","1.32675545290012"
"2815","-1.17223396741705","-0.163778045334032","-27.6250456290342","5.70020434521091","1.69014234698315","2.857581759027"
"2827","-2.76290988270564","1.760371579277","-26.1562614072585","3.82947698281053","1.20325254070928","2.18141295928393"
"2827","-2.21851391148692","1.15656476888813","-26.7890653518146","-1.82362124959993","6.17633510056595","-3.32700347975828"
"2835","-0.34900877159428","2.82633195975486","-32.1972663379537","-0.560199028858746","4.6409484080472","-1.49225462538513"
"2835","-0.813542014742135","2.17014638083516","-30.5493165844884","-3.55770689447704","0.777780810240331","0.684328258213655"
"2847","-0.94659439520934","3.82912848975883","-26.6373291461221","-2.47851267894803","1.64004649662752","0.144762890695124"
"2847","-0.984703478270927","3.17072220203323","-27.6593322865305","4.62424368326007","-3.22248481001663","3.60754289532204"
"2856","-0.995618744925272","-0.553036135037003","-29.6648330716326","2.80614259302665","-1.65453987325703","2.34005983773152"
"2856","-0.998745113668989","0.680221157413349","-29.1662082679082","-1.13797979937031","-4.6037510371897","-1.50498343091392"
"2864","-0.999640573379797","2.72825014097779","-29.041552066977","-0.349576524515699","-3.47231773908507","-0.318364394999664"
"2868","-0.999897052432465","2.14995078475099","-29.0103880167443","-3.49300567298455","5.38835786718555","3.50957288775291"
"2876","-0.999970513587292","3.8249701033598","-30.7525970041861","-2.45863708172409","2.99789898177998","2.31933524930936"
"2876","-0.999991554452862","3.1698659669723","-30.1881492510465","-3.83369848254135","2.29388937558259","0.279092353988932"
"2884","-2.71357592566307","-0.553212438633931","-26.5470373127616","-3.25610421044564","2.08655281411979","0.847499100748523"
"2888","-2.20438359784585","0.68018485551483","-27.6367593281904","-3.07867276717123","2.02549050851942","-0.820719927588362"
"2897","1.36861680088006","0.93414826967776","-29.6591898320476","-3.02416752260187","2.00750716231686","-0.173615202562175"
"2897","0.392001489646983","0.986440759728831","-29.1647974580119","-1.31461448021408","-4.81975650934601","1.75173328406731"
"2905","-3.31487897373723","4.58539686952086","-30.791199364503","-1.78945611504464","-2.83044125202781","1.15902175882286"
"2905","-2.37660981224186","3.3264420991491","-30.1977998411257","-0.242513377748602","2.87190386169523","-0.754820383095505"
"2917","-0.394290861192454","3.06721625742145","-31.7994499602814","-0.7673073450686","1.55129092935135","-0.159674804161588"
"2917","-0.826511785802521","3.01384020404697","-31.1998624900704","0.764290512825559","1.16235966761126","-1.82223749638652"
"2925","0.763269126144705","1.20875537903066","-24.0499656225176","0.23478274512581","1.04781624413421","-1.17393622926743"
"2925","0.218616806587409","1.83707829883143","-26.2624914056294","3.45774212045283","-2.39690144164393","-1.03679449305673"
"2937","-3.36454010167137","-3.41582968080366","-25.0656228514073","2.4478044552197","-1.41139884891242","-1.0077835119515"
"2938","-2.39083383471127","-1.49743286829283","-25.7664057128518","-1.24805785250034","3.99531526148897","0.786813341939426"
"2946","-0.398364929253869","4.2798589746783","-32.941601428213","-0.383391450984466","2.58763659147485","0.166442598927547"
"2946","-0.827678687120677","2.46943573799463","-30.7354003570532","-0.117774191631821","0.467571903609271","3.61212902368294"
"2954","0.762934900337529","0.302565052383786","-28.4338500892633","-0.0361791067038971","0.843195590287314","2.34102998793451"
"2958","0.218521077078457","0.856394236233994","-28.8584625223158","1.68169567588303","0.95381982455092","-1.50477820521104"
"2966","-3.36456752067579","0.970430768550809","-30.714615630579","1.20941040015335","0.986399562305579","-0.3183209815272"
"2966","-2.3908416881079","0.993911529554479","-30.1786539076447","1.06432887466329","-4.12048101197519","-0.0673376627396258"
"2974","-0.398367178636733","2.79284074635444","-30.0446634769112","1.01976121583462","-2.62449892416218","-0.0142446181256454"
"2978","-0.82767933139264","2.16325035232919","-30.0111658692278","4.39168956051525","2.93255555414861","-5.36839290968793"
"2987","-2.66422197349724","0.239519765776397","-28.2527914673069","3.42751373973325","1.56915334663868","-3.50101015089343"
"2987","-2.19024755716848","0.84341285844952","-28.8131978668267","-0.254290966483217","-3.94885527738374","2.25939584736822"
"2995","1.37266566905096","0.967757830124299","-30.7032994667067","0.614693795937975","-2.57395374785284","0.47795289784375"
"2995","0.393161173170782","0.993361156554745","-30.1758248666767","0.881637614512252","2.94744152013864","1.8895660866257"
"3007","-3.31454681526266","6.38091621454121","-35.2939562166692","0.963640205761921","1.57353738483255","1.18817892819513"
"3007","-2.37651467486173","4.49024398995303","-33.5734890541673","-0.703978933369251","4.57989514478139","1.03980739548086"
"3015","-0.394263611786553","4.10094398459602","-27.8933722635418","-0.216255604006033","3.46529198452289","1.00842086173074"
"3016","-0.826503980982575","4.02078493206433","-29.4733430658855","1.6263778959816","-1.97944329422381","1.00178135020972"
"3028","0.763271361614153","-3.17209785216315","-26.3683357664714","1.19241730655664","-0.582962167876876","1.00037682706012"
"3028","0.218617446874269","-0.653152722497448","-27.5920839416178","1.05910875862644","-1.87717896268582","-4.36529988723003"
"3036","-3.36453991827935","5.24779538412693","-31.3980209854045","1.01815764605005","-1.25833634698984","-2.5003558525116"
"3036","-2.39083378218382","3.46283366503291","-30.3495052463511","-9.15127945587622","-1.07608215770669","1.47107439064274"
"3048","1.31521343044179","-0.492888747969216","-30.0873763115878","-6.27523339630601","-1.02240681494785","0.311191272113921"
"3048","0.376705607884819","0.692605841444342","-30.0218440778969","4.76511779283914","2.40438472543702","5.43120904433915"
"3056","0.107896643789749","0.936705820281198","-30.0054610194742","2.15660822199237","1.41360273692254","3.51429828436631"
"3056","0.0309039353208977","0.986967373729222","-30.0013652548686","-3.72312965764287","-2.28917434108075","-2.25658487384727"
"3064","0.00885155631142039","-0.796777887312714","-26.5003413137171","-2.52932897169355","-1.37967234062261","-0.477358264131528"
"3068","0.00253527741113491","-0.164061031714131","-27.6250853284293","-2.16260480401541","-4.52280031070458","1.68747943645309"
"3077","-1.71285218629779","3.55440770733134","-33.1562713321073","-2.04995064261133","-3.44847709098938","1.14542949135871"
"3077","-1.20417630321881","2.32006125700761","-31.5390678330268","3.06308429536407","-1.42658829760227","2.81922404102288"
"3085","0.655097829899622","0.271808009733989","-27.6347669582567","1.63375978919429","-1.83112558460694","2.1732987625193"
"3089","0.187634204855609","0.85006118880641","-28.6586917395642","2.88749450552444","3.16621046273451","-3.32871995802031"
"3097","-1.65983584509576","2.76322115513417","-32.414672934891","2.27262983485268","1.63796661976541","-1.49261772942481"
"3097","-1.18899127501116","2.15715151252462","-31.3536682337228","-1.30186982262946","2.89337822164383","2.47271131422898"
"3106","-2.76770953848594","2.03235837702171","-29.3384170584307","-0.399921974202444","2.26310716065635","1.31153754714691"
"3106","-2.21988863684062","2.00666277114778","-29.8346042646077","-1.81566176235059","-1.33349651370981","-0.722557172962888"
"3118","-0.349402522705738","0.207277505378223","-26.4586510661519","-1.25056350228769","-0.39272558135764","-0.1528498404021"
"3118","-0.813654793587274","0.836773996365181","-27.614662766538","0.615838837334535","3.29532283338802","1.75612599153853"
"3126","-2.66020504216351","-0.827703545315197","-33.1536656916345","0.189179808408128","2.38148312167154","1.15995099274515"
"3126","-2.18909702104645","-0.170428797987662","-31.5384164229086","-1.63469532176442","-1.29863382930794","-4.33154354701235"
"3138","-2.05416148178975","5.34719094510977","-29.3846041057272","-1.19497234031004","-0.382458236929927","-2.49321503181547"
"3138","-2.01551302127039","3.48329976799876","-29.8461510264318","2.32572546317759","-1.81812892240745","3.26104482789401"
"3146","1.42271342406959","-0.488674662687471","-26.4615377566079","1.40725019911252","-1.2409456293096","1.47830172340334"
"3147","0.407495934009736","0.69347354521733","-27.615384439152","-2.26051573260692","-1.07096044974497","-4.2641995911376"
"3155","-3.31044102933413","2.73097888188591","-31.403846109788","-1.38721839275698","-1.02089843024933","-2.47896908243918"
"3159","-2.37533868885957","2.15051264779437","-30.350961527447","-1.11894979158984","-1.00615475787507","3.26405841791847"
"3167","-0.393926783929147","-1.5571973954983","-24.8377403818617","-1.0365402397818","-1.00181262630967","1.47893921863764"
"3167","-0.826407506190089","-0.320635669433107","-26.4594350954654","-1.01122481263284","-2.70602569065156","1.1013148659654"
"3175","-0.950279350566746","1.7280737155289","-32.1148587738664","-1.0034481552227","-2.20793031475064","1.02143216021186"
"3179","-0.985758929284283","1.14991445776247","-30.5287146934666","-1.00105924034804","1.3497465441096","-2.57238597216455"
"3187","-2.70949939360232","2.82496262342931","-30.1321786733666","-1.00032538851718","0.397511347627162","-1.33262273753415"
"3188","-2.20321599078493","2.1698644268127","-30.0330446683417","0.692709595639441","1.82256218607858","2.50655667607812"
"3196","1.36895122882725","3.82907043384569","-31.7582611670854","0.212793771098841","1.24225126155884","1.3186971994908"
"3196","0.392097277053211","3.1707102479954","-31.1895652917714","3.45098731766787","2.77683682651751","-2.50950248624662"
"3208","-1.60127319349911","-0.553038596440376","-29.2973913229428","2.44572944432525","2.2287847708468","-1.31932035656536"
"3208","-1.1722176633992","0.680220650596602","-29.8243478307357","3.82973337962468","3.77287083535116","-1.06754907066802"
"3216","-2.76290521288186","2.72825003662138","-26.4560869576839","3.25488616870384","3.22761675415501","-1.01428933938692"
"3216","-2.21851257394826","2.14995076326342","-27.614021739421","1.3854890444989","-0.343948727407078","2.5738969654312"
"3228","1.36456995615642","2.03087570239969","-24.4035054348552","1.81122810420733","0.604196156600778","1.3329423732506"
"3228","0.390842385682295","2.00635748013499","-25.6008763587138","-1.44360802702798","-4.23304302706791","1.07043067388809"
"3237","-1.60163262156285","0.207214644248003","-34.6502190896785","-0.443462596726803","-2.6576493541495","1.01489891411508"
"3237","-1.17232061138019","0.836761052906229","-31.9125547724196","1.55658207807258","-2.19368308974375","1.00315171827209"
"3245","-2.76293469941299","-0.827706210445924","-27.7281386931049","1.17097669797654","-2.05704124700495","1.00066671490217"
"3249","-2.21852101952932","-0.170429346753013","-28.6820346732762","-0.640287143415011","-3.72229096914846","-2.57677869722526"
"3257","-2.06258915214221","5.34719083211591","-32.4205086683191","-0.19669009450867","-3.21272057170892","-1.33355197517732"
"3257","-2.01792688856348","3.48329974473269","-31.3551271670798","-0.0604213182721275","3.75931948931836","6.08327983920785"
"3265","-0.291556304446954","3.09951412559332","-31.0887817917699","-0.0185608518357837","1.81264205751785","3.65223742697817"
"3269","-0.797086383997894","3.02049051608351","-31.0221954479425","6.76553649114252","1.23932970292251","-0.438945342193826"
"3278","-0.941881146211757","-0.583969680991938","-27.5055488619856","4.84954639399565","1.0704845462662","0.695605311065166"
"3278","-0.983353501690965","0.673851766966207","-28.6263872154964","-0.817456118184544","-0.68473358464419","-4.42977129423013"
"3286","-2.70881042704922","-0.861250145277341","-28.9065968038741","0.441694840623441","-0.201659616159304","-2.51399414251716"
"3286","-2.20301865584431","-0.177336230897043","-28.9766492009685","4.21411309167324","-0.059390398983642","1.46818934496233"
"3298","-0.344570594823062","1.75757987289677","-27.2441623002421","3.37296394469479","-0.0174909560903349","0.310580969167241"
"3298","-0.812270824804589","1.15598994090121","-27.8110405750605","-3.65666724623341","1.70034062845426","1.85416020658843"
"3306","-4.37338698818449","1.03211920291562","-27.9527601437651","-1.81610280186596","1.2062560176426","1.18068916362632"
"3306","-3.39336777459104","1.00661352385913","-27.9881900359413","0.442110566469791","2.76623593409088","2.82668287678066"
"3318","3.7416443294432","-0.792732634914464","-29.7470475089853","0.135812143030743","2.2256627217088","2.17487660562684"
"3319","1.78526630721825","-0.163228091577904","-29.1867618772463","0.0417201930772292","-3.05001606331726","-1.53992631378749"
"3327","-2.20223941369781","-0.0336095786986735","-27.2966904693116","0.0128160448068866","-1.60374642301762","-0.325756217086924"
"3327","-1.34434740299754","-0.0069204005841311","-27.8241726173279","-1.68887258533654","0.527683619826175","1.719549353634"
"3335","-2.81220689783246","7.17495263688433","-24.456043154332","-1.21161507818447","0.155407122732258","1.15221356590151"
"3339","-2.23263364416332","4.65374053866822","-25.614010788583","-6.14343478634715","0.0457686630558569","-2.54472045622309"
"3347","-2.06663131345121","2.34051444358785","-31.1535026971458","-4.65844269252574","0.013479243943854","-1.32677037061493"
"3347","-2.0190846510968","2.86420822853097","-29.5383756742864","-2.50945775389195","1.70946160454092","-1.06912504763023"
"3355","-2.00546625735891","2.97203971335018","-32.6345939185716","-2.84931010759816","1.20894221936818","-1.01462272176296"
"3359","-2.0015656544813","2.99424282030433","-31.4086484796429","2.12471915122503","-0.643956672516293","0.785366574586924"
"3368","-2.00044843734824","-0.589374228630898","-29.3521621199107","0.652693428185795","-0.189650483509346","0.166136549569512"
"3368","-2.0001284421676","0.672738940323156","-29.8380405299777","3.58612029045455","5.06062196069867","-1.75331531931535"
"3376","-0.2864584439676","0.932615114016874","-26.4595101324944","2.48724100279086","3.60686994615556","-1.1593564227695"
"3380","-0.795626246360657","0.986125074387272","-27.6148775331236","-8.00718152931518","-1.9377474317165","-2.82217014594452"
"3388","-2.65504127582332","0.997143075068689","-29.6537193832809","-5.23096788967311","-0.570682396857576","-2.17392198194598"
"3388","-2.18761800654346","0.999411743147966","-29.1634298458202","-2.68533202576144","-0.168070612687957","3.32858812209995"
"3396","-0.340159515356858","4.5880676676893","-29.0408574614551","-2.90333700398585","-0.0494981639609871","1.4925898408367"
"3397","-0.811007396122002","3.3269920314577","-29.0102143653638","3.80093215659721","-0.014577612328085","-0.684257346692477"
"3409","-2.65944677019914","-0.520859301506096","-34.2525535913409","1.86041960432805","-0.00429322552964643","-0.144747890062509"
"3409","-2.18887983553521","0.6868465477391","-32.5631383978352","-0.428496868062386","1.70422746756764","1.75783987919018"
"3417","1.37305741414522","0.935519949435292","-26.8907845994588","-0.131630144916454","1.2074007234103","1.16031354876677"
"3417","0.393273377449155","0.986723196277065","-28.4726961498647","1.65237402868136","-0.644410655627607","-0.754547117679082"
"3429","-1.60093633287685","4.58545502478876","-28.8681740374662","1.20040307020997","-0.189784185232211","-0.159616997559079"
"3429","-1.17212117922215","3.32645407364463","-28.9670435093665","1.06156190894165","-0.0558929878792511","-0.0337654008780018"
"3437","-2.76287757772415","-0.520970070034234","-25.4917608773416","1.01891123039467","-0.0164609400422259","-0.00714273738941982"
"3438","-2.21850465864064","0.686823739878469","-26.6229402193354","-0.687000202544477","-3.41583159576447","-0.00151097561668384"
"3446","1.36457222327193","0.935515253168985","-28.6557350548339","-0.211039900075528","-2.41697393344076","-0.000319631982773842"
"3450","0.390843035033272","0.986722229289518","-28.1639337637085","-1.75763899335843","-0.417310361187973","1.78839225210002"
"3458","-3.31521078022533","0.997266032609198","-31.5409834409271","-1.23273946188005","-0.828393156786816","1.16677660179277"
"3458","-2.37670484880544","0.999437060794545","-30.3852458602318","-2.76430489147309","-0.949460387355378","-2.54163978967511"
"3466","1.31926026292835","4.5880728807346","-35.3463114650579","-2.23478716210899","-0.98511567255453","-1.32611868600392"
"3470","0.377864708344541","3.32699310485294","-33.5865778662645","-0.379314821656336","2.41536727051707","-1.06898719018101"
"3478","-1.60534970938852","-0.520859080488001","-27.8966444665661","-0.809331441925554","1.4168371858746","-1.01459355937983"
"3479","-1.1733852658283","0.686846593247965","-29.4741611166415","-2.63423799208729","4.53374566024813","-1.00308712349081"
"3487","0.663917049798935","-0.858574437729882","-26.3685402791604","-2.19483185300159","3.45170058555307","-1.00065305051355"
"3487","0.19016022041806","-0.17678528771979","-27.5921350697901","-0.367040932347014","-1.98344607188915","4.36524145488398"
"3499","-1.65911233953693","1.75769331518415","-27.8980337674475","-0.805561020368495","-0.584141018492159","2.50034349172535"
"3499","-1.18878404735134","1.15601329930386","-27.9745084418619","2.44534890105194","-0.172034286346923","-3.25953687253724"
"3507","-2.76765018399658","6.41440720214873","-31.4936271104655","1.44399737659834","-0.0506654981279875","-1.47798273032675"
"3507","-2.21987163642952","4.49713997196698","-30.3734067776164","-3.94203690257189","-1.7204132591893","0.687347336791152"
"3519","-2.06297599807051","-1.27991928367303","-24.8433516944041","-2.59657518635917","-1.21216757083659","0.145401546978667"
"3519","-2.01803768961463","0.53055184404542","-26.460837923601","1.20235690493504","2.34849863769019","3.60767799675715"
"3527","-2.0051663849181","-0.890756402382733","-28.6152094809003","0.369352556422548","1.3971438290255","2.34008841710706"
"3528","-2.00147976452041","-0.183411734572301","-28.1538023702251","0.11346157732029","-0.588529766030057","-3.29343725232116"
"3536","-0.286845491952803","1.75632889264616","-29.7884505925563","0.0348543127809858","-0.173326808232457","-1.48515402117186"
"3540","-0.795737105285279","1.15573235705779","-29.1971126481391","0.0107069119619717","-5.16752172867957","0.685830320972655"
"3548","0.7720836610813","1.0320661649589","-27.2992781620348","0.0032890610835383","-3.63835279826329","0.145080637250799"
"3548","0.221141480275083","1.00660260304665","-27.8248195405087","-1.69179918373571","1.92847547541988","0.0306903772863916"
"3556","0.0633397088467923","1.00135951296476","-31.4562048851272","-1.21251410125816","0.567951730230799","0.00649224649015578"
"3560","0.0181418642572434","1.00027993133743","-30.3640512212818","5.70595590553888","0.167266409131766","-1.78708649640674"
"3568","0.00519622279168264","1.00005763943096","-24.8410128053204","3.83124380720505","0.0492613194654161","-1.16650038205987"
"3569","0.0014883107335577","1.00001186828182","-26.4602532013301","-3.51588804990628","-1.69098399774833","2.54169822123412"
"3577","-5.14030874952801","2.79409684028143","-33.8650633003325","-1.77285677746079","-1.20350041371281","1.32613104662368"
"3577","-3.61303077499848","2.16350898910724","-31.7162658250831","0.455395332086056","2.35105118603596","-0.719470062143981"
"3589","1.96514974459683","2.03366741707396","-24.1790664562708","0.139893096133521","1.39789557529759","-0.152196792569167"
"3589","0.562861442856754","2.0069323098297","-26.2947666140677","-1.64983572899423","2.82267534425612","-0.0321957297282323"
"3597","-1.55236263845531","-1.58676139163252","-30.3236916535169","-1.19962332879163","2.24228458756353","-0.00681068894577593"
"3597","-1.1582086212595","-0.32672306189794","-29.3309229133792","0.631487172057906","2.07135478385329","1.78701913304735"
"3609","-1.04531437519168","-0.0672741092257977","-27.3327307283448","0.193986827364072","2.02101456485512","1.16648613200587"
"3609","-1.01297901835352","-0.0138521160576608","-27.8331826820862","0.0595909004266006","2.0061889604621","1.03521849849184"
"3618","-2.71729581657229","1.79124216821959","-27.9582956705216","0.0183057554056927","2.00182269925005","1.00745012585178"
"3618","-2.20544905515779","1.16292119613365","-27.9895739176304","1.69843290509002","-1.41044691511734","-4.36380360066354"
"3630","-0.34526671381759","4.62173518027843","-26.2473934794076","1.21455191709367","-0.415388101145113","-2.50003932785245"
"3630","-0.812470208359322","3.33392436095451","-26.8118483698519","2.75871785144003","-0.122335178108131","-0.317318518780932"
"3638","0.767290937999701","3.06875689705377","-28.702962092463","2.23307087677759","-0.0360287060738887","-0.855585468729181"
"3638","0.219768740596421","3.01415743038019","-28.1757405231157","-1.31402195668756","-0.0106107473045187","-2.75791039795328"
"3646","-3.36421016282566","1.20882069771023","-31.5439351307789","-0.403654993709318","-0.00312495147978539","-2.16032846631529"
"3650","-2.39073933308091","1.83709174831356","-30.3859837826947","3.2616201453658","-1.70641218109984","3.33146369620316"
"3659","-0.39833786194047","3.7605506746629","-33.5964959456737","2.38755765780729","-1.20804413933468","1.49319814016468"
"3659","-0.827670934455968","3.15660164563164","-32.3991239864184","2.11905401057267","4.05520487928673","1.10433120012035"
"3667","0.762937120868588","-2.35003803325983","-30.3497809966046","2.03657225485784","2.60527457157086","1.0220702359399"
"3667","0.218521713086639","-0.483885999402411","-30.8374452491512","-4.76000356017698","0.472766432365787","1.00466874064403"
"3679","-1.65098899385861","1.69445955782083","-25.7093613122878","-2.84784673045295","0.84472542130285","1.00098762601635"
"3679","-1.18645734523518","1.14299311433465","-27.4273403280719","1.12516868670603","2.65976222968568","-0.788250944553374"
"3687","-1.0534054214743","2.82353748003402","-31.356835082018","0.345641073075491","2.19430534879337","-0.16674670957557"
"3688","-1.0152964692233","2.16957098180187","-30.3392087705045","0.106177636125409","2.05722450736184","-0.0352736211055652"
"3699","0.709197104614724","0.240821218802243","-24.8348021926261","0.0326167556212785","2.01685308337182","-0.0074617864968129"
"3700","0.203129408672707","0.843680834920187","-26.4587005481565","3.39563865954308","2.00496337028018","1.78688139978487"
"3708","-3.36897602781916","2.76190740451691","-30.3646751370391","2.42872686523327","2.00146175296203","1.16645699589322"
"3708","-2.39210438002152","2.15688100391097","-29.3411687842598","-2.94672785780109","0.294938640705771","2.82367220212683"
"3716","-0.398728840944829","0.238208281246668","-27.3352921960649","-1.59801620299812","0.792353688686215","2.17423972711042"
"3720","-0.827782919309603","0.843142816435992","-27.8338230490162","5.58753334215566","-5.88312095922945","0.248398827938633"
"3728","-0.950673298669226","0.967702226960543","-29.7084557622541","3.79486552689229","-3.84910259846707","0.841006188168432"
"3728","-0.985871764551917","0.993349707551758","-29.1771139405635","-0.141444006369561","0.160916085773856","0.966366427913622"
"3736","0.717624977234867","2.79272506405593","-34.2942784851409","0.649359304183834","-0.658100759915305","0.992885149690681"
"3740","0.205543333899642","2.16322653269571","-32.5735696212852","2.58509607940832","0.806183967582621","0.998494923619947"
"3749","0.0588720619415571","2.03360925771609","-28.6433924053213","2.17973592682445","0.237427742851222","0.999681615942527"
"3749","0.0168622334351295","2.00692033449202","-29.6608481013303","0.36240360801993","0.0699244035383881","4.57685238317844"
"3757","0.00482970881337676","2.00142493564975","-35.1652120253326","0.804136478630398","0.0205933062054301","3.33356756271365"
"3757","0.00138333319318266","2.00029340223486","-33.5413030063331","-0.752976954782981","3.41704861124756","-2.29481667472621"
"3769","0.000396216583091063","0.205966016628522","-26.1353257515833","-0.231307328160922","2.41733235441014","-0.485445824370766"
"3769","0.000113485009605801","0.836503953482737","-28.2838314378958","1.62175415009354","-1.28807593836203","1.68576859288518"
"3777","3.2504564308629E-05","0.966335247877836","-32.320957859474","1.19099693598531","-0.37934885207814","1.14506757928297"
"3777","9.31001111568652E-06","0.99306823889881","-31.3302394648685","2.75148198623799","-0.111721325806301","2.81914748209428"
"3785","2.66658879507567E-06","2.79266710808309","-24.0825598662171","2.23084808810367","-0.0329028401471128","2.17328256723337"
"3790","7.6376877682157E-07","2.16321459923615","-26.2706399665543","2.07091432763132","-0.00969015433654471","2.03665621730316"
"3798","2.18759917361373E-07","-1.55458199252151","-26.8176599916386","2.02178420408292","-0.0028538293547372","2.00775426108021"
"3798","6.26575776547289E-08","-0.320097143304868","-26.9544149979096","-8.15016541188898","1.70465138146152","-3.3637392638569"
"3810","-3.42715667135484","1.72818460107632","-35.7386037494774","-5.27489117263435","1.20752556950378","-1.50002571803583"
"3810","-2.4087685762523","1.14993728971803","-32.9346509373694","0.686794265030657","6.1775935423393","0.682684360241487"
"3818","1.31007651703635","1.03087292812119","-25.2336627343423","-0.481832913845471","4.64131902939639","0.144415140299604"
"3819","0.375234284643846","1.0063569088955","-27.3084156835856","-2.53363357248899","-0.927601896198482","0.0305495979728862"
"3827","-1.60610311969915","-0.792785473373408","-27.8271039208964","-2.16392713626272","0.432305545963071","0.00646246601546617"
"3830","-1.17360105885663","-0.163238971312679","-27.9567759802241","3.02807180520459","0.832809360802215","-3.57555266326445"
"3839","-1.04972310264811","1.76048257763868","-29.739193995056","1.62300428665254","0.950760995397102","-2.3332926197903"
"3839","-1.01424177336958","1.15658762407277","-29.184798498764","4.57700006976277","0.985498712213092","-0.282044897995515"
"3847","-2.71765749695429","2.82633666576545","-32.546199624691","3.48443935810963","0.995729252669207","-0.848123682300092"
"3851","-2.20555264825151","2.17014734982911","-31.3865499061728","1.45600559161896","0.998742230136282","0.820587803523931"
"3859","-2.05887472977364","2.03503429274441","-25.8466374765432","1.83289011391674","0.999629576533673","0.173587253020025"
"3859","-2.01686299756001","2.00721375718948","-27.4616593691358","1.94866543920944","-2.41109280761493","1.8251805376671"
"3867","-2.00482992767529","2.00148535302735","-33.115414842284","1.9842305132669","-1.41557832174487","1.17455880061108"
"3868","-2.00138339587997","2.00030584251145","-31.528853710571","0.302346212420054","2.28859251526427","-0.75153367521063"
"3880","1.42676045476338","0.205968578151181","-27.6322134276427","0.785687420363383","1.3795009881821","-0.158979533538792"
"3880","0.408655091240301","0.836504480914606","-28.6580533569107","0.934165222624498","-0.593725726316258","-1.82209041874656"
"3884","0.117047667699982","0.966335356479014","-28.9145133392277","0.979776185236392","-0.174857060845141","-1.17390511644393"
"3888","0.0335249867374081","0.993068261260401","-28.9786283348069","0.993787437280149","-0.0514968282023121","-1.03678791144591"
"3900","0.00960228219689302","2.79266711268747","-28.9946570837017","0.998091560074139","-0.0151662352213908","-1.00778211967667"
"3900","0.00275030156196558","2.16321460018421","-28.9986642709254","-0.693395806399872","-1.70995843720857","-1.00164623063071"
"3908","0.00078774592608805","0.23951240420941","-34.2496660677314","-0.21300456848984","-1.20908854063429","-1.00034824384642"
"3909","0.000225627492144837","0.843411342661627","-32.5624165169328","-1.75824252072903","-1.06157827773196","-2.78853353464169"
"3917","6.46245997924439E-05","0.967757518015078","-23.3906041292332","-1.23292485972347","-1.01813530419664","-2.16680648872041"
"3921","1.85098848488403E-05","0.993361092289708","-26.0976510323083","-1.07155229203585","4.11113457757822","-2.03528626679381"
"3929","-3.42715138766947","4.58682180477298","-32.0244127580771","-1.02198018065423","2.62174632312841","-2.00746446156738"
"3929","-2.40876706289039","3.32673550130208","-30.5061031895193","-1.00675210154485","-4.63885807501021","-0.213119166099915"
"3937","1.31007695049597","3.06727667056881","-31.8765257973798","-1.00207418109929","-2.77716519014028","-0.833543123814125"
"3941","0.375234408796069","3.01385264345254","-31.219131449345","-1.00063716862136","-2.22888147660743","-0.964787690288212"
"3949","-1.60610308413926","1.20875794037397","-25.8047828623362","-1.00019573211432","-2.06740745854114","-0.992551183323576"
"3950","-1.17360104867151","1.83707882622637","-27.4511957155841","0.692749424847935","4.80211538436644","-2.7868841434224"
"3958","-2.76330144438154","1.96645361739703","-31.362798928896","0.212806006251246","2.82524579707748","-2.16645757628267"
"3958","-2.2186260632303","1.99309261184609","-30.340699732224","1.75818152430597","-4.57892582292634","-3.82367232490249"
"3970","-0.34904089428227","3.79267212660951","-26.585174933056","1.23290612220494","-2.75951465389986","-3.1742397530824"
"3970","-0.813551215375603","3.16321563257886","-27.646293733264","-9.08531077525393","2.89279232236771","-1.24839883343275"
"3978","0.766981314180654","1.23951261678525","-31.411573433316","-6.25496844774402","1.55744275110486","-1.84100618933066"
"3978","0.219680057629634","1.84341138643218","-30.352893358329","1.38572388770126","-0.541320428234728","-1.96636642815948"
"3986","0.0629211257535176","1.96775752702768","-30.0882233395823","-0.267128409855634","-0.159423273847054","-1.99288514974269"
"3986","0.0180219729947664","1.99336109414545","-30.0220558348956","-0.774868847811953","-0.0469514522608997","-1.99849492363095"
"3999","-1.70841646131284","0.204538615547972","-26.5055139587239","-0.930841860474447","-0.0138275849956665","-1.99968161594485"
"3999","-1.20290581552594","0.836210043601861","-27.626378489681","-7.74999348766364","-3.41505605126102","-0.211472781902523"
"4007","-2.77169496421361","6.34855791979356","-29.6565946224202","-5.8447717317919","-2.41674552926958","-0.833194847482191"
"4011","-2.22103014907481","4.48358123574594","-29.1641486556051","-0.181077151193483","1.28824876314419","-2.7531738829588"
"4019","-0.349729476529456","-3.07680549997254","-27.2910371639013","-1.44124427498641","0.379399750383719","-2.15932650330384"
"4019","-0.813748440242686","-0.633531493214109","-27.8227592909753","1.55726352532208","-1.59375554167222","-0.245244082592504"
"4027","-2.66023186459358","-0.130447684423887","-27.9556898227438","0.478376480178634","-1.17486584171024","-0.840338832918621"
"4031","-2.18910470357127","-0.0268599091818205","-27.988922455686","-4.93147597033723","0.65399244320537","-4.54314498967965"
"4039","-3.76774202688189","3.58265818726233","-29.7472306139215","-3.59333096885348","0.192606099694104","-3.32643709621294"
"4040","-3.21989794222077","2.32587818912596","-29.1868076534804","-3.18226560620329","0.0567240646658755","-3.06905454671894"
"4048","-1.34940518796812","3.86119454172354","-27.2967019133701","-3.05599025324575","0.0167056989229761","-3.01460780799082"
"4048","-1.81365555697614","3.17732478181374","-27.8241754783425","-3.0171996709847","0.00491996435990623","-1.21463027055173"
"4060","1.48052977313737","-2.34577102339858","-31.4560438695856","-3.00528357463724","0.00144896956507793","-1.8338627830507"
"4060","0.424055788415985","-0.483007398161943","-30.3640109673964","7.1552342476426","1.70591859077918","1.61206442313867"
"4068","-3.30569792842275","-0.099453929796254","-26.5910027418491","4.27644827056093","1.20789877296616","0.341016322326794"
"4068","-2.37398016204505","-0.0204781214315934","-27.6477506854623","3.3921127162307","1.06122788146594","0.072138638148761"
"4080","-2.10711601708076","5.37806662965593","-29.6619376713656","3.12045328101095","1.01803210964318","0.0152602171017812"
"4080","-2.0306803469267","3.48965724445761","-29.1654844178414","-7.11985521393225","-0.700181254326574","-1.78523171873822"
"4084","-2.00878751575344","3.10082317041071","-29.0413711044604","-4.26558016934153","-0.206209080664282","-1.16610802214535"
"4088","-2.00251693480851","3.0207600557466","-29.0103427761151","-0.003155035579256","1.64476160411933","-4.61205824726596"
"4097","-0.287142559983597","-2.37800857780066","-29.0025856940288","-0.693778748677258","1.18988754242064","-3.34101501588186"
"4101","-0.795822192002411","-0.489645291255315","-29.0006464235072","-0.905931756583477","1.05592342741284","-1.28367849469109"
"4109","-2.65509739889839","-0.100820709179376","-32.5001616058768","-0.971103134151379","1.01646990473272","-1.84846925356219"
"4109","-2.18763408140752","-0.0207595489652777","-31.3750404014692","-0.99112315883081","-0.700641336393044","-3.75640503285105"
"4117","1.37341422510463","7.17210307868548","-36.3437601003673","-0.997273119183381","-0.206344578579102","-3.16001002118149"
"4121","0.393375575834796","4.65315379866768","-34.5859400250918","-4.38478143202767","3.35021355632406","0.543071193036949"
"4130","-1.60090706104606","0.546299233998257","-25.396485006273","-3.42539162864751","2.39764888652699","-0.673578514738667"
"4130","-1.17211279513592","1.7006748665199","-28.0991212515682","-6.51629534879678","2.11711083496055","-0.930948755623835"
"4138","-1.04929683168963","1.93836727775875","-28.7747803128921","-5.46579144767333","2.03449009447742","-0.985392890587213"
"4138","-1.01411968013602","1.98730947713377","-28.943695078223","1.62815152399594","-1.40082610122678","-2.78536987722555"
"4150","-1.00404418215756","0.203292553695246","-27.2359237695558","-0.192656955626531","-0.412554693116328","-2.16613724821013"
"4150","-1.0011583413481","0.835953472484122","-27.8089809423889","-2.4448014802993","-1.82699257381642","1.54177503861695"
"4158","-1.00033177404638","4.55441069382703","-33.2022452355972","-2.13663876605587","-1.24355604682232","0.326147296583058"
"4158","-1.00009502727157","3.32006187194381","-31.5505613088993","-0.349164571890897","-1.07172923895793","0.0689932424667208"
"4171","-1.00002721786843","-2.31638065671861","-24.1376403272248","-0.800069573189295","-1.02112484493246","0.0145948396811546"
"4171","-1.00000779578693","-0.476955756974667","-26.2844100818062","-6.0170119382475","5.81574599093297","0.00308739432592042"
"4179","0.713576111768465","1.69588653357007","-32.0711025204515","-4.61960680116588","3.8292601216993","0.000653107806044191"
"4179","0.204383651150468","1.14328693663742","-30.5177756301129","4.27371046851326","-1.8722517141944","0.000138158512093752"
"4187","0.0585399036888587","1.02950358315688","-30.1294439075282","2.00565258582514","-0.551393374744766","2.92260700106651E-05"
"4187","0.0167670961185537","1.00607495309428","-30.0323609768821","-3.76950178716274","-1.86788169605774","1.78846604957887"
"4199","-3.42235422987565","2.7953452634186","-24.7580902442205","-2.54357404694086","-1.25559822626436","1.16679221292125"
"4199","-2.40739305301412","2.16376604642668","-26.4395225610551","-3.85979030694792","-1.07527575885774","-0.753176620202777"
"4207","1.3104704966792","0.239625950080742","-33.8598806402638","-3.26411936967726","-1.02216932392069","-0.159327082340791"
"4211","0.375347128945326","0.843434722392785","-31.7149701600659","-1.38832539564347","0.698962811034348","-1.82216393926633"
"4220","-3.31964914329818","0.967762332032731","-31.1787425400165","-1.81209940418645","0.205850239193479","-1.17392066898445"
"4220","-2.3779760921038","0.993362083522918","-31.0446856350041","1.44334037199695","-1.64486728585436","0.75166866565974"
"4228","-0.394682193332183","2.79272761233775","-31.011171408751","0.443380375657881","-1.18991866655213","0.159008089436338"
"4232","-0.826623871801773","2.16322705740121","-31.0027928521878","-1.55660733559959","-6.17240816605485","-3.54328314181148"
"4236","-0.950341322363405","2.0336093657559","-31.0006982130469","-1.17098445684758","-4.6397918938584","-2.32646632093327"
"4236","-0.985776679348867","2.00692035673802","-31.0001745532617","-1.0525247919199","-4.18842392228265","-2.06906072892017"
"4248","0.717652211696124","2.00142494023033","-27.5000436383154","-1.01613511436708","-4.05549237936459","-2.01460911577449"
"4249","0.205551134439117","2.00029340317803","-28.6250109095789","-2.69776610489667","-0.605359242684774","1.57382931989167"
"4261","0.0588742961849863","-1.58812837971298","-27.1562527273947","-2.21434708244347","-1.58926694103013","0.332928063504178"
"4261","0.016862873370831","-0.327004532403575","-27.7890631818487","-2.0658453763082","4.94293166005939","1.85888751389457"
"4269","-1.70874845254584","5.314951124027","-34.9472657954622","-2.02022707065449","2.86671733687347","1.18168917884216"
"4269","-1.20300090500446","3.47666140818313","-32.7368164488655","-3.69902311478228","0.549763455559777","-4.32694504823622"
"4281","-1.05814385524879","-0.490041538171322","-26.9342041122164","-3.21473322387352","0.867401671586057","-2.49224226477319"
"4281","-1.01665365926875","0.693192097895967","-28.4835510280541","2.0124646603844","-0.74454314485118","-0.315669127020852"
"4285","-1.00476996865538","0.936826533769655","-28.8708877570135","0.618209920841411","-0.219274018642959","-0.855236556177036"
"4289","-1.00136622231824","0.986992229312909","-28.9677219392534","1.88271773449697","-3.47556169882924","-2.75783658894563"
"4298","-4.42754800495929","2.79141602366265","-27.2419304848133","1.2711624564202","-2.43456493514905","-2.160312852748"
"4302","-3.40888066267108","2.16295699394357","-27.8104826212033","-2.30232058726769","-3.83347476931469","-0.245452735085015"
"4310","-1.40353393159192","0.239459361640974","-33.2026206553008","-1.40006044479366","-3.2454651061782","-0.840382971294619"
"4310","-1.82915920132685","0.843400420899564","-31.5506551638252","0.569914804574132","3.74967595729295","2.61068514165097"
"4318","-3.66464584029349","0.96775526916307","-25.8876637909563","0.175072384205159","1.80980195881337","1.34072454893757"
"4322","-3.19036896179791","0.993360629238478","-27.4719159477391","0.0537805641567466","2.94398512817233","-2.50484281781705"
"4330","0.372630896136031","6.38091610596384","-29.6179789869348","0.0165208756032506","2.27801130669856","-1.31833464968646"
"4331","-0.606848786545073","4.49024396759634","-29.1544947467337","1.69788460706368","-1.32910712134253","-1.06734055410385"
"4338","-0.887392978639639","4.10094397999266","-29.0386236866834","1.21438348517726","-0.391432869564604","-1.01424522976522"
"4339","-0.967746910538007","4.02078493111648","-29.0096559216709","1.06585655888031","3.29570354753705","2.57390629638643"
"4351","0.722816327924496","-4.96619224889402","-27.2524139804177","1.02023050583383","2.38159524508842","1.33294434712211"
"4351","0.207030249157664","-1.81666120846393","-27.8131034951044","-2.37940448561498","-3.00409266549265","2.85889095853327"
"4359","-3.3678587426302","7.80231686372388","-29.7032758737761","-1.4237398820695","-1.59022160842444","2.18168990752149"
"4359","-2.39178436534821","4.78291834838753","-29.175818968444","-1.13016884425762","-2.87931692703748","-1.53848502699916"
"4371","-2.11221552646302","5.95530167152371","-27.293954742111","-1.03998662559826","-2.2589659948999","-0.325451327088161"
"4371","-2.03214095684544","5.19670196716554","-27.8234886855277","0.680526042447662","3.04020797818871","-0.0688460169872704"
"4379","-2.00920586606418","-0.34178115235528","-31.4558721713819","0.209051099934211","1.60085786208439","-0.0145636955836643"
"4380","-2.00263675939703","1.51781413864297","-30.3639680428455","1.75702805295181","-0.528534324541284","1.78537906099274"
"4388","-2.00075522499125","1.90071522923533","-30.0909920107114","1.23255178682277","-0.155657662197768","1.16613919094546"
"4388","-2.00021631279216","1.97955670936089","-30.0227480026778","-5.69980051993108","-1.75133430641243","-0.753314760558329"
"4400","-0.286483612017341","7.37807380151127","-28.2556870006695","-3.82935293154186","-1.22127407102016","-0.159356304569965"
"4400","-0.795633455035126","5.48965872118281","-28.8139217501674","0.130849805080898","-1.06516701565196","-1.82217012094057"
"4408","0.772113348757526","5.1008234744767","-32.4534804375418","-0.652613741625132","-1.01919221673558","-1.17392197665664"
"4412","0.221149983468451","5.02076011835549","-31.3633701093855","2.49233284414726","-4.41663597899024","0.751668389034591"
"4420","0.0633421443455126","-5.76029175451625","-29.3408425273464","1.45843039513205","-3.41721083085048","0.159008030919018"
"4420","0.0181425618368184","-1.98017074637978","-29.8352106318366","2.83363499039453","0.288111728039866","-5.33174302128238"
"4428","-1.70838192205708","2.38636614404003","-26.4588026579591","2.2560847062646","-0.620640607570319","-3.49325722862906"
"4431","-1.20289592273514","1.28546055751103","-27.6147006644898","2.07866677567312","0.817216287469609","0.472576034482315"
"4436","-1.05811378605343","1.05877792835956","-27.9036751661224","2.02416568207088","0.240676850889223","-0.688491069948675"
"4436","-1.01664504680004","1.01210270480926","-27.9759187915306","-3.07100518894715","-3.34010242257628","2.64281637464932"
"4448","2.42238918744349","6.38477520434441","-26.2439796978827","-1.63619301204356","-2.3946710753078","1.34752159423653"
"4448","1.40740306561856","4.49103857757722","-26.8109949244707","-2.88824196834187","-0.410741987865545","-2.50340496995112"
"4460","-0.596889284201798","0.512918801568878","-32.2027487311177","-2.27285944829052","-0.826458717360013","-1.3180304871578"
"4460","-0.17096201684136","1.69380164843663","-30.5506871827794","1.3017992875746","-0.948890679192903","0.721183655570021"
"4469","-1.76254556851623","0.142857647105868","-31.8876717956949","0.399900306507333","-0.984947888861801","0.152559286350262"
"4469","-1.21840956401372","0.823509586572527","-31.2219179489237","-1.56996399752607","0.709924826736811","-3.54464732247341"
"4481","0.651021115781725","0.963659634917553","-20.5554794872309","-1.17508749581011","0.209078642076682","-2.3267548998918"
"4481","0.186466545649575","0.992517315197586","-23.8888698718077","0.639024345586402","3.47255907741405","-0.280661907859272"
"4485","0.0534080566722241","0.998459273270226","-24.7222174679519","0.19630217507782","2.43368063869326","-0.847831124382861"
"4489","0.0152972240010497","0.999682755732932","-24.930554366988","5.13873080877987","-2.98875309296779","-2.75627004291965"
"4497","0.00438145622063028","-0.794159718907961","-30.232638591747","3.65699767554891","-1.58570397941254","-2.15998146539346"
"4501","0.00125494394355358","-0.163521936168779","-28.5581596479368","-1.87660524528839","-1.17249459106447","-2.03384250045213"
"4510","-3.42679724617964","1.76042431358922","-33.3895399119842","-0.576475206237269","-1.05080106161536","-2.00715904704358"
"4510","-2.40866562909865","1.15657562717851","-31.597384977996","-0.17708767693188","-1.01496132629622","-2.00151442576309"
"4518","-0.403472341320152","4.6204285920734","-24.149346244499","-0.0543996428325531","-1.00440623241767","-2.0003203618272"
"4522","-0.829141560539253","3.33365532712167","-26.2873365611248","1.67609850122475","-4.41228138621291","-2.00006776938351"
"4530","2.47609424636208","-0.519487291591344","-28.5718341402812","1.20769100156189","-3.41592836782004","-2.00001433594439"
"4530","1.42278535749466","0.687129052268556","-28.1429585350703","1.06380069183949","3.69947313873276","-0.211543165535447"
"4534","1.12109488195108","0.935578118700911","-28.0357396337676","1.01959896311629","1.79501681996813","-0.833209736445254"
"4538","1.03468419654276","0.986735173654806","-28.0089349084419","1.00602061426231","2.93963078439358","-4.54163689966416"
"4550","-0.703644039662422","4.58545749099795","-29.7522337271105","1.00184947519317","2.27672891700023","-3.32611807465063"
"4551","-0.201538890616806","3.32645458145092","-29.1880584317776","1.00056814111337","-4.74046851043853","-1.28052719376311"
"4559","-0.0577251026677348","1.27312443106163","-36.0470146079444","1.00017452752321","-2.80709029074259","-1.84780262694506"
"4559","-0.0165337194613031","1.85033224733429","-33.7617536519861","-4.07837504246347","4.58427276737419","1.60911558670854"
"4571","-3.43189230459851","0.175088174532518","-29.6904384129965","-2.63845696064779","2.76108937257755","0.340392525076441"
"4571","-2.41012496416508","0.830146032772284","-30.6726096032491","-0.503318327960428","-1.18683669745095","-3.50491305418876"
"4579","-0.40389032648559","2.75912051291288","-32.6681524008123","-0.847424134595082","-0.349533071283631","-2.31834950749787"
"4579","-0.829261280542249","2.15630716731345","-32.1670381002031","0.739679400349291","1.6025515218583","-3.85580356421939"
"4587","-0.951096733340685","2.03218452161147","-32.0417595250508","0.227222446455588","1.17745632949681","-3.18103679971799"
"4588","-0.985993045411449","2.00662697334462","-32.0104398812627","-1.6230089867351","1.05226233398492","2.32708305260285"
"4600","-2.70956644953101","3.79545892748137","-28.5026099703157","-1.19138240981555","1.01539168290754","0.492271458235245"
"4600","-2.20323519705502","3.16378945049411","-29.6256524925789","-2.75160040011663","1.00453297594391","-5.26124443157457"
"4608","-2.05821096156575","-2.34855802396204","-29.9064131231447","-2.23088446371611","1.00133499832549","-3.47834394759245"
"4612","-2.01667287997114","-0.483581257194817","-29.9766032807862","6.39312225754721","2.70588502532111","2.26419065902703"
"4620","1.42238121542055","3.48861670248469","-31.7441508201965","4.04233474680883","2.20788888766545","0.478967192939322"
"4620","0.407400782258557","2.30651452045214","-31.1860377050491","-1.75823337769229","-4.76074245961142","-3.47559895053138"
"4628","-3.31046828285621","7.44539624691138","-25.7965094262623","-0.540112499186076","-2.81306113385577","-2.31214839811411"
"4629","-2.37534649485848","5.50352078992961","-27.4491273565656","-3.5515365044258","1.17153059057153","-2.06603191362404"
"4637","-2.10750736438694","5.10367775210727","-27.8622818391414","-2.47661719406313","0.34502529817681","-2.01396839978419"
"4637","-2.03079243726995","5.02134783011347","-27.9655704597854","-0.453602697540274","1.80710461714485","1.57396485703741"
"4649","-2.0088196208551","-3.96607634483636","-27.9913926149463","-0.832151967807938","1.23769888164374","0.332956735050002"
"4649","-2.00252613040487","-0.816637343168997","-27.9978481537366","-0.948438687775506","-2.34097945876736","-3.50648602219923"
"4661","-2.00072353845219","5.21413298465042","-29.7494620384341","-0.984160857392301","-1.39492936960739","-2.31868225335986"
"4661","-2.00020723708119","3.45590238835465","-29.1873655096085","-6.0735630223361","4.00016565724796","-0.278954219138988"
"4669","-0.286481012537181","4.88796725293068","-29.0468413774021","-4.63697875402852","2.58906507252049","-0.847469879684007"
"4669","-0.795632710487716","4.18283743307122","-29.0117103443505","2.57556441864489","0.467992602908699","-2.75619362516804"
"4677","-0.941464782638634","0.449458458920984","-29.0029275860876","0.791188787915549","0.843319489656564","-2.15996529997213"
"4682","-0.983234246147124","1.68073480828767","-29.0007318965219","1.9358551901881","0.953856313924021","1.54308065336752"
"4686","-0.99519792502828","1.93426150803533","-29.0001829741305","1.28748577524571","0.986410308723074","0.32642348650092"
"4686","-0.998624581737488","1.98646407614118","-29.0000457435326","1.08831288412475","2.70148958270808","-1.71940819937348"
"4698","-0.999606050424454","3.79130727396511","-29.0000114358832","1.02712887444871","2.20659439402577","-1.15218370611047"
"4702","-0.999887164310448","3.16293460177147","-29.0000028589708","-4.07009492455275","0.355351873803069","2.54472677276725"
"4710","-0.999967681415016","3.03354914750297","-32.5000007147427","-2.63591338751634","0.810145877751506","1.32677170681752"
"4710","-0.99999074325739","3.00690795746231","-31.3750001786857","-0.502536966590362","4.35507012998789","-0.719334536801428"
"4718","-0.999997348668459","-2.38086080245713","-29.3437500446714","-0.847184107845671","3.39907918701592","-0.152168123520191"
"4718","-0.999999240601231","-0.490232580294422","-29.8359375111679","-0.953056417609842","3.11753207010083","-1.82064953216594"
"4730","-0.999999782491748","-0.100941635283382","-26.458984377792","-0.985579379889389","3.03461415165616","-1.17360031110516"
"4730","-0.999999937700926","-0.0207844483276975","-27.614746094448","0.697239428637736","-0.400789565377496","-1.03672343288403"
"4734","-0.999999982156196","-0.00427963437558702","-27.903686523612","0.214185292527478","0.587456066988781","-1.00776847987312"
"4738","-0.999999994889148","-0.000881200698711789","-27.975921630903","1.75860522787525","-2.53248126232181","2.57527638891942"
"4750","-2.7135783431868","1.79391295237406","-31.4939804077258","1.23303627989426","-1.45132821006834","1.33323417667863"
"4750","-2.204384290277","1.1634711255567","-30.3734951019314","1.07158651924804","0.572572024613581","-2.50642733216023"
"4758","-0.344961742097877","-0.760434775778964","-30.0933737754829","1.02199069492688","0.168627123448501","-1.31866983806121"
"4759","-0.812382857854527","-0.156577781402004","-30.0233434438707","1.00675533142897","0.0496620609113872","-1.0674114598972"
"4767","-2.65984073222544","1.76185415396702","-28.2558358609677","1.00207517328884","0.0146258813145179","-1.01426022918617"
"4771","-2.18899267479093","1.15687003932436","-28.8139589652419","-0.692172078471327","0.00430744113918386","2.57390312340693"
"4779","-2.05413159476252","-0.761793976423154","-28.9534897413105","-0.212628650959098","0.00126857648907054","1.33294367590961"
"4779","-2.01550446097858","-0.156857648430875","-28.9883724353276","-0.0653174905704589","0.000373606105486436","-2.50648878473152"
"4787","-2.00444081337878","-0.0322978687581496","-28.9970931088319","-0.020064909198162","0.000110030040174409","-1.31868283774631"
"4787","-2.00127194511905","-0.0066503121572574","-28.999273277208","5.07226490720354","-1.7054594527012","2.50950552433196"
"4799","-0.28678596797585","3.58681945653344","-28.999818319302","3.63657998545924","-1.20776355306363","1.31932099924234"
"4800","-0.795720056329267","2.3267350177864","-28.9999545798255","-0.190067812772689","-1.06118805810362","-2.50937052756428"
"4808","-2.65506814502982","5.65546536408164","-28.9999886449564","0.634422535305744","-1.01802038133871","-1.31929244200816"
"4811","-2.18762570246606","4.34086959480547","-28.9999971612391","-2.49792100896829","2.40567656585169","-1.06754316561888"
"4820","-2.05374006428641","0.481998166549641","-32.4999992903098","-1.46014702598757","1.41398319444354","-1.01428809023204"
"4820","-2.01539231817149","1.6874349164235","-31.3749998225774","-1.14135277111244","4.53290513653289","0.785437362585451"
"4828","-2.00440869325034","-1.6525476952271","-24.0937499556444","-1.04342222110049","3.45145304447493","0.166151524072129"
"4828","-2.00126274521869","-0.340268830439266","-26.2734374889111","5.75789931597732","-3.68901083219623","-1.75331215160707"
"4836","-2.00036167757582","-0.0700632588716871","-26.8183593722278","3.84720032673431","-1.7919355855032","-1.15935575267207"
"4836","-2.00010359228997","-0.0144264175986499","-26.9545898430569","-0.125367255754022","0.47226037913337","2.54320959708439"
"4849","-5.4271863603765","5.37931270938564","-32.2386474607642","0.654297928409674","0.139084527061383","1.32645076327192"
"4849","-4.40877707983103","3.48991381925632","-30.5596618651911","0.893803625713484","-5.07551404660873","1.06905743785042"
"4857","2.73723077072857","-0.48731279247194","-30.1399154662978","0.967377488194614","-3.61125578671572","1.01460841958115"
"4861","0.784002168425223","0.693753961925899","-30.0349788665744","0.989978675979829","-3.18001980637228","1.00309026701977"
"4869","0.224555198877823","0.936942224721802","-26.5087447166436","0.996921544983526","-3.053017298798","1.00065371549608"
"4869","0.0643174717798858","0.987016050728227","-27.6271861791609","-2.3865647757437","0.395369688695569","-2.57678144712135"
"4877","-3.40873477256624","-0.796767864445859","-26.1567965447902","-1.42593945480279","-0.589052264803259","-1.3335525568907"
"4881","-2.4034921455066","-0.164058967949683","-26.7891991361976","2.25477457177647","2.53201116906831","-1.07055975221642"
"4885","-2.11556888823646","-0.0337806607994089","-26.9472997840494","1.38545476298877","1.45118976377743","-1.01492621936181"
"4886","-2.03310143227557","-0.00695562734732495","-26.9868249460123","2.81121757325487","-5.68908837050542","0.785302372664527"
"4898","1.41767572227452","5.38085098696069","-32.2467062365031","2.24919828984786","-3.79195842116662","0.166122968286315"
"4898","0.406053027122437","3.4902305592287","-30.5616765591258","-3.00187732132339","-3.2332382035994","0.0351416747903361"
"4910","-5.02443265376397","-4.07543636700819","-31.8904191397814","-1.6149575914109","-3.06869055011517","0.00743387455575263"
"4910","-3.57984135183433","-1.63324958106486","-31.2226047849454","2.19671000568974","2.09624564600629","-5.36380703846486"
"4918","0.261077569468937","2.45779915593874","-29.3056511962363","1.36761788291292","0.617361411546512","-3.5000400550854"
"4918","-0.638800075028787","1.30016901493331","-29.8264127990591","4.49854780595522","-1.52367389484361","4.04806092865652"
"4930","-2.61012286422835","1.06180648216113","-24.7066031997648","3.46033957203487","-1.15422622607548","1.64478721395927"
"4931","-2.17475240073876","1.01272630100739","-26.4266507999412","-5.32263584000023","4.07105469295694","-0.6520614941539"
"4934","-2.05005287189587","1.0026204166888","-26.8566626999853","-3.02068199261647","2.60994247075473","-0.137937175137417"
"4939","-2.0143362264234","1.00053955847963","-26.9641656749963","1.07207534507174","-1.23135069075988","-3.60609898254578"
"4951","-2.00410620570365","-0.793983298421351","-30.4910414187491","0.329331305666871","-0.362642804770799","-2.33975439223092"
"4951","-2.00117610623485","-0.16348561020202","-29.3727603546873","-1.59164212051736","3.30418245604354","-0.283411822196424"
"4959","-2.00033686229465","5.34862058638074","-29.0931900886718","-1.18174680812612","2.38409235268357","-0.848412841627227"
"4959","-2.00009648465606","3.48359413914739","-29.023297522168","-1.05583088343194","2.11311832535882","-0.967933232370698"
"4967","-2.0000276352949","4.89366913958864","-27.255824380542","-1.01715071410018","2.03331426789048","-0.993216591713772"
"4971","-2.00000791534691","4.18401148348442","-27.8139560951355","4.07316012010159","-6.51764796406273","-0.998565036909563"
"4980","1.42715442217456","-1.34439419405589","-24.4534890237839","2.63685498631055","-4.03597596806217","-0.999696447717131"
"4980","0.408767932038365","0.51727609871473","-25.613372255946","7.27406442428128","3.51686407168912","-0.999935786509737"
"4988","0.117079987748154","0.900604443799217","-25.9033430639865","5.69857086953997","1.74123696281921","-0.999986416269735"
"4988","0.0335342438991066","0.979533898018809","-25.9758357659966","-3.24945346096434","4.62928403600168","0.788462740596241"
"5000","0.00960493364847054","2.78988031145671","-32.9939589414992","-0.99820106480623","3.47983741513907","0.166791512938628"
"5000","0.00275106099511549","2.16264078219506","-30.7484897353748","-1.99944738429169","-0.269667689026403","0.0352830988149411"
"5008","0.000787963444187976","-1.55470014466563","-30.1871224338437","-1.30702068984908","0.626072527241406","0.00746379141271395"
"5008","0.000225689794039086","-0.320121471493404","-30.0467806084609","-1.09431382329567","0.889875314547189","0.00157889142744209"
"5021","-1.71351370220626","-0.0659148047697276","-28.2616951521152","-1.02897230564175","0.967567383437724","0.000333998902408186"
"5021","-1.20436577570035","-0.013572227653342","-28.8154237880288","4.06952864009849","-0.715043527105942","-1.78838921291993"
"5029","-2.77211312842351","-0.00279459772531618","-23.7038559470072","2.63573943034107","-0.210586141014695","-1.16677595888421"
"5029","-2.22114992036002","-0.000575423331071175","-25.4259639867518","-1.19032602327611","1.64347252420567","2.54163992567607"
"5037","-2.06334212626989","-0.000118482888231645","-25.8564909966879","-0.365656784494508","1.18950789788966","1.32611871477359"
"5037","-2.01814255665957","-2.43962906015296E-05","-25.964122749172","-0.112326271485581","-0.649680238436768","-0.71947267082519"
"5049","-0.291618076460041","1.79408937320277","-32.991030687293","-0.0345055576728724","-0.191336120277382","-0.152197344409937"
"5049","-0.797104076840137","1.1635074515939","-30.7477576718233","1.68220977415982","1.64914181205718","-1.82065571355684"
"5057","-2.65546455847558","1.03366710049135","-33.6869394179558","1.20956832623338","1.19117754932443","-1.17360161871741"
"5061","-2.1877392438614","1.00693224464356","-32.421734854489","2.75718693993043","-0.649188512493999","2.54019602468777"
"5070","-0.340194240350153","-0.792667008519009","-28.6054337136222","2.23260059538493","-0.191191302983331","1.32581327176662"
"5070","-0.811017342112063","-0.163214578735344","-29.6513584284056","-1.31416642263931","-1.76179925295844","-4.29645701846375"
"5078","-0.94587127429542","3.55458199674274","-28.1628396071014","-0.403699372269774","-1.22435608298938","-2.48579282290302"
"5082","-0.984496360781744","2.32009714417404","-28.7907099017754","-1.81682214295561","4.05040087905951","3.26261492295382"
"5086","-0.995559421991168","2.06590979563835","-28.9476774754438","-1.25091996012573","2.6038597543871","1.47863386152097"
"5086","-0.998728122296003","2.01357119624512","-28.986919368861","0.615729336891533","0.472349757184942","-2.47566946350392"
"5098","0.713942637968043","-1.58539440771882","-32.4967298422152","0.189146170917973","0.84460270706929","-1.3121633144377"
"5099","0.20448863219128","-0.326441592250264","-31.3741824605538","0.0581038970037472","-0.751257625543214","-1.06603506902511"
"5111","0.0585699725323484","1.72687824348757","-25.8435456151384","0.0178489621578761","-0.221251487879798","-1.01396906727815"
"5111","0.0167757084864805","1.14966830337037","-27.4608864037846","-3.380136073084","-0.0651603647332411","0.785504848743517"
"5119","0.00480492619435568","1.03081754232495","-27.8652216009462","-2.42396461875195","-0.0191902579858614","0.166165800102975"
"5119","0.00137623491441875","1.00634550464971","-27.9663054002365","-0.437428329335961","1.69984017020937","-1.75330913165361"
"5131","-3.42676250581899","6.3835897645713","-36.7415763500591","-0.82718335639126","1.20610862861447","-1.15935511383071"
"5131","-2.40865567870704","4.49079448888537","-33.9353940875148","2.43870672595979","1.06070066937802","4.33166959931711"
"5135","-2.11704783596318","4.10105733541089","-33.2338485218787","1.44195696385531","1.01787684139043","2.49324169693677"
"5139","-2.03352503493163","4.02080827163227","-33.0584621304697","-0.557044594109075","-4.1112106969792","0.315880547033569"
"5148","-0.2960239513501","-1.37799864987962","-27.7646155326174","-0.171118778485049","-2.6217687409118","0.855281279994626"
"5152","-0.79836601481941","0.510356752959257","-29.4411538831544","-0.0525660542439113","2.93335961534651","-2.60753355144846"
"5160","-0.942247660189891","0.899179711735859","-29.8602884707886","-0.0161477897588853","1.56939014920857","-1.34005786112726"
"5160","-0.983458479231291","0.979240537703528","-29.9650721176971","-0.00496044677211743","1.16769003523313","-1.07193588513922"
"5168","-2.70884049489009","2.78981990692396","-33.4912680294243","-0.00152380186678309","1.04938608080167","-1.0152173267032"
"5172","-2.20302726792506","2.16262834456329","-32.3728170073561","-0.000468097378297332","-2.39643911196288","-2.79167894240543"
"5180","-2.05815140616015","0.239391690891999","-30.343204251839","-0.000143795043401155","-1.4112626890568","-2.1674718686968"
"5181","-2.01665582201328","0.84338648711316","-30.8358010629598","-4.41724638192829E-05","0.584371646787229","-3.82388688845459"
"5188","-2.00477058811225","0.967752400118372","-30.9589502657399","-1.35693589550402E-05","0.172102208257725","-3.17428514188473"
"5188","-2.0013663997441","0.993360038486098","-30.989737566435","-1.6928137202613","0.0506855016837765","0.540051432106109"
"5201","-3.71396971112724","0.9986327947175","-27.4974343916087","-1.21282575718809","0.0149272929554104","-0.674217315367327"
"5201","-3.20449638653035","0.999718484771247","-28.6243585979022","-1.06537803972127","1.70988806676564","-2.71954375468586"
"5209","0.368584495758342","0.999942034436939","-30.6560896494755","-1.02008350931893","1.20906781596585","-2.15221238149927"
"5209","-0.608007763239456","0.999988064565758","-30.1640224123689","-1.00616946222743","1.06157217414835","-2.03219902741258"
"5217","-2.60130327931362","0.99999754242721","-30.0410056030922","-1.00189519986628","1.01813350664157","-2.00681138653836"
"5221","-2.17222628062799","0.999999493971992","-30.0102514007731","0.692227364587652","-2.40564324952887","1.57547885257066"
"5229","1.37782735290919","0.999999895805997","-30.0025628501933","0.212645634325946","-1.41397338251519","0.333277005866327"
"5230","0.394639591205848","0.999999978545871","-30.0006407125483","0.0653227076985316","-2.82741038939615","-3.50641827206817"
"5238","0.113033324979565","0.999999995582475","-30.0001601781371","0.0200665118500726","-2.24367909691263","-2.31866792148814"
"5238","0.0323751920502867","0.999999999090407","-30.0000400445343","0.00616424076735195","-0.366273620767521","3.29796854681133"
"5250","0.00927295609929585","4.58818879288412","-24.7500100111336","0.00189359588361872","-0.813362421163474","1.48611257181056"
"5250","0.00265597543594206","3.32701697181404","-26.4375025027834","1.69339124645188","-0.945033713325697","-0.685627549043146"
"5258","-3.42639596042039","-0.520854166146974","-28.6093756256958","1.21300316771737","-0.983811981008348","-0.14503774284988"
"5262","-2.40855069216722","0.686847605138319","-28.152343906424","1.06543253854126","-0.995232496595106","-0.0306813033991203"
"5270","-3.83059611019531","2.72961456369542","-33.288085976606","1.02010025083587","-0.998595931427595","-0.00649032699883642"
"5271","-3.23790071280886","2.15023172703404","-31.5720214941515","-0.686634946822327","-2.70507834781667","-5.36675256591236"
"5279","-1.35456157132084","5.61912234748584","-25.8930053735379","-0.210927697006563","-2.20765131457197","-3.50066315235313"
"5279","-1.81513245683164","4.3333863640416","-27.4732513433845","3.32082413000413","-0.35566314550996","2.25946925148556"
"5287","-1.94704993226535","4.06864612047475","-27.8683128358461","2.4057445563786","-0.810237549803733","0.477968425760487"
"5287","-1.98483395394858","4.01413462086184","-27.9670782089615","-2.9537878035569","4.17236215906605","1.88956937140327"
"5299","1.43150057331648","0.414721604566886","-29.7417695522404","-1.60018495089852","2.63977834442558","1.18817962305741"
"5299","0.410012763842831","1.67358229532943","-29.1854423880601","0.508438467864754","2.18841993186436","-4.32557205880429"
"5307","-1.59614181011644","-1.65540002753303","-30.796360597015","0.156187440782865","2.05549120415391","-2.49195182240628"
"5308","-1.1707479240765","-0.340856141644","-30.1990901492538","0.0479792899242039","2.01634261146357","-2.10406755389609"
"5320","-1.04890590306145","1.72391020699599","-31.7997725373134","0.0147387795721112","2.00481303214665","-2.02201446418258"
"5320","-1.01400770971122","1.14905716802547","-31.1999431343284","1.69733716418529","-1.40956623773033","-3.79311680977121"
"5328","-2.7175904560538","2.82478610266867","-29.2999857835821","1.21421531595413","-0.415128734483676","-3.16777603535046"
"5328","-2.20553344628582","2.16982808019896","-29.8249964458955","2.75861445078514","-0.12225879251443","0.54142836936748"
"5336","-2.05886922991484","0.240874156802844","-26.4562491114739","2.23303911308408","-0.0360062098945698","-0.673926037876051"
"5336","-2.01686142228135","0.843691735151147","-27.6140622778685","2.07158738957689","1.69488773544742","0.85743759637763"
"5348","-0.291251131830706","0.96781525239984","-24.4035155694671","2.02199096228359","1.2046500962516","0.181382463097924"
"5348","-0.796998975951981","0.993372980123043","-25.6008788923668","-3.07167324209313","-0.645220737722979","0.0383696703508905"
"5356","-4.36901279995588","0.998635459473065","-34.6502197230917","-1.63639823158884","-0.190022761005437","0.00811672516565832"
"5360","-3.39211491235779","0.99971903345935","-31.9125549307729","-1.1954954579421","-0.0559632503870828","0.00171701312031997"
"5369","0.314846487016644","2.7940365439506","-25.9781387326932","-1.06005433732991","-0.0164816329228987","0.000363217183677033"
"5369","-0.623399492658431","2.16349657375485","-27.4945346831733","2.367170984972","-0.00485397509841349","7.68350113094597E-05"
"5377","-0.892133459281827","2.03366486068334","-27.8736336707933","1.41998186752495","-0.00142953519024706","1.62536885043804E-05"
"5377","-0.969104686850694","2.00693178345454","-27.9684084176983","1.12901441808565","-0.000421009753598167","-1.78845642878471"
"5385","-0.99115091326524","0.207332896519587","-31.4921021044246","1.03963199690518","-0.000123990800530175","-1.16679017773718"
"5386","-0.9974654299291","0.83678540171157","-30.3730255261061","-2.37344453287865","-1.70552837374431","2.54163691781802"
"5397","-0.999274044244694","2.76048759618094","-28.3432563815265","-1.42190904151768","-1.20778385087203","1.32611807849089"
"5398","-0.999792070550855","2.15658865741875","-28.8358140953816","2.25601267623962","4.0552815363584","-0.719472805424515"
"5406","-0.99994044450298","0.238148085465766","-28.9589535238454","1.38583509685362","2.60529714770265","-0.152197372883096"
"5409","-0.999982942015958","0.8431304217874","-28.9897383809614","1.1185248563014","2.17826493866438","1.75626401460422"
"5418","-0.999995114223974","0.967699674832945","-30.7474345952403","1.03640970372013","2.05250047596891","1.15998019016281"
"5418","-0.999998600607943","0.993349182054384","-30.1868586488101","-0.681624838682281","-1.39552189722699","1.03384223068967"
"5426","0.713578745466851","2.79272495585308","-28.2967146622025","-0.209388639641912","-0.410992561848612","1.00715898997799"
"5426","0.20438440549872","2.16322651041614","-28.8241786655506","5.0141064656095","-5.23751622832625","-2.57540532049284"
"5434","-3.36861656955079","0.239514856592901","-28.9560446663877","3.61871426772423","-3.65896674834337","-1.33326145088081"
"5434","-2.39200142338927","0.84341184762113","-28.9890111665969","1.49725356127422","-1.48857921561685","-2.85895803870453"
"5447","1.31487899271487","2.76185201852477","-27.2472527916492","1.84556109619903","-1.84938241472676","-2.18170409766984"
"5447","0.376609817677464","2.15686959962484","-27.8118131979123","-4.81868036360057","4.86632553505091","5.11540175939756"
"5455","-1.60570913725067","-1.55588846349546","-33.2029532994781","-2.86587168399067","2.84415620928881","2.65903250224435"
"5455","-1.17348821375156","-0.320366152999167","-31.5507383248695","-2.26598751061618","2.2486108772248","2.13941182311537"
"5467","-4.47684747066764","3.52222360700858","-25.8876845812174","-2.08170882257949","2.07321792767071","2.02949119559075"
"5467","-3.42300109724711","2.3134343704087","-27.4719211453043","8.13175714147983","0.316071418436149","-1.57068116274939"
"5475","-1.40757832983744","0.27044349664975","-31.3679802863261","5.26923632779832","0.798577463802639","-0.332262101923885"
"5475","-1.83031760456722","0.849780227916365","-30.3419950715815","1.00427817253398","0.940679422995587","1.71817309789091"
"5483","-1.9513992874165","2.76316330371255","-31.8354987678954","1.69412376562168","0.982529607051077","1.1519224325787"
"5484","-1.98607970345068","2.15713960059274","-31.2088746919738","0.213228190609396","-2.41612888786502","-6.12170177678916"
"5496","-1.99601292561939","0.238261527752482","-24.0522186729935","0.758311215308142","-1.41706148838509","-3.66036520876069"
"5496","-1.9988580155559","0.843153780189904","-26.2630546682484","0.925755513925859","2.28815571061195","0.437225990155305"
"5504","-0.286094566274477","2.76179888099461","-30.3157636670621","0.977192803052731","1.37937234565529","-0.69596902302391"
"5504","-0.795522023909449","2.15685865830962","-29.3289409167655","0.992993846949495","1.11172824485607","-0.93568524672237"
"5512","-4.36858976890699","5.62048686976925","-32.5822352291914","0.997847776704845","1.03290487786361","-0.986394848543714"
"5516","-3.39199374710451","4.3336673268258","-31.3955588072978","-0.693470694322329","1.00969075446064","2.57979776973157"
"5524","2.02845953601972","-1.31357921732073","-27.5988897018245","-0.213027573344298","1.00285400609617","1.33419063017656"
"5525","0.580994738115919","0.523621075095123","-28.6497224254561","1.62736951616711","-0.704651329409726","-0.717765136768023"
"5533","0.166409474640417","4.4900997030612","-30.662430606364","1.19272192280579","-0.207525554174108","-0.151836132428539"
"5536","0.0476632771923219","3.30681987858078","-30.165607651591","1.05920233382852","1.64437389195122","-0.0321194356341492"
"5545","-3.41350489454852","3.06317593225402","-28.2914019128978","1.0181863914583","1.18977335803017","-0.00679454968297352"
"5545","-2.40485841174098","3.01300827845518","-28.8228504782244","-2.380032418026","-0.649602058263866","-1.78989718703512"
"5553","-0.402381871822293","3.00267847742535","-27.2057126195561","-1.42393277690823","-0.191313095579876","-1.16709495592896"
"5557","-0.828829226460568","3.00055151351063","-27.801428154889","-1.13022809970956","-0.0563432644258767","-1.03534728918545"
"5565","0.762605360955253","-0.588075233349184","-31.4503570387223","-1.0400048283071","-0.0165935501516091","-1.00747737025222"
"5565","0.218426689863083","0.673006410730534","-30.3625892596806","0.680520450749377","-1.71037879307751","0.786878103195179"
"5573","-5.07817289986892","2.72676458420822","-30.0906473149201","0.209049382217909","-1.20921233886047","0.166456298532196"
"5574","-3.59523372208259","2.14964490028787","-30.02266182873","-3.32140113036576","0.643877120126351","0.035212187514852"
"5586","-1.45690948334798","5.61900151657054","-26.5056654571825","-2.40592180537825","0.189627054682748","0.00744879082686842"
"5586","-1.844447115216","4.33336148427907","-27.6264163642956","-0.43188574941042","3.4668304265409","0.00157571820151863"
"5594","1.47171040405552","0.480452204520825","-33.1566040910739","-0.825480728780213","2.43199350436525","0.000333327637774591"
"5594","0.421529730124426","1.68711659417902","-31.5391510227685","0.746420205014756","-1.28375811032102","-3.57684922201147"
"5602","-1.59284310156946","0.141481156974762","-24.1347877556921","0.229293157261436","-0.378077216561904","-2.33356689399997"
"5606","-1.16980310251396","0.82322615954142","-26.283696938923","0.0704366677291085","-0.111346818792407","-2.07056278509042"
"5615","-4.47579197500683","0.963601275703675","-33.8209242347308","0.0216374715235136","-0.0327925447820764","-2.01492686093638"
"5615","-3.42269878043272","0.992505298708435","-31.7052310586827","1.69945637645725","-1.71514952889741","1.57376210403789"
"5623","0.306086604895637","0.998456799007776","-27.6763077646707","1.21486631772161","-1.21061735940541","0.332913844653536"
"5627","-0.625908512596195","0.999682246268429","-28.6690769411677","11.222862191729","-1.06202852730855","0.0704246389448771"
"5635","-2.60643044157637","0.999934572726148","-30.6672692352919","8.29722292901001","-1.01826790636313","0.0148976374823877"
"5635","-2.17369481093053","0.999986528157694","-30.166817308823","-2.75836281843393","4.11109552516047","0.00315144821303747"
"5643","-0.336171610621652","0.99999722607218","-23.0417043272057","-0.154533158377816","2.62173482187339","0.000666657773838197"
"5643","-0.809865173846369","0.999999428832718","-25.2604260818014","0.645338441712958","0.477614110108394","0.000141024874081793"
"5655","-2.65911961300418","6.38228307200057","-34.5651065204504","0.89105135698023","0.846153101870535","2.98324206065774E-05"
"5656","-2.18878613062987","4.49052543356305","-31.8912766301126","0.96653201752911","0.954690835793882","6.31075422007868E-06"
"5664","1.37308425325932","0.512813142340976","-31.2228191575281","0.989718955467224","0.986656082208889","1.33497778646431E-06"
"5664","0.393281064752644","1.69377989260955","-31.055704789382","2.68965131320672","0.996070107556919","2.82401378377707E-07"
"5676","-1.60093413106666","-1.65124122907654","-27.5139261973455","2.21185429594787","0.998842614676143","5.97392251153842E-08"
"5676","-1.17212054857603","-0.33999982173813","-28.6284815493364","-4.70615859142782","4.41064285548596","-1.78845985445489"
"5684","-1.04929905244278","1.72408652806296","-23.6571203873341","-2.8313060703741","3.41544580717913","-1.1667909024039"
"5684","-1.01412031620782","1.14909347352117","-25.4142800968335","-3.94817883616374","-0.288631541882884","-2.82374283675448"
"5692","-2.71762270899296","4.61888797470937","-27.6035700242084","-3.2912714815754","0.620487518160937","-2.17425466916894"
"5696","-2.20554268422604","3.33333810537362","-27.1508925060521","1.98895283870293","4.29921419878465","6.90543747958486"
"5705","-2.05887187586097","1.2745417872089","-32.287723126513","0.610987313803053","3.38262916046651","3.82615676349474"
"5705","-2.01686218013762","1.85062408890712","-30.5719307816283","0.187689466720446","3.11268740333677","3.17476531155241"
"5713","-0.291251348897154","0.175148266347687","-30.1429826954071","0.0576564113885361","3.03318735784618","3.03696987723348"
"5717","-0.796999038124512","0.83015840601375","-30.0357456738518","1.71052105073506","-0.401209767772286","-2.35755898853285"
"5725","-2.65543447311278","2.75912306063263","-24.7589364184629","1.21826527997126","0.587332313961994","-0.498718341772369"
"5725","-2.18773062676198","2.15630769190322","-26.4397341046157","1.06704900916257","0.878466006292045","-0.105498944302117"
"5733","-2.05377011687694","7.41446781923456","-28.6099335261539","1.02059681517039","0.964207249255652","-0.0223172606993091"
"5734","-2.01540092588422","5.49715245336461","-28.1524833815385","-2.37929195888573","-0.716033113982643","-5.37010059757088"
"5746","-0.290832814035009","-0.279916713683319","-28.0381208453846","-1.42370531493312","-0.21087758240765","-3.50137139541515"
"5746","-0.796879160676475","1.5305523732207","-28.0095302113462","-2.82296777744735","-1.76759702254554","5.83623916383836"
