Timer,AX,AY,AZ,GX,GY,GZ
"4","-9,99889762153722","-6,99569736629184","-0,99999964000013","-0,999984790231341","1,9996974657704","0,987763887172512"
"15","-11,7203857334455","-13,371097330621","-0,999999880000029","-0,999996872920996","3,80759722649967","-0,723664041104226"
"15","-11,2182258462538","-12,1554442133709","-0,99999995500001","2,57066028569863","1,36102777168077","-0,218829235822262"
"15","-11,0665834460395","-11,5860458910733","-0,999999982857147","1,3378319746982","1,87219088048749","-0,0666278856220493"
"15","-11,0203289882965","-11,3002756514989","-0,999999993454547","1,07267053835545","1,97443373256768","-0,020299359550998"
"16","-11,0062071499038","-11,1542627087572","-0,999999997500001","1,01563211762135","1,99488584557938","-0,00618492185225165"
"16","-11,0018952705581","-11,0793059230114","-0,999999999045093","1,0033626164606","1,99897698880065","-0,00188446671677595"
"16","-11,0005786959366","-11,0407784371122","-0,999999999635258","1,00072333063478","1,99979536168996","-0,000574173238363071"
"28","-11,0001766972016","-11,0209689533782","-0,999999999860681","-6,13940653611978","1,99995906512268","-0,000174943351479791"
"31","-4,22140140772293","-9,52500607059231","-0,999999999946785","-3,6753160671749","1,99999181158122","-5,33030352443769E-05"
"42","-7,84625455543641","-6,78419640268788","-0,999999999979674","9,3489668505246","-3,39989586139597","-1,69532883872635"
"42","-7,95305584809738","-7,37480270588482","-0,999999999992236","5,15061340905953","-1,48006378986859","-1,21185793744091"
"49","-9,6803293558377","-4,70695886977029","-0,999999999997034","0,677726771642101","4,30386453894837","-1,06455044456244"
"56","-5,8184033600942","-11,27818210172","-0,999999999998867","-7,20888615380116","0,660889398283066","-1,01966770725488"
"62","-11,7232043953091","-3,2284027798308","-0,999999999999567","-2,1204807250283","2,73213066414494","0,689320095322594"
"65","-12,2208209621205","-5,57477338746816","-0,999999999999835","1,54386452112139","-5,05340701764393","5,29596494287552"
"87","-11,3727616441229","-5,78133753316145","-0,999999999999937","0,332099874501807","-0,810824322034625","-1,38638620020926"
"87","-11,1138178714493","-5,88755813251197","-0,999999999999976","0,0714378270471596","-0,962158194288401","-0,422414409579239"
"87","-11,0347527919395","-5,94217949816434","-0,999999999999991","0,0153669529110049","-0,992430304598794","-0,128704349043033"
"87","-11,0106113085073","-5,9702672100056","-0,999999999999996","0,0033055770525208","-0,998485794020937","-0,0392145937424123"
"99","-11,0032400236629","-5,98471063424235","-0,999999999999998","-1,78417947192407","-8,19955606997967","-3,40257338859052"
"110","-9,30632616270031","-11,935234878815","-0,999999999999999","-1,16868442836145","-5,64002402669174","-2,42734644195361"
"110","-9,78819580585532","-10,995147575952","-1","2,53349544818238","2,0718315927095","1,26041811872671"
"118","-9,93532837157026","-10,5117304926468","-1","1,32986938874698","-0,385525372181605","0,38403352209114"
"121","-6,59092709585452","-8,7773707221376","-1","2,85584856128743","-0,877083408762161","-4,96892761770514"
"143","-9,26442123421492","-11,8570668282605","-1","-1,38567993769892","0,824552393287471","-0,209282244761664"
"143","-9,08073755043962","-11,4407258188188","-1","-0,298072873049266","0,164939551433932","-0,759078261401905"
"150","-9,02465215046116","-11,2266325576591","-1","-5,41878989542321","-1,76697101527402","-2,62190677931962"
"150","-9,00752721031354","-11,1165402933025","-1","-3,52030460557046","-1,15342124557756","-2,18948716090796"
"161","-5,61297206286341","-8,08837948578866","-1","7,59742075059108","2,56923982370878","-0,362421752828453"
"176","-16,7444680551308","-4,07389847387583","-1","3,98894872795853","1,31390329434718","-0,805737940265935"
"176","-14,1433241334354","-5,00954902903889","-1","1,42784170107477","-2,53713775554095","-4,33143599360353"
"176","-13,3490990054795","-5,49068462250179","-1","-3,47774826533902","-1,30748174883132","-3,40567177388644"
"176","-13,1065927955711","-5,73809692618664","-1","3,82168448941995","-2,86147193236301","-1,42829048091998"
"177","-9,6432204379998","-8,83687123171204","-1","-1,17791948583675","-3,97228950213102","-8,60705770370588"
"179","-12,2803883193155","-5,45879219128956","-1","-5,60805323148026","0,405437300037821","-6,79433763873566"
"183","-7,00162348223903","-4,235922751303","-1","-3,56101694094214","-0,718862985877071","-6,24202467149662"
"205","-8,38982198090435","-4,6070918159833","-1","2,23399154329507","2,65616679767721","-4,37842927043987"
"205","-8,81369015714584","-4,7979565006934","-1","0,480552730512586","1,33129175408677","-4,81061522922022"
"212","-8,94311273684393","-13,8107496294901","-1","0,103371441801649","4,66619951406887","-6,6376094441537"
"222","-5,59330394953569","-10,959585525179","-1","1,80712670860775","-3,86656031345742","0,586978826739915"
"222","-6,57048383929987","-10,4934435709868","-1","1,17362059621721","-1,57341313433692","-1,21178014212318"
"228","-13,6475054262965","-10,2537413824607","-1","1,03734743393985","-4,71463232704247","8,41203624844256"
"228","-11,8083810043828","-10,130480348633","-1","1,0080337866145","-3,34298692138767","5,34429186228682"
"229","-11,2468285208242","-10,0670963530437","-1","-2,56805292212708","9,53114371038317","1,01896359921594"
"239","-12,7700289824674","-5,57717987328338","-1","-1,33730302855353","5,10642376389192","1,70109056772897"
"239","-12,2351182347232","-6,26834927603985","-1","4,28211452378471","-1,17857045940581","-3,17701173221786"
"249","9,95883050306834","9,71975055692581","-1","2,49090443920374","0,564209094210547","-1,66330804892106"
"249","3,73546121123398","6,94124292822834","-1","-10,3886355375551","0,91282645335208","2,18852358971634"
"255","-20,1953836196069","-9,34527985682045","-1","4,55019667786545","2,7825269581718","3,05744076277574"
"261","-9,41836332608706","-10,691777521761","-1","3,54857144852249","2,15653298264191","-2,76374891501953"
"281","-7,43307861005062","-9,38418127179636","-1","2,33311237914701","-1,56861736657961","0,157920523165176"
"281","-7,82689800063811","-8,71178163042923","-1","2,07165562638188","-0,313778780974217","0,048116393933518"
"281","-14,7257981222139","-11,3375649634011","-1","2,01541380360984","-3,66269630195892","-1,68065213888675"
"281","-11,1376235146668","-10,68781032503","-1","0,218425122238894","-0,532633144024817","0,487926466053417"
"287","-5,95803212449292","-11,8394640352524","-1","2,6167663773436","0,8934545911582","-1,54664755061728"
"292","-7,37651193243109","-11,4316740096644","-1","-5,00688984457891","-1,62124232072022","-2,86186921998473"
"298","-6,11496297272052","-6,76465508634615","-1","0,922970593416283","0,675694372701831","-3,95791329149406"
"301","-5,0351024335707","-4,39320532300594","-1","0,198539712551827","1,93512743989403","1,79407368167692"
"304","-5,70538120295083","-5,17374482789267","-1","0,0427077717766288","1,1870584595052","-4,53930614469529"
"304","-17,7726839721734","-1,11779552957438","2,23606797749979","-1,77570368681213","2,83738302851002","-0,0783819942855497"
"304","-14,4572763570967","-2,03212202472435","1,47213595499958","-1,16686120674227","2,167506130872","-0,71919460415669"
"316","-13,4449601929092","-2,50229223777592","1,18033988749895","-1,03589342527159","2,03350713224942","-0,91444213345898"
"317","-13,1358627499236","-2,74406586067056","1,06888370749727","13,2714032471553","-3,39319161555036","7,50263139383307"
"328","-1,17884195425062","-11,7830376755705","1,02631123499285","4,77925714514047","2,12120677796692","-5,10466792797761"
"339","-9,61191212918354","-5,9737867932639","1,01004999748128","4,95251612211234","1,22428088806489","-2,94595320520235"
"339","-9,18683933059029","-5,98652049452657","1,003838757451","-11,0742290272534","-4,35503013792234","-3,98353262250399"
"346","-5,6677226633523","-13,4219398215826","1,00146627487171","5,18760956045227","-4,27105380440082","-1,60435740163146"
"346","-4,89854348003787","-10,7596495163352","-2,23550791033564","-2,6689866044724","3,94560338777783","3,20648510928815"
"359","-3,96902158435879","-8,90485706405755","-1,47192202837886","-3,14390535202357","-0,210740204971562","-3,41364957824084"
"359","-4,68520428367965","-8,95107505393347","-1,18025817480093","1,32371619493257","1,75780926968771","-0,73540861945242"
"368","-4,90388126316688","-8,97484153369977","-1,06885249602394","0,284743885359711","1,15158857342761","-0,919382339656229"
"371","-4,97065140632031","-8,98706286920135","-1,02629931327088","1,84614163829858","-6,16953590503902","2,41518838139018"
"372","-4,99103879244198","-8,99334739441967","-1,01004544378869","1,18201307695419","-3,63401893522686","1,43119007133661"
"372","-8,38659008491492","-8,99657905901268","-1,0038370180952","-2,53062832968567","0,473103340452821","6,21731597647622"
"385","-14,2020296120882","-3,05514379996746","-1,00146561049692","7,59520001979758","-0,705327391966704","1,284963048495"
"385","-11,9776976803044","-3,9999048930831","-1,00055981339555","4,77336156058333","-0,941055088573451","1,78213724887644"
"392","-11,2985271436791","-4,48572535961147","-1,00021382968974","-1,18831420531029","-0,988208939384379","-3,15231782949429"
"397","-16,1751407497735","-3,24977247955132","-1,00008167567368","-6,61028923404747","0,80232336900363","3,43015366599732"
"427","-4,49617183958604","-8,07153650076387","-1,00003119733129","1,57806420510703","-1,63947177833403","-11,1267509785783"
"427","-6,93015209737934","-7,55101164357492","-1,00001191632019","0,339456550300912","-1,12791690271197","-7,56205643661851"
"434","-7,67333599641867","-8,76911863287586","-1,00000455162929","-1,71187021518413","-4,62551737302874","0,305311474273203"
"446","-12,9842468454461","-3,9381777953894","-1,00000173856769","-1,15313002267356","-3,32516078849334","-1,29760063598846"
"446","-11,6058637092612","-4,45398369749444","-1,00000066407376","0,751950815259363","4,13481534206765","4,99526262922342"
"452","-12,8796556609832","-15,1196442283369","-1,00000025365361","1,94664227204159","-0,172891142716012","-0,47800640694624"
"452","-3,79527562113416","-12,1184270769887","-1,00000009688706","1,20363171472764","3,56534515779473","-5,2315803241466"
"458","-9,41080577998711","-7,11780118644327","-1,00000003700756","1,04380310965143","4,11308896498406","9,88256637217351"
"480","-2,34678160473166","-10,5178991996675","-1,00000001413563","-0,775468069265528","-2,17723718417999","-10,4654695162311"
"480","-4,18987461558702","-10,2663170960686","-1,00000000539933","-0,166810523177371","-0,435524203734528","-6,66525970788197"
"485","-4,75263885564765","-10,1369471041931","-1,00000000206236","1,74900801008554","-1,88708493797449","9,75042972742069"
"493","10,3274966997798","-10,070421725168","-1,00000000078775","1,16111871394621","-1,1774482651975","5,75208349431686"
"515","-12,7092764961008","-10,0362126633116","-1,00000000030089","2,81954869354856","2,56443357261949","-0,552100025793601"
"515","-8,74325258123198","-10,0186214833702","-1,00000000011493","2,17629268277886","1,31294187466639","0,527094675419762"
"526","-19,3949212281258","-1,09493004973982","-1,0000000000439","-6,88653043915612","2,86256415004783","5,94184949908927"
"526","-15,6472683295154","-2,5061382726096","-1,00000000001677","-3,83602949185832","2,17254324303717","4,59165707904891"
"526","-6,02965606613784","-10,6606891869695","-1,0000000000064","3,95972427284835","-5,16534423227937","0,789645262418983"
"532","-14,8716970419845","-8,36819485002047","-1,00000000000245","-3,71800688726191","0,966749029401001","1,63122015944796"
"537","-10,1821718332957","-8,18933526699368","-1,00000000000093","1,20022151959314","-5,20651033107574","1,88763742845392"
"537","-10,7502869122585","-8,09736106663517","-1,00000000000036","0,258179011550657","-3,44137986525143","1,96576453998801"
"538","-10,9237533888803","-8,05006556595002","-1,00000000000014","3,62531781529089","5,91153217010517","-8,18230670107116"
"546","-5,89272969097438","-5,05419647032575","-1,00000000000005","-1,22015981647615","-0,817485132100676","-6,96960876127455"
"554","-12,4405621000596","-4,02786921973154","-1,00000000000002","-0,262467927969189","-0,163525850013008","-5,60011497652696"
"558","-4,66120417022352","-5,98587960204271","-1,00000000000001","-0,056459336131388","-1,83267567687863","3,2937155166227"
"558","-9,67520568764501","-7,47851319403216","-1","-5,36681653623876","2,43336498771246","-4,0823841700007"
"564","-14,2901545951376","-4,27451526634159","-1","5,41532802024255","-9,51306491049073","0,0608363751235386"
"584","-2,53128980645019","-9,08425987846141","-1","-2,62000220792498","4,89701633923024","2,71384867503686"
"584","-4,94087490725294","-8,55755433180995","-1","-1,34847781174073","1,77954067219503","1,52218810030321"
"590","-9,06593633748779","-8,28670878549999","-1","0,709929656442726","6,55582984357702","-2,23152106023809"
"590","-8,32546965855019","-8,14743303565777","-1","0,152712590116709","4,51125608435907","-1,37522895241337"
"590","-8,09937788488047","-8,07581386097171","-1","-1,75204060895424","-3,09758972138674","-1,11432753468464"
"601","-9,72500686768823","-9,52475970433848","-1","-1,16177105467296","-0,619627161756065","-1,0348341595258"
"601","-9,22137132338425","-9,26984494411838","-1","-1,03479848537221","-3,72387676198017","2,38001166633221"
"601","-10,7622559616339","-7,65298694841023","-1","-1,0074854836463","-2,34483613432343","-1,97015302648775"
"607","-11,9274079808821","-6,33578269281541","-1","4,3530614001289","-5,6689088676756","0,399719192719204"
"607","-11,2831718445642","-6,65844236770116","-1","2,50616578397063","-4,33384061735729","0,121789402378995"
"620","-12,7811259389668","-6,82436227584","-1","2,10888105208329","-4,06677989431066","0,0371076966080349"
"620","-12,238506544621","-6,90968256238199","-1","2,02342134509719","4,98646537226082","3,40193144357626"
"626","-5,29417229652924","-6,9535564493511","-1","-5,13452397830599","1,79743363267198","-0,963474346505753"
"626","-7,1738110544014","-6,97611753107966","-1","-2,67426578276584","1,15951484313428","-0,293558495578317"
"626","-7,74773405824999","-6,98771901989056","-1","-2,1450409532533","1,03190859293819","-0,0894435753673594"
"627","-7,92297390844305","-6,99368480398942","-1","-0,246309149327845","-4,39351137977528","-0,0272523306087123"
"627","7,27548712892391","-20,3687209580169","-1","-4,4076550283954","4,72107229612974","5,0776343520381"
"635","21,5574320558495","-40,5331227316561","-1","-3,30279992309972","2,54431040112992","3,63302901313158"
"635","-5,41772129940493","-7,67246597898158","3,85410196624968","11,2139891326266","3,90884601313074","406,677274277618"
"665","10,2084119199708","-33,5470588983559","2,70820393249937","-7,94243637149805","3,18180124749943","398,284471949186"
"665","7,97964643417853","-30,8524404333507","2,27050983124842","-4,06316485433284","3,03636665960441","332,72729081182"
"671","8,99378530604013","-41,3529924037144","2,1033255612459","9,2655369045813","-22,1922317618085","441,596601049605"
"677","-54,3990967418092","31,0787440559684","-2,81463511376041","-7,36156689205474","-4,23901727197563","473,361462658708"
"683","-85,9005114914482","54,0120407520469","-1,69312893627744","31,7595963267281","-34,4471772224123","489,899193757363"
"684","-36,015118236432","23,0040923533121","-1,26475169507192","-10,1682101570199","11,5094205050762","-58,9135606850521"
"684","17,1406147880637","-11,6280265235406","-1,10112614893833","-3,97216880166462","7,90221939233044","-130,739280389566"
"691","0,371019615280464","-8,92252753776742","-1,03862675174306","10,8548920826692","-2,21924223943703","485,360732254327"
"697","-4,74935598592486","-10,9886131341752","-1,01475410629084","-3,66500994804476","4,15600278644608","-179,897949824317"
"703","-13,091447958539","-20,9372416447062","-1,00563556712947","-0,788378337050881","0,631311834345949","-49,1173263680782"
"703","71,3998975012982","-133,943475193251","-1,00215259509758","-7,3091497753715","-2,67368011493713","31,5033221758957"
"703","21,0836097867298","-97,7106716559102","-1,00082221816326","7,78240428497287","-15,7345129641676","369,825250320338"
"705","-32,5090280648115","-155,452899368901","-1,0003140593922","5,8136309703148","-10,3471400440755","673,696765377329"
"708","5,15778472573592","-46,0558857690724","-1,00011996001333","-6,31921400541017","8,7301719039759","-253,951832396131"
"730","5,3535143573846","-12,199446708192","-1,0000458206478","25,6291447022368","-20,853234697","1518,99916840661"
"730","4,41327782931107","-22,7895944826905","-1,00001750193007","16,5015391203957","-13,7709590943524","1119,19500280252"
"730","22,767483451985","92,1123945540621","2,23606129235737","18,107885812947","-30,3539016722788","1116,0515921125"
"730","12,287709630785","111,799633649451","-1,7639345759974","-17,4594939299554","12,3282199393277","863,695386495101"
"730","-4,85878300322655","163,754709126683","-1,29179704284977","13,5234218266274","-8,13367452115607","410,641539398577"
"742","-117,025995674845","14,2089848020388","-1,1114565525519","10,9730308588545","-21,6264928054304","-151,038926205108"
"742","-82,2747806396192","24,3087249499638","-1,04257261480594","-4,85470664600641","8,87397417231581","-375,472790282129"
"747","35,0998239464188","-32,900247933116","-1,01626129186591","-2,04429335982846","6,37503720294814","-81,0893313622013"
"747","7,93861762814626","-20,318574003266","-1,0062112607918","-0,439746855346336","2,87516169940877","-41,3944000575004"
"747","-0,35469993250087","-13,8487534921883","-1,00237249050948","-0,0945937117377409","2,17506319708457","-29,299854563732"
"747","-2,8869555089208","-10,5218052912616","-1,00090621073663","-0,0203480029283565","2,03501881194547","-25,6147989182644"
"758","8,20249546618862","-8,81100291077865","-1,00034614170042","-0,00437704806763823","0,207040255971276","0,937680082016762"
"769","-20,8314333886592","-19,8174584292917","-1,00013221436464","-0,000941544477552467","0,841380092338578","-5,97211407340982"
"769","-14,6965621758331","-17,4772610966454","-1,00005050139349","-7,13976466650083","4,56819990799311","-106,405571984445"
"769","0,733945249268581","26,8135823093891","-1,00001928981583","-6,46028363725346","5,11366001567897","-133,256384488632"
"775","39,8120263960365","-21,0126056812388","-1,00000736805401","-1,74433976942344","4,22277126951708","-24,6718588959373"
"786","-25,7905520689723","-20,577610835509","-1,0000028143462","4,40966653450016","-3,1552968560005","168,631240255538"
"798","-26,6840796018822","-0,524634099265473","-1,00000107498459","1,73345155142112","-0,63117062336653","103,528259344146"
"798","-19,9569064967105","-2,21287741890001","-1,00000041060758","10,0822250366245","-3,72618586131154","41,3093862758074"
"798","0,738441938655367","-10,5098869092276","-1,00000015683814","3,30834418676036","-5,94522751788825","-15,3744866420044"
"804","-10,7211578138219","-6,80487417202955","-1,00000005990684","5,63610881940012","-0,789184607797778","12,8312143703071"
"804","-10,2201960653472","-6,89966127789649","-1,00000002288238","5,13683302919535","-1,75779422959057","16,4251361347373"
"804","-10,0672339760661","-6,94840324698128","-1,00000000874029","5,02943407999976","-1,95155030601904","17,5201588203113"
"804","-10,0205290114087","-6,97346762180877","-1,00000000333849","5,00633154926502","-1,99030835292289","17,8537984375642"
"812","-4,92227885607228","-12,9294534324933","-1,00000000127519","5,00136197618868","-1,99806132886816","17,9554542257658"
"817","-9,75492141350117","-7,53485180936708","-1,00000000048708","-7,4939407559252","3,40028202600519","-14,2245118972805"
"818","-0,757189657170164","-4,78926029819834","-1,00000000018605","0,387982397082983","-2,11978844587617","-5,029342173357"
"820","-4,70451359522224","-6,86318075423685","-1,00000000007106","1,8683492195455","-3,02396191277914","-0,532377200818855"
"842","-4,90977710779998","-8,41541828896261","-1,00000000002714","-2,38299092776191","6,79499521942146","1,5331039717224"
"842","-4,97245162503142","-8,21361877454403","-1,00000000001037","-1,29749444155453","3,75913285108502","1,16243006416644"
"848","-6,68625160154215","-5,13829973905723","-1,00000000000396","-6,41866546933259","3,15185333637504","1,04949039426563"
"848","-6,20953791195433","-5,55689155085941","-1,00000000000151","-4,5202778403404","3,03037602145036","1,01507909965521"
"848","-6,06397964893272","-5,77214223251486","-1,00000000000058","-4,11191668900948","3,00607627531392","1,00459441169919"
"848","-6,01953534536722","-5,88282967227547","-1,00000000000022","-4,02407433933886","3,00121546930532","1,00139985936457"
"848","-6,00596486109228","-5,93974800222701","-1,00000000000008","-4,00517861830735","3,00024313671712","1,00042651951303"
"859","-6,00182129198032","-5,96901687222236","-1,00000000000003","-4,00111396982471","3,00004863591615","1,00012995512235"
"859","-6,00055610758177","-5,98406767837803","-1,00000000000001","1,35443197307205","-2,39988449452542","2,69535219363897"
"864","-6,00016980014508","-10,4491299883271","-1","-0,493539392813867","1,31990322504747","0,516552455439023"
"881","-6,00005184624381","-9,74517993185727","-1","-0,891055528651922","1,06399192443215","0,852699623620436"
"888","-6,0000158305695","-4,92586789928797","-1","-2,76145554566105","-2,58712884111367","-0,74019316695038"
"905","-2,61067856172778","-11,3907506962791","-1","1,4059847689937","-1,3174817285745","1,46978506489735"
"906","-3,57578894890044","-10,7151597975556","-1","-3,26734043119517","0,736457201382814","1,1431375909453"
"906","-3,87047272796798","-10,3677535717999","-1","-2,27261692486156","0,147317406917065","1,04361222072077"
"906","-3,96045054895065","-10,1891083503768","-1","-2,05864248144509","0,0294686756270676","1,01328809422903"
"917","-0,598597822713596","-4,15414731612882","-1","6,911838111276","3,60582425643962","63,730614839072"
"930","3,51188915395838","-9,50813784695309","-1","2,05658287888053","-3,0786727526048","22,1054178171519"
"942","-8,40100645871113","-4,80397475919767","-1","2,01217151292623","-1,41580784215011","23,4227446767385"
"942","-6,03845264666791","-5,3849730427085","-1","-3,35205339086741","4,31671799408346","49,2538065444915"
"942","-1,92775160265446","3,23090828473483","-1","-5,07573001732048","2,46342528364941","53,9913938628132"
"948","-24,7032238044235","-16,1678750083381","-1","-3,44650917798866","-1,50722808570579","19,61456286966"
"961","-1,71078370379995","-3,7428087229851","-1","-1,31115781851559","-0,301498760283465","22,7497503477557"
"961","-4,69034414694759","-4,3535198928434","-1","-1,85182352538527","-0,0603103825589211","25,7050024753953"
"968","-5,60011378886302","-9,12488609051089","-1","5,17143629386961","-5,41195842641054","-27,6445725658439"
"978","-5,87789999832033","-8,57844537551929","-1","2,68220597129828","-3,48247672818378","-11,8995159856116"
"981","2,51059731143328","3,58874263050026","-1","0,361858430135154","-1,29654761607444","3,06967998664613"
"992","-13,4853903137496","-10,0407703151067","-1","-2,70705135874966","-1,85928472028659","18,5837313977089"
"992","-10,3695550123763","-9,04941661313847","-1","2,20257815749384","-0,17188724145597","33,6544185928145"
"1002","7,52845572704002","15,2327512284444","-1","-0,526204586168731","0,965616491160824","4,20720334803946"
"1002","2,9933781986901","11,7192668090286","-1","-0,113191588146594","0,193157344767716","8,23500783751226"
"1008","-11,9486532396895","-9,402522753781","-1","3,54543248347205","-1,76132646168007","-5,79558425817957"
"1021","-8,51100626140676","-7,26389049435791","-1","2,33243715804758","-1,15229213583825","-1,07052891303419"
"1021","-7,4613659133962","-6,16415075107618","-1","-1,49827068575401","-1,03046379681457","-1,32617667333142"
"1026","-5,44620888520501","-5,59863627441733","-1","-0,322292208870262","0,793870907659539","4,68186846859488"
"1037","-5,83090715767768","-2,33628564551871","-1","-0,0693281053190989","-1,64116256862699","0,121818938384676"
"1037","-5,94836972179442","-2,65870099892417","-1","-0,0149131317942311","-1,1282551203859","0,732429293807228"
"1043","-7,67889850872775","-7,28181806877733","-1","1,78168257700858","-2,82562028734753","6,0044123705166"
"1043","-7,20729274165342","-6,65914383722583","-1","1,16814732262663","-2,16515316789867","4,61071919780887"
"1056","-7,06329411567381","-6,33894872348555","-1","-2,5336109847108","3,36685776673153","-0,899859348088838"
"1065","-7,01932602679175","-10,6316189542175","-1","-1,32989424174805","1,47345500605019","0,421136790971081"
"1075","-5,31123781245053","-8,35324618824707","-1","6,06859875680921","-6,1051512698714","4,21425286859957"
"1078","-9,17902178551596","-6,69587401438585","-1","-3,47947748787253","7,17864870878242","-0,0206576439357804"
"1102","-8,35999881461918","-5,3578363257943","-1","-3,31824961408779","-6,96391137070555","-1,00629412386326"
"1102","-8,10992090911238","-5,66978291330631","-1","-2,28356797206702","-3,79292203713257","-0,30660514229772"
"1102","-6,33889976971599","-5,83019387622736","-1","3,2936734431532","2,2412818584708","1,6018938736886"
"1109","-0,0194891850144963","-2,94113278930013","-1","-2,07639019349496","0,44833539673482","-0,511923117266579"
"1121","-10,5632558543496","-1,96972896537142","-1","0,553348811866219","1,88964762828259","1,53933607330125"
"1121","-8,78265650428817","-2,47020812103588","-1","3,68881163375776","1,17796089361666","1,16432890700581"
"1121","-13,3229632905295","-11,642212978405","-1","-1,20650169501794","1,03559845342136","-14,2077444337959"
"1122","-8,31996005447158","-2,92982257793243","-1","1,52536059610255","-2,59280853643721","-20,0632971118236"
"1128","-5,4030324636847","-4,93546149570082","-1","-6,02655209347679","2,28131161438355","2,80102833259728"
"1152","-4,81772380453039","-4,96681264025779","-1","1,70363159037523","-0,543657240679118","-18,1856257276281"
"1152","-5,63900749405129","-4,98293420557822","-1","0,366467283638317","-0,108750616869728","-14,5799948309528"
"1158","-7,58443881625757","-6,4769985953734","-1","-5,27584101641337","3,57817552448573","10,2529718510101"
"1158","-7,1784507153768","-6,24528495280586","-1","-3,48955494837589","2,31569074956518","3,81926395452276"
"1170","-8,74915071778241","-4,64035756885139","-1","-3,10530790408946","2,06314928080861","1,85899420999575"
"1170","-8,22874333085775","-4,81506260687787","-1","4,1169094042338","3,81259682387446","1,26172471421929"
"1175","-6,37518063534885","-12,3337717634624","-1","8,81003885249293","-0,437381466270732","4,47036941912837"
"1181","-11,8932090225017","0,686108630313162","-1","0,464903828881694","-6,48738593824902","-3,33324735343395"
"1181","-5,49407709800169","-2,10450808410478","-1","-0,115104252247283","-0,0976706666159779","-0,0155984765066444"
"1181","-1,45619681573135","-4,02528927832524","-1","4,32991158415899","-4,41943180050293","-0,00475265928274188"
"1203","-6,61260938492012","-5,49877866374385","-1","-2,06859502629243","-1,4839716665049","5,08448971844138"
"1203","-6,18705222847033","-5,25648482444945","-1","-0,44497437387044","-1,89677613873081","3,6351177569111"
"1212","-4,36245080488768","-5,13189109710325","-1","-3,665499266147","1,62057789409172","-1,89242541450223"
"1215","-6,49999586406027","-3,58204753017566","-1","-2,3582646596921","9,32399642425137","-3,96722337901812"
"1237","-4,45800403319864","-6,7566266165136","-1","3,27760547847973","7,66491648517097","-0,904075582653997"
"1237","-4,83450865117689","-6,38907687721369","-1","1,4899345008708","6,33304200008952","-0,970773038485721"
"1242","-4,94946939052532","-9,17162187482502","-1","4,67517061510938","0,666725919275279","0,704217684923946"
"1251","-8,37389741409385","-8,60247811851062","-1","3,3603450584141","2,53326291527362","0,214566256896892"
"1252","-9,11416466389046","-6,82403548665298","-1","1,29262310066581","-6,09318757926808","5,1513134292325"
"1254","-8,34019554449167","-6,90951451897245","-1","-8,86150666495025","2,58111238644683","3,65547809974736"
"1254","-8,10387424071399","-6,95347003710549","-1","-5,04575610828013","1,3162782255078","3,19971591931246"
"1265","-8,0317166349137","-6,97607309567923","-1","4,6995006249836","1,06326679671087","3,06085092460327"
"1266","-8,00968425784231","-6,98769617006416","-1","0,0109070753466072","-4,38723863336627","-2,06739728372138"
"1266","0,470358718901574","-4,02212452194943","-1","-8,9221064490464","-2,47753189798323","-4,02053510328227"
"1296","-7,02436095958475","-1,52560273250243","-1","-4,05879169554691","3,30437100659706","-0,920318993418829"
"1296","-6,31277516304017","-2,24182698296599","-1","-4,01264665030238","1,46095545081144","-0,975722201112082"
"1302","-6,09550178743093","-2,6101279238437","-1","-0,432939348522893","-2,50772213935687","2,39802233537135"
"1305","-2,6398339443553","-4,28529201152193","-1","0,121980114585231","2,29833189384888","1,42595979337167"
"1305","-5,27935429796601","-1,1751559619478","-5,85410196624968","4,59602014313722","-0,540252584670421","-2,26084061308069"
"1307","-5,08529716529583","-1,57584396912646","-4,70820393249937","0,77353797687792","-0,108069565623703","-1,38416225079824"
"1319","-8,41537064089122","-3,26766231974426","-4,27050983124842","0,951285874874798","-0,0216177235342993","-1,11704939816126"
"1319","-7,43216483293788","-3,1376388528251","-4,1033255612459","-2,58025993518371","-3,60425378920545","-11,2075390647394"
"1335","-2,04796644694276","-16,4427458344366","-4,03946685248927","-3,12481940547022","3,07898690142451","-8,28198414665783"
"1336","-3,4039721964171","-14,2845742375303","-4,01507499622192","-5,81174036864411","-5,78398828157408","2,78127116858813"
"1346","-2,1233476036116","-1,28859273580519","-4,0057581361765","-4,38972250532678","-3,55689581656464","0,15210568880234"
"1346","-2,73232570643741","-2,60572460949307","-4,00219941230757","-2,29894246761764","0,488530683458419","-0,648967910792199"
"1352","-9,69692171447796","-4,76880198000373","-4,00084010074622","4,29036624360749","-2,50220612055624","-0,893044944703216"
"1359","-6,12880648288407","-1,90956349640506","-4,00032088993108","1,70778892941546","-5,70038841360829","2,42321305383516"
"1378","-0,95533995965829","-11,3539150848111","-4,00012256904702","-9,5570910975884","4,65968606922912","3,12894768588653"
"1378","-4,07035305122735","-1,29579811596307","0,85405514903969","6,51396029210696","8,93192521476498","7,42991393131379"
"1378","-12,4947970598588","-2,12365553535763","-0,29181395008359","-4,16856653816467","0,386629454725604","4,04505156498588"
"1387","-8,37242723873401","-9,97823245464176","-0,729496999290461","2,88819240600726","7,07716322876431","-1,07221114955725"
"1396","-11,5030420370852","-0,102612439726589","-0,896677047787793","-3,94850353618039","0,015611660734431","-1,32668922960726"
"1400","-10,4589341421174","-1,02431448920352","-0,960534144072918","1,15063950826269","-5,5968065996861","-0,40422549469628"
"1413","-10,140129511753","-1,49827740209227","-0,984925384430961","0,247513451512767","0,88044134304895","-1,8184750137716"
"1413","-10,0427867056775","-1,74200132884438","-0,994242009219965","0,0532424866692275","0,176119311966818","-1,24937902558862"
"1413","-1,53974867871233","-6,32465324207003","-0,997800643228935","5,36612456146503","-3,56469941012301","2,31464254846844"
"1419","-5,63812084874708","-8,652719317723","-0,99915992046684","-1,84569580488243","3,08689917188327","1,40055502271677"
"1430","-7,58416809076087","-0,420999474015112","-0,999679118171586","-3,96680770680809","-3,98244080736353","-0,573268528700845"
"1441","-0,399715509045302","-10,102682891809","-0,999877434047918","1,14670210787221","-2,39655806007328","-0,174667698686683"
"1441","-2,20603728793131","-9,08125365333483","-0,999953183972168","0,246666479412784","-2,07932559419932","-0,0532190473348354"
"1447","-9,53622645919302","0,358637142725957","-0,999982117868586","0,0530602949521029","-3,81583265691096","-0,0162151732720081"
"1457","-12,8583928414273","-8,21599941430421","-0,999993169633591","1,79630430461686","-6,763124778993","-1,70025315696839"
"1469","-9,17810957041908","-4,65374965924959","-0,999997391032187","-4,18337900386611","-3,55272238042513","0,481954282776595"
"1469","-9,0543834176865","-4,82194916439221","-0,999999003462971","-4,25455602696702","-7,51045818786891","-4,93909239552517"
"1469","-7,3219421262476","-6,39421594441223","-0,999999619356726","-3,26986687848012","-6,3021448946058","-3,59081702432678"
"1469","-7,79296393519375","-6,20271598335584","-0,999999854607207","5,86640174377913","-6,06043963220535","-6,57063970012954"
"1469","2,23119455855622","-6,10424177532747","-0,999999944464895","6,40148068460618","-0,612195834050037","2,99800885996328"
"1470","-0,70806032236566","-6,05360380342752","-0,999999978787477","4,51658123045469","-2,52235497555999","0,913455530864027"
"1486","-4,99484946223654","-7,51333872119642","-0,999999991897537","0,541340447541698","0,69547532838882","-1,41699420536352"
"1486","-4,30376421498688","-7,26397198067956","-0,999999996905134","1,68622852090648","-0,660845153796973","-1,12705288110197"
"1497","-12,566066092632","-7,13574118551098","-0,999999998817866","3,71739531716546","-0,932157072546549","2,35191378363483"
"1507","-5,00486202977519","-5,58402734471296","-0,999999999548465","-0,415462541268225","0,813535718696057","-3,67402669532026"
"1507","-5,69614769288874","-5,78609615602591","-0,999999999827529","0,695520606966377","0,162735828080275","-2,51005484475888"
"1513","-5,90722268941664","-5,89000513883462","-0,999999999934122","0,934503600004095","-3,56737657878668","2,93053050829865"
"1513","-5,97167166693281","-5,94343781178492","-0,999999999974837","0,985911104296146","-2,31353057966687","1,58820832515109"
"1513","-5,99135031561791","-5,97091426725047","-0,999999999990388","0,996969345152306","-2,06271717066382","1,17921966645426"
"1520","-5,99735893249587","-5,98504336772898","-0,999999999996328","-2,57043298823441","1,5873838368137","-0,640706623382203"
"1523","-4,30453044876625","-3,02076038272156","-0,999999999998597","-1,33781500330568","0,31753273670536","-0,195215236554323"
"1545","-13,2609631880156","-7,95377258718486","-0,999999999999464","-2,85755773820139","-1,73644699795815","-1,7547922212166"
"1545","-10,9956922735645","-7,49045440868024","-0,999999999999795","-2,1844687881213","-1,14731536587237","-1,22997568096977"
"1550","-10,3040215563547","-7,25220427827966","-0,999999999999922","-2,03968098271996","2,57046121493616","-1,07007069276928"
"1550","-10,0928289886166","-7,12968993010732","-0,99999999999997","-2,00853575504918","1,31414761565752","-1,02134965733969"
"1556","-4,9443547043828","-4,09514136742598","-0,999999999999989","-2,00183612172042","-0,737124141523227","-2,70181756957984"
"1582","-2,9830094399379","-7,50624693760186","-0,999999999999995","-2,00039496716491","-0,147450818460696","2,87210282186299"
"1582","-4,38413842760109","-7,26032520305554","-0,999999999999998","-2,00008496117639","-0,0294953626397325","1,57040614516324"
"1582","-6,50661789476797","-2,6765431205038","-0,999999999999999","3,35465332257409","-0,00590011250077412","-3,91214222736813"
"1591","-2,76536284732414","-7,77676721287772","-1","-5,63305390981039","1,79878451060978","-2,58260564760621"
"1597","-3,62301976358003","-5,91365942412589","-1","5,35805784067614","-2,44014441593007","2,90842519266248"
"1600","-3,8848940368081","-5,95560145400023","-1","-7,986993164263","2,31184982124765","-1,80915208194229"
"1605","-3,96485390616718","-5,97716912509632","-1","5,85170322192969","-2,33751326370514","2,14408675019065"
"1617","-5,68393173789031","-5,98825977659561","-1","-2,52613377080931","2,33237967034994","-0,346723778315345"
"1632","-5,20882957206189","-3,02241434293173","-1","-1,32828582224987","1,2665229122567","-0,105642367243739"
"1632","-5,06376336665129","-3,49730029798102","-1","0,714273144542955","6,45320820316857","3,35843729747884"
"1632","-5,01946930641366","-3,74149887676561","-1","10,8629901125825","-6,30906030889154","-0,976726464884543"
"1640","-5,0059446969653","-5,3528463362098","-1","-9,01793958367255","0,737965487954874","-1,99290884704916"
"1640","-5,00181513512903","-5,18144266621413","-1","-4,29451577722989","0,14761911741194","-1,30252681707952"
"1651","-5,0005542276681","-5,09330248820641","-1","-3,27846259906691","0,0295290283640104","-1,09217610994631"
"1651","-5,00016922613814","-5,04797854047865","-1","7,64944325574636","-5,39398737659085","2,36254029643013"
"1662","-3,305388535014","-5,02467180019217","-1","-6,70920393573226","-1,67891714343997","1,41514886310725"
"1663","-7,17723578548662","-3,52691260852642","-1","10,481239380546","-1,93577210767288","1,12649062856401"
"1668","-2,97012721104239","-8,21404908699707","-1","6,17906648251201","-1,98715215693239","1,0385401010008"
"1673","-3,68554187226401","-4,65274675075861","-1","5,25362836279644","3,4024642450373","-0,683569914701692"
"1684","-10,6826368852639","-4,82143344303733","-1","1,48477679629219","-2,11935192512719","-0,208275141429756"
"1695","-3,7351185259999","-1,93662794911314","-1","0,889170611183229","-3,02387459323812","-1,75877140970411"
"1695","-4,61378505735199","-2,4531867266555","-1","1,76105008206872","-2,20481101929737","-1,23118808957229"
"1700","-3,18741120460381","-4,20458880920858","-1","1,94859961047647","-0,241004684121128","-1,0704400983966"
"1706","-5,44654982142754","-4,10520483057618","-1","-1,58083777608707","4,55172004790797","0,673850387369774"
"1707","-3,44168498614604","-9,99719609536212","-1","1,44483736116594","-1,08949550196378","-3,18531147200287"
"1712","-2,13486270856147","-3,08391256386589","-1","10,0201413919446","-3,81786699704319","4,42010091877723"
"1722","-2,73584169247185","-3,52892426577839","-1","1,51009887419158","1,23629198695786","-2,34856353221088"
"1722","-2,91934273077038","-3,75776073481709","-1","2,67950816270998","0,24730198763622","-1,41089031912822"
"1723","-8,05936177024474","-8,33275713417319","-1","4,7159497044947","-3,55046036516921","0,570119494087828"
"1728","-6,62879906484147","-3,22801521740961","-1","4,15400755944543","1,28978274178534","-1,52160437043888"
"1743","-4,49733239860292","-8,06034835666999","-1","-1,32154311447693","2,05796676576585","3,9270115133243"
"1743","-4,84651705093709","-7,54525841196655","-1","0,500614097661681","1,21163065585402","2,58713613171454"
"1749","-4,95313599765018","-4,30883737502251","-1","0,892577364642032","-7,9574901126796","-1,21173221327913"
"1749","-6,68035382845068","-6,13036065791782","-1","4,54667343983247","0,608256664302346","1,32611305790647"
"1756","-7,90240024037812","-6,06703480499787","-1","1,54781356666655","4,72160226157866","1,09936254038799"
"1764","-0,496883515644763","-7,52024528783681","-1","1,90273041726979","-4,65544255165898","-0,665038083658487"
"1767","-3,93036939831532","-5,78174924894377","-1","-3,3755952066392","-2,53118213820587","-0,202628725973978"
"1787","-9,06272861833368","-4,40199558131421","-1","-1,51101301908209","-0,306290415376037","-0,0617384200976408"
"1787","-7,62982708767863","-4,69249073888736","-1","-1,1099237382453","-0,86123362366689","-0,0188109188261997"
"1790","-2,10832001994352","-6,32764509053913","-1","4,33102596176556","0,82772290915186","1,68958114796303"
"1793","-8,50638977502349","-6,16848353716231","-1","2,50142575256571","3,76550324867791","-0,485205909475087"
"1804","-7,45995632992107","-6,0866385705582","-1","-1,46191963923152","-3,04673132405809","-0,147836128017099"
"1804","-7,14044162337145","-6,04455178253492","-1","-0,314472754622191","-1,40941843022245","-0,0450438057746086"
"1811","-0,264229461002991","-3,0513611410022","-1","-0,0676460666823338","6,11796084289353","-1,70903687811025"
"1811","-2,16466840290148","-3,51218548646472","-1","-0,0145513093593382","3,62370210431992","-1,2160346043488"
"1826","-2,74494246971203","-2,26337895770323","-1","-0,00313012440273133","3,12476241188844","-1,06582302235186"
"1826","-2,92212153355319","-2,62121050387134","-1","-5,35534491791988","1,22499214021679","-1,02005544567544"
"1833","-4,67088396924355","-4,29099095937086","-1","-3,50665699026589","1,84497110215063","-1,0061106416398"
"1833","-7,59417187922929","-7,12118357173072","-1","0,460794350477256","3,76895349542927","2,38876336037462"
"1838","-3,09743317040906","-5,09076717904641","-1","-0,685769305642137","-0,446111670773728","-1,96748649556643"
"1862","-3,72441307467009","-5,04667481926502","-1","-4,50218706845713","-1,08923806354317","2,09584424904846"
"1862","-3,91585315245053","-5,02400139319421","-1","-3,32313465986671","-0,217886017999755","1,33388993729362"
"1862","-3,97430686545076","-5,01234213403146","-1","5,8549433397084","3,55634459627003","-0,593580540385844"
"1867","-9,07614434676248","-6,49212090896664","-1","2,82923480772707","4,11128853532959","-0,180856512757387"
"1868","-5,93926026816151","-1,79573843750572","-1","-4,96118587373133","-2,17759733359198","1,64020789693455"
"1875","-0,897464512865072","-5,35228624621253","-1","-2,63697911545269","1,36436849482578","-0,500249317061701"
"1881","-10,8313340876562","-5,1811546535242","-1","1,43276082756949","6,47278076960597","3,23820553110807"
"1885","-3,78052126346923","-6,57892865070516","-1","0,308200418182626","-6,3051451054977","-2,70867216737425"
"1896","-6,32231132279385","-4,81192574428625","-1","-1,7185937051095","2,53871340782041","0,174701714318561"
"1896","-6,09841352854506","-4,90328737781579","-1","-1,15457630900885","-0,492167806298247","1,7485420094197"
"1906","-7,72471241414896","-4,95026788087371","-1","-2,81814136030856","-1,89841565567602","-2,1625538757256"
"1909","-7,22128141586396","-4,97442646454068","-1","1,39379111360949","2,42021467403635","2,03640967576313"
"1912","-7,06756537358927","-4,98684942995837","-1","0,299817663777409","1,28409300995598","1,31578097156738"
"1924","-7,02063019928915","-4,99323763846829","-1","-3,50528744778541","4,65675810106886","1,09621448384358"
"1932","-7,00629916035538","-4,99652261967802","-1","-2,32380158081201","3,33141003561378","1,02931534112185"
"1944","-7,00192336586897","-4,99821184155166","-1","-2,06965278551323","1,26632895112125","2,70424461307697"
"1953","-7,00058727450282","-4,99908048290946","-1","5,12457915779217","-1,74668956046202","0,519261863615524"
"1965","-7,00017931655502","-4,99952716064922","-1","2,67212655772414","-0,349399498373047","0,853525146158826"
"1988","-7,00005475195458","-4,9997568538378","-1","-3,21009081283302","1,73007252203896","-0,739941640632824"
"2009","-7,00001671779011","-4,99987496798628","-1","-1,47541145711822","1,14604024593179","-0,225450896152767"
"2014","-7,00000510455761","-4,99993570532098","-1","-1,10226550522128","1,02921319839877","-0,0686920478385507"
"2022","-7,00000155860961","-4,99996693802149","-1","-2,80688881117923","1,00584366970379","1,67438299635296"
"2031","-7,00000047590097","-4,99998299867984","-1","-0,388678889385631","6,40106316340538","-3,88046179070583"
"2043","-7,00000014531011","-4,99999125748366","-1","0,916391491208884","2,68033255028705","2,51298477618729"
"2055","-7,00000004436853","-4,99999550437312","-1","0,197124485381619","2,93605523894793","1,46098740079717"
"2063","-7,00000001354735","-4,99999768823297","-1","-5,31226825551333","-0,612720689112046","-2,2501681423742"
"2076","-7,0000000041365","-4,9999988112299","-1","0,0723902733162822","-2,92253048279586","3,70502731042584"
"2080","-7,00000000126303","-4,99999938870382","-1","-6,12399029824951","4,01532034063342","-0,871124854263369"
"2092","-7,00000000038565","-4,99999968565578","-1","2,68267171006579","0,60317038488092","-1,96073336665674"
"2104","-7,00000000011775","-4,99999983835611","-1","4,14684914779576","-6,27923887934785","2,09790184235166"
"2113","-7,00000000003595","-4,99999991687855","-1","2,4618075762499","-3,65596339809031","1,33451686005165"
"2125","-7,00000000001098","-4,99999995725681","-1","2,09933918165642","-3,13121580813892","1,10192307303094"
"2133","-7,00000000000335","-4,99999997802035","-1","2,02136879843397","-3,02624778814744","1,03105467633071"
"2153","-7,00000000000102","-4,9999999886975","-1","2,00459663084493","-3,00525048309654","1,0094619686527"
"2153","-7,00000000000031","-4,99999999418796","-1","2,00098877881177","-3,00105028174535","1,00288294264707"
"2165","-7,00000000000009","-4,9999999970113","-1","2,00021269568334","-3,00021009338081","1,00087839630539"
"2174","-7,00000000000003","-4,99999999846314","-1","2,00004575285511","-3,00004202608381","1,00026763628826"
"2207","-7,00000000000001","-4,99999999920971","-1","-5,13955228949768","4,1998505578661","1,00008154540536"
"2213","-7","-4,99999999959361","-1","-0,890456887264495","-0,159881806488828","-0,695287752092646"
"2215","-7","-4,99999999979102","-1","-0,976436239388691","-0,031981998547811","-1,9071580168124"
"2238","-3,61067372807134","-6,48577426592816","-1","4,3597403865168","-1,8063622684995","0,418912978559277"
"2244","-4,57578747300694","-6,24979762843792","-1","0,722711964331194","2,43862859716903","0,127637507122105"
"2252","-4,87047227732329","-6,12845236882605","-1","0,940352718398131","-0,512188297304733","5,12482733430019"
"2264","-4,96045041135221","-6,06605351363904","-1","0,987169305037228","-0,102455718635819","-1,43852967355907"
"2272","-4,98792405262838","-6,03396641653196","-1","0,997239996043297","-0,020494756198884","-0,438301869008036"
"2280","-4,99631276809929","-6,01746640547129","-1","2,78429682986201","1,79586506727967","1,56176754016879"
"2305","-4,99887415217446","-6,00898167517319","-1","2,16870967316494","1,15920107474999","1,17116349236985"
"2313","-4,99965623715557","-6,00461860850817","-1","2,03629104789883","-2,56808365408411","-0,643161238134442"
"2330","-4,99989503653111","-6,00237500735001","-1","-5,13175558339386","-3,11363676079819","-0,195963126746216"
"2342","-4,99996795078357","-6,00122128989773","-1","-2,67367027481141","-2,22276661772098","-0,0597074959858297"
"2350","-4,99999021419276","-6,00062801869404","-1","-0,360022321012045","5,15529778652373","-0,018192121834812"
"2362","-4,99999701203231","-6,00032294337389","-1","-2,64722527532269","0,831206068362823","-0,00554291033961948"
"2379","-4,99999908766331","-6,00016606579347","-1","-2,13922428410554","0,966235262191157","-0,00168885495117277"
"2391","-4,99999972142998","-6,00008539530453","-1","5,10961366980063","0,993245861932107","1,69479802512284"
"2411","-4,9999999149423","-6,00004391246315","-1","2,66890733957652","0,998648934243221","1,2116962052239"
"2420","-4,99999997402875","-6,00002258091859","-1","-3,21078329713342","-2,60019974307072","2,75981376474379"
"2428","-4,99999999207002","-6,00001161168944","-1","0,309330115795398","4,0797978535925","0,536193084070991"
"2440","-4,99999999757868","-6,00000597102952","-1","3,6363209020695","-1,1838965802649","-2,53194132016778"
"2448","-4,99999999926068","-6,00000307045704","-1","5,92176918302785","-5,63671528231887","1,92386197496629"
"2469","-4,99999999977426","-6,00000157890803","-1","-4,51106191925161","7,27235242281128","2,97680170295529"
"2481","-4,99999999993107","-6,00000081191514","-1","-1,75526265860724","3,85462112283323","2,29761917319111"
"2487","-4,99999999997895","-6,00000041750766","-1","-1,16246414805697","3,17095435753217","2,09068081267976"
"2496","-10,0839894078866","-6,00000021469318","-1","0,749942956521757","-4,16566206540266","-1,36299589466956"
"2498","-8,63631879048763","-6,00000011040076","-1","3,7311008954609","3,76665019271107","-0,4152876781512"
"2510","-8,19429158401446","-6,00000005677091","-1","2,37237619121848","2,35339232861197","-0,126532923759118"
"2518","-8,0593243829715","-6,00000002919306","-1","-6,8443510201373","2,07069092593262","-0,0385529878139114"
"2533","-8,01811392105737","-6,00000001501183","-1","5,09749636470429","0,214175936526739","1,68356598825208"
"2550","-8,00553084785105","-6,00000000771947","-1","2,66630079253386","0,842807480045624","1,20827394509002"
"2569","-8,0016887717383","-6,00000000396955","-1","2,14332760844859","0,968555953580254","1,06345844724411"
"2586","-8,00051564426664","-6,00000000204124","-1","2,03083112548234","-2,60621940024747","1,01933498942891"
"2588","-8,00015744520333","-6,00000000104966","-1","-1,56314899871061","2,27862896876974","-2,38473406820296"
"2600","-8,00004807382464","-6,00000000053976","-1","-0,336248148200434","1,25577087675226","-1,42191102577039"
"2608","-8,00001467871086","-6,00000000027756","-1","7,06723197137786","-4,3487310298838","-1,12855097433808"
"2626","-8,00000448195154","-6,00000000014273","-1","-7,83444309488586","2,93006520387091","-1,03916786240202"
"2629","-8,00000136850503","-6,0000000000734","-1","-0,47015341245922","-5,81377787189391","0,683378643711246"
"2637","-8,00000041785503","-6,00000000003774","-1","0,898865549963612","-3,56285478497556","-1,48709573438177"
"2669","-8,00000012758655","-6,00000000001941","-1","-1,59153604334358","-1,31262606147136","2,24221326204247"
"2678","-8,00000003895688","-6,00000000000998","-1","0,657645529754392","-0,0625362351324412","-2,01213846429738"
"2692","-8,00000001189497","-6,00000000000513","-1","59,0428533632862","2,78745528915839","2,08223935669943"
"2699","-8,00000000363197","-6,00000000000264","-1","-20,2993232735645","3,15751882260656","1,32974469798863"
"2734","-8,00000000110897","-6,00000000000136","-1","-0,796795547349524","-3,16834964610941","1,1004690553698"
"2734","-8,00000000033861","-6,0000000000007","-1","-3,95628879846632","-1,43374638275596","-4,05532613838406"
"2753","-2,91601059221039","-6,00000000000036","-1","-3,4208162410443","-6,48665879337717","2,4597058123821"
"2760","-2,66901807357764","-4,51422573396456","-1","-2,30563102453977","-0,897489953144473","1,44475397173147"
"2761","-6,98292842442671","-3,2644281054713","-1","5,07381800453441","1,82047036489954","1,13551093219812"
"2767","-6,30012428268597","-3,62175000265241","-1","2,66120735309456","0,364158260687519","-0,654024124069584"
"2768","-6,09163900729629","-3,80549411749191","-1","0,357341428562307","-3,52708499034012","1,4960396867098"
"2780","-6,02798076711119","-3,89998006980689","-1","0,861758057133831","-2,30547084134213","1,15113704345713"
"2797","-6,00854355968304","-3,94856717798538","-1","0,97026284933124","-2,0611049388217","2,74136215107477"
"2809","-6,00260866372132","-3,97355191934967","-1","-0,79128727547763","-2,01222314225475","-1,1647414881118"
"2817","-6,00079652119999","-3,98639971631564","-1","3,39956768148847","1,59748442285733","1,34043053987813"
"2836","-6,00024320728534","-3,99300638414029","-1","2,30106025821586","-1,48041153109194","2,79903749472418"
"2838","-6,00007426014982","-3,99640370275147","-1","0,279870378884625","-4,69602872726307","0,548144060457412"
"2850","-6,00002267436127","-3,99815069140782","-1","0,845093300917532","-3,33926554549009","0,862325187680068"
"2858","-6,00000692331836","-3,99904903793186","-1","-0,818212430341248","-1,26790033007283","0,958052219106567"
"2870","-6,00000211394432","-3,99951099083254","-1","-0,176005239912357","-1,85355425301565","0,987219039617832"
"2878","-6,00000064546513","-3,99974853890195","-1","1,74703013946801","1,62922379518912","2,69141840033581"
"2894","-6,0000001970843","-3,99987069223229","-1","6,51536485377904","-1,47406253753153","3,905979074078"
"2905","-6,0000000601771","-3,99993350661824","-1","-0,813592805124334","0,705135518730767","-1,8098973834589"
"2907","-6,00000001837429","-3,99996580739196","-1","0,609879018049011","0,141051966019868","-0,551452931742541"
"2919","-6,00000000561035","-3,99998241728104","-1","0,916081283445558","-3,571714115747","1,52729183682506"
"2940","-6,00000000171304","-3,99999095851344","-1","0,981948289597432","-2,31439823999554","1,16065917988421"
"2960","-6,00000000052306","-3,99999535063494","-1","0,996116906194022","-2,06289073332227","1,04895082813435"
"2968","-6,00000000015971","-3,99999760917684","-1","0,999164709760473","-2,01258036411994","1,01491470065243"
"2984","-6,00000000004876","-3,9999987705772","-1","-2,56996074452333","-2,00251651639327","-0,690768276556218"
"2989","-6,00000000001489","-3,99999936779916","-1","-4,9074944848976","1,59942609027418","-3,60109358750294"
"2997","-6,00000000000454","-3,99999967490606","-1","0,159460943432769","-3,27998787028876","2,59810474823645"
"3010","-6,00000000000139","-3,99999983282833","-1","-0,750588974268233","-2,25604270496938","1,48692238394337"
"3030","-6,00000000000042","-3,99999991403603","-1","-0,946349327151632","-2,05121756876747","1,14835911616352"
"3038","-6,00000000000013","-3,99999995579511","-1","2,58132183333403","1,58968416265581","-0,65010944427611"
"3052","-6,00000000000004","-3,99999997726871","-1","1,34015729697302","0,317992882980646","-0,198080157624426"
"3065","-6,00000000000001","-3,99999998831099","-1","-0,711719477940885","-1,73635495247886","1,63496006932619"
"3067","-6","-3,99999999398921","-1","-0,153097597665485","0,652667787610069","2,88877693187861"
"3079","-6","-3,9999999969091","-1","3,53684832302806","1,93052131098457","-1,11982606152496"
"3087","-6","-3,99999999841058","-1","2,33059062386848","-7,81368663438936","-0,341196893433526"
"3099","-6","-3,99999999918268","-1","2,07111317294762","-4,76287179311656","-0,10395839504767"
"3108","-6","-3,99999999957971","-1","-3,33937448178683","6,64718719023481","-0,0316748133083253"
"3126","-6","-3,99999999978388","-1","-3,28811213110153","2,92960129256409","-0,00965091657732115"
"3128","-6","-3,99999999988886","-1","3,0775864843671","0,385988294052401","-0,00294051269934183"
"3136","-6","-3,99999999994285","-1","-0,33798201121664","0,877176009458417","-0,000895937175056448"
"3149","-6","-3,99999999997061","-1","-1,85759366318413","2,7753956123991","-0,000272980770267647"
"3157","-6","-3,99999999998489","-1","-1,18447651592519","2,15510646204426","-8,31738017023601E-05"
"3169","-6","-3,99999999999223","-1","0,745207887798748","0,231062020144538","1,6952872559408"
"3178","-6","-3,999999999996","-1","-3,40947979401902","2,64615003329439","-2,17877992820988"
"3198","-6","-3,99999999999795","-1","-2,30319244746071","2,12925278917169","-1,35915939391454"
"3205","-6","-3,99999999999894","-1","-2,06521956581945","2,02585511514018","-1,10943134265354"
"3210","-6","-3,99999999999946","-1","-2,01402934605167","2,00517193464989","-1,03334235149591"
"3218","-6","-3,99999999999972","-1","6,92143481905871","-3,398859654137","0,68515360349484"
"3236","-6","-3,99999999999986","-1","3,84353775442062","-1,47985651188131","0,208757671453795"
"3236","-6","-3,99999999999993","-1","3,18145295688066","-1,09598822156928","0,06360583257319"
"3253","-6","-3,99999999999996","-1","-4,10052988250121","0,780763712392155","1,71469249383229"
"3271","-6","-6,97154853207122","-1","5,47260880043919","3,75610975359828","2,9130703971605"
"3279","-6","-6,49959525698634","-1","-1,82279003697603","0,551319128004394","-1,11242414870144"
"3292","-6","-6,25690473770892","-1","-0,392099393593931","0,910248005625351","-0,33894162384513"
"3319","-6","-6,1321070273073","-1","-1,86923482447126","-2,61788304571016","1,5920413551345"
"3320","-6","-4,58215856704333","-1","-1,18698063992677","2,27629582843038","-3,90555025144919"
"3322","-6","-4,78513518245713","-1","0,744669227019073","-5,94455479814413","-0,885284557638744"
"3326","-6","-4,88951098149589","-1","5,51485699916014","0,0109147010115391","2,42557754600874"
"3338","-6","-4,94318370336472","-1","-7,16837364798827","4,60211280732454","-1,956269676987"
"3346","-6","-4,97078359816159","-1","-2,11176610148967","2,52051430899306","3,79457447031104"
"3358","-6","-4,98497617432084","-1","-2,02404194653772","2,10412121453915","2,54678423314369"
"3367","-6","-4,99227436221318","-1","3,34949994821831","2,02082791410304","-2,91933952637281"
"3385","-6","-4,99602727823873","-1","-0,279490850894652","2,00416631718909","-1,58479857394173"
"3387","-6","-4,99795712423648","-1","-0,0601211280113475","2,00083341033741","-1,17818075821664"
"3395","-6","-4,9989495007111","-1","3,55684844187355","-1,59976277082975","2,33633576358445"
"3408","-6","-4,99945980623214","-1","0,550002305933929","3,27992052230667","3,10247727002293"
"3416","-6","-4,99972221846324","-1","-6,23636089556262","2,25602923299835","-6,14065205452971"
"3428","-6","-4,99985715758538","-1","-3,69617186777388","2,05121487389825","-3,95691711523653"
"3436","-6","-4,9999265467545","-1","3,98980897184307","0,210280039416496","3,48968980198316"
"3448","-6","-4,99996222845092","-1","1,64313621483591","0,842028163258689","1,75857711767574"
"3457","-6","-4,99998057689745","-1","1,13834468848305","-0,831564678396118","2,92644148918929"
"3469","-6","-4,99999001214084","-1","1,02975925222366","-0,166342255700832","2,28227505049209"
"3477","-6","-4,99999486398579","-1","-4,34827010163863","5,36661990724521","3,78131824974822"
"3486","-6","-4,99999735892933","-1","-2,5051351303054","3,47340742576627","3,23805782768976"
"3498","-6","-4,99999864189349","-1","-0,323768815880044","-4,10516078760581","-2,01340457279469"
"3506","-6","-4,99999930162669","-1","-0,854536270308664","1,97878784033529","1,08185358939067"
"3518","-6","-4,99999964087847","-1","-0,968709374615353","6,59568630243284","-0,670372840450475"
"3526","-6","-4,99999981533047","-1","-0,993269090246483","4,51922878142349","-0,204254159161496"
"3556","-6","-4,99999990503817","-1","-0,998552117589436","4,103864063699","-0,0622336691127508"
"3559","-6","-6,48577421720381","-1","4,35498305174131","-1,37911774855533","1,67635078298837"
"3565","-6","-6,2497976033826","-1","0,721688616582551","-1,27587217582908","1,20607556294297"
"3567","-6","-6,12845235594196","-1","0,940132586609203","-0,255219420962756","1,06278862789901"
"3576","-6","-6,06605350701371","-1","0,987121952605407","-0,0510528829380871","1,01913090391281"
"3596","-6","-6,03396641312505","-1","-4,35744178844055","-3,61014185893634","1,00582894541206"
"3609","-6","-6,01746640371937","-1","-2,50710804696629","-2,32208514355178","1,00177600623429"
"3628","-6","-6,00898167427231","-1","-2,10908374177421","-2,06442838506497","1,00054112672555"
"3629","-6","-6,00461860804491","-1","-2,0234649455686","-2,01288794868433","1,00016487449619"
"3637","-6","-6,00237500711179","-1","8,7042956651168","3,39731617927226","-0,695262362768448"
"3656","-6","-6,00122128977523","-1","5,01193853387466","1,4795477624872","-0,211837683054816"
"3658","-6","-6,00062801863105","-1","-10,061446703922","1,0959264608043","-5,15048206715725"
"3673","-6","-6,0003229433415","-1","0,0507970278431658","1,0191886744184","1,43071299965457"
"3678","-6","-6,00016606577681","-1","-0,773963611249962","1,00383841145444","0,435920226943406"
"3686","-6","-6,00008539529597","-1","4,4032941656697","-2,59916166465343","1,82813199939863"
"3698","-6","-6,00004391245875","-1","2,51697132739996","4,08000550587742","-0,442991210499408"
"3707","-6","-6,00002258091633","-1","2,11120542677272","2,41607443979599","-0,134973841057892"
"3719","-6","-6,00001161168827","-1","2,0239213400981","2,08322955826914","-0,0411248289765907"
"3727","-6","-6,00000597102893","-1","-5,13441642464776","-1,58328063604925","-1,70784281525097"
"3739","-6","-6,00000307045673","-1","-2,67424264695573","-0,316711951878295","-1,21567078843832"
"3748","-6","-6,00000157890787","-1","4,99452615484844","-1,86331829841883","-1,06571217222727"
"3768","-6","-6,00000081191506","-1","-9,85008280433875","6,02716486526288","-1,02002167103897"
"3784","-6","-6,00000041750762","-1","4,66604446934383","-3,59431925713342","0,6892122470168"
"3789","-6","-6,00000021469316","-1","0,0037103395337974","-1,51895532416315","-4,87594350484672"
"3797","-6","-6,00000011040075","-1","1,78568866200258","4,29608486081835","6,60029923481848"
"3809","-6","-6,00000005677091","-1","1,16900906943507","2,45929792949565","4,09696582045817"
"3817","-6","-6,00000002919306","-1","-0,748535081971525","-3,3080184432035","-1,75170612787841"
"3838","-6","-6,00000001501182","-1","-0,161016982631598","-1,46168506673718","-0,533722789257715"
"3838","-6","-6,00000000771947","-1","-0,034636277337193","-1,09235329183603","-0,162618610073623"
"3846","-6","-6,00000000396955","-1","-1,79234112400481","-1,01847391463889","-1,74486043977861"
"3858","-6","-6,00000000204124","-1","4,18423152153581","2,5962340479854","-1,2269495922857"
"3866","-6","-6,00000000104966","-1","-4,66971325262375","3,11926783212921","-2,76446127962011"
"3879","-6","-6,00000000053976","-1","2,78039100329223","2,22389303053233","1,15770347464571"
"3887","-6","-6,00000000027756","-1","-0,401911572792274","-3,35510772310427","0,352737664033649"
"3906","-6","-6,00000000014273","-1","-0,0864549842677828","-1,47110458303161","0,107474722459473"
"3907","-6","-6,0000000000734","-1","-0,0185972855989537","-1,09423752721631","0,0327461939721833"
"3919","-6","-6,00000000003774","-1","-0,00400045219576695","-1,01885082815093","0,00997735276839825"
"3936","-6","-6,00000000001941","-1","1,78402999770227","-1,00377083028888","0,00303997369433609"
"3936","-6","-6,00000000000998","-1","1,16865227504124","-1,00075429901295","0,000926241687226523"
"3943","-6","-6,00000000000513","-1","1,03627870101902","-1,00015088639831","0,000282214173351129"
"3951","-6","-6,00000000000264","-1","-4,3468677064821","-2,79999492374091","-3,39053920879741"
"3962","-6","-6,00000000000136","-1","-2,50483346183053","-2,16002719165627","-2,42367977897665"
"3969","-6","-6,0000000000007","-1","-3,89348498982014","1,56791840157491","-3,82440248910772"
"3977","-6","-6,00000000000036","-1","0,377583985611537","-1,48632577781259","-1,55587245469914"
"3994","-6","-6,00000000000019","-1","1,08122188995211","2,50264717942786","-1,86467993204359"
"3998","-6","-6,0000000000001","-1","0,232581064626633","-0,499382323630812","-3,65408227799954"
"4010","-6","-6,00000000000005","-1","0,0500303888827615","-0,0998940723770165","-3,19929063001039"
"4024","-6","-6,00000000000003","-1","0,0107620102942538","3,57994714565593","-1,36540874636035"
"4026","-6","-6,00000000000001","-1","3,57209607598492","-3,08384908715893","1,5839771563356"
"4039","-6","-6,00000000000001","-1","-1,23160831645945","-3,21680803271375","-1,21269471328048"
"4047","-6","-6","-1","5,08974098982712","-2,24340450980541","-1,06480539961912"
"4059","-6","-6","-1","1,66463253797643","-0,248724742985168","4,06619240500233"
"4067","-6","-6","-1","-6,99659338027031","0,950246281652364","-0,761082399885845"
"4079","-6","-6","-1","-3,85970507247518","0,190082760929977","-0,231892219166927"
"4094","-6","-6","-1","5,73952196415971","1,83798799542839","-1,76596723576385"
"4120","-6","-6","-1","-2,55026502139327","1,16762714558612","-1,23338056712004"
"4121","-2,61067372807134","-4,51422573396438","-1","0,451413850137658","1,03353133945909","-2,76642071663503"
"4127","-3,57578747300694","-4,75020237150683","-1","1,88199392561312","1,00670745016858","2,85241905682251"
"4128","-3,87047227732329","-4,87154763114554","-1","1,1897252433748","1,00134172653076","1,5644087499305"
"4155","-3,96045041135221","-4,93394648634635","-1","-2,5289693696763","-0,799696348527267","1,17196823571041"
"4157","-3,98792405262838","-4,96603358346053","-1","-1,32889578641122","-0,159967466086118","1,05239655497367"
"4157","-3,99631276809929","-4,98253359452485","-1","-1,07074859736527","-0,0319991334875286","1,01596457021128"
"4171","-3,99887415217446","-4,99101832482482","-1","0,769671839761106","-1,8063656960916","-2,3857609924782"
"4178","-3,99965623715557","-4,99538139149081","-1","0,165563699337152","-1,16130157075257","-1,42222391665992"
"4178","-3,99989503653111","-4,99762499264947","-1","0,0356143191450409","-1,03226600145983","-1,12864630825034"
"4190","-3,99996795078357","-4,998778710102","-1","0,00766097721446726","-1,00645433795436","-1,03919690944407"
"4198","-3,99999021419276","-4,99937198130582","-1","1,786538481569","-1,00129109516346","4,07399498934418"
"4212","-3,99999701203231","-4,99967705662604","-1","1,16919187366918","4,39963595886826","0,936607547216902"
"4219","-3,99999908766331","-4,9998339342065","-1","-2,53338629189262","-1,11991768208315","-2,40994007764875"
"4227","-3,99999972142998","-4,99991460469545","-1","-3,11473644103814","-2,02398776457725","3,6563468145466"
"4246","-3,9999999149423","-4,99995608753684","-1","-2,23979036185277","-1,20483365755549","2,50466800781741"
"4247","-3,99999997402875","-4,9999774190814","-1","-2,05158117696766","-1,04097395371211","2,15376598419946"
"4259","-3,99999999207002","-4,99998838831056","-1","-2,01109559949287","-1,00819623543727","2,04685055824934"
"4268","-3,99999999757868","-4,99999402897048","-1","-0,217496235652214","2,59828994620497","-3,0716630189735"
"4287","-3,99999999926068","-4,99999692954296","-1","-4,40145709788738","1,31971434312058","-1,63120962317336"
"4288","-3,99999999977426","-4,99999842109198","-1","0,268314376114315","-4,33594008203648","2,19830357566729"
"4296","-3,99999999993107","-4,99999918808486","-1","-0,72717357036584","-2,4672703789889","1,36510800333686"
"4309","-3,99999999997895","-4,99999958249234","-1","0,84357808074758","1,50645893106422","-0,584068788946113"
"4317","-3,99999999999357","-4,99999978530682","-1","-5,1732099670721","2,1013096433768","-0,177958401922273"
"4329","-3,99999999999804","-4,99999988959924","-1","1,8871935604892","3,02026550073777","-0,0542216831546039"
"4338","-3,9999999999994","-4,99999994322909","-1","3,9757342669049","-3,19580514987867","1,67879193417522"
"4350","-3,99999999999982","-4,99999997080694","-1","2,42499914539875","-1,43923845155954","1,2068193509561"
"4358","-3,99999999999994","-4,99999998498818","-1","2,09142133970912","-1,08786317735847","1,06301525073641"
"4377","-3,99999999999998","-4,99999999228053","-1","2,01966559567165","-1,01757573342706","1,01919995303638"
"4378","-3,99999999999999","-4,99999999603045","-1","2,00423025580626","-1,00351576638572","-2,38477521209058"
"4391","-4","-4,99999999795876","-1","2,00090996807243","-1,00070327723905","-1,42192356179462"
"4406","-4","-4,99999999895034","-1","-5,13936638862277","0,799824060896601","-1,12855479390674"
"4421","-4","-4,99999999946024","-1","-2,67530743106884","0,159993013062977","-1,03916902617647"
"4428","-4","-4,99999999972244","-1","3,20940657686275","-5,36788997963983","0,683378289123832"
"4448","-4","-4,99999999985727","-1","1,47526427148324","3,72619747953816","0,208216755530271"
"4460","-4","-4,99999999992661","-1","1,10223384419776","1,54533561851972","0,0634410223057243"
"4476","-4","-4,99999999996226","-1","1,02199146775084","1,10908635161554","0,0193296802697047"
"4488","-4","-4,99999999998059","-1","2,78962110575239","-4,37807310684011","0,00588951006382659"
"4495","-4","-4,99999999999002","-1","3,95474550815721","1,12423101277033","-3,38883073638002"
"4497","-4","-4,99999999999487","-1","3,20537479753072","0,224885841656644","-2,42315922895432"
"4511","-4","-4,99999999999736","-1","3,04417806326442","0,044985097549474","-2,12893128612342"
"4520","-4","-4,99999999999864","-1","-0,560277946036121","3,60892808791543","1,35134145728885"
"4537","-4","-4,9999999999993","-1","-6,4751926889594","0,52187760541025","2,10704931585367"
"4538","-4","-4,99999999999964","-1","-0,177765781906752","0,904358663032033","1,33730397998829"
"4550","-4","-4,99999999999982","-1","-0,823129635467289","0,980868360402008","1,10277227336364"
"4550","-4","-4,99999999999991","-1","-0,961953510129414","0,996172997520622","1,0313134169739"
"4567","-4","-4,99999999999995","-1","-0,991815839836725","0,999234464568384","1,00954080366708"
"4578","-4","-4,99999999999998","-1","6,14132262170181","-2,60008261636056","1,00290696268279"
"4579","-4","-4,99999999999999","-1","3,67572823532411","-1,32007294035921","1,00088571490767"
"4579","-4","-4,99999999999999","-1","-3,99420659072611","4,33586834994503","-2,39035532972654"
"4593","-4","-5","-1","7,28037047992185","-4,73260293452324","1,96700144256046"
"4595","-4","-5","-1","4,70563874601521","-2,54661693536577","1,294633157312"
"4617","-4","-5","-1","-2,98777255670893","1,49058682211981","1,08977101125908"
"4620","-4","-5","-1","-7,78226029403145","0,298169920814306","1,0273520961999"
"4628","-4","-5","-1","-4,81359999650011","0,0596444972940083","1,00833383913176"
"4640","-4","-5","-1","-4,17501306172649","0,0119310024557121","1,00253921579416"
"4649","-4","-5","-1","4,88680569775886","0,00238662116467377","1,00077366706356"
"4661","-4","-5","-1","1,83608870258968","0,000477408382473495","1,00023572660765"
"4677","-4","-5","-1","6,53452219383795","-1,79986924263179","1,00007182292768"
"4697","-4","-5","-1","-0,809471879912106","-1,16000205100307","1,00002188354124"
"4717","-4","-5","-1","2,3956560009181","-6,43190027511384","1,00000666763933"
"4718","-4","-5","-1","-6,83934331267729","0,913428422372222","1,0000020315457"
"4731","-4","-5","-1","-3,82587909422476","-0,617246850222919","1,00000061898638"
"4739","-4","-5","-1","5,74679825231724","-0,923435874605307","-0,695312409353003"
"4747","-4","-5","-1","2,80597177560265","-0,984684475357372","-0,211852931618645"
"4759","-4","-5","-1","-1,3964089064911","0,803028386077611","1,63076367859887"
"4771","-4","-5","-1","-0,300380775809302","-1,63933075006114","1,19218574653957"
"4778","-4","-5","-1","-0,0646147486286984","-1,12788869208489","1,05855657582411"
"4780","-4","-5","-1","-0,0138992441480358","-1,02558224762632","1,01784145096077"
"4788","-4","-5","-1","5,35168173952489","-2,80508209266729","2,70074866329239"
"4796","-4","-5","-1","3,50586900591325","-2,16104480480931","2,21350928970832"
"4821","-4","-5","-1","3,1088172123135","-2,0322146392179","2,06505359079469"
"4829","-4","-5","-1","-4,11615451881164","-0,206479322553833","0,32450841162288"
"4841","-4","-5","-1","-1,67031433812204","-0,841267885877217","0,794186222830988"
"4841","-4","-5","-1","-1,14419096010147","-0,968247980462239","0,937291134928349"
"4845","-4","-5","-1","-1,03101684059636","-0,993648476552473","0,980893398815837"
"4858","-4","-5","-1","2,56310904963139","8,00109423434279","-2,39644673657751"
"4870","-4","-5","-1","-4,01843204375218","-2,3994990436793","0,269832869681849"
"4878","-4","-5","-1","-0,649293308582685","1,31998032880725","-1,61309792189939"
"4898","-4","-5","-1","-0,924559670480648","-0,735957393238471","2,20382198287515"
"4898","-4","-5","-1","-0,983772070914905","-0,147217427665532","1,36678939249248"
"4911","-4","-5","-1","-0,996509218821435","-0,0294486762516066","1,1117561070979"
"4919","-4","-5","-1","-0,999249099920716","-0,00589077357704017","1,03405067793484"
"4938","-4","-5","-1","-0,999838474284057","-0,00117836241736202","1,010374812598"
"4953","-4","-3,51422573396438","-1","-0,999965254289311","-0,000235714031186535","-0,69215152325312"
"4960","-4","-3,75020237150683","-1","-0,999992525868688","-4,71511172450583E-05","-3,60151504534541"
"4960","-4","-3,87154763114554","-1","-0,999998392243596","-9,43188594359856E-06","-2,48796145850971"
"4967","-4","-3,93394648634635","-1","-0,999999654156377","-1,88670974625475E-06","-2,14867570909368"
"4976","-4","-3,96603358346053","-1","0,784890607236728","3,59992910487386","3,04063817829943"
"4980","-4","-3,98253359452485","-1","1,95372793314212","-1,2798872496331","-0,0735558528809848"
"4989","-4","-3,99101832482482","-1","2,99004644035392","-0,256022577290481","1,6729010562305"
"4997","-4","-3,99538139149081","-1","-3,14170323628175","-3,65114302480434","1,20502447465933"
"5009","-4","-3,99762499264947","-1","-1,46070064196608","-2,3302868223797","1,06246837454055"
"5021","-4","-3,998778710102","-1","2,47067999607253","-0,266104268871221","1,01903332674902"
"5030","-4","-3,99937198130582","-1","3,10124772315686","-0,85319497744826","1,00579921487952"
"5048","-4","-3,99967705662604","-1","-1,33289225474829","-0,970633819312085","1,00176694771557"
"5055","-4","-3,9998339342065","-1","1,49817279014521","0,805839012696767","-0,694774231241341"
"5058","-4","-3,99991460469545","-1","-6,03240044792945","1,96116095664451","-0,211688955527963"
"5071","-4","-3,99995608753684","-1","-5,43718857740479","2,99223082190855","1,63081364004794"
"5079","-4","-3,9999774190814","-1","9,96997139364952","-1,40144833297414","-0,50311162878667"
"5091","-4","-3,99998838831056","-1","5,28419736543352","-0,280339080063765","-0,153291775115976"
"5099","-4","-3,99999402897048","-1","4,27624301100348","-0,0560777004488031","-0,0467060727156649"
"5111","-4","-3,99999692954296","-1","4,05942248690295","-0,0112175173254846","-0,0142307519556777"
"5120","-4","-3,99999842109198","-1","-3,12677979187509","1,79772084215921","1,69097666710777"
"5132","-4","-3,99999918808486","-1","1,11229059789337","-2,44035718712392","1,21053188557799"
"5139","-4","-3,99999958249234","-1","1,02415477067964","-1,28812222277552","1,06414641326537"
"5152","-4","-3,99999978530682","-1","4,57497698553519","-2,85759934455705","2,71485720195898"
"5161","-4","-3,99999988959924","-1","1,55390192730133","1,42837937539669","-2,86812981014971"
"5169","-4","-3,99999994322909","-1","3,68893061412429","-3,31420324417623","1,8214295773547"
"5181","-4","-3,99999997080694","-1","-2,2064761012147","4,93697197842274","-0,445033354059414"
"5190","-4","-3,99999998498818","-1","3,09514716725691","-1,01243153231739","-1,83090865442416"
"5198","-4","-3,99999999228053","-1","-4,90398560776227","-2,00248674478512","3,832770394594"
"5210","-4","-3,99999999603045","-1","-2,62467479671882","-1,20053269549564","2,55842205008235"
"5228","-4","-3,99999999795876","-1","-2,13437346266891","4,35978061377036","2,17014416368683"
"5230","-4","-3,99999999895034","-1","-0,244014471112329","-4,72781963863904","-1,33878441269306"
"5250","-4","-3,99999999946024","-1","-0,837380355702185","-2,54566010753538","-0,407910744608008"
"5259","-4","-3,99999999972244","-1","0,819871557876737","-0,309186519718615","3,26633993085796"
"5279","-4","-3,99999999985727","-1","0,176362133952462","-0,86181294664874","2,38583782364484"
"5295","-4","-3,99999999992661","-1","-1,74695336818121","0,827607024129223","-1,27306527180188"
"5305","-9,08398940789299","10,857742660394","-1","-1,16067674102097","0,16555058530508","-0,387886950304938"
"5319","-7,63631879048959","8,49797628495116","-1","4,32010851038184","-1,76684878695543","-0,118184267177371"
"5321","-7,19429158401506","7,28452368855462","-1","2,49907730541584","-2,95336153674538","3,3546159385713"
"5329","-7,05932438297168","6,66053513654163","-1","-1,46242481244657","-3,99067066293008","-2,67320338275274"
"5353","-7,01811392105742","6,33966416539738","-1","-0,314581422163304","-3,19816906250307","-1,50980399179161"
"5353","-7,00553084785106","6,17466405475287","-1","-0,0676694420991999","-3,03964079971562","-1,15533085381352"
"5361","-7,0016887717383","6,08981675175249","-1","-0,0145563376328049","-3,00792955763248","-1,0473273543066"
"5373","-7,00051564426664","6,04618608509222","-1","5,35154039249551","0,598343291168678","4,07151774522151"
"5382","-7,00015744520333","6,02375007350549","-1","3,50583860082907","1,11968975513537","2,63116536009128"
"5394","-7,00004807382464","6,01221289898007","-1","3,10881067189204","0,223977430010091","2,19230813382994"
"5402","-7,00001467871086","6,00628018694186","-1","-0,546374860033232","-3,55512609909172","-1,33203133021105"
"5410","-7,00000448195154","6,00322943373961","-1","-1,11753040501001","-2,31108005178994","-2,10116576340109"
"5423","-7,00000136850503","6,00166065793504","-1","-0,240391369954019","-3,86219171982679","2,05511386022402"
"5431","-7,00000041785503","6,00085395304551","-1","-1,83660099234256","2,227425479562","1,32147990093823"
"5443","-7,00000012758654","6,0004391246316","-1","-1,17996079368625","0,445563632392951","1,09795087582805"
"5443","-7,00000003895687","6,00022580918599","-1","2,53106979524589","0,089128436543807","-0,665468200065821"
"5451","-7,00000001189497","6,0001161168944","-1","-2,24043345784868","0,0178288298757238","1,49255282092565"
"5451","-7,00000000363197","6,00005971029525","-1","2,3029520855228","-1,79639834654182","-0,545237958570296"
"5460","-7,00000000110897","6,0000307045704","-1","-2,2895037368364","0,640656991735922","1,52918546085472"
"5460","-7,00000000033861","6,00001578908025","-1","0,507506071113993","0,128153987181618","1,16123614327027"
"5472","-7,00000000010339","6,00000811915138","-1","-1,67572117230596","-7,17422364856499","1,04912662160952"
"5484","-7,00000000003157","6,00000417507658","-1","-1,14535402132178","-4,63495664921654","1,01496826270968"
"5492","-7,00000000000964","6,00000214693182","-1","6,10829510529423","3,07284524687449","1,00456064107821"
"5504","-7,00000000000294","6,00000110400759","-1","3,66862370386814","0,614677394391682","1,0013895698818"
"5509","-7,0000000000009","6,00000056770911","-1","-0,425953777017024","0,122957151701815","1,00042338443725"
"5521","-7,00000000000027","6,00000029193064","-1","-2,87651722285035","3,62452524795155","-0,695183598046101"
"5533","-7,00000000000008","6,00000015011825","-1","-4,97343768560421","0,524997587355538","-1,90712628238655"
"5541","-7,00000000000002","6,00000007719467","-1","-1,63961459617638","-2,69494671285424","0,418922647639047"
"5554","-7,00000000000001","6,00000003969549","-1","1,64730337787282","-1,33904910445773","-1,56767214478146"
"5562","-7","6,00000002041244","-1","0,354350551860989","-1,06782177537606","-1,17296255100941"
"5583","-7","6,0000000104966","-1","0,0762241583977869","-1,01356674639362","-1,05269951031894"
"5618","-7","6,00000000539762","-1","0,0163965380974776","-1,00271382762672","-1,01605687688837"
"5618","-7","6,0000000027756","-1","0,00352705057337621","-1,00054286121181","2,38573286779656"
"5625","-0,221347456142673","-11,8292911910002","-1","3,57053976765446","0,799856149758136","3,11752794537409"
"5625","-2,15157494601387","-8,99757154118415","-1","2,33783797256983","0,1599994319667","2,34049668639391"
"5632","-2,74094455464658","-7,54142842587615","-1","-5,06688998510489","3,63193501007305","2,10374505078387"
"5644","-2,92090082270442","-6,79264216364972","-1","4,47984506084334","0,526479801039596","0,336297212048491"
"5652","-2,97584810525677","-6,40759699837389","-1","2,53343814967119","0,905279264426068","0,797778121805949"
"5660","-2,99262553619858","-6,20959686565049","-1","-1,45503346954772","6,38094673656366","2,63369813924581"
"5673","-2,99774830434893","-6,10778010207576","-1","-2,09788200717324","-4,52355040892821","-1,19754535617021"
"5685","-2,99931247431114","-6,05542330209666","-1","-1,23616481356485","-1,70483431815211","-0,364876983408118"
"5693","-2,99979007306222","-6,02850008819939","-1","-1,05080128720729","-1,14099171528415","-0,111173420142331"
"5716","-2,99993590156714","-6,01465547877238","-1","-4,58070890350706","2,57172616801851","-0,0338731405601403"
"5734","-2,99998042838552","-6,00753622432833","-1","3,79953668140543","-2,28552883140754","-0,0103207191965316"
"5742","-2,99999402406461","-6,00387532048655","-1","1,60220684382502","-1,2571510925611","-0,0031445931192751"
"5754","-2,99999817532663","-6,00199278952155","-1","-0,655350139548683","-1,05143928536629","1,69435448004234"
"5783","-2,99999944285995","-6,00102474365435","-1","-0,140972019319917","-1,01028967076376","1,21156106262563"
"5789","-2,99999982988461","-6,00052694955779","-1","3,53945664972495","2,59787118532753","1,06445999054627"
"5806","-2,9999999480575","-6,00027097102311","-1","5,9009327653194","3,11959531732123","1,01964014705569"
"5814","-2,99999998414004","-6,00013934027325","-1","4,40890863425011","2,22395853911749","1,00598410538227"
"5848","-2,99999999515737","-6,00007165235428","-1","-1,26671148009782","-3,35509461907748","2,69713587947287"
"5848","-2,99999999852137","-6,00003684548447","-1","0,512408901316346","-1,47110196176421","2,21240851999218"
"5848","-8,08398940744151","-7,48579321293192","-1","0,895114538571414","4,30565722055308","-1,32590699577108"
"5854","-1,55232938245875","-5,76403310543921","-1","0,977438144279527","0,661247997811916","-0,40398715790094"
"5855","-2,55797279348337","-5,87865975045318","-1","0,995146731237885","0,932237655553358","-0,123089797602257"
"5861","-2,86503279894377","-5,93760372111737","-1","0,998956015942609","0,986445141887734","-0,0375039106502482"
"5869","-2,95878953808182","-5,96791422769493","-1","0,999775429145694","0,997288550448718","-0,0114269691027261"
"5877","-2,98741692679244","-5,98350067018661","-1","-2,56982937300179","-2,6004718677952","3,3871435423715"
"5896","-8,08014733177987","-3,01996708794555","-1","-1,33768515995462","2,27977867791163","-0,967980033705598"
"5896","-4,9404825270535","-7,95336465459642","-1","-6,42731087335231","3,05596560025924","-0,294931321705686"
"5903","-4,98182712145519","-7,49024463924554","-1","6,1872056484625","-4,98862861237077","-1,78517445614393"
"5913","-4,99445115025463","-7,25209640943814","-1","-2,45396402260779","1,00209838417382","-2,93454536314859"
"5925","-4,99830573161974","-7,12963446117311","-1","-1,31276142616935","0,200455009680231","-2,28474419879529"
"5935","-4,99948267740594","-7,06666137594382","-1","-1,06727794373071","0,0400980697509354","-2,08675797017964"
"5944","-4,99984204234143","-7,03427899497179","-1","2,55530894305761","0,00802102776236801","4,75481633126029"
"5960","-4,99995176970388","-7,01762714134893","-1","4,90434274369141","-199,794481778304","2,83935783109563"
"5960","-4,99998527351263","-7,00906432969785","-1","-0,160138912804249","67,4341296366276","-1,13488343895416"
"5966","-4,99999550346053","-7,00466111159177","-1","0,750443136637985","11,8892740955008","-0,345784686644109"
"5972","-4,99999862704074","-7,00239686352937","-1","2,73120848893919","-1,02162020208635","3,28526895805857"
"5999","-4,99999958078492","-7,0012325289076","-1","3,94218040127925","2,79563993842024","2,39160525976592"
"6004","-4,99999987199818","-7,00063379808214","-1","3,20267192408543","0,559226558757993","2,11931718922705"
"6008","-4,99999996091633","-7,00032591528398","-1","-0,526184416087177","-1,68809971169927","-3,04958334944561"
"6021","-4,99999998806631","-7,00016759402611","-1","0,671703283471392","-1,13764420395045","-1,62448222602679"
"6033","-4,9999999963562","-7,00008618116109","-1","0,929380268237971","-1,02753369396765","-1,19027186707428"
"6041","-4,99999999888741","-7,00004431657081","-1","-6,1547531042401","-2,80547245074132","-1,057973440862"
"6049","-4,99999999966029","-7,00002278872115","-1","5,24583540494586","1,43880659209463","0,677648820866235"
"6072","-4,99999999989627","-7,00001171854686","-1","-2,65646167408859","-1,51215269204372","0,206471058731738"
"6089","-4,99999999996833","-7,00000602597836","-1","0,428569944762458","-1,10244859632821","0,0629091304834127"
"6090","-4,99999999999033","-7,00000309871315","-1","-1,69270108038491","-2,8204580726274","1,71448021748255"
"6098","-4,99999999999705","-7,00000159343804","-1","-1,14900656030103","-2,16412054294084","1,21769312128062"
"6104","-4,9999999999991","-7,00000081938685","-1","-1,03205272178933","-2,03282989529122","1,06632835156707"
"6114","-4,99999999999972","-7,0000004213498","-1","-1,00689484390505","-0,206602395461724","-4,06572838072986"
"6119","-4,99999999999992","-7,00000021666891","-1","-4,57126421188353","-0,841292504798206","-0,934088815714444"
"6127","-4,99999999999997","-7,00000011141673","-1","0,231787258303049","2,63167657716786","0,715394905456337"
"6139","-4,99999999999999","-7,00000005729335","-1","4,61964069931245","-0,473571894653493","0,217971815183042"
"6148","-5","-7,00000002946172","-1","0,778618982130737","-0,0947310765352807","1,76172586403852"
"6167","-5","-7,00000001514997","-1","-2,61740221847762","-0,0189495554167111","1,23208827458792"
"6168","-5","-7,00000000779051","-1","0,436972003446394","1,79617416191812","1,07071437343038"
"6176","-5","-7,00000000400608","-1","-1,69089371801839","-4,24063131884748","1,02154577872807"
"6196","-5","-7,00000000206003","-1","0,636272753297084","2,95168895755062","1,00656472734579"
"6197","-5","-7,00000000105932","-1","-1,64802223991391","-0,409558135305594","-2,38862500618056"
"6209","-5","-7,00000000054473","-1","-2,92428625157659","-0,0819260676135966","0,27221605239603"
"6217","-5","-7,00000000028012","-1","3,15584887544982","-0,0163881021423723","0,0829408018007563"
"6243","-5","-7,00000000014404","-1","1,46374350287013","-0,00327819825425448","0,0252710174245869"
"6258","-5","-7,00000000007407","-1","-0,68513491504234","3,59927372704595","-5,07823803320482"
"6275","-3,30533686403567","-5,51422573400247","-1","6,9921831248642","-3,07998308944772","1,45272484667313"
"6279","-3,78789373650347","-5,75020237152641","-1","4,64364691762723","2,18385952656265","0,442626959425803"
"6280","-3,93523613866165","-5,87154763115561","-1","4,13845454548837","1,23681364684846","0,134862858344581"
"6311","-7,36955147760477","-7,41972075238715","-1","-3,10977924786442","2,8473358202898","3,43171620984271"
"6314","-6,41817455330725","-4,24428267988512","-1","2,90083810869938","-5,03036192441262","2,43622589244934"
"6320","-6,12768410672635","-4,61139070639433","-1","-6,73067385865495","2,79371499143765","-1,25771266202353"
"6320","-6,03898666473502","-4,80016710077025","-1","-3,80250326587372","1,35880624263121","-0,383209203516893"
"6340","-4,31724092998507","-4,89724078072335","-1","2,18204554861321","1,0717738996249","-0,116759016661076"
"6345","-4,79152848666973","-4,94715856504586","-1","7,60894078664557","-2,58557217169155","1,65973759649802"
"6348","-4,93634596187897","-4,97282757432698","-1","-2,36324480175163","4,08272388361981","-0,494298863638897"
"6357","-4,98056407561692","-4,9860272394647","-1","3,06142473561743","2,41661821119137","-3,54123183249894"
"6382","-6,68872863176357","-4,99281484695823","-1","2,22832250930647","2,08333833172097","-2,46959392300031"
"6388","-6,21029424059426","-4,99630520940345","-1","0,264223800474489","-5,18318835980599","1,24754584348344"
"6389","-6,06421058394781","-4,99810004359364","-1","0,84172757377289","-2,63674990755022","0,380111501988803"
"6404","-7,71426899430486","-7,97057152559368","-1","2,75084463557105","3,27252179083834","3,50644038193087"
"6423","-7,21809265479895","-7,49909285511334","-1","2,16151378947576","1,45458448469269","2,45899340631319"
"6435","-7,06659172728553","-7,25664638973704","-1","2,03474314519272","1,09093292506871","2,13984950852748"
"6435","-7,02033290918008","-7,13197417813184","-1","2,00747357944978","1,01818979120491","2,04261038343116"
"6438","-7,00620838672577","-7,06786451861419","-1","2,0016076376932","-2,59629088269007","-1,37764234887273"
"6447","-7,00189564933356","-7,03489768189452","-1","2,00034581808757","-1,31931445993291","-0,419750268231603"
"6459","-7,00057881162282","-7,01794528608587","-1","0,21518385590206","4,33602007277344","4,95804517511394"
"6467","-7,00017673252578","-7,00922792790871","-1","0,831178617426481","0,667321638815508","1,90127909955095"
"6479","-7,00005396295519","-7,00474523800183","-1","0,963684922349816","0,933452597903727","1,96992098531418"
"6488","-7,00001647687951","-7,00244012349433","-1","-2,57759278268809","0,986688173195289","-3,0951024906919"
"6508","-7,00000503099872","-7,00125477429483","-1","-1,33935514287557","0,997337165279236","-1,63835133491666"
"6516","-7,00000153614937","-7,00064523723272","-1","-1,07299850396112","0,999467339167334","-1,19449760983068"
"6516","-7,00000046904303","-7,00033179758958","-1","-1,01570266929037","0,999893449052454","-1,05926097144417"
"6541","-7,00000014321613","-7,00017061885903","-1","4,35129380570347","-2,5999507962287","-1,01805607143226"
"6556","-7,00000004372916","-7,00008773660801","-1","9,64534768904559","-8,51990553624967","-1,00550145749592"
"6558","-7,00000001335212","-7,00004511642165","-1","6,78414879899446","-5,70410521510235","-1,00167622479192"
"6558","-7,00000000407689","-7,00002320002504","-1","6,1686778303239","-5,14084586896686","-1,0005107245771"
"6576","-7,00000000124482","-7,0000119300499","-1","-4,67305899885268","7,57157904813017","-1,00015561134456"
"6579","-7,00000000038009","-7,00000613473867","-1","-1,00521923123881","-0,485417225137144","2,39057778308441"
"6591","-7,00000000011605","-7,00000315464049","-1","-0,216232173208262","-0,0971005602848465","1,42369153207594"
"6599","-7,00000000003543","-7,00000162219732","-1","-0,0465135875611395","-0,0194235357119173","1,12909347217865"
"6615","-7,00000000001082","-7,00000083417561","-1","-0,0100055130358609","1,79607934914708","1,03933315465968"
"6628","-7,0000000000033","-7,00000042895457","-1","-3,57193334626276","1,15924393867881","-0,68332828124268"
"6640","-7,00000000000101","-7,00000022057948","-1","-2,3381377445217","1,03185440249532","-0,208201518758881"
"6655","-7,00000000000031","-7,00000011342764","-1","-2,07273663004991","1,00637200364894","-0,0634363798534338"
"6673","-7,00000000000009","-7,00000005832741","-1","-3,80053687057536","-0,798690115741798","-0,0193282657729771"
"6681","-7,00000000000003","-7,00000002999346","-1","5,75224960454304","-0,159766184050404","-0,00588907908449347"
"6682","-1,91601059210701","-7,00000001542341","-1","2,80714441307523","-0,031958869983411","-0,00179432820671921"
"6688","-3,36368120951041","-7,00000000793111","-1","2,17362440461577","-0,0063929008299675","-0,000546709199729674"
"6689","-3,80570841598494","-7,00000000407838","-1","-5,10221387820752","1,79868593556878","-0,000166575405742275"
"6698","-3,94067561702832","-7,00000000209721","-1","4,47224655702011","1,15976534786841","1,69526184452273"
"6710","-3,98188607894258","-7,00000000107844","-1","-2,82286795896489","1,03195870271753","-0,48347507279848"
"6718","-3,99446915214894","-7,00000000055456","-1","-1,39211615535143","1,00639286737089","-0,147308763886732"
"6739","-3,9983112282617","-7,00000000028517","-1","-4,65412896292648","-0,798685942261777","-3,4355083204685"
"6757","-3,99948435573335","-7,00000000014664","-1","3,78374333154504","-37,9590249131717","-2,4373813007842"
"6773","-3,99984255479666","-7,00000000007541","-1","-0,186080988090565","13,4068566254647","-0,437951974290675"
"6779","-3,99995192617535","-7,00000000003878","-1","-0,0400277821963043","2,68184403555813","-2,52406364516985"
"6794","-3,99998532128914","-7,00000000001994","-1","-3,57839142058472","-1,26350137526927","1,23094960534524"
"6800","-3,99999551804846","-7,00000000001026","-1","1,23025412823702","2,54721991647068","-1,32025776064368"
"6808","-3,99999863149497","-7,00000000000527","-1","-3,30514175569159","-2,29043094577957","2,29304669082395"
"6826","-3,99999958214497","-7,00000000000271","-1","-2,28074834763183","-1,25813168827847","1,39397503695604"
"6829","-3,99999987241345","-7,0000000000014","-1","5,07917050390552","-6,45152966250794","-2,27058596541816"
"6848","-3,99999996104312","-7,00000000000072","-1","-2,69231287214523","-0,890462888357563","-1,387131536884"
"6849","-3,99999998810503","-7,00000000000037","-1","2,20574854549402","3,62184076676437","-1,11795410222467"
"6857","-3,99999999636803","-7,00000000000019","-1","-2,31041313853782","-2,07546888581597","-1,03593912896793"
"6870","-3,99999999889102","-7,0000000000001","-1","-1,28188227198707","-1,21513169696882","-1,01095019983717"
"6878","-3,99999999966139","-7,00000000000005","-1","2,50914552035669","-1,0430339246919","-1,00333638794031"
"6897","-3,99999999989661","-7,00000000000003","-1","1,32463148874707","-1,00860830226546","-1,00101655537376"
"6898","-3,99999999996843","-7,00000000000001","-1","1,06983130656693","-2,80168670511317","0,695002866334484"
"6918","-3,99999999999036","-7,00000000000001","-1","6,369692973674","-2,160365607581","0,21175861776051"
"6919","-3,99999999999706","-7","-1","4,50974339289391","-2,03207877582452","0,0645201831070735"
"6931","-3,9999999999991","-7","-1","4,10965062963247","-2,00641688622593","0,0196584869706616"
"6945","-3,99999999999973","-7","-1","-4,90086577569872","-0,201318862356108","0,00598969332331766"
"6947","-3,99999999999992","-7","-1","1,73066790722146","2,75969387039659","0,00182498409775576"
"6956","-3,99999999999997","-7","-1","1,1571735841915","1,35200081887709","0,000556049663527117"
"6960","-3,99999999999999","-7","-1","1,03380952594667","1,0704125749226","0,000169421327390656"
"6960","-4","-7","-1","-6,13228938225872","1,01408499765156","1,69536421849445"
"6968","-4","-7","-1","3,46577703136916","1,00281749615126","-0,483443880739"
"6968","-4","-7","-1","-2,03936908233793","-2,59936588371038","-5,23323705391023"
"6976","-4","-7","-1","2,34620293620328","2,27999991372433","1,40549859773416"
"6980","-4","-7","-1","1,28958099629256","1,25604511408113","0,428237716328039"
"6980","-4","-7","-1","1,06229161381143","1,05121805067476","0,130478637247663"
"6988","-4","-7","-1","1,01339951585536","1,01024541602497","0,0397551970059683"
"6988","-4","-7","-1","-0,782008170126675","1,00204944444667","1,70742550564408"
"6997","-4","-7","-1","1,61667317205372","1,00040996115041","-0,479768958492006"
"7007","-4","-7","-1","1,13265223745081","1,00008200668484","-0,146179557546993"
"7007","-4","-7","-1","1,02853475211529","1,00001640422843","-0,0445390696217598"
"7009","-4","-7","-1","1,00613809532299","1,00000328142408","-0,0135704934127622"
"7009","-4","-7","-1","-0,783570170428199","-4,39989356702298","-1,69944735633282"
"7017","-4","-7","-1","1,61633717100116","2,9198308925104","0,482199800078816"
"7017","-4","-7","-1","2,91747049328592","-2,21589561273382","-1,54839239359548"
"7025","-4","-7","-1","0,412466056100981","2,3567074886438","0,528224344241962"
"7029","-4","-7","-1","2,65850641923342","-0,528575407454581","1,85625590109682"
"7038","-4","-7","-1","-4,99791116640886","-0,105733718456592","-0,434422211955489"
"7050","-4","-7","-1","-2,64487907359176","-0,0211504717415716","-0,132362975153378"
"7058","-4","-7","-1","-2,13871959390135","3,59569864219252","-0,0403293310270444"
"7077","-4","-7","-1","19,3888464961815","-1,28073349133066","-0,0122878390970303"
"7079","-4","-7","-1","-11,1839471599351","-3,85612133774984","-3,39436914567199"
"7091","-4","-7","-1","-4,76044451281886","-2,3712897122702","-2,42484671249298"
"7107","-4","-7","-1","-3,37868828111283","-2,07427103370559","-2,12944544109882"
"7119","-4","-7","-1","-1,29656890152648","6,98496688025281","1,35118480074514"
"7140","-4","-7","-1","-1,84868531122534","3,79713388143526","0,411688986628004"
"7148","-4","-7","-1","-1,96745077792458","-5,84036882338777","0,125436447788137"
"7160","-4","-7","-1","-1,99299835418296","-2,76820917169978","0,0382189053989034"
"7169","-4","-7","-1","-1,99849387969907","-2,1536689205187","0,011644818995173"
"7197","-4","-7","-1","-1,99967601926459","-2,03073920229452","0,00354802964697762"
"7197","-4","-7","-1","-1,99993030867664","-2,0061489242881","0,00108103993553273"
"7210","-4","-7","-1","1,56979605694841","-2,00123000166167","1,69564197719983"
"7218","-4","-7","-1","2,12256852619862","5,19961292086387","-2,17867184911102"
"7234","-4","-7","-1","1,24147511751838","2,64003539887308","-1,35912646357469"
"7238","-4","-7","-1","-2,51783748182381","-5,07182931787226","2,28120388670686"
"7258","-4","-7","-1","-1,32650121194682","-2,61447417277074","1,39036668373662"
"7259","-4","-7","-1","-1,07023350172816","5,07694246435239","-0,576372787235909"
"7267","-4","-7","-1","-1,01510789113335","2,61549698235048","-0,175613527155022"
"7267","-4","-7","-1","-1,00324985041157","2,12312109819131","-0,0535072293536382"
"7284","-4","-7","-1","-2,78558960643286","3,82459330188885","1,67900961924772"
"7297","-5,69466313596433","-2,54267720189314","-1","-2,16898776164425","-2,23494648882689","2,90219827480566"
"7300","-5,21210626349653","-3,25060711452048","-1","-2,03635086736344","-0,447068099428134","2,27488844848421"
"7308","-5,06476386133835","-3,61464289343661","-1","-5,57760048139424","7,11042958156802","-3,00218274662896"
"7320","-5,01977479432389","-3,80183945903905","-1","-4,33935679894015","4,62219558651114","-1,610039859499"
"7328","-5,00603797368581","-3,89810075038158","-1","-0,503217794511313","-4,87536265049724","0,509441138012876"
"7350","-5,00184361595035","-3,94760078357455","-1","-1,67802797732649","-1,77520917096408","0,155220296838357"
"7351","-5,00056292391277","-3,97305497447446","-1","-1,93074076976307","-1,15506916718354","0,0472936689890538"
"7361","-3,30550874545788","-5,47191844050806","-1","-1,985101683888","-1,03101930099858","0,0144097851376706"
"7364","-3,78794621823791","-5,24267260644158","-1","1,57298583452538","-1,00620495390487","1,69970307794805"
"7398","-3,93525216326986","-5,12478849916047","-1","2,12325467755356","0,798723531580596","-0,482121884924226"
"7404","-7,36955637050839","-8,03571798964235","-1","1,24162271517073","0,159772868396368","-0,14689646458884"
"7404","-4,72351291132677","-6,04681857736833","-1","1,05197533351353","0,0319602070882862","1,6505550957845"
"7409","-3,22091516343383","-4,53830105127478","-1","-4,34349121223004","-1,79357157284308","-0,497096655925617"
"7415","-3,76211667918514","-3,27680825318557","-1","1,06567391973387","2,44118718728565","1,54385350928881"
"7421","-3,927365452816","-3,62811619319737","-1","-5,12543504948986","-2,31164123020961","-0,529607285109565"
"7421","-3,97782199514219","-3,80876777649745","-1","-3,45720120097366","-1,2623744930149","-0,161364667806599"
"7437","-5,68789137351048","-3,90166346951176","-1","-3,09834830672522","-1,05248414962819","-0,0491657814165964"
"7439","-5,21003859478488","-3,94943282543418","-1","2,33351594667197","-1,01049868045686","-0,0149801942095635"
"7451","-5,06413252585807","-3,97399705754438","-1","-3,06781969379282","4,39779411716063","-0,00456427645591102"
"7460","-5,01958202432819","-3,98662861783053","-1","-2,22969812535207","2,47964336691642","-0,00139067753558789"
"7480","-5,00597911389984","-2,50734982515416","-1","3,30526135717591","0,295980843919885","3,3902014739753"
"7480","-5,00182564388789","-2,74666660225222","-1","3,2807740750434","-0,940793395269229","-2,66236091841995"
"7501","-6,6952205723439","-7,32705224571232","-1","0,490616095989248","21,4113850433386","-1,50650042950223"
"7504","-2,82295019744391","-6,6824044150605","-1","-0,894463833012855","-11,3168975326119","2,23630089589865"
"7511","-3,64060330447372","-6,35090991119502","-1","-3,76218870419604","-2,0637432685561","-0,318627289827349"
"7511","-3,89026294004322","-6,18044690663963","-1","-2,37906347319059","-1,21278616008496","-0,0970817211596141"
"7521","-3,9664932302443","-6,09279044300837","-1","-2,0815401417369","-1,04256473461417","-0,0295795774066308"
"7544","-7,37909541992749","-7,53348949969648","-1","-3,80243058928346","-1,0085144477068","-0,0090125245937527"
"7544","-6,42108867072661","-7,27433402954371","-1","-3,17261041649165","-1,00170318975107","-0,00274600270437904"
"7571","-6,12857389420061","-7,14106961769352","-1","-1,25223960187487","0,799624043138423","-0,000836672430018547"
"7571","-6,03925834965207","-7,07254162769853","-1","-1,83914965919781","3,75988248474127","3,39037027235164"
"7577","-6,01198702136998","-7,03730277174625","-1","-1,96539956889794","2,35203854839635","2,42362830616988"
"7578","-6,00366007951424","-7,01918204518012","-1","-0,207666586859725","-3,32947410126674","-1,26155098785912"
"7590","-6,001117557201","-7,00986390126169","-1","-2,61445211453079","-3,26594169599301","-2,07969129099431"
"7599","-6,00034123141113","-7,00507227186604","-1","-5,7019555326355","3,14666124856534","0,366344263481672"
"7617","-6,00010419052899","-7,00260829272318","-1","-4,366106747751","1,429407938539","0,111620481896021"
"7619","-6,00003181320938","-7,00134125123997","-1","1,27591857109598","-0,714068012999477","1,72932195259478"
"7638","-6,00000971374559","-7,00068970590331","-1","4,84424322964981","-1,94280352096433","1,22221521099388"
"7659","-6,00000296596461","-7,00035466452435","-1","-6,31262901861612","6,01126501819554","-0,627606422616717"
"7674","-2,61067463368967","-5,51440811158972","-1","3,42698426828494","-1,79753504601619","1,5040888275336"
"7682","-3,5757877495256","-5,75029615477508","-1","-3,83260430577704","-2,15953512937884","-2,23703568063725"
"7692","-3,87047236175463","-4,38582159087987","-1","4,7453515956437","4,16794631366228","3,70902860607499"
"7692","-3,96045043713221","-4,68417365678512","-1","2,59055111889894","2,43366570204549","2,52071948601351"
"7699","-3,98792406049997","-4,83759396685505","-1","2,12703313651562","2,08674843096687","2,15865666739008"
"7701","-3,99631277050278","-4,91648663840579","-1","2,02732603030722","2,01735274484406","2,04834068780494"
"7715","-3,99887415290834","-4,95705528033839","-1","2,00587808781892","2,00347116080679","2,01472879858058"
"7735","-3,99965623737965","-4,97791672001211","-1","2,00126443233863","2,00069435455053","2,00448767937483"
"7742","-3,99989503659953","-4,98864420913989","-1","2,00027199136662","2,00013889539225","2,00136733936995"
"7763","-3,99996795080446","-4,99416056011021","-1","-6,9243941562945","2,00002778397574","-1,39020858482036"
"7769","-3,99999021419914","-4,99699720973674","-1","-3,84417433587656","2,00000555777478","-0,423579042016029"
"7776","-3,99999701203425","-4,99845588797293","-1","-3,18158989157845","2,00000111175092","-0,129059197874541"
"7788","-3,99999908766391","-4,99920597785956","-1","5,88539095939382","-1,59992925989295","-1,73463530966136"
"7797","-3,99999972143016","-4,99959169338205","-1","-11,4433398837661","-0,320042263658511","-1,22383412395466"
"7799","-3,99999991494236","-4,9997900382297","-1","5,32331978794328","-1,86398447819786","2,32242575818291"
"7812","-3,99999997402877","-4,99989203225456","-1","1,929987015936","-1,17282735874633","1,40292646866428"
"7820","-3,99999999207002","-4,99994448020686","-1","1,2000490114614","0,765393175696454","-0,572545978995998"
"7836","-3,99999999757869","-4,99997145029362","-1","-0,741858096581643","1,95307036317039","1,52086505105609"
"7848","-3,99999999926068","-4,99998531900628","-1","-0,159580699862162","1,19064767680747","1,15870101922474"
"7869","-3,99999999977426","-4,99999245065523","-1","3,53545374636901","-2,56179322490131","2,74366679920057"
"7876","-3,99999999993107","-4,99999611793265","-1","2,33029063722644","0,487551029114055","2,226585905039"
"7881","-3,99999999997895","-4,99999800374107","-1","-3,28362295554658","0,0975273963157217","0,373725272797044"
"7890","-3,99999999999357","-4,99999897347228","-1","-6,84590051568375","1,81947365910901","2,50449457834954"
"7909","-3,99999999999804","-4,99999947213303","-1","-1,04239907782703","1,16392362552787","2,15371314242545"
"7910","-3,9999999999994","-4,99999972855722","-1","1,77577008980315","-0,767174236275618","-3,03910333582457"
"7918","-3,99999999999982","-4,99999986041714","-1","0,381984957811798","-3,75339137922555","0,0740235000472041"
"7931","-3,99999999999994","-4,9999999282229","-1","-1,70272195210541","3,04915412499926","-1,67275857003035"
"7939","-3,99999999999998","-4,99999996309037","-1","2,4186189210077","-3,98999114758761","0,490331537041174"
"7951","-3,99999999999999","-4,99999998102012","-1","-2,26462270548745","-0,598103653193316","0,149397842164084"
"7978","-4","-4,99999999024006","-1","-1,27203231633269","-0,919606560232105","0,0455196404007977"
"7980","-4","-4,99999999498119","-1","0,726373806226541","6,21594048709918","-1,6814433369744"
"7992","-4","-4,9999999974192","-1","0,156249882414564","3,6433014878115","-1,20762719998677"
"8000","-4","-4,99999999867289","-1","0,0336108289496204","3,12868297963865","-1,06326139215881"
"8020","-4","-4,99999999931756","-1","0,00723000750607504","3,02574113314274","-1,01927494922691"
"8029","-4","-4,99999999964907","-1","1,78644577590467","-5,99467457147429","0,689439763745769"
"8049","-4","-4,99999999981955","-1","1,16917193180313","-2,79907576196167","0,210063610485419"
"8049","-4","-4,99999999990721","-1","-2,5333905815768","6,839980378814","0,0640037357439708"
"8062","-4","-4,99999999995228","-1","2,23993423473765","-5,23169223661691","0,0195011319653024"
"8070","-4","-4,99999999997546","-1","1,26672159254477","-2,64645239310375","0,00594174923553527"
"8082","-4","-4,99999999998738","-1","1,05737433965171","-2,12931327179442","0,0018103761382057"
"8090","-4","-4,99999999999351","-1","4,58212282931597","1,57406226848505","1,69586419675264"
"8138","-4","-4,99999999999666","-1","5,12522013163438","-1,48509678780483","1,21202105428792"
"8138","-4","-4,99999999999829","-1","4,24204550295077","-1,09703646152013","1,06460014421081"
"8139","-4","-4,99999999999912","-1","4,05206627916761","-1,01941071369892","1,01968285011163"
"8145","-4","-4,99999999999955","-1","-4,91325271464383","0,796081914001765","1,00599711646544"
"8152","-4","-4,99999999999977","-1","-1,84177770629971","0,159244451740181","1,00182724583565"
"8162","-4","-4,99999999999988","-1","-1,1810743538672","0,0318545051256804","1,00055673878657"
"8163","-4","-4,99999999999994","-1","-1,03895080777626","0,00637202417863559","1,0001696312945"
"8176","-4","-4,99999999999997","-1","-1,00837868750611","0,00127462950602813","1,00005168451843"
"8184","-4","-4,99999999999998","-1","0,783088197837572","-1,79970977029798","-0,69529685032871"
"8196","-4","-4,99999999999999","-1","0,168449684974175","-1,1599701509135","-0,211848190979955"
"8204","-4","-5","-1","0,0362351219776452","-1,03199967054767","-0,0645474749385994"
"8224","-4","-5","-1","0,00779451778099863","-1,0064010623814","-0,0196668024479064"
"8225","-4","-5","-1","0,00167667456662035","-1,00128043817043","-0,00599222694447618"
"8233","-4","-5","-1","0,000360668572622253","-1,00025613278088","-0,00182575606020433"
"8241","-4","-5","-1","7,75832244772324E-05","6,19980772897753","1,6947563130796"
"8254","-4","-5","-1","1,78490722172857","0,0401448850821962","1,21168349608981"
"8266","-4","-5","-1","-0,616049558608376","-2,79193434866189","-0,630815303469965"
"8281","9,55730508771465","-5","-1","-0,132518092294867","-1,35845005129262","-0,192201475987422"
"8286","5,69685010797226","-5","-1","-0,0285058962222786","-1,07170264879828","-0,0585613683887146"
"8307","4,51811089070683","-5","-1","-0,00613188814722162","-1,01434305791323","-0,0178429111948296"
"8315","4,15819835459115","-5","-1","-0,00131902719201829","-1,0028691173025","-0,00543651025695515"
"8330","4,04830378948646","-5","-1","-7,1398458666064","0,799390816518862","1,69365616176395"
"8347","4,01474892760284","-5","-1","6,03393262573253","1,95987109005289","4,6019734897443"
"8356","4,00450339130214","-5","-1","1,08284656482813","1,19200806196984","-1,59783665310847"
"8364","4,00137505137772","-5","-1","-0,767069452426481","-0,761556358762043","1,20847189921504"
"8376","4,00041985387556","-5","-1","-0,165003901184263","-0,152338123360558","1,06351876137218"
"8393","4,00012819686572","-5","-1","-0,0354939012626573","-3,63040247822283","-2,37127182951681"
"8405","4,00003914322896","-5","-1","-1,79252560703044","1,27379150050694","0,277503346711016"
"8413","4,00001195187078","-5","-1","4,18419183749047","-3,34512626974624","3,47517696967017"
"8426","4,00000364934674","-5","-1","2,46984034233236","-2,26907268156651","2,44946783845227"
"8434","4,00000111428009","-5","-1","-5,03849502568174","5,14603494105566","-2,94899060584818"
"8442","4,00000034023079","-5","-1","-2,65360904593514","2,62931791381301","-1,59383288431504"
"8454","4,000000103885","-5","-1","-2,14059749360044","2,12588577179409","-1,1809333987736"
"8461","4,00000003171992","-5","-1","-2,03024385193207","2,02518159294747","-1,05512812721634"
"8473","4,00000000968526","-5","-1","5,13305639249606","-5,19482175810093","2,3738283500393"
"8475","4,00000000295727","-5","-1","0,889059558321768","0,960852484892768","1,41858819083562"
"8493","4,00000000090296","-5","-1","0,976135660704377","0,19220437554068","1,12753854839437"
"8494","4,00000000027571","-5","-1","0,994866554690052","0,0384476520150809","1,03885938897146"
"8503","4,00000000008418","-5","-1","0,998895747314695","5,40758510944684","-2,37878522962976"
"8528","4,0000000000257","-5","-1","0,999762464793257","3,48160191059288","-1,42009848960031"
"8536","4,00000000000785","-5","-1","-4,35472269459922","1,29637262171119","0,567313880549056"
"8551","4,0000000000024","-5","-1","-2,50652314413894","1,85924971524383","0,172853392411194"
"8557","4,00000000000073","-5","-1","-2,10895792363867","1,97184498035435","0,0526662510692345"
"8565","4,00000000000022","-5","-1","-2,0234378808965","0,194403262215842","0,0160467432139794"
"8577","4,00000000000007","-5","-1","-2,00504171007095","0,838852248021512","0,00488924050122514"
"8585","4,00000000000002","-5","-1","-0,216193986724434","0,967764767718464","3,39211488588703"
"8593","4,00000000000001","-5","-1","-0,831395906129441","0,993551816966188","2,42415986793555"
"8606","4","-5","-1","-2,74862219604942","-4,40118408738583","-1,26138902768571"
"8614","4","-5","-1","-2,16103572169448","-2,48032148048794","-0,384329345819485"
"8626","4","-5","-1","1,53514075739796","-0,296116490543701","1,57821228804118"
"8634","4","-5","-1","2,11511384317814","2,74073100230289","2,8714865978268"
"8643","4","-5","-1","1,23987154462601","1,34820757664926","2,26553098741293"
"8655","4","-5","-1","1,05159864015075","1,06965379273164","2,08090394671852"
"8667","4","-5","-1","1,01109935598888","1,01393321445957","2,02465041334123"
"8675","4","-5","-1","1,00238757655256","1,00278713416116","2,00751067040039"
"8687","4","-5","-1","1,00051359032002","1,0005575251034","2,00228840665195"
"8697","4","-5","-1","1,00011047814008","1,00011152467838","2,00069724867761"
"8697","4","-5","-1","1,00002376489384","1,00002230886791","2,00021244288816"
"8709","4","-5","-1","-2,56977595363133","-2,59992501972216","0,304752130721323"
"8721","4","-5","-1","-1,33767366894231","2,27988806680748","2,48347933087928"
"8730","4","-5","-1","-1,0726368029993","-0,543942000386995","0,451997463319954"
"8742","4","-5","-1","6,12393726738076","1,69115716228956","2,5283431287327"
"8750","4","-5","-1","3,67198848101976","1,13825580187073","2,16097949528435"
"8760","4","-5","-1","-2,21012051443932","1,02765603511595","2,04904842420145"
"8768","-7,86264195175032","6,88619412828497","-1","-0,475417846214925","1,00553218214343","2,01494443694457"
"8771","-4,48474384447573","4,9983810279454","-1","5,25240471895101","-0,798858109654049","-1,38607181423298"
"8791","-3,45334702936848","4,02761895083571","-1","3,48451357891661","-0,159799788756128","-0,422318620132883"
"8791","-3,13842356026726","3,5284281092292","-1","-2,25044814073614","-3,63189507439175","1,56663743474488"
"8799","-3,04226581580066","3,27173133231579","-1","1,30079783242313","-2,32643655363641","2,86795988584685"
"8814","-3,01290531165248","3,13973124380121","-1","-0,720186071387817","3,33459540291585","-2,82148135114909"
"8820","-3,00394046738937","3,07185340140143","-1","-3,72469990775547","5,06693087803525","3,53095537308758"
"8832","-3,00120316995551","3,03694886807349","-1","6,55345338604856","-0,186470429051227","0,771150217329642"
"8840","-3,00036737214112","3,01900005880424","-1","-6,94496173261298","2,56262882173755","2,6255849522089"
"8848","-3,0001121722575","3,00977031918398","-1","6,86074458079579","-3,28734862142578","3,88592045180024"
"8861","-3,00003425032534","3,00502414955345","-1","2,04559217676374","0,342414367553857","-3,51132159091976"
"8881","-3,00001045788693","3,00258354699167","-1","-1,55997375683478","1,86845968779178","-0,0698554532981663"
"8893","-3,0000031931784","3,00132852634802","-1","-0,335565123612429","1,17372255845589","-0,0212840765844186"
"8904","-3,00000097499508","3,0006831624364","-1","3,49759783074807","-2,56517884533198","-0,00648498999953216"
"8910","-3,00000029770194","3,00035129970528","-1","2,32214747138846","-1,31309095548636","-0,00197589475527538"
"8922","-3,00000009089938","3,00018064734879","-1","-1,50048409476847","4,33726499309642","1,69471056771065"
"8930","-3,00000002775493","3,00009289351552","-1","-2,10765886694645","-1,13239407436659","-3,87426823579888"
"8946","-3,0000000084746","3,0000477682362","-1","-1,23826790866114","-0,226518741796133","-2,57106591950973"
"8947","-3,00000000258761","3,00002456365632","-1","-4,62103474855781","-0,0453117351515672","2,91194120243656"
"8963","-3,00000000079009","3,0000126312642","-1","-3,34869992100608","-0,00906394467038676","1,58254439784207"
"8971","-3,00000000024124","3,0000064953211","-1","5,84944401000697","-3,60174259080075","1,17749393915707"
"8983","-3,00000000007366","3,00000334006126","-1","2,82805184984527","-2,32040499377605","1,05408016720133"
"9013","-3,00000000002249","3,00000171754545","-1","-6,74633087201344","-0,264127554728492","-2,37414765025373"
"9017","-6,38932627193553","-11,8577417771501","-1","-2,02098070483205","2,7471299173593","0,276627120361924"
"9023","-5,42421252699516","-9,49797583076446","-1","-2,00451314823701","-0,45047715586218","1,7795973965899"
"9029","-5,12952772267735","-8,28452345500013","-1","-2,00097082091247","-0,0901113144828834","1,23753350541164"
"9038","-5,03954958864798","-7,6605350164419","-1","-2,00020883276919","-0,0180254401186935","1,07237346666362"
"9041","-5,01207594737168","-7,33966410363901","-1","5,13951720946426","-3,60353520586252","1,02205128353506"
"9049","-5,00368723190073","-7,17466402299512","-1","2,67533987405969","-2,32076357999396","1,00671874829216"
"9061","-5,00112584782554","-7,08981673542184","-1","3,93016253330169","1,53576545652575","-2,38857807793855"
"9082","-5,00034376284443","-7,04618607669458","-1","3,20008676690841","-5,09268698278091","3,66285554674088"
"9090","-5,00010496346889","-7,02375006918721","-1","6,61282162349992","1,9812830411124","-2,57928665733075"
"9098","-5,00003204921643","-7,0122128967595","-1","5,34693320005118","0,39632646600154","-1,48118874871377"
"9110","-5,00000978580724","-7,00628018579998","-1","-5,63471458125268","0,0792792672192257","-2,84192474769147"
"9130","-5,00000298796769","-7,00322943315243","-1","-1,99697098400041","0,0158586487403366","-2,25652386409542"
"9131","-5,00000091233668","-7,0016606576331","-1","-1,21445789713983","0,00317228890592459","-2,07815958971497"
"9155","-5,00000027857002","-7,00085395289024","-1","0,738758608861022","1,80059931077364","-2,02381424233552"
"9160","-5,0000000850577","-7,00043912455176","-1","0,158913970710118","1,16014809037281","-2,00725589962899"
"9172","-5,00000002597125","-7,00022580914493","-1","5,38885549809081","2,83200000585464","4,77903961059393"
"9180","-5,00000000792998","-7,00011611687329","-1","3,5138654333106","2,16642933654169","2,84673835914492"
"9192","-5,00000000242131","-7,00005971028439","-1","-4,02902481181985","0,233326994275656","0,562677912913289"
"9200","-5,00000000073932","-7,00003070456482","-1","-1,65157191327745","0,846638366839849","0,866753469426622"
"9213","-5,00000000022574","-7,00001578907738","-1","-1,14015928707991","0,969322266011795","0,959401460767469"
"9233","-5,00000000006893","-7,00000811914991","-1","-1,03014958956094","0,993863371540467","0,987630136554229"
"9242","-5,00000000002105","-7,00000417507582","-1","-1,00648546214547","0,998772457937577","0,996231058442999"
"9250","-5,00000000000643","-7,00000214693143","-1","-1,00139508430638","0,999754448305783","0,99885165098852"
"9262","-5,00000000000196","-7,00000110400739","-1","-1,00030009584179","0,999950881003284","0,999650112523046"
"9270","-5,0000000000006","-7,00000056770901","-1","0,784825979385867","-2,59993930781355","-0,695419204256718"
"9283","-5,00000000000018","-7,00000029193058","-1","-1,61606703460543","-1,32004427359691","-0,211885470680411"
"9299","-5,00000000000006","-7,00000015011822","-1","-1,13252185154728","-1,06402013911525","-0,0645588335936804"
"9311","-5,00000000000002","-7,00000007719465","-1","-1,02850670487306","-1,0128062851001","-0,0196702632870138"
"9335","-5","-7,00000003969548","-1","-1,00613206209566","-1,00256170855502","-0,00599328141855273"
"9343","-5","-7,00000002041244","-1","-1,00131906460997","0,79945230910724","-0,00182607734517124"
"9348","-5","-7,0000000104966","-1","-1,0002837432854","0,159918649597561","-0,000556382762241936"
"9360","-5","-7,00000000539762","-1","-2,78495156870942","-5,36790485495489","-1,69548212076873"
"9373","-5","-7,0000000027756","-1","-2,16885051368954","1,9262297628095","0,483407957401355"
"9381","-5","-7,00000000142728","-1","5,10324078734093","0,385313869225192","3,53791351057146"
"9393","-5","-7,00000000073395","-1","2,66753647222636","1,87704110071353","0,773270274162709"
"9401","-5","-7,00000000037741","-1","2,14359341484882","1,17543914361107","0,930918308867208"
"9420","-5","-7,00000000019408","-1","3,81577883579795","1,03509401450621","0,978951678999553"
"9429","-5","-7,0000000000998","-1","4,96037228352936","2,80698478141731","0,993586841756867"
"9442","-5","-7,00000000005132","-1","-8,28764855971459","-1,43850407263638","-0,697266606474389"
"9450","-5","-7,00000000002639","-1","-4,13742326419638","-0,287751534539307","-0,212448350862653"
"9463","-5","-7,00000000001357","-1","2,11000108623363","-1,85752519383976","1,63058226185628"
"9471","-5","-7,00000000000698","-1","-4,90079038916599","4,22835894929578","2,88744306909394"
"9483","-5","-7,00000000000359","-1","-3,40887800779161","2,44575035925279","2,27039272318919"
"9491","-5","-7,00000000000185","-1","-3,08795353038848","2,08916578849955","2,08238525636164"
"9500","-5","-7,00000000000095","-1","0,550861428628493","-3,38205792183963","-1,36552344617269"
"9512","-5","-7,00000000000049","-1","-0,66639502445259","-1,47649557301193","-0,416057791252234"
"9540","-5","-7,00000000000025","-1","-0,928238411468903","-1,09531591529253","-0,126767567519156"
"9555","-5","-7,00000000000013","-1","-0,984563402928699","-1,01906654378891","-0,0386244808115646"
"9569","-5","-7,00000000000007","-1","-0,996679441829267","-1,00381398102236","-0,011768392713992"
"9582","-5","-7,00000000000003","-1","-0,999285716501228","-1,00076293068109","-0,00358568100232618"
"9590","-5","-7,00000000000002","-1","-0,99984635085718","-1,00015261303628","-0,00109251182917753"
"9618","-5","-7,00000000000001","-1","6,1395951827552","4,39986369543527","3,39029232130977"
"9627","-5","-7,00000000000001","-1","3,67535664685276","2,48005735554232","2,42360455546944"
"9631","-5","-7","-1","3,14527560844578","2,096028397383","2,12906697150238"
"9631","-5","-7","-1","3,03125015872375","2,01920906532831","2,03932508023748"
"9646","-5","-7","-1","3,00672220499165","2,00384249035538","2,01198185653295"
"9646","-5","-7","-1","-2,35322558859359","-1,59916084872943","-1,38697447516196"
"9647","-5","-7","-1","3,0635799632212","-3,91981803661484","1,27271894840409"
"9659","-5","-7","-1","2,22878611916792","-2,38403129791611","1,08309402787895"
"9668","-5","-7","-1","0,264323527344755","-0,27685505894738","-0,669994894470077"
"9676","-5","-7","-1","-4,51292257256066","-0,855345514524081","1,49117359416774"
"9688","-5","-7","-1","6,38389922862085","-4,57099348483506","1,14965440636236"
"9696","-5","-7","-1","5,51279929282583","-5,11421882954569","-0,649714785670528"
"9708","-5","-7","-1","4,32541744979602","-4,22288305199356","-0,197959910119195"
"9717","-5","-7","-1","-10,2091238885105","6,75520397784621","-3,45094108662491"
"9737","-5","-7","-1","-5,33564133117247","2,95120845863503","-2,44208347021083"
"9745","-5","-7","-1","1,06736250346541","0,390310489110609","-0,439384666077274"
"9758","-5","-7","-1","3,01449031222684","-2,7218888814166","0,866125027592465"
"9766","-5","-7","-1","1,43333593765708","2,25549099416201","-3,12672781139339"
"9778","-5","-7","-1","1,09321466264961","1,25114246601213","-2,34329976967053"
"9786","-5","-7","-1","1,02005135641383","-2,54969213408314","1,28602608095556"
