Timer,AX,AY,AZ,GX,GY,GZ
"5","-3,99999744000164","5,99999850000038","-0,999895970823196","6,99997732007348","0","0"
"11","-3,99999928140384","5,9999996710527","-0,999982661503248","6,99999422757089","0","0"
"18","-3,99999978103585","5,99999992421794","-0,999997027684799","-5,09497801524497","-1,78717213533675","0"
"24","-3,9999999327875","5,99999998249684","-0,999999490043953","-1,39326347841727","-1,16784846971122","0"
"34","-3,99999997935444","5,9999999959568","-0,999999912505439","-0,381136052155405","-2,82254538341339","3,4271805074919"
"42","-3,99999999365793","5,99999999906602","-0,999999984988307","-3,55713762016785","6,75834923472928","2,40877400910068"
"63","-3,99999999805178","5,99999999978425","-0,999999997424401","-2,42597715432553","3,80146357357625","2,11708169558739"
"78","-3,99999999940152","5,99999999995016","-0,999999999558097","-2,1165321298141","3,17091116999178","2,03353473229141"
"84","-3,99999999981615","5,99999999998849","-0,999999999924181","-2,03187902753452","3,0364466071843","-1,41755161686364"
"91","-0,614380895845672","5,99999999999734","-0,999999999986992","-2,00872096304276","3,00777219637156","-0,406017480582486"
"99","-1,57435104649811","5,99999999999939","-0,999999999997768","-2,00238574392884","3,0016574117896","-0,116292198887729"
"106","8,28761260407768","-2,84499877989271","-0,999999999999617","4,90509024717799","-7,72015357359848","1,68026974054136"
"109","5,31711363719451","0,111804343582459","-0,999999999999934","2,79472890620034","-4,00656723114008","1,1948439851699"
"112","4,40460472842966","0,794826586628722","-0,999999999999989","3,94384516212244","5,71910656036216","-2,3713491525341"
"124","4,12429070783622","0,952604891444513","-0,999999999999998","1,53176659176667","-6,14066071969174","0,320794250319933"
"132","4,03818091823688","0,989051718358258","-1","5,32477951806215","1,6905112807","0,091882420203185"
"144","4,01172881338267","0,997470944269142","-1","4,36241234790172","0,360499554197349","0,0263171148920997"
"153","4,00360297943889","0,999415787509028","-1","0,646271620327787","5,4371296158275","-3,41961889768991"
"165","4,00110680086839","0,999865046772025","-1","1,62966827777059","3,51971504127625","-2,40660959464155"
"184","4,00033999865474","0,999968825771406","-1","-5,00705243044863","-4,03617605154077","-0,402883448527493"
"194","4,00010444433911","0,999992798745588","-1","-2,82262211690636","-1,64746099333445","-0,828972888890756"
"194","4,00003208430333","0,999998336508473","-1","-2,22504002270507","-1,13807029986845","-0,951014131726475"
"210","4,00000985599152","0,999999615733051","-1","-8,96730581205867","2,54405900821555","2,44118730278095"
"222","4,00000302766645","0,999999911234241","-1","-6,81174886207757","1,32926877831044","1,41278725293097"
"230","4,00000093007021","0,999999979495088","-1","-6,22206548863498","1,07021618201972","1,11823120829159"
"243","4,00000028570869","0,99999999526336","-1","-6,06074918431851","1,01497351872451","1,03386397839283"
"243","4,00000008776698","0,999999998905835","-1","9,52130272179868","-0,783558083758667","-0,703878967902673"
"257","4,00000002696118","0,999999999747248","-1","-0,395311727390201","-3,7405951835291","-3,62876286845359"
"264","4,00000000828222","0,999999999941614","-1","-0,108143165955747","1,20232245032011","4,38780042164863"
"273","4,00000000254422","0,999999999986513","-1","6,87615879473417","0,25639385687056","0,970339404761787"
"293","4,00000000078156","0,999999999996884","-1","-0,392492881715072","-1,73207547889856","-2,4356521260881"
"304","4,00000000024009","0,99999999999928","-1","-4,5602434812258","-1,15611423999044","2,01595483084137"
"321","4,00000000007375","0,999999999999834","-1","-4,4268268761858","4,32696232820089","-2,13616522489158"
"336","4,00000000002266","0,999999999999962","-1","-1,66389313403338","0,709470826867931","-1,3254223244638"
"353","4,00000000000696","0,999999999999991","-1","3,2712540070996","-4,42220851386916","-1,09320800086055"
"367","4,00000000000214","0,999999999999998","-1","-7,01084467190625","6,41722271187587","0,686881554752381"
"374","4,00000000000066","0,999999999999999","-1","7,26139053890867","1,94196757904051","0,196737751941104"
"382","4,0000000000002","1","-1","2,43932848631523","-3,37262885328515","0,0563499525806784"
"394","4,00000000000006","1","-1","2,12018457868258","-1,50596032907328","0,0161398466970146"
"402","4,00000000000002","1","-1","-6,59930041976728","2,46560688959551","1,71820114625871"
"414","4,00000000000001","1","-1","-3,98464000850467","1,31253895573472","1,20570836118521"
"430","4","1","-1","1,90994484641664","-0,720102602206185","1,05891932932987"
"431","4","1","-1","9,15467130334707","-0,153561038033528","1,01687577183873"
"443","4","1","-1","0,957262465307426","-3,60624905007087","-0,708744758145314"
"451","4","1","-1","1,71474426269363","-2,34253073202842","-0,202999846848147"
"471","4","1","-1","1,92196422114009","-0,286293109024436","-0,0581435521699084"
"486","4","1","-1","5,43152364950355","2,72569949833259","-3,44381026176172"
"492","4","1","-1","4,39161372879037","1,36800340046822","-2,41353852518415"
"505","4","1","-1","4,10713152565121","1,07847629490941","-2,11844638893397"
"520","4","1","-1","4,02930735810465","1,01673497814116","-2,03392561078862"
"525","4","1","-1","4,00801744616118","1,00356871452339","-2,00971702960081"
"532","4","1","-1","0,549321836101001","-2,57274131404178","-2,00278316770334"
"533","4","1","-1","-1,84972517036928","2,23811709174683","4,85351621910194"
"542","4","1","-1","-0,506018724494653","1,26402702230655","-2,32342619491062"
"554","4","1","-1","-5,31773582142864","2,8430546229482","0,334520423171685"
"562","4","1","-1","-3,63404971877024","2,179780412711","1,80939223800366"
"574","4","1","-1","-3,17345335139396","2,0383379628256","1,23182746463591"
"583","4","1","-1","-3,04745064025602","2,00817552575085","1,06640040617646"
"595","4","1","-1","-3,01298079998231","2,00174342130819","1,01901851425293"
"610","4","1","-1","7,35506326909611","-3,35988172480674","-0,708131030316053"
"631","4","1","-1","4,19138972417268","-1,50324201882819","1,51075428274331"
"644","4","1","-1","1,59948594032224","2,46618656607724","-0,56728725751056"
"652","4","1","-1","-5,01530923969929","-2,26083976717489","-0,162483355354761"
"664","4","1","-1","-2,82488088493977","-1,26887260627603","-0,0465387516074254"
"673","4","1","-1","-2,22565794094369","-1,0573367689438","-0,0133297062732904"
"685","4","1","-1","-2,06173195092848","-1,01222699894366","-0,0038179165361163"
"693","4","1","-1","-2,01688765637717","-1,0026073932299","-0,00109353397426004"
"705","4","1","-1","-2,004619859467","-1,00055602355792","-0,000313211811088302"
"714","4","1","-1","3,17804334760971","0,786632597747148","-8,97106454068755E-05"
"722","4","1","-1","3,3222705738701","0,167748481801035","-1,71360403972222"
"741","4","1","-1","-6,2704526364524","0,035772167625829","2,22276503898011"
"742","4","1","-1","4,73749962365729","-8,92612747267986","-2,07693030273334"
"763","4","1","-1","2,74888209884234","-5,83724209343163","-1,30845616000475"
"763","4","1","-1","2,20486738815228","-5,17854089758714","-1,08834852395126"
"775","4","1","-1","2,05604439843497","-5,03807363767458","-1,02530493047779"
"783","4","1","-1","2,01533174520487","7,49913902512429","2,41990880922538"
"817","4","1","-1","-8,35442013447161","1,38593379882904","1,40669263158344"
"826","0,614380896232312","1","-1","-5,19121378551564","1,08229993139705","1,11648557675651"
"832","-5,19688716094008","2,76899975597851","-1","-2,59943780979115","-0,769200804968956","-0,680214352931741"
"835","-2,98205319954597","2,1776391312835","-1","-1,16398476962058","-0,164031172370958","-0,194828120959088"
"843","1,08394174132526","3,81003443865277","-1","-0,0448603745514187","-1,82173062485666","-0,0558029929137031"
"851","-3,05264255451818","3,1871181529946","-1","-7,64445082267988","-1,17523309504831","1,69759515904687"
"853","-2,32336173802857","3,0432243390026","-1","2,90875135575827","-1,03736825265039","-2,22735032908343"
"865","-2,09933363720862","3,00998483285727","-1","0,795730454713465","-1,00796873618969","-1,35153971294963"
"873","-2,03051434452712","3,00230649882654","-1","5,3969906007574","-2,78845049279685","4,04004644744792"
"885","-2,00937371516926","3,00053280179177","-1","3,65573099498818","-2,16813614579505","2,58431348046757"
"892","-2,00287951576336","3,00012307734391","-1","3,17938457399554","-2,03585483651933","2,16736003431845"
"894","-2,0008845597377","3,00002843089648","-1","-3,85666969062023","3,35260750539334","-3,09279949588317"
"902","-2,00027172830221","3,00000656754402","-1","-8,68722567325344","-0,285060369078091","0,114155248725544"
"914","-2,00008347233892","3,00000151710427","-1","-4,28225749132493","-0,0607887904358918","-3,39446015399454"
"923","-2,0000256419052","3,00000035045146","-1","-2,35077984050161","-1,79971430761183","-0,685825240975146"
"935","-2,00000787694835","3,00000008095437","-1","-2,82239655799245","-1,17053814113558","-0,910013545451122"
"950","-2,00000241972329","3,00000001870048","-1","-2,95141404321563","4,32388644814497","-0,974225930729092"
"955","-2,00000074331588","3,00000000431982","-1","-2,98670861797514","2,4955660681629","-0,992617748414338"
"964","-2,00000022833954","3,00000000099788","-1","-1,26992822734633","2,10567888465913","-0,99788556328063"
"978","-2,00000007014373","3,00000000023051","-1","1,6525930056554","-6,9112199470019","2,42776230976662"
"984","-2,00000002154748","3,00000000005325","-1","-1,27434531852253","3,31294159547376","1,40894204420875"
"992","-2,00000000661918","3,0000000000123","-1","2,37782037268304","-0,2935190779942","2,83070820189487"
"1005","-2,00000000203335","3,00000000000284","-1","6,55622960693547","-0,0625926002229994","-2,90280221565298"
"1013","-2,00000000062463","3,00000000000066","-1","-5,65932125402148","1,77340337030157","-3,25858210506038"
"1025","-2,00000000019188","3,00000000000015","-1","-3,00105956449003","1,16492736451483","-2,36048516992445"
"1033","-2,00000000005894","3,00000000000004","-1","2,90545304249378","2,82192173678359","1,32390593020268"
"1052","-2,00000000001811","3,00000000000001","-1","1,521263879409","2,17527384944329","0,379195328055456"
"1054","-2,00000000000556","3","-1","-7,48957945179544","2,03737694347748","1,82218809821304"
"1072","-2,00000000000171","3","-1","-1,50175282074743","-5,13903408698485","1,2354924760987"
"1074","-2,00000000000052","3","-1","5,04204552966298","-2,66939534913943","1,06745014482651"
"1088","-2,00000000000016","3","-1","-4,07354792277497","3,2175057317625","-0,694259162515902"
"1109","-2,00000000000005","3","-1","2,61205854271176","-0,313870664354571","-0,19885085856925"
"1115","-2,00000000000002","3","-1","3,16743735126728","-3,64043489046252","1,65662315257162"
"1123","-2","3","-1","-4,58637374931095","1,22368151571708","-0,525507254350397"
"1135","-2","3","-1","-2,70753945864914","0,260948652595135","-0,150516657689126"
"1144","-2","3","-1","-0,467121793405357","0,0556469950854111","1,67046711439769"
"1156","-2","3","-1","-0,854223559947456","0,0118666566439037","1,19203630076308"
"1164","-2","3","-1","-6,13942795003275","0,00253055065575716","-2,3721533341496"
"1176","-2","3","-1","-4,58527105527123","0,000539636968820769","-1,39301442936024"
"1185","-2","3","-1","7,92494082590211","-1,78663609216812","0,601010501217126"
"1193","-2","3","-1","4,34728786462753","-1,16774922698222","0,172142422640945"
"1205","-2","3","-1","3,36856982740298","-1,03577232653485","0,0493053176486647"
"1213","-2","3","-1","3,10082753748355","-1,00762840681138","0,0141221106984555"
"1226","-2","3","-1","3,02758281215429","-1,001626748834","0,00404487832327822"
"1234","-2","3","-1","-0,445325778743247","2,57315543595465","-1,71241980390562"
"1253","-2","3","-1","-1,12182522363539","3,12222472662938","-1,2040524595383"
"1254","-2","3","-1","-2,0333270289353","2,23931311093743","2,36871164606226"
"1263","-2","3","-1","3,8966258169887","-1,52246909712016","1,39202865536107"
"1275","-2","3","-1","2,51884906586671","-0,324664755010563","1,11228549641289"
"1285","-2","3","-1","-3,03736860776804","-0,0692343794336795","-0,681417346896359"
"1295","-2","3","-1","-1,55735126533549","-0,014764150470878","-0,195172684481809"
"1303","-2","3","-1","0,573964330756297","1,78360273129398","-0,0559016833682539"
"1316","-2","3","-1","-6,74872676567878","1,16710236632218","-1,72958979733781"
"1324","-2","3","-1","3,88022518305054","-0,751116784865466","2,21818637182184"
"1336","-2","3","-1","1,78792671296874","-0,160174776226293","1,34891495714122"
"1351","-2","3","-1","1,21554859969393","-0,0341570837665919","1,09993679960053"
"1356","-2","3","-1","1,05896639632252","-0,00728395817946811","1,0286240635719"
"1365","-2","3","-1","2,74256682480867","-0,00155329556594445","-2,41895813763024"
"1373","-2","3","-1","2,20313975479217","-0,000331238463447476","-1,40642033865147"
"1398","-2","3","-1","2,05557177966799","-5,36032414357752","-2,82998593081485"
"1398","1,38561910376769","4,76899975597851","-1","3,74163817896593","-3,50333636411382","4,616587434382"
"1406","0,425648953404702","4,1776391312835","-1","-3,7028571910191","-1,32058472206544","-2,39128772963002"
"1414","0,130755292736563","4,04103468267425","-1","-3,46584089225753","1,71838685194263","0,31508341006281"
"1426","0,0401667769693039","4,0094790217111","-1","-2,40100170041162","0,366443987174929","0,0902467118833044"
"1426","0,0123388502165822","4,00218965632835","-1","-2,10969973929801","0,0781437518477606","0,0258486126074508"
"1439","0,00379037692727","4,00050581114617","-1","-5,48288138035048","3,59016640196368","-1,70617474223915"
"1447","0,00116436758681721","4,0001168424982","-1","0,773643806937596","-1,23440121211952","-1,20226373863803"
"1454","0,000357682600766305","4,0000269906456","-1","-0,514794418505304","-0,263234615320335","-1,05793271483785"
"1464","0,000109876678412753","4,00000623484572","-1","2,58560636368989","-3,62963681220562","2,41056350521859"
"1475","3,37530660791284E-05","4,00000144025088","-1","1,43376525472959","-2,34751814496053","1,40401593414007"
"1484","1,03686194941417E-05","4,00000033269831","-1","-0,607773048101965","1,49939450011949","-0,597859432006753"
"1499","3,18514086875128E-06","4,00000007685339","-1","1,5601707323283","-3,25375821406447","-1,88481823283225"
"1504","9,78444850784788E-07","4,00000001775315","-1","-0,573193025313571","-0,480611304233607","2,17372558637023"
"1524","3,00568912169524E-07","4,00000000410098","-1","-0,156805134192178","-0,889240967855952","1,33618042537404"
"1525","9,23318988191415E-08","4,00000000094733","-1","-0,0428962827933502","-0,976380765885972","1,09628935393168"
"1545","2,83634773736676E-08","4,00000000021883","-1","-1,73817061585786","-0,994963225938922","1,02757935614563"
"1545","8,7129893245494E-09","4,00000000005055","-1","-1,20193710907943","-0,998925913820073","1,0078993248407"
"1553","2,67654709503961E-09","4,00000000001168","-1","0,671192946605284","2,57373138586376","-0,711315806953646"
"1566","8,22209701529212E-10","4,0000000000027","-1","0,183614411574022","1,33559637815333","-0,203736250903814"
"1574","2,52574966658209E-10","4,00000000000062","-1","0,0502303433136359","1,07156553528849","-0,0583544742385384"
"1586","7,75886171906584E-11","4,00000000000014","-1","0,013741227432949","1,01526126673151","-0,0167139851084425"
"1595","2,38344820835112E-11","4,00000000000003","-1","0,00375910891520365","-2,5702478909534","-1,71836559193291"
"1621","7,32172523185029E-12","4,00000000000001","-1","0,00102835790363823","-1,33485352693632","-1,20575546198743"
"1634","2,24916405495545E-12","4","-1","3,45315277272643","-1,07140712313494","4,08180221393238"
"1634","6,90921713928516E-13","4","-1","2,39753068419569","-1,01522748552497","2,59627323622443"
"1656","2,12244550914883E-13","4","-1","0,382314467893445","0,783503925635385","-1,25637112194142"
"1672","6,51994987057552E-14","4","-1","0,831023305460584","-5,19317221123145","-3,78700858578089"
"1684","2,00286632243696E-14","4","-1","-4,22553316298453","1,89256209740062","2,62889707668914"
"1708","6,15261403106168E-15","4","-1","-6,06169781613659","0,403586654636941","-0,24702694755166"
"1717","1,89002426128758E-15","4","-1","-4,56400686757513","0,0860643822597689","-0,0707538672336405"
"1728","5,80597399775339E-16","4","-1","-0,701420678871377","1,80510429801805","-1,73384378442609"
"1734","1,78353975412061E-16","4","-1","-1,64475508996753","1,17168755028816","-1,21018875150314"
"1757","5,47886376301288E-17","4","-1","-1,9028176838714","1,03661216937546","-1,06020261014134"
"1766","1,68305461452729E-17","4","-1","-5,42628584092399","-0,778943666805548","0,696335013397628"
"1775","5,17018301240603E-18","4","-1","-4,39018085148566","-0,166108826267028","0,199445427215052"
"1794","1,58823083642354E-18","4","-1","-4,10673954161071","-0,0354225130001574","0,0571254894147912"
"1795","4,87889342352845E-19","4","-1","1,15010705083875","1,77919735963673","3,44351866654215"
"1807","1,49874945708467E-19","4","-1","-0,411807524263092","1,16616292596668","2,41345500599867"
"1826","4,60401517335685E-20","4","-1","0,887344173338297","-2,53806828854377","0,404844122579948"
"1847","1,41430948423707E-20","4","-1","-1,48369006024587","5,81901341213895","0,829534468398461"
"1847","4,34462364237715E-21","4","-1","7,49985830637984","-1,75910219299107","-2,47598170904264"
"1847","1,33462688359788E-21","5,76899975597851","-1","4,95743619888828","-0,375126486052356","-1,42275312436934"
"1856","4,09984630440301E-22","5,1776391312835","-1","4,2619203392522","-0,0799952845824818","-1,12108564968597"
"1865","1,25943362345693E-22","5,04103468267425","-1","4,07165204761805","-1,80381007003388","0,678896792428556"
"1873","3,86885979162286E-23","5,0094790217111","-1","-6,33901291179508","-2,95816272680446","0,194450743098743"
"1885","1,1884767730872E-23","5,00218965632835","-1","-1,46056319444886","-3,99107825040388","0,0556949037222509"
"1916","3,65088712500301E-24","5,00050581114617","-1","-1,12599363621011","-3,21134627820841","0,0159522265186491"
"1916","1,12151765195118E-24","5,0001168424982","-1","-2,76090308306889","-1,2583181776178","1,71814740777664"
"1923","-3,38561910376769","5,0000269906456","-1","1,24471555075992","5,30516745799061","-0,50788537533044"
"1930","-2,4256489534047","5,00000623484572","-1","-1,38592601860844","4,49157426539724","-1,85904771458053"
"1934","-2,13075529273656","5,00000144025088","-1","-1,10557557134099","3,31807646826544","-1,24604986843422"
"1962","-2,0401667769693","5,0000003326983","-1","-2,75531742996364","3,06782943498779","2,35668267868591"
"1967","-2,01233885021658","5,00000007685339","-1","-2,20662786484247","3,01446454771034","1,38858329861299"
"1971","-2,00379037692727","5,00000001775315","-1","-0,330090276592494","-4,14392012859483","-2,31585801767148"
"1995","-2,00116436758682","5,00000000410098","-1","7,81544199440688","-1,67043729180038","-1,37689023162617"
"1996","-2,00035768260077","5,00000000094733","-1","3,31733289621684","0,643781200466576","2,31920716527396"
"2004","-2,00010987667841","5,00000000021883","-1","1,36037521819818","0,137285588341495","-0,335728844624186"
"2016","-2,00003375306608","5,00000000005055","-1","-3,35428566558189","3,60277832945202","-0,0961600114257801"
"2024","-2,00001036861949","5,00000000001168","-1","-1,64404845037382","2,34179060491413","-0,0275423096509832"
"2037","-2,00000318514087","5,0000000000027","-1","0,55024707821893","-3,28736706045902","1,70568963072828"
"2045","-2,00000097844485","5,00000000000062","-1","3,60339939356202","-1,48777835143444","2,91570313684672"
"2057","-2,00000030056891","5,00000000000014","-1","0,712197066668776","2,46948417507006","0,548698863613557"
"2065","-2,0000000923319","5,00000000000003","-1","6,1005745754209","1,31336578232915","0,870737581455158"
"2074","-2,00000002836348","5,00000000000001","-1","1,1217707092862","4,64032722496086","0,962976444105927"
"2086","-2,00000000871299","5","-1","3,48618356649937","-2,01045564438024","-0,724182692816761"
"2094","-2,00000000267655","5","-1","-2,04630472140786","3,14477502254309","-0,207421605651918"
"2106","-2,00000000082221","5","-1","-0,55979586678137","-3,11613157218544","1,65416830500462"
"2114","-2,00000000025257","5","-1","-3,60601160097869","0,335488585365739","-0,526210375854167"
"2123","-2,00000000007759","5","-1","6,19283122818902","0,0715425486025554","-0,150718046914148"
"2135","-2,00000000002383","5","-1","-1,30586261716207","0,0152563648476122","-0,0431689124881695"
"2147","-2,00000000000732","5","-1","-0,35723735962877","0,00325340196721959","-0,0123645113744922"
"2155","-2,00000000000225","5","-1","5,08157979695654","-3,57280855407574","-0,00354146381546778"
"2175","-2,00000000000069","5","-1","3,56944586723632","-2,33539958535343","-0,00101435192838606"
"2175","-2,00000000000021","5","-1","3,15578004561086","-2,07152356945398","-0,000290532358435129"
"2188","-2,00000000000007","5","-1","3,04261585517917","-2,01525231756637","-8,3214759035537E-05"
"2197","-2,00000000000002","5","-1","-3,89408472597514","1,5702497993524","-2,38345090324548E-05"
"2227","-2,00000000000001","5","-1","3,38758898733809","0,334853933900175","1,71357151793113"
"2227","-2","5","-1","2,37959477480402","0,071407209919508","1,20438233537597"
"2234","1,38561910376769","1,46200048804298","-1","7,28315074533582","0,0152275040316796","-2,36861716247877"
"2249","-2,95997015036299","2,644721737433","-1","5,62458847751593","0,00324724743196375","-1,39200159321668"
"2249","-2,29489366066814","2,91793063465149","-1","-6,91418498380547","1,78744364083926","0,601300599421961"
"2266","-2,09058851576726","2,98104195657781","-1","0,108526000256116","-2,40558090244941","3,59938220235031"
"2284","1,35779117701497","2,9956206873433","-1","-1,6967468888328","2,27376385408818","-2,68263733601854"
"2293","-1,27570907176845","4,76798813368617","-1","3,98870211887029","-2,30187368554116","-1,48194377113503"
"2296","-1,08469519330624","4,17740544628711","-1","-2,63526932351224","0,509128127726787","0,575539211936864"
"2296","-1,02601755438503","4,04098070138306","-1","-1,44735126630931","0,108570978005446","0,16484689380141"
"2321","-1,00799234419042","4,00946655201966","-1","4,05692785144152","1,80990380324789","-1,66636262444887"
"2323","-1,00245517179335","4,00218677582658","-1","7,742009151757","-4,18754246819523","2,23629600334375"
"2336","-1,0007542053234","4,00050514574956","-1","-2,88206288223029","-2,4664908738412","1,35410194777949"
"2356","-1,00023168467127","4,00011668879142","-1","-0,788429441811834","-2,09947863346244","1,10142246604543"
"2380","-1,00007117131799","4,00002695513929","-1","-0,215686128345221","-2,02121370228333","1,02904959061434"
"2385","-1,00002186314907","4,00000622664375","-1","-1,78543974461948","-0,217772628089723","1,00832043183098"
"2397","-1,00000671615056","4,00000143835623","-1","-1,21486825400143","-0,833190927458436","1,00238315185825"
"2405","-1,0000020631373","4,00000033226064","-1","-7,96452317953157","0,822323008820345","-0,712895758350473"
"2418","-1,00000063377607","4,00000007675229","-1","2,82119099362741","1,96211058935681","-0,204188783198264"
"2439","-1,00000019468996","4,0000000177298","-1","-7,86040155909524","-0,581582210763993","-0,0584840892874139"
"2439","-1,00000005980689","4,00000000409559","-1","-5,78250367766089","-0,124021726505553","-0,0167511096652996"
"2446","-1,00000001837211","4,00000000094608","-1","-0,0347578748599613","1,76030368093989","-0,0047978805592734"
"2446","-1,00000000564374","4,00000000021855","-1","-1,46237996356616","1,16213387107357","-0,0013742168919555"
"2447","-1,0000000017337","4,00000000005048","-1","-1,85292636470708","1,03457485845236","-0,000393605477002916"
"2473","-1,00000000053258","4,00000000001166","-1","3,21954126846961","-4,35288045921967","-0,000112737132277741"
"2509","-1,0000000001636","4,00000000000269","-1","1,60718719711751","1,07175333111456","1,71354605429462"
"2509","-1,00000000005026","4,00000000000062","-1","1,16610472514333","0,228550144851051","1,20437504203905"
"2516","-1,00000000001544","4,00000000000014","-1","-0,680995406724983","-3,52476428705488","-2,36861925144841"
"2542","-1,00000000000474","4,00000000000003","-1","-1,91273173983747","-4,1119053707016","-1,39200219154282"
"2549","-1,00000000000146","4,00000000000001","-1","-2,97612652171052","-1,45036135122959","-1,11227791660226"
"2549","-1,00000000000045","4","-1","-2,26703334385764","-1,88279020074369","-1,0321588267324"
"2564","-1,00000000000014","4","-1","-5,52592223375657","5,17199952914225","-1,00921098438679"
"2583","-1,00000000000004","2,23100024402149","-1","0,761869367096157","-2,68382831622354","2,42451846390586"
"2586","-1,00000000000001","2,8223608687165","-1","-0,518015484599688","-1,35907441983594","1,40801293650761"
"2598","-1","2,95896531732575","-1","-0,868146255662214","0,71017896889218","-0,596714603972207"
"2606","-1","2,9905209782889","-1","-4,4168009768156","0,151444834831242","-0,170911984640844"
"2633","-1","2,99781034367165","-1","-3,38758613151589","0,0322954339704537","-0,0489528935598712"
"2643","-2,69280955188384","6,53749370081085","-1","2,07327745718937","-3,5666153747047","-0,0140211688075583"
"2649","-2,21282447670235","5,35516142006881","-1","0,567174643680193","4,81292577939013","-0,00401596637979334"
"2649","-2,06537764636828","5,08204237470291","-1","0,155158719986204","2,59985313380486","-0,0011502597383277"
"2655","-2,02008338848465","5,01895180857648","-1","0,0424458826853544","2,1279179794831","-0,000329459298333516"
"2674","-0,313359873224447","1,46637836044879","-1","1,73804740247903","-5,11972631691006","-1,71367270892826"
"2687","-0,789070711761284","2,64573302702704","-1","1,20190340230082","-2,6652779897441","-1,20441131866888"
"2699","-2,62801408930897","2,91816424279449","-1","2,78166928316673","3,21838375383986","4,0821872056867"
"2707","-2,19291992951808","2,98109592011584","-1","-2,96547038566459","5,04657008018936","0,882805161549337"
"2708","-2,0592631595992","2,99563315293376","-1","-1,53768248035866","3,4364286769127","0,966432860372563"
"2717","-2,01820507655406","2,99899125726209","-1","-1,14709071771992","3,09306790511378","0,990385644302567"
"2731","-2,00559242562463","2,99976698018139","-1","-1,04023876549767","3,01984662195789","0,997246240326024"
"2746","-2,00171793973369","2,99994617236504","-1","2,44186356204713","1,21748109980861","0,999211263595745"
"2758","-2,00052773467663","2,99998756580319","-1","-0,33199336590615","0,0463775902725045","-2,42738260048786"
"2766","-2,0001621150518","2,9999971276975","-1","3,36204992641678","-6,35036354045784","0,304745057402085"
"2774","-2,00004980019541","2,99999933649742","-1","2,37260820012838","-1,92770993890207","3,51444227310196"
"2798","-2,00001529814434","2,99999984673074","-1","2,10193229198885","-1,98458422898668","2,43376906279288"
"2807","-2,00000469944382","2,99999996459476","-1","-3,15142214259451","5,15029207162895","-1,30291583629686"
"2819","-2,00000144362425","2,99999999182138","-1","-1,58855223785914","2,67179610120284","-0,373183310613013"
"2819","-2,00000044346758","2,99999999811074","-1","-1,16100686603108","2,1432597331707","-0,106887781574525"
"2868","-2,00000013622901","2,99999999956358","-1","-1,04404572651604","2,03054997061072","-0,030614975335194"
"2876","-2,00000004184825","2,99999999989919","-1","-1,01204933722486","2,00651474551613","-0,00876879191398543"
"2897","-2,00000001285538","2,99999999997671","-1","-1,00329626819768","2,00138926186479","-0,0025115718954176"
"2909","-2,00000000394905","2,99999999999462","-1","-1,00090174121848","2,00029625846845","-0,000719368579814383"
"2917","-2,00000000121311","2,99999999999876","-1","4,17906049193135","-1,5734391614696","1,71337230191123"
"2933","-2,00000000037266","2,99999999999971","-1","0,869677377476184","-2,12228523076373","1,20432527559378"
"2938","-2,00000000011448","2,99999999999993","-1","2,69078411167278","0,547425155747474","2,77210152831594"
"2946","-2,00000000003517","2,99999999999998","-1","0,462538129063615","-1,67001339466381","2,22114659783801"
"2966","-2,0000000000108","3","-1","0,852969633136666","-1,14287957308545","2,06334117462764"
"2967","-2,00000000000332","3","-1","0,95977774434063","-1,03046890191699","2,01814228408862"
"2975","-2,00000000000102","3","-1","-2,46387482293585","0,780253711408845","-1,42196034626084"
"2987","-2,00000000000031","3","-1","-3,12689957945499","0,166388191747081","-0,407280236217149"
"2999","-2,0000000000001","3","-1","-4,0347151914043","1,82223325648298","-0,116653879448385"
"3006","-2,00000000000003","3","-1","-3,28306111078389","1,17534028065498","-0,0334121972545286"
"3016","-2,00000000000001","3","-1","-3,07743540744721","1,0373911098557","-0,00956997684650069"
"3032","-2","3","-1","0,431687889673579","-6,13903106602126","3,42441564069129"
"3036","-2","3","-1","-0,608341340966651","1,69085880243997","-1,01917320358904"
"3055","-2","3","-1","-4,34572763378192","2,14732483192292","-0,291913276059659"
"3057","-2","3","-1","0,0847284467590139","-0,542085490074596","-0,083610283747456"
"3065","-2","3","-1","-4,15612850003563","-0,115599096994977","-1,73752614052584"
"3080","-2","3","-1","1,86303172162379","3,54885096595676","-1,21124345803282"
"3085","-2","3","-1","-1,21677680383483","0,54353948857556","4,08023033302051"
"3106","-2","3","-1","-2,78573811446865","2,68941149871704","2,59582301549164"
"3114","-2","3","-1","-2,21494987733279","2,14701619609608","2,17065661439235"
"3122","-2","3","-1","-2,05880260727409","2,03135103193779","2,04887974999057"
"3143","-2","3","-1","-0,289650567233988","0,219934401786775","-3,12673481504662"
"3160","-2","3","-1","-4,25854522343486","2,62040309229277","0,104435438435939"
"3164","-2","3","-1","-3,34429301113646","2,13230023410526","0,0299125711539556"
"3173","-2","3","-1","-3,0941862678513","2,02821287024799","0,00856760814567083"
"3184","-2","3","-1","-3,02576599804473","2,00601636159613","0,00245394850746751"
"3204","-2","3","-1","-3,00704865656519","2,00128298207652","0,000702863993650883"
"3212","-2","3","-1","-3,00192826062036","2,00027359442786","0,000201315468546932"
"3220","-2","3","-1","-3,0005275032179","2,00005834369188","5,766110974864E-05"
"3233","-2","3","-1","-1,27370858066394","2,00001244172408","1,71359486004117"
"3255","-2","3","-1","1,65155883604223","0,213251484062299","-2,22276766823955"
"3261","-2","3","-1","0,451807494988629","0,832226798780352","-1,35022713964482"
"3281","-2","3","-1","1,85003411500964","-4,39603094637539","-1,10031263708533"
"3282","-2","3","-1","4,68541041682478","-4,29770196718571","0,684846633084223"
"3294","-2","3","-1","3,46106807813044","-3,27673342733197","0,196154906308404"
"3302","-2","3","-1","3,12613175434824","-3,05901307984373","0,0561830129697474"
"3311","-2","3","-1","3,03450514188593","-3,01258447028326","0,0160920315773084"
"3323","-2","3","-1","3,00943937411099","-1,21593245445432","0,00460910632230648"
"3331","-2","3","-1","-0,450289175210836","1,74070382565956","0,00132014786251612"
"3351","-2","3","-1","2,32968841915272","0,371203055728825","0,000378118936087758"
"3352","-2","3","-1","2,09019097323902","0,0791586176529528","0,000108301451593186"
"3364","-2","3","-1","2,02467302817219","0,0168804826685046","3,10198810420566E-05"
"3372","-2","3","-1","-6,62542896780132","0,00359974319373494","1,71358722941634"
"3392","-2","3","-1","1,18751933031898","1,78751881014834","2,91796518013624"
"3413","-2","3","-1","0,324862864206357","1,1679374655595","2,26292510644767"
"3421","-2","3","-1","1,81530659917167","-2,53768987005025","-4,779005934381"
"3442","-2","3","-1","-0,503396966968782","-1,32791056704298","-2,79596747995104"
"3442","-2","3","-1","-0,137711426119138","-1,06992654505485","-2,22798232321182"
"3459","-2","3","-1","-0,0376729263943757","-1,01491175398037","-2,06529907440472"
"3462","-2","3","-1","-0,0103059667822205","-1,00317991410267","-2,01870306898378"
"3470","-2","3","-1","5,17648783178656","-1,00067811296469","3,13537806997354"
"3491","-2","3","-1","3,59540931494104","-1,00014460679692","1,6116185215985"
"3510","-2","3","-1","3,16288271734906","-1,00003083723038","1,17518078939856"
"3511","-2","3","-1","-5,58761973443499","-1,00000657600333","-2,37698111761639"
"3519","-2","3","-1","-2,98144459029457","-1,00000140232502","-1,39439721109247"
"3523","-2","3","-1","-2,26848817743227","-1,00000029904417","-1,11296390206627"
"3524","-2","3","-1","-2,07344877350566","-1,00000006377082","-1,03235530782454"
"3532","-2","3","-1","-2,02009296044645","-1,00000001359905","-1,00926726082644"
"3532","-2","3","-1","10,0795533614489","0,786751166220833","2,42450234511486"
"3540","-2","3","-1","-2,24259429609323","0,167773766389428","-2,01914836956451"
"3540","-2","3","-1","-0,613493681897365","0,0357775595347429","-1,29190616305725"
"3540","-2","3","-1","-0,167829954077587","0,00762952274249436","-1,08360824642953"
"3560","-2","3","-1","3,40695917109424","0,00162698680500307","-2,73752555699386"
"3567","-2","3","-1","2,38489376507269","0,000346953034022765","-2,21124329089662"
"3596","-2","3","-1","2,10529318365125","7,39873288753407E-05","-2,06050465306005"
"3622","-2","3","-1","-6,60337417344724","1,57777113825402E-05","-0,303751498235136"
"3630","-2","3","-1","-3,98575444197514","3,36457850627589E-06","-0,800579351590011"
"3642","-2","3","-1","-3,26966719888102","7,17492432864568E-07","-0,942881607771573"
"3651","-2","3","-1","3,83197158983186","1,53004422473031E-07","-0,983640055547041"
"3663","1,38561910376769","4,76899975597851","-187,499566724111","1,77472625374164","3,26280142117187E-08","-0,99531415762836"
"3671","0,425648953404702","4,1776391312835","-117,497833620557","1,2119374256407","6,95788588455844E-09","-0,998657873271209"
"3683","0,130755292736563","4,04103468267425","-105,48743499923","1,05797850811209","1,48376103027287E-09","-0,999615585840651"
"3692","0,0401667769693039","4,0094790217111","-103,426776374825","1,01586084851574","3,16410305009784E-10","-0,99988989546014"
"3704","0,0123388502165822","4,00218965632835","-103,073223249719","1,00433896151921","6,74741276214627E-11","-0,999968463675432"
"3720","0,00379037692727","4,00050581114617","-103,01256312349","-0,725248740510585","3,57350233825602","2,42716572198761"
"3741","0,00116436758681721","4,0001168424982","-103,002155491219","-0,198402145623208","2,33554753401876","1,40877116854952"
"3755","0,000357682600766305","4,0000269906456","-103,000369823826","-0,0542757390522047","2,07155511933389","1,11708091475504"
"3767","0,000109876678412753","4,00000623484572","-103,000063451737","-6,92059080466867","2,01525904554137","-0,680043835236709"
"3788","3,37530660791284E-05","4,00000144025088","-103,000010886597","2,10677359651827","-1,5702483646196","1,51879906365205"
"3790","1,03686194941417E-05","4,00000033269831","-103,000001867845","0,576337990738568","-0,334853627945082","1,14859528660491"
"3802","3,18514086875128E-06","4,00000007685339","-103,000000320472","-5,02164169173629","1,71534402444587","-0,671017436684175"
"3810","9,78444850784788E-07","4,00000001775315","-103,000000054984","-1,82661321758789","-4,20770723047295","1,52138441966731"
"3822","3,00568912169524E-07","4,00000000410098","-103,000000009434","-1,95256757063921","-2,47079098582188","1,14933578855447"
"3831","9,23318988191415E-08","4,00000000094733","-103,000000001619","-3,71345990723926","3,25985788004747","-0,670805340889993"
"3843","2,83634773736676E-08","4,00000000021883","-103,000000000278","-3,19517714200062","1,48191205087324","-0,192133176154889"
"3872","8,7129893245494E-09","4,00000000005055","-103,000000000048","0,399477957466942","-0,683983987685508","-0,0550311023618092"
"3905","-3,38561910109114","0,462000488054654","-103,000000000008","1,10928289766463","-5,50611229307646","-0,0157620994341683"
"3905","-2,42564895258249","1,64472173743569","-103,000000000001","3,75633162200018","-1,74767434742969","3,42264208268961"
"3905","1,2548638112837","3,68693039063063","83,4995667241111","4,20690531155128","1,62731048865308","-1,01968118900774"
"3913","0,385482176512987","3,15868108786145","13,4978336205569","3,33016617610014","0,347022059182703","-0,292058774084177"
"3921","0,118416442543815","3,03665537001759","1,4874349992303","3,09032167047179","0,0740020484099987","-0,0836519575324884"
"3935","0,0363764000493557","3,00846739941876","-0,573223625175099","3,02470878226587","0,0157808503060971","-0,0239597321496678"
"3948","0,0111744826320141","3,00195597133196","-0,926776750280894","3,00675944009752","0,00336524787805462","-0,00686258614403462"
"3953","0,00343269432719461","3,00045182985498","-0,987436876510265","3,00184914132717","0,000717635175613805","-0,00196559328335183"
"3962","0,0010544909086167","3,00010437280676","-0,997844508780698","-5,63167276785029","-3,57334930337943","-1,71414133313262"
"3970","0,000323929534752376","3,00002411014383","-0,99963017617392","-1,2670602010548","-0,548763730389428","2,2226111465121"
"3990","9,95080589386402E-05","3,00000556944911","-0,999936548262822","2,37981332055869","0,882976776065554","-0,363396036218116"
"4008","3,05679252165297E-05","3,0000012865441","-0,999989113403013","-3,80183954595193","-3,38520857305218","-1,81766283889164"
"4020","9,39017464524689E-06","8,30699956512754","-0,999998132155253","2,68638824772791","1,27810822951443","2,19296034546834"
"4023","2,88457195716236E-06","6,53291746250193","-0,999999679528506","1,46133557773217","0,272555085681017","1,34168967691516"
"4037","-1,69280866577089","0,816104795945723","-0,999999945015784","-2,32666651805971","0,0581220533716529","1,09786732287782"
"4046","0,479985347386928","7,80251894288164","-0,9999999905662","2,08994288705518","-1,77435670919101","-2,39912536867805"
"4054","0,147446913952979","6,41638231565901","-0,999999998381416","1,29816943528404","-1,16513066291844","-1,40073980413802"
"4054","0,0452942835705599","6,09618441652346","-0,999999999722295","1,08156850527995","-1,03521392080966","-1,11478055806558"
"4060","0,0139139712671405","6,02221862368799","-0,999999999952353","-0,704121496391767","-1,00750932744333","4,10785939650892"
"4072","0,00427423906862821","6,00513250749375","-0,999999999991825","-3,6454939371534","0,785149813822836","0,89015823294108"
"4081","0,00131300541484748","6,0011856104835","-0,999999999998597","-2,45014835532341","-1,61931888925809","0,968538939252488"
"4094","0,000403342721765936","6,000273876311","-0,999999999999759","-2,12314450829938","-1,13206902907568","0,990988870901651"
"4101","0,000123903031443668","6,00006326549467","-0,999999999999959","3,14561923802625","-1,02816356604574","0,997419017487085"
"4122","3,80618277521304E-05","6,00001461434471","-0,999999999999993","1,58696477048019","-1,00600584753264","0,999260750716223"
"4130","1,16922299232969E-05","6,00000337591719","-0,999999999999999","-5,74517030981586","-1,00128073996477","-2,4273684263049"
"4142","3,59174134961469E-06","6,0000007798377","-1","-3,75098052453721","-1,00027311630015","-1,40882922745563"
"4150","1,10334863470546E-06","6,0000001801427","-1","1,97386573365833","-1,0000582417317","-2,83067588873369"
"4171","3,3893816152352E-07","6,00000004161301","-1","0,539979147642828","4,36024108738125","1,18923312619144"
"4192","1,04118565722076E-07","6,00000000961261","-1","3,60059045458203","-4,64368602400619","0,340622120600019"
"4193","3,19842288613759E-08","6,00000000222052","-1","2,43786436668547","-2,56376295383096","0,0975615516308594"
"4203","9,82524959657575E-09","6,00000000051294","-1","2,1197840478581","-2,12022179079745","0,0279437411165607"
"4217","3,01822282642518E-09","6,00000000011849","-1","-3,14653853994929","1,54786518190787","0,00800369258725867"
"4223","9,27169222563961E-10","4,23100024404886","-1","-5,04008770938639","2,11683160952127","1,71587077553041"
"4230","2,84817528958931E-10","4,82236086872282","-1","-0,1052236636549","-0,548588134101487","-0,508537452107027"
"4240","8,74932243522301E-11","4,95896531732721","-1","-7,66096406207768","1,66976539088948","3,28150055046169"
"4240","2,68770827958889E-11","4,99052097828924","-1","-5,72794470345551","1,14282668657052","2,36704950899433"
"4253","8,25638310812413E-12","4,99781034367173","-1","-5,19913966477066","1,03045762392951","2,10513092796132"
"4263","2,53628202680331E-12","4,99949418885385","-1","-5,0544774979428","1,00649505269433","2,03011177441509"
"4279","7,7912161236266E-13","4,99988315750181","-1","-6,74133882257954","-4,35886844496888","2,00862466427348"
"4281","2,39338717238667E-13","4,99997300935441","-1","2,42937480960302","6,43072990751666","0,288891945967379"
"4290","7,35225678000921E-14","4,99999376515428","-1","6,84389733370415","-1,62865436552226","-2,63083343526959"
"4310","2,25854305491607E-14","4,99999855974912","-1","4,05155298584224","-0,347308639353903","-1,46710601212896"
"4322","6,93802853129299E-15","4,9999996673017","-1","3,28766732980565","-0,0740631612964603","-1,13378927721761"
"4331","2,13129609357057E-15","4,99999992314661","-1","3,07869550441268","-0,0157938825576866","-1,03832014624866"
"4343","6,54713802052155E-16","4,99999998224685","-1","3,0215282785812","-0,00336802699046982","-1,01097571972177"
"4351","2,01121826240233E-16","4,99999999589902","-1","4,7323250932853","-1,7874693969389","-1,00314368381136"
"4363","6,17827039286769E-17","4,99999999905267","-1","4,20033798293704","-1,16792692825036","-1,00090041912114"
"4371","1,8979056505678E-17","4,99999999978117","-1","4,05480531498276","-1,03581022112252","-1,00025789953519"
"4380","5,83018487280107E-18","4,99999999994945","-1","-2,89075012524586","-1,0076364877879","2,42708282128954"
"4392","1,79097710367579E-18","4,99999999998832","-1","-0,790805961145912","-1,00162847209279","1,40874742399435"
"4400","5,50171059043941E-19","4,9999999999973","-1","-0,216336259132989","-1,00034726976991","1,11707411380024"
"4412","1,69007294168248E-19","4,99999999999938","-1","-0,0591818718056181","-1,00007405487243","1,03353256147322"
"4421","5,19174264304431E-20","4,99999999999986","-1","-0,0161900458316768","-1,00001579211497","1,00960445176526"
"4433","1,59485374902054E-20","4,99999999999997","-1","-0,00442901814414923","-1,00000336765005","1,00275092297333"
"4441","4,89923837841349E-21","4,99999999999999","-1","-1,72764734650715","0,786750450973378","-0,712790420738902"
"4453","1,50499923289271E-21","5","-1","-1,19905831853278","0,167773613863744","-0,204158612225188"
"4462","4,62321388766782E-22","5","-1","-1,05445524451824","0,0357775270088192","-0,0584754476673618"
"4499","1,42020714588951E-22","5","-1","4,16441016664732","3,58113185404801","-0,0167486345181794"
"4503","4,36274069563565E-23","1,46200048804298","-1","2,59210529723801","-3,02307898802087","-0,004797171623538"
"4510","1,34019226930691E-23","2,644721737433","-1","0,435543130771541","3,92883427839075","1,71220433081325"
"4511","4,11694263770196E-24","2,91793063465149","-1","-2,60728668473217","2,41132165482652","-0,509587601272162"
"4523","1,26468545374417E-24","2,98104195657781","-1","-1,43969621602924","2,08771386200705","-0,145956924301871"
"4531","3,88499291261656E-25","2,9956206873433","-1","-2,84672090176628","-6,91505096707917","1,67177312078242"
"4543","1,19343271375477E-25","2,99898837770766","-1","-2,23163258930471","-3,83488004156206","1,19241036927369"
"4552","3,66611130134807E-26","2,99976631500361","-1","1,38950504946893","0,395465145454157","4,48226718577507"
"4564","1,12619437350482E-26","2,99994601870881","-1","0,380118940950983","-0,702418689199249","3,4245534210197"
"4572","3,45956154262838E-27","2,99998753030856","-1","7,00972986383883","-4,51004347162188","3,12160129363269"
"4581","1,06274426056543E-27","2,99999711949824","-1","1,37048311628716","-1,5352638357793","1,32125089916423"
"4600","3,26464885635967E-28","2,99999933460339","-1","-3,35152050577315","-0,114144387191843","1,80559155897175"
"4602","1,00286894512702E-28","2,99999984629322","-1","-1,64329200143651","-0,811092326240897","1,9443172125068"
"4602","3,08071760655346E-29","2,9999999644937","-1","-1,17598170974747","-0,959715659426765","1,98405124383173"
"4614","9,46367022076489E-30","2,99999999179804","-1","-1,048142308775","-4,56491174971165","0,28185358620686"
"4622","2,90714909594028E-30","2,99999999810534","-1","-1,01317001577899","0,239786737186522","-0,919271029272484"
"4642","8,93048433522373E-31","2,99999999956233","-1","2,44926860492903","-0,735616927755455","-0,263299129918915"
"4643","2,74335948483169E-31","2,9999999998989","-1","-2,0564033360928","-0,943620618939604","-5,2161496065954"
"4655","8,42733829489151E-32","2,99999999997665","-1","-1,28899421235364","2,58552517533845","-3,63475323882284"
"4673","2,58879782723416E-32","1,23100024401609","-1","-1,07905849207444","1,33811138997044","-3,18180707340199"
"4697","-1,69280955188384","0,053361112736741","-1","-1,02162757903759","-4,28815164874431","2,08866155103397"
"4697","0,479985075181493","4,31932569799898","-1","2,44695491777106","-0,701194494848189","0,598237898911665"
"4715","-3,23817227343362","5,0737643141601","-1","4,84870662324303","0,850471093754703","0,171348289298989"
"4715","-2,38035469552107","4,24803981859255","-1","-1,6735670897248","1,96811313556055","-1,66450048398837"
"4715","-2,1168413293602","4,05729725862192","-1","-0,457828166943149","1,20644899431707","-1,19032732860438"
"4723","-2,03589254032465","4,01323568072343","-1","-0,125245430394422","1,0440250066743","-1,05451386851709"
"4724","-2,01102584554636","4,0030574454769","-1","-0,0342626753164184","1,00938828120274","-1,01561395246016"
"4732","-2,00338703443424","4,00070627065125","-1","-5,18868022003346","-2,57150029825118","4,1362628598418"
"4744","-2,00104046462564","4,00016314869278","-1","-3,59874471678779","-1,33512060132835","2,6118719445772"
"4754","-2,0003196207946","0,462038175430821","-1","-1,43735943876463","0,715287092684014","0,461675030576958"
"4757","-2,00009818445512","1,64473044322879","-1","-1,84608164298892","0,152534136257837","0,845812071141971"
"4773","-2,00003016132677","1,91793264569244","-1","1,49497801443025","0,03252772622615","0,955837238181597"
"4781","-2,00000926527149","1,98104242112876","-1","0,408972576103571","-1,77981466953193","-0,726227515995487"
"4793","-2,0000028462029","1,99562079465469","-1","0,111880286124833","-1,16629456658012","-0,208007287291665"
"4802","-2,00000087432634","1,99898840249661","-1","3,48347790006146","-2,82221329102559","-1,77315613620147"
"4814","-2,0000002685847","1,99976632072987","-1","2,40582655565812","-2,17533602304453","-1,22144866037432"
"4822","-2,00000008250665","1,99994602003158","-1","5,56389109806616","6,89636564367882","0,650150652771355"
"4834","-2,00000002534526","1,99998753061412","-1","4,42782473384086","3,83089541819233","0,186217226193224"
"4860","-2,00000000778582","1,99999711956882","-1","-1,06226961313226","-2,18306603085006","-1,66024169846984"
"4863","-2,00000000239173","1,99999933461969","-1","0,435836709194516","1,32121489030998","3,9516275137456"
"4871","-2,00000000073472","1,99999984629699","-1","-4,33364209753507","1,06849869981959","0,845410038461665"
"4883","-2,0000000002257","1,99999996449457","-1","-2,63840110765535","1,01460726765327","0,9557220873158"
"4892","-2,00000000006933","1,99999999179824","-1","3,00466344017575","-0,783636186371416","0,987317846953578"
"4915","-2,0000000000213","1,99999999810539","-1","-1,90446715085596","1,61964166854249","0,99636755673105"
"4924","-2,00000000000654","1,99999999956234","-1","-1,24742990004946","1,13213786138071","0,998959589585945"
"4940","-2,00000000000201","1,9999999998989","-1","0,658747744242728","2,81492941357513","-4,14103303002502"
"4941","-2,00000000000062","1,99999999997665","-1","0,180209848817101","2,17378274469396","-2,61323822461738"
"4953","-2,00000000000019","1,99999999999461","-1","10,4079133288","-1,53644337110867","-0,462066362767736"
"4961","-2,00000000000006","1,99999999999875","-1","5,47941188704843","-0,327644752600997","2,58123253214548"
"4974","-2,00000000000002","1,99999999999971","-1","5,13114996512881","-1,85662102955668","-0,260679105301328"
"4982","-2,00000000000001","1,99999999999993","-1","1,58300649433559","0,60407773606133","-0,0746641408553909"
"4994","-2","1,99999999999998","-1","2,61236119946924","0,128818870975223","-0,0213854268190372"
"5002","-2","2","-1","4,62039159808606","1,81422164275146","-0,00612524934986076"
"5021","-2","2","-1","2,44328125214497","1,17363181339328","-0,00175440405821458"
"5023","-2","2","-1","2,8477016395708","1,03702678120955","-0,000502499314505415"
"5031","-2","2","-1","-0,494534841240423","1,00789591780416","3,42701276261585"
"5043","-2","2","-1","0,591148660248638","1,00168379524045","2,40872735767306"
"5051","-2","2","-1","2,61458860518115","1,00035906736647","0,403490021720618"
"5077","-2","2","-1","0,44169376060026","1,00007657069611","-0,88443172006184"
"5084","-2","2","-1","0,847267358597893","1,00001632861142","-0,253320397303575"
"5092","-2","2","-1","-4,22108937037099","4,57350582029893","1,64102189712122"
"5105","-2","2","-1","-2,60761070249121","3,33554827656034","1,18360255288863"
"5113","-2","2","-1","3,01308659503","-2,28869822968243","-0,660990597525935"
"5125","-2","2","-1","1,55070857413428","-0,488062221715038","-0,189322021113726"
"5133","-2","2","-1","2,87708991698612","1,68267247094379","-0,0542259266814759"
"5142","-2","2","-1","-4,6658024345604","2,93233027542298","-0,0155314796829602"
"5154","-2","2","-1","-2,72926830931413","2,19881834122722","-0,00444855212081806"
"5162","-2","2","-1","-2,19950175604727","2,04239777882404","-0,00127416166235252"
"5174","-2","2","-1","-2,05457655318024","2,0090412767661","-0,000364947492513672"
"5183","-2","2","-1","8,34368415704488","0,215176872579211","-0,000104528864921356"
"5195","-2","2","-1","3,46184108026724","0,832637385630571","-2,99393305225622E-05"
"5202","-2","2","-1","3,12634322011708","0,964310118152836","-8,57527260832322E-06"
"5203","-2","2","-1","-3,87117991011932","0,992389174421876","1,71357588850689"
"5211","-2","2","-1","-1,78545224944049","0,99837700034344","1,20438358720352"
"5223","-2","2","-1","3,96443550123996","-2,57384844102091","-0,655038459277595"
"5232","-2","2","-1","2,53739937295172","-1,33562134002874","-0,187617199823769"
"5244","-2","2","-1","-3,03229390646619","4,28868264898321","1,65984071570513"
"5252","-2","2","-1","-1,5559630083549","2,48805889914915","1,18899267005916"
"5264","-2","2","-1","0,574344108270192","-1,46942434859789","-2,37302509589409"
"5273","-2","2","-1","-3,29575142137621","-0,313353024403908","-1,39326412080217"
"5281","-2","2","-1","-2,35447129768798","-0,0668221661065901","-1,11263936046966"
"5293","-2","2","-1","-2,09697068342873","-0,014249748799045","-1,03226235208321"
"5305","-2","2","-1","-2,02652771467244","-0,00303874227171842","-1,00924063628914"
"5313","-2","2","-1","-0,280821309650695","-0,00064800823678711","-1,00264671834242"
"5314","-2","2","-1","0,923177322125106","-0,000138186998894933","0,712820267201784"
"5322","-2","2","-1","0,252548334480886","-2,94682159570477E-05","0,204167160898492"
"5334","-2","2","-1","0,0690882019309678","-6,28406260093576E-06","0,0584778961925208"
"5342","-2","2","-1","3,47177151458911","-1,34006900282116E-06","0,0167493358288086"
"5356","-2","2","-1","0,676188381436628","-1,78675145488896","-1,70878097215657"
"5363","-2","2","-1","0,911416709451343","-1,16777382794757","-1,2030102193252"
"5375","-2","2","-1","0,975766776376827","-1,03577757266194","-1,05814652307196"
"5383","-2","2","-1","-4,18593652035608","0,779121643578961","-1,01665442339108"
"5395","-2","2","-1","-2,59799413857575","0,166146779605882","-1,00477018751656"
"5404","-2","2","-1","-0,437154107380503","-3,53807173173633","-1,00136628500482"
"5404","-2","2","-1","-0,846025471657764","-2,3279919986011","-1,00039133361276"
"5412","-2","2","-1","-0,957878069842749","-2,06994391023941","-1,00011208642116"
"5431","-2","2","-1","-0,988476944730568","5,13208921939759","4,14070292997369"
"5432","-2","2","-1","-0,99684770374371","2,66791436424583","2,61314367681424"
"5458","-2","2","-1","5,90660525712368","-1,43107038093879","-1,25153906242121"
"5474","-2","2","-1","3,79514335879721","-0,305174085641027","-0,358467889993041"
"5474","-2","2","-1","3,21752281617524","-0,0650780169775732","-0,102672966441391"
"5501","-2","2","-1","-5,57267215543396","-1,80062898015722","-3,45656445030909"
"5502","-2","2","-1","7,38125888553967","2,40276914425511","2,72354343297146"
"5514","-2","2","-1","-3,7071869925014","-0,487612289115019","-0,219918181512497"
"5522","-2","2","-1","-1,74058964588809","-0,103982750576101","-0,0629893295902254"
"5535","-2","2","-1","-1,20259886927495","-0,0221741999919554","-0,0180415080505774"
"5543","-2","2","-1","-1,05542381271381","-0,00472862222396571","-0,00516747860084479"
"5555","-2","2","-1","-1,01516197512221","-0,00100837316093002","-0,00148007777483625"
"5563","-2","2","-1","0,722287950644981","3,57328730384397","-3,42758061562764"
"5582","-2","2","-1","5,37689935540498","-1,23800066005984","-2,4088900030727"
"5582","-2","2","-1","3,65023474802696","-0,26400219338542","-2,11711495153588"
"5592","-2","2","-1","3,17788099718242","-3,62980049733061","-2,03354425828506"
"5604","-2","2","-1","3,04866188596445","-2,34755305062207","-2,00960780198547"
"5613","-2","2","-1","3,01331215353593","-2,07411528171365","-2,00275188254895"
"5625","-2","2","-1","3,0036417296258","-2,01580499717572","-2,000788198755"
"5633","-2","2","-1","-0,451875203618981","1,57013194107186","1,42693093210917"
"5654","-2","2","-1","0,602818813070474","0,334828800759639","0,408703919643883"
"5675","-2","2","-1","0,89134541670143","0,0714018503066725","0,117061653212164"
"5675","-2","2","-1","0,970275987734835","0,0152263611005085","0,0335289924909582"
"5682","-2","2","-1","0,991868572145624","0,00324700370322773","0,00960342953145576"
"5702","-2","2","-1","-2,45509591890514","3,5741947579852","0,00275063018343028"
"5703","-2","2","-1","-1,39806225957057","4,1224463608373","0,000787840050391953"
"5715","-2","2","-1","2,34397583744595","-0,334141964068481","-1,71335269019928"
"5723","-2","2","-1","-2,08520767565296","-2,85800655230609","3,93641537557721"
"5731","-2","2","-1","-1,29687405061158","-1,39621772504514","2,55463129731673"
"5744","-2","2","-1","-2,80764985968289","0,702258202481329","-1,26829827501531"
"5764","-2","2","-1","1,23192730272428","0,149755740654461","1,35031025324407"
"5788","-2","2","-1","0,337011298965146","0,0319352366120102","1,10033644262001"
"5788","-2","2","-1","0,0921942515431001","0,00681015187136132","1,02873852998709"
"5802","-2","2","-1","-1,7012146718229","0,00145225692467749","-0,705347007319454"
"5805","-2","2","-1","3,9874798930574","1,78706086121214","-1,9156050020828"
"5817","-2","2","-1","2,54370349528352","1,16783980848425","-1,26224910034269"
"5825","-2","2","-1","3,87517357767159","-4,32446186442819","-1,07511382143403"
"5837","-2","2","-1","3,23941622494999","-2,49568877501256","-1,02151422507475"
"5842","-2","2","-1","-0,387375724829654","-0,318953882630549","-1,00616213995947"
"5865","-2","2","-1","4,07333501694187","-0,854767711696157","-1,00176497032768"
"5866","-2","2","-1","-3,61211678614155","2,60447295392833","0,713072818927764"
"5875","-2","2","-1","-1,71458183384645","1,34215198160249","0,204239497181909"
"5887","-2","2","-1","-1,1954840610391","1,07296351005973","0,0584986148705588"
"5895","-2","2","-1","-1,05347745535965","1,01555938321708","0,0167552701068689"
"5907","-2","2","-1","2,438241929458","1,00331802028024","0,00479907219983466"
"5915","-2","2","-1","-3,78585556594082","1,0007075639456","1,71495290285428"
"5940","-2","2","-1","6,14363234436779","1,00015088718417","-0,508800350718325"
"5944","-2","2","-1","2,13354977661529","-2,57347016172601","3,28142525060626"
"5956","-2","2","-1","-1,41633700297586","-1,33554067241135","0,653449596834423"
"5968","-2","2","-1","-0,387459204848979","-1,07155365610414","0,900740459863335"
"5968","-2","2","-1","-0,105994996322751","-1,01525873350934","0,971569918204842"
"5985","-2","2","-1","1,69743928108792","0,783497262039252","0,991857008910514"
"5993","-2","2","-1","1,19079447102843","1,95383104424773","-2,42948901828867"
"6006","-2","2","-1","2,7786302764413","-0,583347814078715","-1,40943661092194"
"6031","-2","2","-1","-4,69273747470625","-0,124398239348214","-2,83084985651155"
"6038","-2","2","-1","-2,73663677403372","-0,0265277791044356","-2,2379733912488"
"6050","-2","2","-1","-2,20151750475341","-0,00565701787984217","-2,06816073265058"
"6067","-2","2","-1","4,85061491147205","-3,57470869069077","-0,30594436522494"
"6075","-2","2","-1","6,23269785124527","-0,549053618144283","-2,51478578083385"
"6087","-2","2","-1","2,8843506427699","2,66966612696156","2,99328923845525"
"6104","-2","2","-1","4,69479819284929","-4,00419915782932","1,57092120326837"
"6108","-2","2","-1","-0,989235212473489","1,14610921098548","-0,550054148536498"
"6124","-2","2","-1","5,63512348814737","-3,32909588893911","-0,157547419755594"
"6136","-2","2","-1","4,4473113709635","-2,2834281444426","-0,0451249927624144"
"6137","-2","2","-1","2,3959326853596","5,08656395604262","1,70065356952602"
"6145","-2","2","-1","2,83474876324345","0,871454985939105","1,20068235521007"
"6157","-2","2","-1","-2,2245140108285","-0,814163243084649","-0,656098572271991"
"6166","-2","2","-1","-0,608547561773837","-1,96037052885342","-3,6150775284438"
"6178","-2","2","-1","-0,166476872313767","5,94220678399444","0,964563510086932"
"6186","-2","2","-1","-0,0455421248169822","3,62742215689162","0,276271877248667"
"6194","-2","2","-1","-0,0124586983406107","-0,439705296816796","0,0791302484080323"
"6214","-2","2","-1","-0,00340825477436784","0,692984528643249","0,0226646167372329"
"6226","-2","2","-1","-0,000932376745099983","0,934529309671351","0,00649163704373657"
"6239","-2","2","-1","1,72618066040327","-2,58746388641107","1,71543769007866"
"6243","-2","2","-1","-0,527778639758565","0,448226351280728","1,20491684749164"
"6255","-2","2","-1","3,30849006999235","0,0955837453798581","1,05869262266752"
"6268","-2","2","-1","2,35795613685641","0,0203831219533084","1,01681083814123"
"6276","-2","2","-1","2,09792401092804","0,00434667692621086","1,00481498808822"
"6288","-2","2","-1","-4,87895439046665","1,78767809289354","-0,712199227791947"
"6296","-2","2","-1","-2,78757906951732","1,16797143241869","-0,20398928176269"
"6296","-2","2","-1","-2,21545349686531","1,03581971158439","-0,0584269477559921"
"6309","-2","2","-1","-2,05894037958619","1,0076385116178","-0,0167347430932806"
"6326","-2","2","-1","-0,289688256816612","2,78838007279297","-0,00479319281862332"
"6329","-2","2","-1","-0,805684083215738","2,16812112881155","-0,00137287422151865"
"6344","-2","2","-1","-0,946842107176089","2,03585163416515","-0,000393220907113806"
"6353","-2","2","-1","-0,985457899608833","2,00764531907083","-0,000112626983133504"
"6370","-2","2","-1","-6,1753289769686","2,00163035535355","1,71354608584372"
"6378","-2","2","-1","2,31065060782155","0,213596502252247","1,2043750510754"
"6386","-2","2","-1","0,632111457449233","0,83230037350599","1,05853744044112"
"6395","-2","2","-1","0,172923112341635","0,964238250711276","1,01676639059106"
"6420","-2","2","-1","1,77374131116552","-2,58112848946765","-0,708776087303337"
"6428","-2","2","-1","-0,51476774483192","2,23632853639288","-0,203008820197449"
"6444","-2","2","-1","-1,86725779008846","1,26364561496836","1,65543222231919"
"6456","-2","2","-1","-8,14299364974662","6,41647562652087","-0,525848362564703"
"6468","-2","2","-1","-0,68050360184208","0,941808263961991","-0,150614358468521"
"6497","-2","2","-1","3,54027425115103","-3,58591165791857","-0,0431392138719325"
"6504","-2","2","-1","-1,75794316786818","3,80881086955446","1,70122233960299"
"6509","-2","2","-1","-1,20734617292769","2,38572680321405","1,20084526327703"
"6526","-2","2","-1","0,669713219977213","-1,49124654841747","-2,36963025652444"
"6538","-2","2","-1","-1,54322611413886","-0,318006583002645","2,03486492401105"
"6546","-2","2","-1","-1,1486072578738","-0,0678145320371984","1,29640772459821"
"6558","-2","2","-1","-2,76708936207605","7,13254330680971","1,08489759113775"
"6567","-2","2","-1","-2,20984824491178","-0,69224230950686","-2,40284018071248"
"6579","-2","2","-1","-2,05740698290141","0,639131305933371","-1,40180380675023"
"6594","-2","2","-1","1,43716695110641","-0,863705996231422","2,31207137784626"
"6595","-2","2","-1","0,393157534499867","-0,184184293919692","1,37580565597921"
"6608","-2","2","-1","1,83398958111152","-1,8260282544655","-0,605939466575452"
"6616","-2","2","-1","1,22814975480473","-1,17614955953794","-0,173554185058036"
"6636","-2","2","-1","-9,29620073004749","0,749187481489466","-0,049709676977128"
"6645","-2","2","-1","-0,995979860261351","-1,62698781458387","-0,0142379279666699"
"6694","-2","2","-1","1,72753549198274","-1,1337044184355","-0,00407805089695822"
"6695","-2","2","-1","3,92546344450217","-1,02851231091475","1,71241030256216"
"6695","-2","2","-1","2,52673801051945","-1,00608021696823","1,20404973814778"
"6710","-2","2","-1","2,14409670176716","-1,00129659915997","1,05844426377388"
"6730","-3,69280955188384","2","-1","0,312983984324101","-1,00027649825498","-0,696838641874872"
"6756","1,86560417894918","3,76899975597851","-1","-0,914378763357955","-2,78681013205043","-0,199589677317186"
"6756","0,573095783738772","3,1776391312835","-1","-0,250141363133972","-2,16778634078365","-0,0571668057678285"
"6762","-1,51676000126365","8,34803395060979","-1","1,65800598481083","3,32447326635284","-0,0163738111390555"
"6773","-1,15874373635669","6,5423964155616","-1","1,18000692993617","1,49569120645966","-0,00468981409082571"
"6792","-1,04876455950704","6,12529370435111","-1","1,04924346521614","1,10570557025462","-0,00134326431517495"
"6801","-1,01498000688716","6,02894287627946","-1","-0,712964472529169","4,59604392751585","1,71319360466194"
"6815","-1,00460171502845","6,00668581148324","-1","-0,195041608763526","3,34035450157458","1,20427409283183"
"6821","-1,00141360290169","6,00154442408411","-1","-0,0533564162238227","3,07258019954525","1,05850852381388"
"6830","-1,00043424530883","6,0003567623403","-1","3,4382750414414","-4,13152703378526","-5,83755527035983"
"6842","-1,00013339601101","6,00008241218767","-1","2,39346066842858","-1,66779447882127","-3,8127372776817"
"6850","-1,0000409779804","6,00001903723546","-1","-4,7981061191313","0,644344777244605","1,90794947751428"
"6858","-1,00001258804416","6,00000439760604","-1","2,41384530529921","1,92415693955134","-2,88067864162878"
"6871","-1,00000386692693","6,00000101584807","-1","1,38677756538147","1,19707538690821","-2,25224543436612"
"6879","-1,00000118788302","6,00000023466115","-1","1,10580852411626","1,04202609585324","-2,07224855486546"
"6891","-1,00000036490632","6,00000005420678","-1","-0,697490293221822","1,00896201580712","1,40646313862016"
"6899","-1,00000011209573","6,00000001252178","-1","1,53562729924539","-0,784840029727626","-4,73789353360057"
"6907","-1,00000003443474","6,00000000289253","-1","-4,03277868252425","3,40613611947503","-1,78419199806412"
"6920","-1,00000001057802","6,00000000066818","-1","4,34964727571934","2,29985688353504","-0,224609570197231"
"6928","-1,00000000324947","6,00000000015435","-1","-0,810091898126829","0,277192960724109","2,64924529974747"
"6940","-1,00000000099821","6,00000000003566","-1","-7,12735510397863","6,20611575128562","1,47237956883078"
"6948","-1,00000000030664","6,00000000000824","-1","-4,8555326305265","4,47045160474581","1,13529973805772"
"6957","-1,0000000000942","6,0000000000019","-1","-4,23404316349122","4,10032325469728","1,03875277494282"
"6969","-1,00000000002894","6,00000000000044","-1","-4,0640258482523","4,02139381677419","1,0110996339485"
"6977","-1,00000000000889","6,0000000000001","-1","-4,01751518473463","0,431059868173509","1,0031791755293"
"6989","-1,00000000000273","6,00000000000002","-1","1,17451564730677","1,66542535116857","-4,13982444923424"
"6998","-1,00000000000084","6,00000000000001","-1","-5,5844373803893","-1,64484999094675","-0,899313716255994"
"7006","-1,00000000000026","6","-1","0,745861713452778","1,43598883157978","0,742417076711593"
"7018","-1,00000000000008","6","-1","-0,522394606757147","2,87972527773159","1,92622267272201"
"7038","-1,00000000000002","6","-1","-0,86934422703873","2,18760038697113","1,26529023114313"
"7047","-1,00000000000001","6","-1","0,76217847712744","2,04000556319408","-0,637593477498639"
"7063","-1","6","-1","-4,97080237388066","-1,56497119866183","-1,89619892391576"
"7067","-1","6","-1","1,64016605426636","1,45302289064658","-1,25669077931025"
"7075","-1","6","-1","-1,27774488846512","-2,47689573644974","0,640056546727709"
"7094","-1","6","-1","21,3676833508812","-3,10169745824917","0,183326055630931"
"7103","-1","6","-1","-6,15456520361893","3,12531781240824","0,0525085523224762"
"7104","-1","6","-1","-3,41010489095471","-5,6937831377405","-1,69853875817446"
"7143","-1","6","-1","-1,65931859627328","1,78580740259722","-1,200076627442"
"7145","-1","6","-1","-4,63323746428122","3,95432367902088","-2,77088462347931"
"7164","-1","6","-1","-1,7203596968414","2,41675723971071","-2,2207980499403"
"7165","-1","6","-1","-5,3763718540519","0,30212182500793","-2,06324134296181"
"7174","-1","6","-1","5,98208818435421","-0,935572874033973","1,40904299916369"
"7192","-1","6","-1","1,36292134028943","5,16074368577242","-1,3099979163718"
"7194","-1","6","-1","1,09928231320358","-5,47297978078353","0,624788228288605"
"7209","-1","6","-1","1,027160093995","-2,74060887791913","0,178952878589202"
"7227","-1","6","-1","1,00743003141259","-2,157933977355","0,0512559797150484"
"7261","-1","6","-1","-4,17727458495983","1,53982310221458","-3,41247586674479"
"7264","-1","6","-1","-2,59562454250219","0,328365476308018","-2,40456367589403"
"7276","-1","6","-1","6,46923703093544","-1,71672761519704","1,31128089155754"
"7284","-1","6","-1","2,2226235865119","2,42066101224203","2,08915758823853"
"7296","-1","6","-1","2,06090185995938","1,30295429993625","1,31195831935957"
"7305","-1","6","-1","2,01666057314333","1,06460465027123","1,08935161823097"
"7320","-1","6","-1","2,00455773760685","1,0137768661397","1,02559223840186"
"7332","-1","6","-1","2,00124683418237","-2,57056443764416","-2,41982651801417"
"7334","-1","6","-1","2,00034108928868","0,451830138972774","0,306909283052157"
"7346","-1","6","-1","0,273657584472613","0,0963522488919236","1,80148380954454"
"7354","-1","6","-1","0,801298663964141","-3,55295533381285","-2,19759436983588"
"7366","-1","6","-1","2,67207813851081","3,02908759801926","-1,34301696184544"
"7374","-1","6","-1","-1,26901488228689","1,43270055802906","0,61533085862599"
"7386","-1","6","-1","-0,347157135765929","1,09227288812047","0,176244083115186"
"7395","-1","6","-1","1,63146593534322","-0,76707408360728","3,4776368113327"
"7413","-1","6","-1","4,6256179712974","-0,163577651526974","2,42322718150703"
"7415","-1","6","-1","-1,73459617497222","-1,82163391206691","-3,01951360403591"
"7423","-1","6","-1","-0,474523544380116","-1,17521247115896","-1,57843242946847"
"7436","-1","6","-1","5,04949448690107","0,749387314490715","0,547902770694563"
"7456","-1","6","-1","-5,07151015419139","1,94655713781165","0,156931218552825"
"7464","-1","6","-1","-6,29312689808873","2,9886033721195","1,75852684404455"
"7484","-1","6","-1","-4,62731759650737","2,2108185133077","1,21725851429815"
"7485","-1","6","-1","7,9134383943482","-1,52854553675108","-0,651350801346648"
"7504","-1","6","-1","4,34414121028302","-0,325960548657763","-0,186560974734825"
"7505","-1","6","-1","3,36770901518971","-0,0695107059140055","-0,0534351032071346"
"7514","-1","6","-1","6,55346350075729","-3,58832541501138","-0,0153049707143502"
"7526","-1","6","-1","0,245664939633253","-0,551957368686057","3,42277301425425"
"7534","-1","6","-1","3,24651232712618","2,66904690555336","-1,01964368737226"
"7546","-1","6","-1","3,06743696595732","1,35592230129178","-0,292048032803664"
"7555","-1","6","-1","3,01844834467528","-0,710851154486515","-0,0836488809971433"
"7574","-1","6","-1","3,00504680802919","-0,151588177623368","-0,0239588509633216"
"7575","-1","6","-1","3,0013806263777","-0,0323260016532894","-0,00686233375318265"
"7587","-1","6","-1","3,00037769005355","-0,00689348205956257","-0,00196552099314621"
"7596","-1","6","-1","3,00010332250553","-0,00147002698988835","-0,000562967776480812"
"7604","-1","6","-1","-0,452843185396179","1,78643768758386","1,71341709848821"
"7616","-1","6","-1","-4,57675316827595","-0,619044251684227","1,20433810630352"
"7624","-1","6","-1","-2,7049076113768","-0,132010462934141","1,0585268586584"
"7636","-1","6","-1","-2,19283753938659","-0,0281510768845256","1,01676335973934"
"7645","-1","6","-1","-0,326317736212261","-3,57950552247525","-0,708776955404905"
"7657","-1","6","-1","-0,815704600176639","-2,33682770603506","-0,203009068840537"
"7665","-1","6","-1","7,68259526422624","3,28842539284275","-0,0581461935482343"
"7673","-1","6","-1","5,0074265022094","1,48800403957796","-0,0166543290083483"
"7694","-1","6","-1","-4,35658272653743","-2,46943604733731","3,42238652881802"
"7714","-1","6","-1","3,26106605729701","2,26014681909522","-2,73333272982133"
"7726","-1","6","-1","2,34498262122342","1,26872483590818","-1,49646402974661"
"7735","-1","6","-1","2,09437492053452","1,05730525708562","-1,14219804922143"
"7756","-1","6","-1","2,02581760667917","1,01222027907674","-1,04072860064545"
"7756","-1","6","-1","2,00706277484384","1,00260596022613","-1,01166555321693"
"7764","-1","6","-1","2,00193212287702","1,00055571797154","-1,00334126706296"
"7776","-1","6","-1","-4,90521434169157","1,00011850620773","-1,00095701124314"
"7792","-1","6","-1","-2,79476285402596","1,00002527131025","-1,00027410874445"
"7796","-1","6","-1","-2,2174187236635","1,00000538907737","-1,00007851068033"
"7804","-1","6","-1","-2,05947799542972","1,00000114921445","-1,00002248715902"
"7817","-1","6","-1","-2,0162710546761","1,00000024506864","-1,00000644080931"
"7825","-1","6","-1","1,44842027147254","-2,57350228598103","-1,00000184478726"
"7837","-1","6","-1","0,396236040922994","-1,33554752287118","-1,00000052838702"
"7844","-1","6","-1","0,108396025116875","-1,07155511695669","-1,00000015134149"
"7845","-1","6","-1","-3,42321817075872","-1,01525904503444","0,713578301303183"
"7854","-1","6","-1","2,78996552959159","-2,79000514263474","-1,50919406637004"
"7866","-1","6","-1","1,48967062171323","1,40503466518623","0,567734137266896"
"7880","-1","6","-1","-4,04535078767769","0,29962199969569","0,162611351394313"
"7886","-1","6","-1","-2,55953490459243","0,0638940411407893","0,0465754124449519"
"7895","-1","6","-1","3,02623841580938","1,80037649869424","-1,7002381379196"
"7907","-1","6","-1","1,55430644244584","1,17067935260972","-1,20056336660167"
"7907","-1","6","-1","1,15163843984975","1,03639717239924","-1,05744569146449"
"7915","-1","6","-1","1,04148285980334","1,00776165446145","-1,01645369004195"
"7923","-1","6","-1","1,01134822845163","1,00165516373959","-1,00471269313842"
"7936","-1","6","-1","4,45597592062715","-0,786398207388434","-1,00134981736986"
"7944","-1","6","-1","-0,0545684541391349","-1,95444966745189","0,713191727725168"
"7956","-1","6","-1","-1,01492797957419","5,94346940076612","-4,93646147871549"
"7966","-1","6","-1","3,1752234142098","0,0541890702003993","3,29966887634873"
"7998","-1","6","-1","2,32149914083505","0,798306924987481","1,65867496631916"
"8009","-1","0,693000732064465","-1","-6,54422794759983","-2,61651315068448","-0,52491957046036"
"8021","-1","2,4670826061495","-1","-0,516702696861708","2,22878279875734","-0,15034833229652"
"8028","-2,69280955188384","2,87689595197724","-1","4,31152005227675","-4,09821701212299","-3,47021970751671"
"8050","1,17279462706534","1,2025631788882","-1","-4,27339359509397","2,9128111825964","-2,42110276235415"
"8050","0,360271307036421","1,81579189973145","-1","-2,62191926978757","1,40790474838131","-2,12061295026566"
"8050","-1,58213764763193","3,72644763986574","-1","-0,443699168545864","1,08698521070238","3,10618887308033"
"8057","-1,17882712484134","3,16780958207782","-1","-0,847815966567867","-2,55495284375557","-0,110320241144637"
"8065","-1,05493398461533","3,03876405440912","-1","4,22093929082963","-1,33159187600314","-1,74517645073785"
"8077","-1,01687519535079","3,00895450602777","-1","2,60756964609034","-1,0707115798867","-1,21343467254768"
"8086","-1,00518389882186","3,00206849307751","-1","0,439773624147935","0,771672007380355","-2,77471065687071"
"8104","-1,00159244420208","3,00047782240566","-1","-2,60612937288033","1,95130932251687","-2,22189390875768"
"8106","-1,00048918364804","3,00011037709231","-1","-4,89225106759443","-2,37063673741044","-0,349976876007648"
"8115","-1,00015027254405","3,00002549713526","-1","1,6616548853917","2,28121565642879","0,899759043839899"
"8127","-1,00004616229015","3,00000588984447","-1","0,454569413405534","-0,513533428283268","0,257710474752162"
"8135","-1,0000141806146","3,00000136055551","-1","1,85078967721794","1,67724076592203","0,0738138607793779"
"8147","-1,00000435614935","3,00000031428865","-1","1,23274566090977","1,1444208015566","0,021141888192155"
"8156","-1,00000133816747","3,00000007260076","-1","-7,56850772895637","1,03079756708658","-3,42110119468812"
"8176","-1,00000041107227","3,00000001677079","-1","1,9295266731058","1,00656754517514","-2,40703415660149"
"8183","-1,00000012627747","3,00000000387406","-1","0,527849564705055","1,00140052133034","-2,11658339691752"
"8188","-1,00000003879123","3,00000000089491","-1","0,144400783281651","1,00029865953632","-2,03339200953137"
"8205","-1,0000000119163","3,00000000020672","-1","0,0395028955342712","-0,786687480323865","-0,295985849994753"
"8217","-1,00000000366057","3,00000000004775","-1","-3,44206486977989","1,61899098367446","-2,5119334464168"
"8225","-1,00000000112449","3,00000000001103","-1","-0,668061704697739","-0,65475206552748","-0,43305048050073"
"8237","-1,00000000034543","3,00000000000255","-1","-0,909193541024126","-0,139625112489467","-0,837613380125507"
"8246","-1,00000000010611","3,00000000000059","-1","5,93058430456626","-0,0297748919997534","0,760089389121698"
"8265","-1,0000000000326","3,00000000000014","-1","2,0752674441459","-0,0063494609085014","0,217706061045704"
"8266","-1,00000000001001","3,00000000000003","-1","2,02059048376093","-0,00135401511545101","0,0623557303842945"
"8278","-1,00000000000308","3,00000000000001","-1","2,00563282075432","-0,000288742140362672","0,0178600315171867"
"8285","-1,00000000000095","3","-1","2,00154093852377","-6,15739238578933E-05","0,00511549979174395"
"8286","-1,00000000000029","3","-1","2,0004215457295","-1,31305672753397E-05","0,0014651899182905"
"8295","-1,00000000000009","3","-1","2,00011531985171","-2,80007812024667E-06","0,000419662121797925"
"8307","-1,00000000000003","3","-1","2,00003154739158","-5,97113385512988E-07","0,000120200319612777"
"8314","-1,00000000000001","3","-1","2,00000863023929","-1,27333731362957E-07","3,44279745170112E-05"
"8315","-1","3","-1","-4,90574054055976","1,78675114196705","9,86091745148717E-06"
"8327","-1","3","-1","-2,79490680323764","1,16777376121734","2,82438029971813E-06"
"8336","-1","3","-1","1,23541334771728","1,0357775584318","1,71357915361434"
"8348","-1","3","-1","0,337964956334978","1,00762952250729","1,204384522401"
"8364","-1","3","-1","1,81889086350095","-4,3586265206076","-0,655038191416784"
"8386","-1","3","-1","-3,95528789103992","1,07052799024142","-1,90119546775329"
"8397","-1","3","-1","0,917974537139702","2,01504001146324","0,455456446983443"
"8418","-1","3","-1","-3,20174641236215","-0,570295073380685","1,84403093413519"
"8426","-1","3","-1","2,85055229052811","-3,69511709589622","-0,471829607329613"
"8444","-1","3","-1","8,41198789650585","40,5205463199964","-0,135142217174176"
"8458","-1","3","-1","-2,69878063290638","-13,3590408706749","-0,0387076575506072"
"8467","-1","3","-1","-4,19116141696567","-1,06204867821786","-0,0110867113503402"
"8475","-1","3","-1","-0,872987758255534","0,560270530154074","-0,00317547421734474"
"8501","-4,38561910376769","1,23100024402149","-1","2,48761746252426","-0,880522964468583","-0,000909524581851025"
"8508","-3,4256489534047","1,8223608687165","-1","-2,04591245868192","-0,187770492735199","-0,000260507536314685"
"8508","-3,13075529273656","1,95896531732575","-1","-1,28612428308451","-0,0400418380493897","-7,46149997822299E-05"
"8523","2,03826187868223","0,221521222310392","-1","2,37459806878677","-1,7952900442711","-2,13713517515168E-05"
"8528","0,626134579890471","0,82017121238815","-1","1,37604092359376","-1,16959467215067","-6,12121794572241E-06"
"8536","0,192342562177575","0,958459506179574","-1","-2,3500000882488","-1,03616586555947","1,71357659140129"
"8565","0,0590857978671387","0,990404135790709","-1","-4,82218324563302","2,56579000969334","1,20438378852769"
"8579","0,0181505927241069","0,997783353026057","-1","-3,4984842378323","1,33390288896941","1,05853994303667"
"8586","0,00557568871249224","0,99948795400811","-1","-3,13636747893647","1,07120440069991","1,01676710738862"
"8593","-1,6910967535697","2,76888147322943","-1","2,14200190565548","2,80193542432352","-2,42235422664766"
"8598","-1,2122983214207","2,1776118079396","-1","4,03884664831654","-1,40249054656404","0,306185292561113"
"8618","-1,06521601649153","2,04102837097515","-1","2,55775560442602","-0,299079469373889","0,0876980983389753"
"8627","-1,02003373733038","2,00947756370706","-1","-1,30028944339752","1,72297282193687","0,0251186344972383"
"8655","-1,00615417274796","2,00218931952906","-1","-5,53501991450418","1,15417310903546","-1,70638382377785"
"8667","-1,00189050308423","2,00050573334545","-1","4,93868774277532","1,03287723525482","0,511254720532216"
"8676","-1,00058074448961","2,00011682452621","-1","2,80391998071279","1,00701103198063","0,14643442336"
"8688","-1,00017839916","2,00002698649406","-1","-4,68581911510165","-2,5720072438685","0,0419419899388971"
"8696","-1,00005480251791","2,00000623388671","-1","-2,73474415800687","-1,33522870688857","0,0120130941869442"
"8708","-1,00001683481003","2,00000144002935","-1","-2,20099975262288","-1,07148712982113","0,00344081032289206"
"8717","-1,00000517149284","2,00000033264713","-1","-0,328550626155611","0,771506622263551","0,000985522588425835"
"8742","-1,0000015886332","2,00000007684157","-1","2,63655601164814","0,164522885213251","0,000282275011161092"
"8746","-1,00000048801295","3,76899977372893","-1","1,44770325821588","-1,75166685619622","8,08496759605129E-05"
"8749","-1,00000014991292","3,17763913538385","-1","4,57534706782522","2,41321025994715","2,31570980230677E-05"
"8758","-1,00000004605182","3,04103468362144","-1","-3,47478422358675","1,3013654357202","1,71358497734501"
"8766","-1,00000001414668","3,0094790219299","-1","1,77585889975422","-6,08273884964853","-2,22277049885775"
"8778","-1,00000000434572","3,00218965637889","-1","-7,4199313497306","-1,87063928647258","0,363350394255491"
"8786","-1,00000000133497","3,00050581115785","-1","1,97017186251567","3,38783952828387","0,104071421394492"
"8799","-1,00000000041009","3,00011684250089","-1","2,26540436183434","1,50920398773364","0,029808308790369"
"8807","-1,00000000012598","3,00002699064622","-1","-2,10670202438516","-2,46491518317841","1,72211608979756"
"8819","-1,0000000000387","3,00000623484586","-1","2,15011731421134","-1,31239145014996","-0,506748658856453"
"8834","-1,00000000001189","3,00000144025092","-1","3,04106673417144","0,720134057599682","1,56843455493494"
"8848","-1,00000000000365","3,00000033269831","-1","2,28479866597375","-1,6331834232614","-0,550766378468432"
"8856","-1,00000000000112","3,00000007685339","-1","2,07791074047235","-2,92177679386339","1,55582692681897"
"8868","-1,00000000000034","3,00000001775315","-1","2,02131359520311","-2,19656782362293","1,15920086846723"
"8876","-1,00000000000011","3,00000000410098","-1","5,45870208895393","-0,25516668945524","2,7591769209301"
"8889","-1,00000000000003","3,00000000094733","-1","4,39904877886415","-0,841165167326457","2,21744471039581"
"8897","-1,00000000000001","3,00000000021883","-1","-6,2494488624959","2,60737368061215","-3,07845416005346"
"8909","-1","3,00000000005055","-1","-3,16249739564075","1,34277055817651","-1,59531428109023"
"8917","-1","3,00000000001168","-1","-2,3180177567963","1,07309542079095","-1,17051090184296"
"8938","-1","3,0000000000027","-1","-2,08699829695705","1,01558751302629","-1,04883801476097"
"8946","-1","3,00000000000062","-1","10,0612504515976","-0,783427150191645","4,12674676892017"
"8966","-1","3,00000000000014","-1","2,93170585776338","-3,74056726209901","-4,24516704853968"
"8966","-1","3,00000000000003","-1","-0,471554288224812","-0,584422764588382","0,784092226722802"
"8979","-1","3,00000000000001","-1","0,597435318564922","-0,911378640408469","0,224580993524494"
"8987","-1","3","-1","0,88987268493205","-0,981101598676182","0,0643248599252844"
"8999","-1","3","-1","0,969873100936622","-0,99596993801221","0,0184240328599143"
"9007","-1","3","-1","2,71819408208214","-2,78589176311355","3,43243373129127"
"9019","-1","3","-1","2,19647224310748","-2,16759049968155","2,41028004049467"
"9019","-1","3","-1","2,05374778667038","-2,03573847812355","2,11751308835528"
"9028","-1","3","-1","2,01470347427339","-2,00762118867725","2,03365829329193"
"9036","-1","3","-1","2,00402234527412","-2,00162520957533","2,00964046408091"
"9048","-1","3","-1","2,00110036996722","-2,00034657404187","2,00276123768039"
"9057","-1","3","-1","2,00030102191191","-2,00007390650924","2,00079087826723"
"9069","-1","3","-1","2,00008234884098","-2,00001576047669","2,00022652466248"
"9091","-1","3","-1","2,00002252770095","-2,00000336090323","2,0000648815688"
"9098","-1","3","-1","5,45287761351663","-2,00000071670868","-1,42713810581499"
"9110","-1","3","-1","4,39745541046606","-2,00000015283729","4,73197177527234"
"9118","-1","3","-1","4,10872960106143","-2,00000003259237","3,49607422289183"
"9139","-1","3","-1","2,30330880907382","-2,00000000695029","3,14208640009682"
"9139","-1","3","-1","2,80941017971402","-2,00000000148214","3,04069662191836"
"9147","-1","3","-1","-2,23144574205185","-0,213248831195249","-0,415500295484342"
"9175","-1","3","-1","-0,610443835797874","2,74127610518208","-1,11900828243076"
"9188","-1","-0,537999511957023","-1","-1,89343135051288","-0,415426075452877","-0,320508204603439"
"9201","0,692809551883844","2,41372149341151","-1","-1,24441089933366","-0,0885891249070541","-0,0918004905155613"
"9201","0,212824476702351","0,326570009956482","-1","5,83888081109734","-1,80564269643585","3,40086304084598"
"9204","0,0653776463682816","0,844437507968559","-1","0,323744919102922","-1,1718023631213","-1,02591917822451"
"9214","0,020083388484652","0,964065026380146","-1","0,81500076933037","2,53686568516373","-0,293845469281697"
"9230","0,00616942510829108","0,991699012324908","-1","-2,50348063108748","3,11448597970032","-0,0841637057285668"
"9237","0,001895188463635","0,998082469821434","-1","-1,41129858826185","2,23766283220234","-0,0241063079151107"
"9257","0,000582183793408604","0,999557050060833","-1","0,613919125417538","-3,30957218625186","-1,72048291326807"
"9258","0,000178841300383152","0,999897678455963","-1","1,89438206559681","0,294237600571523","2,22079478063217"
"9275","5,49383392063766E-05","0,999976363698359","-1","1,24467098101597","0,0627458243225738","1,3496620619105"
"9278","1,68765330395642E-05","0,999994540008553","-1","-2,38593821129811","0,0133804736793396","1,10015078658527"
"9298","5,18430974707083E-06","0,999998738740643","-1","-8,28488608293898","5,36310687773118","-4,1120496798737"
"9306","1,59257043437564E-06","0,999999708648781","-1","-2,44575602777489","1,71717860979792","0,822219923811861"
"9319","4,89222425392394E-07","0,999999932697797","-1","-2,84837864977087","1,93968866919178","0,2355015916394"
"9327","1,50284456084762E-07","0,999999984453175","-1","-2,95852181530633","1,98713867921638","0,0674527557147607"
"9339","4,61659494095707E-08","0,99999999640868","-1","3,91708985099356","-1,5762449998623","0,0193199299496963"
"9347","1,41817386868338E-08","0,999999999170404","-1","0,0715758437427734","-0,336132403399796","-5,13520138763456"
"9360","4,3564946622747E-09","0,999999999808363","-1","0,0195805937744341","-0,071679842045617","-3,61156791595049"
"9376","1,3382735475198E-09","0,999999999955732","-1","1,73179227630393","-1,80203681163465","1,9655687391069"
"9412","4,11104850764606E-10","0,999999999989774","-1","4,65306367398848","2,40246892583847","0,56298145195791"
"9417","1,26287483329105E-10","0,999999999997638","-1","-3,45352373659509","-2,27442747946219","1,87482842405142"
"9425","3,87943085953292E-11","0,999999999999454","-1","-1,67119644128611","-1,27177017003562","1,25056980536346"
"9438","1,19172410417556E-11","0,999999999999874","-1","3,99569180851984","-2,84470584014875","-2,35538807086856"
"9450","3,66086261592515E-12","0,999999999999971","-1","2,54594998198031","-2,18013253284854","-1,38821249489892"
"9458","1,12458202747773E-12","0,999999999999993","-1","-1,30351903993842","1,53508928620837","0,602385879234417"
"9477","3,45460856964258E-13","0,999999999999998","-1","-0,356596240625547","0,327355995579098","0,172536360689388"
"9478","1,06122275457442E-13","1","-1","-0,0975519919020745","0,0698082833385342","0,049418150036605"
"9487","3,25997493528776E-14","1","-1","3,42618471083918","-3,55861580343401","0,0141544283377864"
"9511","1,00143316121848E-14","1","-1","-1,0627182648351","-0,545621828751307","0,00405413479503235"
"9519","-3,38561910376769","6,30699926793553","-1","-2,01715747662559","0,883646782916621","-3,42599549730232"
"9527","-2,4256489534047","4,5329173938505","-1","-1,27825794727631","0,188436643367122","-2,40843599085803"
"9540","-2,13075529273656","4,12310404802276","-1","-1,07612143350633","0,0401838938928367","-2,11698491260581"
"9548","-2,0401667769693","4,02843706513329","-1","2,4320473460016","-1,77818200072799","1,39364967698187"
"9560","-2,01233885021658","4,00656896898505","-1","1,39175699344298","-1,16594640186647","0,399171447458218"
"9569","-2,00379037692727","4,00151743343852","-1","1,10717071774198","-1,03538787618663","0,114331346749174"
"9584","-2,00116436758682","4,00035052749458","-1","-0,6971176457107","2,56595591501753","-1,68083137105644"
"9589","-2,00035768260077","4,00008097193678","-1","3,26216496766269","-5,81306640839743","-1,19500484831175"
"9597","-2,00010987667841","4,00001870453716","-1","2,34528324384049","-3,59988312277626","-1,0558536114546"
"9617","-2,00003375306608","4,00000432075265","-1","2,09445716014269","-3,12792437459619","-1,01599768385006"
"9618","-2,00001036861949","4,00000099809492","-1","0,2994043791267","2,33297378403886","0,708996261560571"
"9626","-2,00000318514087","4,00000023056017","-1","2,53477779253893","-1,28924723720274","0,203071882872671"
"9638","-2,00000097844485","4,00000005325946","-1","0,419860373532259","2,51182070307311","1,77174252949796"
"9650","-2,00000030056891","4,00000001230295","-1","-2,61157692684051","-0,464357171691527","-2,20611291649903"
"9659","-2,0000000923319","4,00000000284198","-1","0,28556585237164","3,47447871426805","0,368121486568791"
"9675","-2,00000002836348","4,0000000006565","-1","-3,37475083547966","0,527679692853089","0,105437965552692"
"9687","-2,00000000871299","4,00000000015165","-1","1,07678873563917","-0,887472922420391","-3,39695697267106"
"9707","-2,00000000267655","4,00000000003503","-1","0,29457092939356","-0,189252563143082","-2,40011872856424"
"9720","-2,00000000082221","4,00000000000809","-1","-3,37228736811619","-0,0403578878311513","-0,401024323920981"
"9740","-2,00000000025257","4,00000000000187","-1","-2,37540879844093","-0,00860627239674629","-0,828440395343459"
"9749","-2,00000000007759","4,00000000000043","-1","-2,10269843563475","-0,00183527752683395","-0,950861614043195"
"9757","-2,00000000002383","4,0000000000001","-1","3,15121255306376","-3,57389370902857","0,727652642497605"
"9769","-2,00000000000732","4,00000000000002","-1","5,04136635239365","-2,33563099337845","-3,21874121491784"
"9777","-2,00000000000225","4,00000000000001","-1","3,55844490544415","-2,07157291694477","-2,34907387621923"
"9797","-2,00000000000069","4","-1","3,15277057547796","-2,01526284086109","-2,09998231746592"
"9798","-2,00000000000021","4","-1","3,04179257166525","-2,00325478296952","-2,02863710087425"
"9810","-2,00000000000007","4","-1","3,01143295455247","-2,00069407866302","-2,00820228583681"
"9818","-2,00000000000002","4","-1","-2,17617952819468","-0,213396842342611","3,13838572166496"
"9829","-2,00000000000001","4","-1","-4,04819642483502","2,74124454197794","-0,101098366475996"
"9839","-2","4","-1","-2,56031336925723","3,15806953197237","-0,0289567614791687"
"9851","-2","4","-1","-2,15328172042566","2,24695697376991","-0,00829384355641945"
"9859","-2","4","-1","-2,04193240266209","2,0526632859339","-0,0023755364006381"
"9868","-2","4","-1","-5,46434265806015","0,224479215034844","1,71289793958245"
"9888","-2","4","-1","-4,40059183706019","0,834621099283673","1,20418940795034"
"9914","-2","4","-1","6,2490267368998","-0,822018026350657","1,05848426822994"
"9921","-2","4","-1","-0,290489533584211","-3,74879672132252","1,01675116091831"
"9927","1,38561910376769","2,23100024402149","-1","1,64696816682901","1,20057348197425","2,71837623988991"
"9941","0,425648953404702","2,8223608687165","-1","-0,549448348104744","0,256020891415561","2,2057585117929"
"9947","0,130755292736563","2,95896531732575","-1","-0,150309438795251","1,84134732489583","0,345355348899277"
"9948","0,0401667769693039","2,9905209782889","-1","-0,0411192925938804","1,17941633339737","0,812495595366141"
"9957","0,0123388502165822","2,99781034367165","-1","-0,0112487694516931","1,03826032333762","0,946294678039478"
"9976","0,00379037692727","2,99949418885383","-1","-6,90882016294043","-0,778592199900009","0,984617632782998"
"9977","-1,69164518429703","2,99988315750181","-1","-4,79574927790034","-0,166033876360329","0,995594156918515"
"9990","-1,21246679410158","2,99997300935441","-1","4,41449005286097","-0,0354065300201793","0,998738071131392"
"10004","-1,06526776968987","2,99999376515428","-1","1,93408249453807","-5,36780390849474","0,99963855624452"
"10023","-1,02004963541857","2,99999855974912","-1","-3,92377557605195","0,0685709230039635","-4,14083855927075"
"10026","-1,0061590564888","2,99999966730169","-1","-2,5262762700112","2,80137383828372","2,52755250996997"
"10046","-1,00189200332277","2,99999992314661","-1","-0,417534660688719","3,17089203411117","-0,276054226112028"
"10046","0,692228346535287","-0,537999529710175","-1","4,33864888415878","-1,32381098088167","-1,79264625305985"
