Timer,AX,AY,AZ,GX,GY,GZ
"0","-1,99980793844559","-2,99994453102562","-0,999997750005063","2,99979334423652","-3,99969026398596","0"
"9","1,55891598742396","2,06095656995108","-0,999999375771668","8,44874685952371","-7,51005179515431","0"
"0","0,361413931767156","0,715192830234881","-0,999999812375521","6,46564292183202","-6,39346422548462","0"
"21","-1,68354720711399","0,251149297726773","-0,999999943210767","6,08865278810482","-6,10294154117361","0"
"21","-1,15890903431959","0,0883228587268293","-0,999999982800364","-1,22153546060837","-7,76523831232351","1,73517438048959"
"21","11,3357052856872","-3,2654574716848","-0,999999994790478","8,62504385149693","-0,247094581583737","-0,540471755594205"
"51","9,00796005810744","-4,09337356174532","-0,999999998422102","-4,35782046231982","1,19704061660496","-1,8783024232965"
"51","7,46680838493543","-3,38459066279858","-0,999999999522075","-0,829714460633467","-0,425019044919331","-1,23260221505304"
"60","7,10852310912696","-6,4317847246867","-0,999999999855242","-9,20599156225785","7,84194144019348","0,673568010328406"
"68","3,49018717501199","-2,20711979277784","-0,999999999956155","-9,42001342533769","6,74375603342231","-1,55678634269265"
"73","1,1139581850002","-1,07285375473699","-0,99999999998672","-7,46076247322499","1,97976724580558","2,32288223786248"
"84","0,794013955854297","-1,67387913875637","-0,999999999995978","3,76989240435021","-4,22017398529531","1,3503409907657"
"84","1,71963366703121","-1,88528798267785","-0,999999999998782","-0,0918284178779624","-1,84274214677127","1,09278135747671"
"90","-1,60022142244877","1,33685570771639","-0,999999999999631","4,60172285604189","-4,69713749255432","-0,710596988521554"
"98","-3,90705990808798","0,470234913883424","-0,999999999999888","9,73377270210217","-5,18244577769797","1,54697989994339"
"108","2,85921201263706","1,81365674828584","-0,999999999999966","1,28208783136093","-7,78604031845765","-0,5903108717246"
"108","1,43222760058042","1,28620127718532","-0,99999999999999","2,67291526099902","-6,46741929444506","-0,156332959760623"
"115","-0,667037274352654","1,100670425502","-0,999999999999997","-9,72949922215838","2,56913797374312","-0,0414019044509801"
"122","5,14749113519104","-3,90934864391035","-0,999999999999999","-8,71008419519515","3,41065442755924","3,45937231199651"
"131","3,49924641962419","-2,67160755641793","-1","-6,51599097895576","8,58405710194652","-1,08384897118975"
"136","4,88358534849348","-3,88448896052395","-1","-0,669432938817002","2,46138695961058","1,44813098832405"
"140","9,50797820773737","-4,95936934450959","-1","-0,746664475707676","-4,09413072384633","-2,35165760683305"
"151","7,58305206489106","-4,33745523805898","-1","5,47704425781452","-8,76292764864074","0,377206804703215"
"151","7,13554731429681","-4,11869884976537","-1","2,6620176131956","-5,98478459214982","0,0998962733801935"
"151","7,03151189322434","-4,04175195802757","-1","5,7452526224769","-5,25772504376639","0,0264556877310366"
"157","3,47228369071987","-2,36643307085688","-1","2,52268693004599","-5,06744845391964","0,00700630153297481"
"168","2,87731708239999","-2,77714476689936","-1","2,90912118572899","-5,01765173407158","0,00185548989200447"
"168","3,73899988791563","-2,92161135211475","-1","-2,44611304283956","1,94855232580226","-1,73467702952908"
"173","0,404280815665168","0,324079073408167","-1","-4,08493843331799","8,46312173664001","4,01093958837221"
"173","-3,67353431272469","2,7622468775999","-1","-11,4449820141473","5,16803030234176","-0,937776538928763"
"179","-5,15658252954415","-1,67664114662105","-1","-7,84630972904347","4,30568173303193","-1,98352126260627"
"190","1,80120326310797","-2,88625951051078","-1","0,0772788144938459","-4,61146582942461","2,20986935556628"
"190","0,418741789144601","-2,31173907714795","-1","-6,03330307207176","3,26973296106444","1,32041161079547"
"195","0,0973486388612603","-2,10965326867414","-1","3,85127924659517","-2,88258089836797","1,08485511254601"
"204","8,86023690687019","-0,39031714957994","-1","9,78128740533337","-10,1841495279162","-2,44786453032083"
"213","5,89742370670353","-5,73030507741667","-1","4,10073781220209","-8,83331429328057","0,351728173326551"
"213","5,20863209403551","-4,60862952850842","-1","4,01918014297422","-7,47979122565455","0,0931487272234931"
"219","5,04850256387981","-4,21408357855912","-1","7,6228585152543","-7,12556473325868","3,49500556812455"
"219","5,01127582366362","-4,07530324517938","-1","6,30898684088022","-7,03286117251689","2,39592468395629"
"219","5,00262139130641","-4,0264876865975","-1","6,05883006247293","-7,00859999962697","2,10485335888249"
"219","5,00060941821957","-4,00931696289604","-1","6,01120104739965","-7,00225068029894","2,02776848050766"
"219","5,00014167688946","-4,00327721325479","-1","6,00213264201287","-7,00058901884044","2,0073539705158"
"219","5,00003293689024","-4,00115274975732","-1","-15,7148340326515","10,3827756210688","0,266779141771967"
"234","-2,07007666322979","-4,00040547620789","-1","-11,4688786319063","6,67041720535036","2,54098838482506"
"238","-5,01629134697852","-4,00014262501824","-1","-8,66046290529625","4,69886693659676","2,14327080771651"
"264","-4,46874523456821","-4,00005016791474","-1","-2,69693991104916","4,18289838534951","0,302774212265609"
"264","-3,34145230575447","-4,00001764641085","-1","-4,56150505139339","4,04786579191506","0,815352594304241"
"271","3,99070385712009","0,944752951671371","-1","-6,72611536642647","-2,94064509467563","-2,51923730754342"
"282","-0,0722454776185048","-1,96419213932761","-1","15,5769901400597","-7,72275938157923","-3,13751043559345"
"282","-0,0167955506050876","-1,98740469432681","-1","11,4426336151619","-8,45085822885104","1,16908815986537"
"291","8,83370078898912","-1,99556963968184","-1","12,2746726218623","-11,8562857419465","-3,16072538131191"
"294","7,65877569877056","1,29806447154475","-1","14,052296749783","-11,4858030150956","1,16294010915398"
"302","9,92067254300335","-1,19166283792773","-1","8,77154376629587","-6,91225912934455","-1,42718515743894"
"318","4,9114737181158","-1,06741681811088","-1","-1,09151400407914","-2,50045164367074","0,622036302436672"
"318","5,74694058569458","-1,02371365995274","-1","3,03059273952093","-4,34585064117945","0,164734855643735"
"319","4,17364794059876","-2,65659426040678","-1","-14,2806053050021","10,8158322754927","3,51396383548806"
"330","1,27284840558427","-5,52746113240051","-1","-14,8150129526482","12,7369230816822","0,665777009975809"
"330","2,59847366281046","-4,53727979011414","-1","-10,9167623838132","9,23968603720683","0,911487198096356"
"336","-0,628388569366226","-5,83723957881773","-1","-6,55534181575371","4,84784858778686","-2,49377782870589"
"341","-1,14608709588966","-1,99799036000022","-1","-0,486528546756976","2,22188792974271","0,339568882056952"
"341","-0,266441090174513","-2,64754616817951","-1","-3,33104677046337","3,53465558378793","0,0899285629273242"
"352","-0,0619419368632498","-2,87602544066844","-1","-3,87263353943165","3,87821609823029","0,0238159232412155"
"352","-0,0144001945790636","-2,95639232723881","-1","15,9298868892025","-11,6765084966563","-1,72886121330826"
"358","1,76417333840839","1,96009802450578","-1","14,1290306576015","-10,2238751160226","2,27731137831479"
"369","8,24773851269919","5,63421765485139","-1","10,7861536460496","-7,84371075867512","1,33827238811389"
"369","5,75503074158042","3,92657801805356","-1","2,91126766822829","-5,48251205366119","1,08958521039032"
"375","6,94304981139161","-1,61883816965534","-1","-1,82649767964645","-2,3879838159124","2,75889341449241"
"384","4,45171812148246","-7,16243359565896","-1","-5,96696573771064","5,11334084205189","0,465810518765698"
"387","1,33749386089512","-5,1123763626347","-1","-2,75529702660691","2,07649018576705","0,858529756651151"
"393","4,38102344852879","-6,03952804248136","-1","-7,57261605128006","6,49660397308202","0,962534212192014"
"396","4,08857991977412","-5,36565081535293","-1","-3,68021416345713","-0,561500138384021","0,990077876288007"
"407","0,485550803893518","-5,12861655799983","-1","-3,93911384482206","0,591344447593655","0,997372308318708"
"407","1,64792248663153","-5,04524048162113","-1","-0,369200799322159","0,893051972005996","-2,47103273942573"
"416","-1,61689276021351","-1,71940709546658","-1","12,787325441241","-4,24286798143746","2,08076092179172"
"417","3,15914867767749","-0,901302302456424","-1","-5,37493928630682","0,88961165220524","-2,18411722316498"
"419","2,26947763260085","-1,61353643911882","-1","10,8342495527224","-3,24376833729019","2,15674521076008"
"432","-1,47239429121445","-1,86406262230013","-1","-2,12759173202031","-0,58720993153168","3,04151108153376"
"444","-0,342300634502279","1,34432166342913","-1","0,404516980527651","-0,891969940116465","2,27582502338806"
"444","-0,0795776817933869","0,472861041012538","-1","0,886622022033915","-0,971727774648881","2,07304717623838"
"447","3,51654202666901","-1,48192562534219","-1","2,78801655173037","-4,46918691436102","-3,18616006657336"
"465","4,12008513244782","-2,81776892035071","-1","-1,46917096065769","-1,64620355623341","-1,57896422052911"
"465","3,26039618179803","-2,28764772115504","-1","-0,279725243808725","-1,90740898600466","-1,15332800821775"
"478","1,29301554300232","-2,10117920775248","-1","-0,0532587521256362","-0,237475304240429","0,69456232345383"
"478","1,83564101704446","-2,0355894774355","-1","-0,0101402885179699","-0,800441932018277","0,18394203624698"
"481","9,03187432152755","-0,364265437122144","-1","-0,0019306770647782","-2,68606722928512","1,78388208159369"
"486","4,93732578747911","-5,72114146709329","-1","3,61883908563002","-2,17954861205555","1,20759672875554"
"508","1,45038740658574","-4,60540625655289","-1","-1,31098512518976","3,16788979871173","-2,41535867439481"
"508","2,63974773800507","-4,21294980248914","-1","-0,249607189083803","1,56735198510162","-1,37483167139473"
"515","2,91624894323651","-4,07490444290808","-1","-1,85712771514904","-2,32810595535458","0,635901158767653"
"515","2,98052964478235","-4,02634740911608","-1","-1,16319425411727","-1,34757465561371","0,168406707426755"
"526","-2,3070896874231","-4,0092676207202","-1","-1,0310716409074","-1,090962728341","0,0445994140996417"
"538","-0,536349718666202","-2,35500680438091","-1","-6,43472595678992","0,714487392318576","0,0118113332207771"
"549","1,64283107680139","-1,12487255963568","-1","-0,844357009978345","3,66357232259932","-1,73204040782847"
"549","1,14944467441898","-1,69217659454082","-1","-5,39917611469672","-1,04121739443341","0,541301005367309"
"555","2,80226381658575","-5,18823016271651","-1","2,97201490126534","-5,48737283587426","-3,32698324418279"
"563","2,18650942556224","-4,41795633217083","-1","0,565861710530577","-3,65096293961054","-2,35142706674159"
"567","2,04335950980763","-0,850508758027936","-1","9,15575487991664","-11,8618264586333","3,1124362808449"
"577","2,01008017200788","-1,59566996493443","-1","9,41044852881286","-9,01066710527701","-1,91089700968375"
"577","2,00234342750089","-1,85777814455058","-1","7,45894134887387","-8,26449867922095","-1,24123429261082"
"577","2,00054479749429","-1,94997389653678","-1","7,08738089993977","-8,06922116188836","-1,06388645841712"
"587","2,00012665393304","-1,98240347083221","-1","-21,9370164092646","16,3179860158139","2,45341769208556"
"587","2,00002944436956","-1,99381047458592","-1","-11,4631647140773","8,70028940207266","1,38491090111278"
"600","0,232485765104617","-5,29432895916003","-1","-9,46897833447366","6,70668470026714","1,10193656139059"
"600","0,821569119656443","-4,45527625990932","-1","-3,66048188833207","6,18494434900508","1,02699602042472"
"606","0,958518581659249","-0,863635928675412","-1","1,68384979454962","-0,904770673602147","1,00714939869297"
"611","-0,777164635422782","-6,54504656587607","-1","7,74940939688619","-3,9750778164998","1,00189338653872"
"611","-0,180674395034859","-5,54346541265235","-1","3,9042716859151","-1,77859875812229","1,0005014285451"
"624","-0,0420029882129856","-5,1911622997472","-1","12,2201870089245","-8,15693667156226","-0,735035627732502"
"627","8,82784059112035","-1,77073464950564","-1","8,80350951087501","-5,82619249766077","-0,194660645292231"
"637","7,65741332629958","2,3771494929373","-1","6,34338218706353","-6,95451335601269","-0,0515522858973276"
"642","6,38531365994155","0,836155076907319","-1","1,44617214140955","-1,03492391724797","-3,48398951692253"
"646","2,55453514330831","-1,35413805732171","-1","5,32336304567752","-4,22401876584024","2,81249797980488"
"668","1,89643881125873","-4,42107308633816","-1","-18,4632761767658","13,3243024871639","1,48000670039369"
"668","2,74344528678751","-3,49985811970528","-1","-9,99217283621886","7,91682139841543","1,12712093199003"
"668","1,17283535728408","-1,52757051466822","-1","-4,76009637396997","3,02505966723956","-0,701502784810036"
"677","0,0401805771835566","-6,77858352956373","-1","-0,335116470798742","0,268265313763442","1,54938833226437"
"683","0,776862217275584","-5,62561132666118","-1","-4,30221841692441","5,02337882517505","-0,589673042792156"
"683","0,948125169281253","-5,22005687421538","-1","-2,2479380371113","0,791239471303657","1,57900437932758"
"683","0,987940195384024","-5,07740433369051","-1","-2,85680991418852","1,68365888068855","1,15333864353573"
"683","0,99719634964856","-5,02722673806685","-1","-2,97273708592315","1,91721130745794","1,04060891495965"
"683","0,999348210394494","-5,00957692199412","-1","-2,99480923221919","1,97833361774864","1,01075452303591"
"683","0,999848472656504","-5,00336865307391","-1","-2,99901169515194","1,99432975560493","1,0028481373079"
"696","2,76748585317746","-5,00118491343454","-1","9,66741155027318","-10,1695347827847","1,00075427669805"
"696","2,17842428219243","-5,00041678968316","-1","5,07905622974937","-6,35290355755521","1,00019975628831"
"697","2,0414798844097","-0,0553874457561121","-1","4,20544870204543","-5,35406436225961","1,00005290177308"
"705","7,31220643899738","-6,26074762952245","-1","-6,81850329362273","-5,09266113014651","-7,67582809916712"
"715","5,53753925554564","-5,44346412973022","-1","-2,91742693307685","1,92892184006923","3,70236675269984"
"715","5,12496654553815","-5,15598715377468","-1","-5,79388170390308","4,98139834637441","-0,0194963699755047"
"720","3,2615310074409","-3,40661495221068","-1","-2,53194574472611","4,51854586232225","1,73000516741654"
"721","3,82832152622329","-3,79127862099373","-1","-2,9108840331192","3,39741411669927","1,19332842054791"
"721","3,9600883738447","-3,926582892143","-1","-2,98303261755744","3,10400606532247","1,05119947071583"
"721","3,99072138825959","-3,97417575644743","-1","-2,9967694670548","3,02721911771455","1,01355923663035"
"721","3,99784291836433","-3,99091640116958","-1","-2,99938491731737","3,00712343426185","1,00359091403539"
"721","3,99949852399118","-3,99680487184285","-1","-2,99988289031163","3,00186425277318","1,00095098743101"
"721","3,99988341739911","-3,99887612342517","-1","-2,99997770270649","3,00048788804312","1,00025185150216"
"721","3,99997289700287","-3,9996046798459","-1","-2,99999575466979","3,00012768372725","1,00006669823078"
"735","3,9999936991245","-3,99986094734267","-1","2,42881082843859","1,26174043858453","2,73518608564315"
"750","-1,30256470509258","-0,703444982823958","-1","-4,96637255075024","3,54508526523028","2,19470049129815"
"765","3,99974440451984","-3,19219378389369","-1","-1,56478742583822","-0,333933312320881","2,05156283837796"
"776","4,99994057943884","-3,06760357673348","-1","-3,72674031955748","-2,82568567014367","-3,19184979767454"
"787","0,697422945700276","0,272726754100261","-1","5,90964777073979","-1,4777947614049","-1,58047104099591"
"787","1,69717829331765","-0,552322249770778","-1","2,74438387714038","-2,86333522168726","-1,15372706185997"
"794","5,4646424968866","-0,842530718078619","-1","3,95133154397747","-0,48764791345125","0,694456641447993"
"804","4,34049850572958","0,703642392089815","-1","4,99073368852825","-6,08079279220585","-1,55125437353084"
"804","4,07915872484277","0,247504063257762","-1","0,5694257051038","-1,06797213254207","4,05951569982952"
"814","0,483360574671622","-3,20944730718609","-1","-9,12999660784622","5,197090146986","-0,92491205067091"
"814","1,64741330450767","-2,42541939796388","-1","0,452075800439292","-4,11647096440313","-0,244945918033353"
"814","1,91803102585752","-2,14963997446489","-1","-0,723529617598214","-2,55389531505597","-0,0648694140352919"
"814","1,98094394142528","-2,05263540418003","-1","-0,947360962614854","-2,14495829387741","-0,0171794692929283"
"826","1,99556986808482","-2,01851434272895","-1","-8,22839106328794","8,39182125933257","-1,73971808781014"
"848","1,9989700877173","-6,95127152227473","-1","-5,61467487547117","5,14937046669739","-1,19590070858424"
"852","1,99976056710492","-5,68635380089565","-1","0,311777976895345","2,56250534585485","0,683287728029473"
"867","3,76746541698978","-1,94491674825746","-1","5,67856816554228","-5,8059603091699","1,91612458919313"
"867","4,9459406113002","-2,62887768727817","-1","2,70038709212758","-2,99604654162249","1,24261872074222"
"871","2,45239017152288","0,427047246323679","-1","2,13335136301508","-3,99896535217804","-0,67091532314143"
"884","2,87269225854388","-2,14629354067258","-1","7,45419967426011","-10,2146081568296","1,55748885800981"
"896","2,97040363377018","-2,05145830630996","-1","3,65766808078883","-4,3646995760866","-4,05786461146598"
"906","2,99311946874565","-2,01810030214673","-1","2,1252178059397","0,381141513992576","0,925349311007901"
"907","1,23087934143497","1,2901393798069","-1","-13,4529856683609","9,05291931948836","1,9802301402239"
"925","-1,71384650016442","-4,49095657058024","-1","-0,18061021774206","0,10750554040612","-0,475572526855268"
"933","-0,398433183248705","-5,17269247485333","-1","-1,65359426230602","5,98130686349464","1,6092217990314"
"954","-0,0926273160977169","-4,41249099790018","-1","-3,74364884460191","6,25681489775374","-0,573827251361785"
"962","1,74598718169011","-0,848586343383431","-1","-1,33198491614259","3,59062430802911","1,5832008452792"
"975","2,94094737435618","0,0532592914619801","-1","-5,49201883933012","3,89286350642452","-2,3158868434545"
"1002","5,75379258946313","-5,57427841848098","-1","1,14473461654694","-2,9812102813473","0,386680032420548"
"1002","4,40771980694347","-4,55374762756379","-1","3,02755698757007","-4,2567896215275","0,102405083226792"
"1002","4,09478626034388","-4,19477903745158","-1","1,3860400782971","-2,59061769306319","0,0271200998020011"
"1023","4,022035807427","-4,06851293177991","-1","1,07350074151565","-2,15456879809789","0,00718225883027329"
"1028","4,00512286070996","-2,37584616167531","-1","-6,22441906450057","-2,04045173997669","-3,46843475475013"
"1029","4,0011909571247","-4,42870884577156","-1","0,00528805992587778","3,20429242699213","2,81661737201881"
"1050","5,76779795251662","-2,50254397477466","-1","-0,808596511099782","-0,161414168570568","-0,254070776310692"
"1054","5,1784968387097","-2,82502136181754","-1","2,65564926508449","5,17263570992734","-0,0672859646533162"
"1078","3,27397567217986","-2,93845179821408","-1","3,12483343017253","-5,12287086232138","3,45251739548408"
"1078","3,83121464844044","-2,97835060792318","-1","2,21416452810799","-2,81727723614314","2,38467247414301"
"1086","-3,10932335658955","-2,99238489243071","-1","-3,38803380930979","1,26269876196786","-1,36846342529095"
"1093","1,04466894450165","-1,3490683562466","-1","3,97413635899519","-3,14612882052812","1,37275609327883"
"1109","-0,757136492119379","-1,77103678154818","-1","-3,05294105109803","4,65322194714405","-0,636450837395671"
"1130","-0,176018273911894","-1,91946288691463","-1","0,418730220838448","0,956073839620745","-0,168552279685291"
"1130","-0,0409205382033513","-1,97167131634511","-1","0,0797248354688973","-0,749788761801963","1,69053045561483"
"1130","-0,00951316252362584","-1,99003547200943","-1","0,0151793423885567","-0,196224984622381","1,18287427032427"
"1144","-0,00221160974841497","-1,99649500770017","-1","0,00289009609105964","-0,0513534565355672","1,04843088161384"
"1150","5,30204908762627","-5,29527323548732","-1","-5,42825975549922","1,72485341692029","-0,722342395036224"
"1182","3,53517788546974","-4,45560840622465","-1","5,58568415329188","-0,548593747394095","-0,191299076445392"
"1186","4,89193865686401","-4,16025886595616","-1","2,6827022864321","-7,09674274496253","1,68450638553089"
"1186","2,43983585548256","-5,70462361975769","-1","3,93958757512604","-4,81043932433631","1,18127890633702"
"1207","8,17233688498247","1,34516300456236","-1","3,17889433603706","-0,735511708490621","-0,687160042994066"
"1208","6,50502253270004","-0,175096072726563","-1","-2,39474913607599","1,80751142049489","-0,181981678630878"
"1208","6,11740709293201","-0,709842561942459","-1","1,35365110311382","-6,48013347593771","-0,0481944951470325"
"1208","6,02729467415454","-0,897938006989014","-1","-4,36147603132044","4,04239653744381","-1,74793184605359"
"1224","-4,59878104417697","-2,61235305845906","-1","-2,44961714892177","1,79621654016305","-1,19807597114243"
"1224","-1,06911965005001","-2,21539331885164","-1","-3,89520894345946","6,42325439170589","0,682711649813286"
"1224","-0,248547781497527","-2,07576394232875","-1","0,448761887300131","-2,31898921609733","1,91597202548999"
"1230","1,7097389603022","-0,378396682499152","-1","1,08544276445602","-4,08348171806813","-2,22775852663492"
"1241","1,16499934690866","-0,781352930770654","-1","0,206664676922251","-2,54526179761136","-1,32514922820145"
"1245","4,57340103013631","-0,923091560909314","-1","1,8489516042635","-3,88099181887379","0,649058638605105"
"1246","1,59826149197979","-0,972947691344715","-1","-0,647965790134042","-3,23056174607831","3,64222806726751"
"1260","3,67412534566007","-4,28699053884722","-1","-1,93297386225243","2,15453930328006","0,699745428898744"
"1260","3,15671993224259","-3,45269499296786","-1","-1,17763510719603","0,563858066688536","0,920483108087132"
"1266","6,57147624075726","-1,51098102882331","-1","8,01419556913603","-1,59072736119697","-0,756227005820665"
"1266","5,36533509911451","-1,82798906982155","-1","4,76428942876043","-1,15459749901868","-0,200272791394589"
"1278","5,08493270924713","-1,93949568044434","-1","0,526311474378545","4,17441968022156","1,68212986243898"
"1278","5,01974506451075","-1,97871779031079","-1","1,71941462691105","2,56906090095116","1,18064952797607"
"1284","1,46954815108977","-5,28902015354292","-1","0,136974142084983","3,88722021135551","-0,687326722258653"
"1291","0,876681127101414","0,491350255001688","-1","-2,78352392089443","-0,244394194155312","1,55314260128187"
"1305","-1,79619011846652","-2,12367515368166","-1","0,470026342563255","-4,54054563124297","-0,588678793803435"
"1305","-0,417576338693007","-2,04350235773789","-1","1,89909478576113","-2,66487863358344","-0,15590073398909"
"1318","-0,0970776961990658","-2,01530182152534","-1","1,17118464418981","-2,17400340775596","-0,0412874374177859"
"1318","-0,0225685179596502","-2,00538236900639","-1","10,0806096847254","-10,7370027995287","1,72423420463612"
"1324","-0,00524670467921504","-2,00189323186609","-1","8,58653779458966","-4,5014139227835","2,92696850921274"
"1331","5,30134349203494","-2,00066593852902","-1","0,0636581367893987","-1,39293056780683","-2,96001473234191"
"1331","1,76749276927816","-0,351981188930358","-1","-1,17827636332919","6,11204624234079","-1,51907379477231"
"1346","3,71346805022128","-4,06856746738041","-1","-4,84354656417369","-0,40043457435632","2,33286971144264"
"1346","3,1658662817053","-3,37586534440629","-1","-2,54140176823865","-0,104796540303564","1,35298598915577"
"1354","3,03856041402023","-3,13220948741028","-1","-2,10308108836512","-0,0274259905684969","-5,84719185080716"
"1365","3,00896448340268","-3,04650428357235","-1","1,59958038516559","-1,74547055148416","-0,283689467467212"
"1382","6,53712621360023","-4,66461079268716","-1","2,11415810270868","-6,40997381008683","2,66003849247026"
"1385","0,0547862016303395","-4,233774817328","-1","3,02173532146227","-2,89241409385613","-0,295537808087207"
"1413","3,3152998772528","-2,4339765253865","-1","-1,42467168753248","-2,97184401280178","5,12723752141623"
"1413","3,07330057491129","-2,80090297082579","-1","-0,271252730835363","-2,99263138041477","3,56335966990627"
"1419","3,01704083848411","-2,92996822781411","-1","-9,0996623141906","3,95510032806859","-3,79147825693182"
"1430","1,23644055563452","-4,62361959084878","-1","-5,78056201155585","1,77337050910082","-1,73927159216741"
"1433","3,59000960517792","-2,5711032343098","-1","-3,3390130598389","1,20239649350172","0,5393859594069"
"1455","-0,397877364433305","0,447369233774858","-1","1,55465972582093","-5,90020332482347","0,142846434864144"
"1455","0,675022980150768","-0,490892290713739","-1","-0,513601320888013","-3,7590035778178","0,0378302467788246"
"1461","0,92444969343008","-0,820922917520698","-1","9,95022872419212","-6,67522252097525","-5,19548662157989"
"1483","6,28499938660165","-0,937010182944869","-1","2,3233003349935","-5,43841749858643","-0,11109734311937"
"1483","4,53121418939076","-0,977843524153363","-1","2,87115864399165","-5,11473693832321","-0,764590506552516"
"1489","2,35597502089949","-4,28871263309111","-1","2,97546903615223","-1,55344150825303","2,53268071135313"
"1489","2,85027776846405","-3,45330073436074","-1","2,99532938641796","-2,62142548373725","1,40590225159471"
"1489","2,9651927373261","-3,15944714942315","-1","2,99911073077405","-2,90092439041957","1,10749573386632"
"1489","2,99190804516857","-3,05608504803113","-1","2,99983068610958","-2,97407121717902","1,0284682648447"
"1507","2,99811879108083","-3,01972774442211","-1","-4,23844559698842","5,69825063027635","1,00753929550614"
"1510","2,99956265858235","-3,00693917387337","-1","-1,61658922510512","2,96785816222644","1,00199664352707"
"1521","2,99989832733959","-3,00244083322525","-1","-1,11739652902284","2,25329527818355","1,00052877425628"
"1521","2,99997636324972","-3,00085855563533","-1","-4,64155858711059","-1,41029680113019","-2,47019680757009"
"1521","2,99999450495383","-3,00030199432363","-1","-3,31254727210253","-0,369084577167692","-1,38935454074659"
"1527","-0,53504343766363","-3,00010622558137","-1","-1,24990461663835","1,64170095127082","0,632055044357868"
"1533","2,41065583968859","-3,00003736452395","-1","3,5716256757799","-0,570355331622386","0,167388134877848"
"1542","-1,43957333411595","-1,35176008994306","-1","3,2992322793644","1,58902698133442","3,51466650761492"
"1553","3,2003717063356","1,52452251517007","-1","-4,99104387369548","2,89244547481072","-2,80437374394678"
"1553","2,27906111777869","0,536246140474678","-1","-2,56948476332361","2,23355924827438","-1,47785514619009"
"1554","2,06487582724989","-3,10788316302982","-1","8,74919204345303","-1,41546185876072","0,608617289350632"
"1559","7,31764550251913","-4,0379475732377","-1","6,7138336425947","-5,58531524045385","0,161181077230882"
"1565","5,53880372315849","-1,71684183720733","-1","-1,9121051589246","-1,93830217758087","1,77785426089714"
"1565","5,12526050760304","-1,90039998069525","-1","0,445544904309728","-1,98385324657797","1,20600037148764"
"1576","-2,0409638928476","-1,96496599727986","-1","-0,915169738360482","3,21910465019766","-2,41578144020937"
"1585","0,293039998707351","-5,28418300232734","-1","-0,174245261473623","1,58075527141003","-1,37494363313259"
"1595","2,60316778257096","-1,15520134473981","-1","-5,46198573593906","-0,586305244054713","0,635871507763923"
"1595","2,14022379461624","-1,70284465211002","-1","-3,46875386097399","-0,153440199906656","0,168398854904643"
"1602","2,03259907631798","-1,89547651356947","-1","-3,08924916946938","3,43642957638313","0,0445973345038184"
"1602","2,00757859805245","-1,96323418274929","-1","-3,01699274377052","2,37592370797811","0,0118107824781333"
"1603","2,00176186428966","-1,98706773602495","-1","-3,00323536165734","2,09838187443609","0,00312786816292434"
"1618","2,00040959630709","-1,99545111562787","-1","13,2858140583724","-6,66571765825628","1,73599678010728"
"1630","3,76761630259769","-6,94315910255197","-1","5,57759132170324","-3,9593440549744","1,19491518879249"
"1641","3,17845460893275","-0,738741123282177","-1","5,10997145846996","-3,25106707652234","1,05161969705421"
"1641","3,04148693473754","-1,5563560406296","-1","1,40173151828821","-1,32741303999033","-0,721497896010707"
"1641","4,77716591786875","1,45255651412995","-1","6,314901699469","-3,56227224622742","-0,191075426435714"
"1649","2,4131536130859","-1,13732073359933","-1","3,44074955169773","-1,40885761845137","1,68456561511591"
"1655","4,6310916659081","-1,04830214881515","-1","0,274313902471598","-0,107000910097067","-4,0242106733348"
"1655","4,14671550885413","-1,01699013338341","-1","1,67143513090378","-0,766295866768025","-2,53607490713657"
"1667","4,03410826303236","-1,0059762275482","-1","1,93744234634628","-0,938837987062623","-2,14196956366604"
"1667","4,00792945214975","-1,00210211979517","-1","-8,86953080859394","7,70747141403572","3,16790724194071"
"1667","4,00184343047125","-1,00073941422036","-1","-4,92714240149306","4,97027130609251","1,57413029617587"
"1667","4,00042855872488","-1,00026008669464","-1","-4,1765248165448","4,25392681488047","1,1520478324026"
"1680","0,465057470688249","-5,94485064344333","-1","5,0144069647676","-2,88671747782861","1,04026706741016"
"1691","3,41067929875324","-4,6840952763691","-1","1,76432967778261","-0,755474236950073","1,01066399100989"
"1691","3,0954742798033","-4,24062842497867","-1","4,76473249784713","-0,197712913396917","-2,46751268212229"
"1698","3,0221957574478","-5,73289336678249","-1","3,33599917330008","1,68655011919822","0,346524722277147"
"1709","1,23763896562742","-0,313033845562678","-1","-0,555233559751395","-7,5117898979809","0,0917706890702296"
"1709","1,82276713014806","-1,40661480533955","-1","0,703888724776985","-4,91906007909778","0,0243037764148009"
"1712","1,95879709384438","-0,143025516418086","-1","0,943621402223203","-2,50223149998326","0,00643640746304744"
"1715","5,52546335306104","-0,698561841669607","-1","-0,820337636756818","-4,60802346493251","0,00170456394608468"
"1722","2,58711699259037","-0,89397004807211","-1","-0,15618954607199","4,53234087488365","1,73561984420534"
"1731","-2,39854983588338","-0,962704288109708","-1","-3,64894464798623","7,13931734551058","2,92998378610815"
"1731","-0,557612275195","-0,986881347203197","-1","-2,31395355342346","4,82158139629504","2,24628907373318"
"1737","-0,129633099465548","-2,64363860684302","-1","-2,05977570795211","4,21501362125858","-4,87544856330275"
"1737","1,73738411714236","-3,87465096789778","-1","-0,20177775509309","0,579684620405966","0,708827262769121"
"1743","4,70646842329282","-6,60416191355205","-1","2,77118552942482","-1,84829246379791","1,92288826448356"
"1754","3,39671793590659","-2,26775294989495","-1","4,95643448905364","-0,483711118068479","-0,490758466301924"
"1754","3,09222855724824","-2,74243433561294","-1","3,37249859213208","-3,60317655091944","-0,129968339123453"
"1759","1,25392011528326","-4,55765511679189","-1","10,3093358479682","-5,89614851654152","1,70074870148524"
"1770","3,59407323432555","-4,19615348485834","-1","7,63008649211489","-4,49623538315767","1,1855803845041"
"1770","3,13810950386308","-4,06899638945917","-1","5,31036302353269","1,08501064666859","1,04914754610275"
"1776","1,26458646819669","-4,02426926935221","-1","0,439885402958847","-2,19263104818005","-2,45732102149405"
"1798","1,82903185643962","-0,712030535574298","-1","-10,1546606487039","10,1176379418763","-1,38594462600009"
"1798","1,96025351064617","-1,54696067294849","-1","-5,17182683065554","6,33932178982541","-1,10221032438388"
"1799","0,223238698994217","-1,84064479979981","-1","3,01530144558942","1,87392396397473","2,4432683221806"
"1806","0,819419371714767","-5,24045340065568","-1","0,574103323990776","-0,771287961185307","3,11739144930901"
"1825","6,26058205085154","0,508433462059648","-1","0,109307355355587","0,536441501056803","2,29592054093692"
"1829","2,75801659345789","-2,11766618775258","-1","3,64001843546257","-6,07448842325259","-1,39196773982619"
"1833","2,9437439590111","-2,0413887223172","-1","0,502650692325627","-5,54290818919951","1,36653140856702"
"1833","2,98692165635252","-2,01455835671886","-1","0,905306352989011","-4,40378990873617","1,09706909137402"
"1843","-0,538082599386599","-2,00512085753044","-1","0,981970645890368","1,10920427655598","1,02570696065861"
"1843","0,642428218563184","-2,0018012460028","-1","0,996567271196421","-0,448006428186537","1,00680801496078"
"1849","2,68439317855211","-6,94539274152495","-1","-9,85827362038252","4,35933952574596","2,7369713991916"
"1871","2,15910698694315","-4,03603290480016","-1","-7,73460241050445","2,61745572319042","0,460004876857255"
"1871","2,03698902047458","-4,01267446425809","-1","-6,33026250530595","2,16159249906181","0,856992239342338"
"1877","2,00859916752844","-4,00445820410873","-1","1,17553248227133","3,78058286898899","0,962127029056681"
"1877","2,00199912517913","-4,00156815968473","-1","-1,39538922180423","3,20428401873582","0,989970041335679"
"1877","2,00046475446241","-4,00055159538165","-1","-1,88488412726012","3,05346256236049","0,997343750218103"
"1888","3,76762912570606","7,53757734840768","-1","10,6891410580083","-7,41576633483193","-4,20620872435801"
"1904","-0,3565845701461","-5,29343933801682","-1","6,08319345544456","-4,1556370611184","-2,58427373821011"
"1904","0,684622684366697","-3,80671028547396","-1","3,39663307595197","-5,04073131191142","3,05077112937185"
"1916","2,69420250238826","0,0127482257301421","-1","-1,54368906720658","-0,795780738946585","-1,9272278890655"
"1927","0,393866367863001","-2,29202195634701","-1","-1,29391324240163","1,79173859196382","3,95994604036616"
"1928","0,859086707880038","-2,10271783162709","-1","-0,24635675962184","3,94549652692697","0,783887181122529"
"1928","2,73476171013769","-5,33263678951445","-1","-5,47571552433067","0,770857126895935","-0,792401920728187"
"1928","2,17081660876358","-4,46875092228597","-1","-3,47136796682561","0,940031700871172","-0,209853051199155"
"1928","2,03971126070794","-4,16488170585775","-1","-3,08974688649229","0,984305874969232","-0,0555757147296231"
"1928","2,00923203099762","-4,05799663666577","-1","-3,01708750742929","0,995892737261862","-0,0147182042389141"
"1939","2,0021462525949","-4,02040013988843","-1","-1,19365006429415","-0,739367876646883","-1,73906626710163"
"1948","3,76802003857573","-2,35892263401171","-1","-1,84647366548853","-0,193497765792917","-1,19572808587733"
"1951","3,17854846903685","-2,77450299366779","-1","5,26764426149496","-7,00381163278941","-2,7870033997175"
"1962","1,27398767514255","-2,92068211644565","-1","-0,997058126792348","0,428760331792035","1,26191349133067"
"1962","1,83121743887624","-2,97210017661045","-1","-0,18983653711996","-0,626083387191378","0,334194541403641"
"1968","7,26332485276225","0,306319783529853","-1","-3,65535092269923","-2,6404363736089","-1,64666315403487"
"1968","5,52617531717424","-0,540506004225555","-1","-2,31517328673155","-2,16760669666614","-1,17125682361746"
"1968","5,12232466941965","-0,83837438978207","-1","-2,0600079411","-2,04386384959529","-1,04535421486835"
"1976","5,02843790702495","-0,943148685034959","-1","-2,01142531155608","-2,0114794774886","-1,01201122829955"
"1976","-2,06347310645282","-0,980002723523232","-1","-7,43098536130109","4,95016764869689","0,73198746929929"
"1979","3,82284924122163","-0,992966019049265","-1","3,58516520705086","-2,44279933916304","5,3993586622202"
"2001","3,19129510284746","-4,29403192450306","-1","6,11141350094301","0,360702257512048","-1,5700793244617"
"2001","3,04447207889393","-3,45517177887555","-1","3,59240273831129","0,0943983139510621","-0,415806585325046"
"2007","-0,524703339313843","-6,45661138944744","-1","-4,12562185746789","-3,45188125258039","-0,110118714198693"
"2018","2,4130596945847","6,02541276107062","-1","-1,59510796193704","-2,37996752015384","-0,0291629128655915"
"2018","2,09602767165515","3,41592664946692","-1","-1,11330656826407","-2,09944016848159","-0,0077232602377787"
"2018","2,0223244093878","2,49804787624746","-1","2,59763348794642","1,45056176384153","1,73312305864816"
"2024","0,237668874491476","-4,41782539168407","-1","-5,93422928025562","-1,35867077645929","-2,27618270708757"
"2024","0,822774083328473","-2,85046270011147","-1","-3,55866745449609","-1,09386666109276","-1,33797348033157"
"2024","2,72631979040287","-7,24390681711709","-1","0,512838262734266","0,713727412723539","0,645662371674834"
"2037","0,401332960291054","-4,14103431955184","-1","-0,711960647726749","0,186787476314882","0,170991784845666"
"2037","2,62834361331373","-0,753102285508343","-1","-6,37396828953413","1,78717657147682","0,0452840242321438"
"2046","2,14607664455514","-1,56140753559926","-1","2,78641772702827","1,20600963698351","3,48232948329346"
"2050","-1,50108241963106","-0,197473386718019","-1","-1,27907871158812","-2,42267178551251","2,39256765640565"
"2065","6,72111430075166","-4,01421981965128","-1","-2,86273899459758","-3,11061617463188","-3,10154095355795"
"2065","1,0975595534075","-1,7084956723221","-1","-0,354659282935031","-0,552363075455482","0,178614014558229"
"2069","5,32524377987486","-1,89746424267699","-1","2,74207739715525","2,59373568113033","-1,68786579048946"
"2082","-0,994471997709906","-5,26043946622284","-1","-0,477917622249845","1,41709182032864","2,28816826083701"
"2082","0,536327304182888","-4,44335573423038","-1","-0,0909939190089071","2,84744883569956","-0,394020788399347"
"2093","6,19476911275681","0,788810132753986","-1","-1,8269282783026","2,22178331181406","1,63081927462793"
"2093","4,51023755278418","-0,370791496887591","-1","-4,77665106230385","2,05804225025409","2,90222928587547"
"2100","-2,95146484519399","-5,72343698869228","-1","-5,14787176821137","2,01519006451388","-1,2313980380552"
"2122","2,84888880082001","-1,30970759343896","-1","1,21025906942045","-1,47261060772627","1,40905533609084"
"2122","2,19734875153781","-1,75719175339562","-1","-0,579174055552181","-0,385392537974801","1,10833077020948"
"2128","3,81340050469359","-3,56284599344382","-1","4,5089338743862","-0,100859933744459","2,76385783068271"
"2139","4,95661955087553","0,0985267459549906","-1","6,09689930981992","-0,0263957529857565","3,93746209663086"
"2139","4,22239387995174","-0,613596570818203","-1","4,39924262484684","-0,00690795392995539","3,24826956651084"
"2145","0,516659728824409","-2,51233682635598","-1","-1,35279555786031","-0,00180786005703782","-0,404587222584053"
"2145","1,655154655899","-2,18021291455036","-1","0,552035584231845","-0,000473129673268378","0,628020949187327"
"2153","1,91983072686762","-2,06338934251853","-1","0,91470907146008","-0,000123821358216091","0,901488200932842"
"2156","1,98136233397226","-0,374043954794498","-1","0,983760892081735","1,73826057222457","-0,761257457059235"
"2178","1,99566713553224","-4,07632797791739","-1","-6,24150523209745","4,66979393073635","-0,201605013734929"
"2178","1,99899270034842","-3,3785950802955","-1","-3,61717176941056","3,4369967983967","-0,0533913739512942"
"2184","0,232244743974361","-1,48491661076149","-1","-4,92711078356017","-0,36222082318101","-0,0141397218233618"
"2191","0,821513087324406","-1,81882099034073","-1","4,87149790364051","0,643497243892297","-0,00374464484514747"
"2194","2,72602663541383","-6,88102999521883","-1","-0,0724830701802635","-2,56988522922824","-0,000991700203968764"
"2215","2,16878588802645","-2,36514045236675","-1","3,60540614562916","0,327442987576029","3,47007421016079"
"2215","2,03923916094434","-2,77669009229171","-1","2,30566396799533","0,0856941294337291","2,38932207308121"
"2237","7,31168551802634","-2,92145142170959","-1","-5,180215961615","1,76071973263397","2,1031047790245"
"2237","0,234854912129085","-4,62062383030259","-1","-0,795899156972463","1,19908569645576","-1,44303144234653"
"2237","1,58964097648841","-2,57004948468348","-1","-0,961139881194026","2,79039510205633","-0,382160294203291"
"2255","1,90460017743896","0,44773988698891","-1","6,24581219701522","0,468558971895849","-1,8363765356673"
"2265","0,210300472200847","-3,78726802040561","-1","-5,43002489909106","0,860918150711116","2,24883792581865"
"2269","0,816411506724302","0,0195869831123663","-1","-4,46266862438884","2,70189428043284","3,06590014059926"
"2276","4,49236170555671","-3,93786949723012","-1","5,76952947953525","0,445397685348421","-1,18805282730079"
"2276","-0,18809952275928","1,6148664263269","-1","-0,901500857597844","-0,883436297780331","-0,314633905185063"
"2301","4,2588340663853","-4,37673482333063","-1","-1,98124609227842","-0,231201483375374","-0,0833249936510942"
"2301","3,29265238409839","-3,48426227105329","-1","4,24198404158045","-1,79880002903775","-1,75723551141377"
"2301","1,30051443007349","3,42267443622484","-1","2,42686627318417","-1,20905157745708","-1,20053987552239"
"2301","1,83738435021128","1,85216833672497","-1","-6,96674278757577","4,16016866547106","-1,05310929171751"
"2313","3,72971636946737","-6,94151765372464","-1","1,67355544249601","2,56533131030812","2,45627182615065"
"2313","3,16964367341397","-5,03466985449671","-1","0,318639366496904","2,14795117414825","1,38566676594151"
"2314","3,03943857796474","-4,36394196256096","-1","0,0606678711104549","2,03871986131445","1,10213673826606"
"2314","3,00916863800801","-4,12801547424724","-1","0,0115509600258716","2,01013325963002","1,02704903358256"
"2326","1,23461043497053","7,49274231815299","-1","0,00219926420817311","2,0026519452096","1,00716343825123"
"2340","-1,7129790995692","-3,66095687011724","-1","-5,42839128758231","-4,9524778758888","-2,46843973903378"
"2340","1,36928954919542","-2,58423650830497","-1","-1,65275425016661","-1,03439121780466","0,346279208332238"
"2343","2,85337311562139","-0,557250355258185","-1","-0,124282229001652","4,20587850820672","1,82687409107017"
"2355","2,19839126019937","-2,4925172170529","-1","-2,64286960138799","4,3155868743093","-0,516186051372198"
"2355","2,04612178589061","-2,17324142748557","-1","-2,1224002248894","3,34429832418445","-1,87187078845171"
"2360","2,01072234296814","-5,35744324905518","-1","-5,642511274091","4,82839826654036","2,23943792683834"
"2384","3,77001379880275","5,4120417987876","-1","-4,31272866052158","2,47850466693209","-0,406926119656214"
"2384","3,17901197626099","3,20017528605278","-1","-4,05954249243479","2,86352100894929","-0,107766886460869"
"2389","1,27409543080138","-4,17085421881976","-1","5,03668000855165","1,22598951242608","-0,0285400746142358"
"2395","5,36628464997665","-1,11533829112407","-1","-3,66023962921582","0,0591430424937989","-0,00755831300073714"
"2401","-0,984930860556502","-2,68882294469916","-1","4,92230928006539","-0,984521850426278","1,73316674188526"
"2401","0,538545417443019","-2,2422913678806","-1","2,55639792627323","-0,257656282412139","1,19416570530392"
"2402","0,892721537059917","-2,08522524895725","-1","2,10593630676703","-0,0674304585903299","1,05142121015913"
"2402","0,975060018806151","-2,02997772113534","-1","2,02016991897617","-0,0176470245675173","1,01361796023706"
"2402","0,994201980109494","-2,01054457188995","-1","2,00384028520458","-0,00461835026183878","1,00360646590083"
"2402","0,998652082598242","-2,00370902097062","-1","2,00073117747622","-0,00120865469753392","1,00095510605608"
"2415","2,76720771770893","-3,64955768971726","-1","2,0001392137493","-3,47690226770974","-2,47008390144673"
"2425","2,17835962155912","-1,5802268814","-1","0,190423165785588","-0,648222718388594","0,345843782205675"
"2437","7,34402809244736","-5,14885219289209","-1","0,845859274790495","-0,90793741492096","0,0915903546364728"
"2437","5,54493711916942","-4,40410525150265","-1","-4,45815789938447","2,50067937934469","-3,44608082552875"
"2437","5,12668639288304","-4,14214278851741","-1","-2,46802505367915","1,3927383326303","-2,38296786716384"
"2437","5,02945191578467","-4,04999829191126","-1","-2,08911040699469","1,10278237979426","-2,10142198464349"
"2437","5,00684694957088","-4,01758674653929","-1","-2,01696632385882","1,02689887061805","-2,0268597442527"
"2449","5,00159177144091","-4,00618608440437","-1","3,4255796887475","-0,731253353795945","4,93356037892246"
"2460","-0,302193186966519","0,942583222438864","-1","1,46182227118664","-0,191374138175698","2,77689942476174"
"2460","1,46478861447128","-0,316702282046979","-1","-4,34088060221619","1,68820902118992","-2,99975776480928"
"2461","3,64309571525969","-0,759652113759312","-1","-4,25529918805733","2,91840211118213","-1,52959900478129"
"2466","-0,385535962899303","-2,56371141769048","-1","0,380201907447146","-1,23623367198468","-1,14025454022532"
"2477","2,44541317594018","-2,19828377021005","-1","-2,54681750680902","1,41476194329364","0,698024590614221"
"2477","2,10354917405598","-2,06974571082805","-1","-2,1041122269001","1,10854611337352","0,184858953923059"
"2485","2,02407300014204","-3,67278589377027","-1","3,40898739987988","2,76670025731721","3,51929333219431"
"2488","3,77311754516262","-4,88490343709027","-1","1,45866315480527","0,462357864622131","2,40235685084473"
"2512","3,1797335318624","-4,31126208246226","-1","-0,722275407329007","0,859295277388098","2,10655679979051"
"2512","3,04178425735887","-4,10948548724968","-1","-0,137518825121419","0,963176585943403","2,02821960545162"
"2517","-0,525328201161224","-4,03851118589028","-1","1,78342021506356","-4,22451587749495","-1,46286340104422"
"2525","2,41291442737733","-4,01354619206556","-1","2,95876393233483","2,63270750383478","-0,387412423123095"
"2551","7,39855714036353","-0,708258725875355","-1","3,99214879044697","3,16558399716751","-0,102599043412374"
"2551","5,55761397333266","-1,5456339504019","-1","3,18890181587721","2,30504151778778","-0,0271714665840478"
"2564","-0,172929746025089","-3,48843118210859","-1","-4,20244708538717","0,341538530324242","-0,00719586237622743"
"2564","1,49483963960511","-3,17180417716822","-1","-1,60973522873298","-0,910616968038091","-0,00190569158927938"
"2564","1,88256086503436","-3,06043159481551","-1","-1,11609155100626","-0,238314855667774","-0,00050468731106474"
"2577","1,9726978767481","-3,02125662898388","-1","-1,02210344356032","3,41421728290792","-0,000133657137063859"
"2589","1,99365283187516","-3,00747695435042","-1","-1,00420842182734","2,37011059478191","-3,5396630540243E-05"
"2589","1,99852441720986","-3,00262999586626","-1","-1,0008012694596","3,83515351903158","1,73515904769991"
"2595","1,99965695810671","-3,0009250930168","-1","-1,00015255902883","4,9568585182374","1,19469333079697"
"2608","3,76744133008178","-3,00032539864443","-1","8,04798765350696","-0,964462337328087","1,05156094205113"
"2608","3,17841393151123","-3,00011445797976","-1","4,7707233287575","0,485886410184333","1,01365496565454"
"2614","3,04147747809452","-4,64829331315912","-1","0,527536467448456","-6,08771904557506","-0,731552155741497"
"2614","3,00964263930798","-4,22803519371988","-1","1,71964786150003","-3,80807775883447","-0,193738111907395"
"2614","3,0022417103714","-4,08021068321909","-1","1,94662188921901","-3,21147962450104","-0,0513079699251214"
"2615","1,23300007031528","-4,02821386294598","-1","-3,43897303414918","-1,31705272577936","-1,74875639249261"
"2626","5,35673084495755","-2,36167108724258","-1","3,96443770072519","1,65531805219137","0,536874084768296"
"2635","0,780369161262249","-1,12721670078679","-1","2,37402237690324","0,433208359319466","0,142181211139476"
"2635","-1,81858062025916","-4,9895072448626","-1","2,07121261130995","0,113373669994005","0,037654074529995"
"2659","3,11226050181524","-2,69980309958556","-1","-7,03445805689657","3,50625663993163","0,00997198798172823"
"2659","2,25857712011988","-2,89440665675459","-1","-3,76814733875237","2,3941979408942","0,00264089731453945"
"2665","2,06011372959875","0,333648241947503","-1","7,71136735263379","2,10316436952755","0,000699393003553638"
"2677","2,01397517492884","-0,530893302408584","-1","5,70663194779897","-1,44958711427328","0,000185221352881372"
"2677","2,003248933573","-0,834993151264705","-1","0,705730342534897","-0,379367128047466","3,47038589615406"
"2677","2,00075530856791","-0,941959344709107","-1","1,75357538014052","-0,0992830416508867","2,3894046173747"
"2688","2,00017559332007","-0,979584376694567","-1","1,95308157544864","-3,50256902353777","0,367958217514581"
"2688","2,00004082174539","-0,99281886682946","-1","1,99106688867518","-2,39323286578633","0,832615377284762"
"2694","2,00000949019528","-7,59048626998733","-1","-7,04971753479573","-2,10291180259423","-2,51466557748335"
"2716","2,00000220627035","-2,61468953110745","-1","1,65775732776491","4,92623916710066","0,334037146584121"
"2716","2,00000051291135","-2,86446821888684","-1","0,315631458218553","2,76581734058772","0,0884635846921209"
"2722","3,76752119933169","-4,60058016267451","-1","-7,17831818476838","0,462126799113425","-1,71174047110221"
"2733","3,17843249942819","-5,85950529161524","-1","-4,60514116664683","0,85923480592173","-1,18849135219847"
"2733","3,0414817947438","-5,30232836232978","-1","-4,11521685692944","-2,51342519415122","-4,52025530596208"
"2744","1,24212256274733","-5,10634307846696","-1","-4,02193690472961","-1,39607400187719","-3,40261161187579"
"2744","1,82380947196381","-5,03740585319446","-1","5,04383998684628","0,634637629281494","3,83404941882532"
"2756","1,95903941634388","-5,01315739466429","-1","1,7699336268787","0,166089124551906","1,75054578015554"
"2756","1,99047752775277","-5,00462807340477","-1","1,14659279094297","0,0434666903153059","1,19876822343584"
"2756","1,9977862259371","-5,00162791069102","-1","-4,40089924237321","0,01137553811584","-4,15286516323681"
"2764","0,231964264106318","1,59243959904099","-1","1,16208348346377","1,74127003535728","0,900190164956877"
"2779","2,58896896175824","-3,38462339136127","-1","-3,3979498662569","1,19399557408602","-1,49676963982069"
"2779","2,13692286808971","-3,13529010368912","-1","-2,26616498531664","1,05077000414137","-1,13156028769299"
"2779","2,03183168048439","-3,04758788094357","-1","-2,05067692420065","1,01328686663425","-1,0348413186122"
"2789","0,239879114607297","-6,31324499766853","-1","-3,81925205715178","-0,734815710833657","-1,00922708139306"
"2801","2,59080899765395","-2,1654238128773","-1","-4,96558619538838","1,54598654511321","-1,00244362252708"
"2804","2,13735063764734","-4,35469342698323","-1","3,05456897369081","1,14288851324123","-1,00064714841026"
"2819","2,03193112788912","-4,12476233009276","-1","6,01038975032778","-2,43919102688645","-2,73533980718022"
"2819","2,00742331412315","-4,04388476872144","-1","-0,046038526476345","0,361646578175491","-0,459572779769979"
"2831","2,0017257640495","-4,01543633342133","-1","0,800837758377059","0,0946454493005137","-0,856877806388798"
"2831","2,00040120376225","-4,00542968315515","-1","8,20049353459549","-1,71352359838025","0,773071698248432"
"2837","2,00009327141731","0,942849284269047","-1","-7,0578601011439","0,551558840473711","0,204733797873763"
"2837","2,00002168363836","-0,316608695610477","-1","-2,96299966976583","0,144346822070505","0,0542199747924865"
"2837","2,00000504098882","-0,759619195015983","-1","-2,18335192065897","0,0377765770628551","0,014359161491795"
"2845","2,00000117192364","-0,915446785708838","-1","-2,03490959328938","0,00988639551682534","0,00380275939884834"
"2849","2,00000027244754","-2,61851171792096","-1","-2,0066466699626","0,00258733913748926","0,00100709077293911"
"2873","2,00000006333831","-3,86581266142968","-1","-2,00126550376069","3,47726307910998","-1,73490171240669"
"2873","2,00000001472482","-3,30454696040615","-1","-2,00024094768919","2,38661012240956","-1,19462518028516"
"2879","3,76752108351383","0,189382642261214","-1","1,61916080445935","2,10117858414196","-1,05154289364354"
"2879","3,17843247250298","-0,581638286667743","-1","0,308282809095389","2,02647914603262","-1,01365018586627"
"2889","-0,493560371696977","-4,14934865038613","-1","0,0586960171725981","2,00692977847598","-1,00361500026507"
"2889","0,652778697968427","-3,40427987891054","-1","5,43998554576409","-4,95135833688038","-2,73612578807066"
"2898","2,68679944682478","-3,14220421317501","-1","-3,77384826194285","-1,0340982265838","1,27538748951584"
"2906","2,15966639359219","-3,05001989784705","-1","-1,52813144428952","0,729369231779667","-1,39740554023836"
"2906","2,03711907072814","-3,01759434636124","-1","-1,10055446300872","0,190881050212119","-1,10524553638869"
"2912","2,00862940147092","-1,35793570470437","-1","2,6000614461944","0,0499549113707176","2,44246450219533"
"2912","2,00200615393342","-1,77415584429695","-1","1,3046463550745","0,013073551131886","1,38201015054833"
"2921","2,00046638849961","-3,56881306062845","-1","1,05800364847295","0,00342144014488687","1,10116835104078"
"2924","3,76762950558526","-1,55182520462443","-1","-6,22736965925488","3,47748136920139","-2,44354426962544"
"2933","1,41093659825842","-3,49060893688","-1","-3,61448040355481","2,3866672504595","-1,38229610706089"
"2935","0,095534096514355","-1,52431714284639","-1","-6,73620169653782","3,83948651209742","2,36909276233559"
"2947","2,55725182375341","-3,48093306012933","-1","1,90784635616418","-3,73347239276526","-0,372589424956106"
"2947","2,12954930210373","-3,16916673565314","-1","-0,446355766130708","-1,71536892197077","-0,0986734454148279"
"2952","3,7976385619187","-1,41125082990029","-1","-2,70419132711651","-2,92551004795656","-1,76130026611659"
"2952","3,18543415135294","-1,79290927681811","-1","-2,13407567665064","-2,2422124792744","-1,20161635092515"
"2964","3,04310953122084","-1,92715647035097","-1","3,40328245912672","1,41319724743762","-1,05339437639727"
"2964","3,01002205725602","-1,974377510831","-1","1,45757695314064","0,369843644335765","-2,7493089388113"
"2969","3,00232991704615","-5,28749347348641","-1","-0,722482216497988","0,0967906790814759","-2,19844066879072"
"2978","3,00054165659837","-4,45287189869177","-1","-5,56636822103834","3,50191675474985","1,41778348820497"
"2979","3,00012592374095","-4,15929630778579","-1","-3,48862793749445","2,39306216246374","0,375473838662809"
"2979","3,00002927461529","-4,0560319899457","-1","-3,09303312725852","2,10286712833588","0,0994373292488245"
"2992","3,00000680573094","-4,01970908140254","-1","-3,01771319669498","2,02692104990657","0,0263341448324414"
"2992","3,00000158218898","-4,00693260921321","-1","2,42543748665409","2,00704542782322","1,74214253498076"
"2992","3,00000036782559","-4,00243852412609","-1","0,461795196383012","2,00184383794036","1,19654277875459"
"3024","1,23247900542108","-2,35260469050257","-1","-1,72167907707377","-4,95268936323638","-4,15345453126384"
"3028","0,0540464680819008","0,524225429501749","-1","-1,13740528583259","-2,77273954267237","-2,5703027619987"
"3031","2,54760682470583","-0,463858358502175","-1","6,21225185270682","-3,9405243422998","3,05447108505028"
"3044","3,89482812323323","0,836839238516616","-1","5,42120536372955","0,230444128739933","3,27925724157222"
"3044","3,2080286755938","0,294355647349849","-1","4,27059275436097","-0,67798413027633","2,33878771415123"
"3051","1,28084120172161","-3,19296740551556","-1","-4,99649674359877","2,56085976886509","-3,11578358053825"
"3051","1,83281073933291","-2,419622642863","-1","-1,76091963149305","1,40848796320602","-1,56032630466746"
"3051","1,96113202125967","-2,14760098355515","-1","-1,14487655632872","1,10690416872332","-1,1483920995466"
"3051","1,99096401428339","-2,05191819535239","-1","-1,02758401243044","1,02797757172752","-1,0392989139086"
"3051","1,99789932380029","-2,01826206671341","-1","-1,00525190383485","1,00732192700356","-1,01040759339017"
"3051","1,99951163706601","-2,00642362621392","-1","-1,00099994494855","1,00191619971767","-1,00275625938231"
"3067","1,99988646591258","-2,00225949090997","-1","-1,00019038617834","-2,47608447136388","0,734438477323413"
"3076","0,232452525627369","-2,00079476902955","-1","0,809567091154842","-3,12459464962881","-1,54066592083844"
"3088","4,35660355235991","-2,00027955757978","-1","0,154138870163506","-2,2943143176746","-1,14318540907004"
"3102","1,54786064850725","-3,64835138643939","-1","3,64855420614261","-2,07702412386263","-1,03792001785272"
"3112","7,19745037218828","-3,22805562081892","-1","2,31387921460053","-2,02015775414421","-1,01004241817159"
"3112","5,51086088908081","-3,08021786838882","-1","2,05976155408852","-2,00527542582455","-1,00265954945287"
"3117","-0,183798852554391","-3,0282163903075","-1","5,63058508038663","-2,00138061598684","0,734464089166651"
"3123","3,25983388154942","-1,36167197623427","-1","-4,73755874716217","-2,00036131689962","0,19450928383186"
"3131","-2,24215734013337","-1,77547006640108","-1","-3,52122204188398","4,95307734940427","-1,68365622124253"
"3139","-0,521254316701106","-1,92102228132719","-1","-0,480032255773837","6,24942703566447","2,28928308770402"
"3139","-0,121180640544778","-1,97221982856904","-1","-4,5202065583108","1,11210489834926","1,34144287480465"
"3145","3,50687021575345","-5,28673451533798","-1","-3,28944225114057","0,0293386391946053","-0,644743566461287"
"3145","0,58279448011137","-2,80435188456593","-1","2,37370118227554","-0,992321872081722","1,56441996563449"
"3156","0,903008511356058","0,365324733135375","-1","11,3095648171148","-8,95116248857578","-0,585692191604507"
"3156","0,977451523479653","-0,519751193338859","-1","7,01092340698104","-6,03404697170707","-0,155109787415428"
"3180","8,06484227489541","-5,77583310715785","-1","8,00207978020449","-7,00891033160273","-0,041077969788447"
"3180","5,71251122176031","-4,62464387397671","-1","7,19079264315707","-6,26403891921282","-0,01087874356646"
"3183","-0,136919401013693","-2,571463522773","-1","-9,25010377842504","6,09895000053976","-0,00288103482704443"
"3193","1,50321128571893","-2,84926360242049","-1","7,47722449656121","-6,35703386138306","-3,47109983269083"
"3193","1,88450709628076","-2,94697893233669","-1","4,66205193005097","-4,61685231463429","-2,38959369031443"
"3205","3,74067141457677","0,315156104510144","-1","-23,0179976245125","14,9597881657745","-0,368008289999598"
"3218","1,40466941037795","-2,18565090821144","-1","-13,2881866070267","9,08313246343249","-0,832628638059991"
"3218","0,0940771074450333","-5,36180824601543","-1","8,46997365319391","0,591998486646062","2,51466206561132"
"3234","2,55691310450825","-4,47901189305223","-1","10,660671393692","-6,32165579281155","-2,06920649848417"
"3234","2,12947055701946","-4,16849097099893","-1","6,07777292644875","-3,13100767134685","-1,28315964436668"
"3244","2,03009917525595","-4,0592661846604","-1","8,82441104547789","-5,77257860478313","4,13051565004899"
"3276","3,77451850384428","0,923912459222796","-1","3,72815508934521","-7,94048222372394","-0,906109021805393"
"3276","3,18005922522355","-0,323269666007994","-1","4,75784497703348","-6,50783782567657","-0,239966282224812"
"3334","3,04185997419969","-4,05846827684628","-1","-0,474915527705492","-2,65631877116449","-0,063550649225481"
"3334","3,00973156158938","-3,37231298496788","-1","1,5287843498598","-3,64834918593342","-0,0168302187271314"
"3351","4,76978346301795","0,165546150005482","-1","-8,94733792618793","6,52178735049597","-1,73962559523163"
"3355","4,17895842804652","-0,590022700047931","-1","0,486853403338395","3,18338350548805","2,27446063006217"
"3375","0,506561901879706","-2,50404478928154","-1","-0,716908078165064","2,30969977411865","1,33751741995523"
"3375","1,65280712399747","-2,1772962158243","-1","0,863503096424262","-1,3955353484233","-0,645783150864034"
"3396","1,9192849751867","-2,06236340264607","-1","3,78361478551259","-5,58010033275752","-0,17102377098895"
"3403","5,51627761839218","-2,02193613649064","-1","7,76840431794575","-1,93693739961319","1,68987592667249"
"3411","2,58498150291597","-0,359462916127268","-1","-1,71131842465369","-3,72178905174278","-4,02280433514478"
"3443","6,43855910823672","-2,42294608916668","-1","5,91258404801962","-4,92719024100555","2,66980280116201"
"3443","5,33443466770868","-2,14876999564627","-1","4,36414961462175","-4,24265219759507","1,44221651103865"
"3449","-0,224814229942677","-0,404076338872375","-1","2,25972953029974","1,15137514720862","-2,3532239471865"
"3457","5,01781975100513","-4,08689177733049","-1","-0,760151704987144","6,51620189339761","2,11196041016092"
"3458","0,701579476194881","-3,38231086448869","-1","-10,1927470459234","5,65850770642674","1,29448223026831"
"3461","1,69814459903761","-1,48622362650747","-1","-5,98868169352307","0,957457159946153","2,81315661562587"
"3487","3,69734606250606","-1,81928072913917","-1","-6,99784503225047","3,46545219427284","-1,25498729388784"
"3487","3,16211825941447","-1,93643254819513","-1","-6,18998636129088","3,12181210804513","-0,332360265604246"
"3494","3,03768907784627","-1,97764034289361","-1","-0,607362748484453","1,29358610700076","1,64714892818959"
"3508","-2,29380132416176","-1,99213505887494","-1","10,1227735214981","-5,13804538541562","-0,563782949891949"
"3520","4,769302785944","-3,64548658388442","-1","5,16575562814007","-2,8212485154054","-0,149307528356521"
"3520","3,41132560066893","-3,22704793526621","-1","-3,01645738227027","-5,69151245827918","1,69562707348042"
"3520","3,09562453137459","-3,07986341807203","-1","-0,574323410473926","-4,44268068958076","1,18422401567686"
"3520","3,02223068777081","-3,02809171349067","-1","-0,109349259086879","-4,1158526453462","1,04878833680567"
"3527","4,77268924637242","-3,00988117445875","-1","-5,44962975384034","4,66114543481439","1,01292069223178"
"3538","0,644591801241026","-6,29998177877783","-1","-1,65679798320466","5,43473342627678","-2,46691503637628"
"3553","-0,0826249141744263","-0,512505463209791","-1","-14,6018788626442","8,85206576787066","0,346682997743242"
"3553","0,748312529285739","-1,4767783378772","-1","-10,0665790249071","6,7464056411001","0,0918126054116987"
"3565","0,941487968653624","-3,4642114306133","-1","1,65454695636588","-2,49612528754245","-1,71085354465977"
"3565","0,98639718615089","-3,16328495352057","-1","-2,11378980591493","0,0850394594642758","-1,18825646606901"
"3570","2,76435871261925","-6,35394108973426","-1","-1,02166519898287","-2,71603755338188","-1,04985625700686"
"3582","2,17769728793305","7,70977977846529","-1","-1,81372832157085","-1,44909907920536","-1,01320351122401"
"3582","2,0413108735695","4,65665065852173","-1","3,46427552555859","-4,59411833727358","2,46684013697623"
"3587","3,77712498735857","-4,65854345304811","-1","6,89799984941144","-6,89377791841586","-0,346702833469559"
"3594","3,18066517769571","-1,28688149039052","-1","-0,87704052827053","-2,01902902669262","1,64335056330703"
"3607","1,27447976528532","-2,74916274133447","-1","-2,97658892727316","7,6864848557944","-0,564788876858204"
"3607","1,83133183946113","-2,26351570713485","-1","-1,3763359298523","4,22648599927158","-0,149573929582503"
"3613","7,26335144848667","-2,09269084549385","-1","-6,50046312420597","10,2741519080188","-3,50994874351298"
"3618","5,52618150011952","-2,03260372192526","-1","-0,856873147089113","2,64198961679643","2,80562315685926"
"3619","5,12232610682409","-2,01146825965085","-1","-1,78235246530352","3,64459914560371","1,47818603018347"
"3619","-2,04164607917128","-2,00403392532057","-1","1,66064604374775","0,430403146188133","-0,60852966082048"
"3631","2,06040248485826","-2,00141892091628","-1","0,316181460093238","1,58922548030412","-0,16115787042895"
"3631","2,01404230443969","-2,00049910110046","-1","-5,36861012620118","-3,32238150804567","-0,042679693157728"
"3636","2,00326453976918","-2,00017555728837","-1","3,78743790343035","-5,08436950469459","1,72386549135132"
"3660","5,53580109686077","-5,29656785756857","-1","10,5787355668752","-7,02208009189349","1,1917024404462"
"3660","4,35704138019384","-4,45606378558936","-1","6,87177595873967","-5,52919256082665","1,05076885983945"
"3665","0,54796243424919","-2,51216599134329","-1","0,737173210629199","-6,87678638675529","-0,721723224573045"
"3671","5,19747403522763","0,468100229057983","-1","-1,05004134284229","5,93858968504642","-0,191135100554482"
"3671","4,27838747032925","-0,483600226412849","-1","0,609678975557878","2,29246360358285","-0,050618610320575"
"3671","4,06471921841845","-0,818357956164907","-1","0,925684180636903","1,33824680184393","-0,0134054064551889"
"3683","4,0150458539953","-0,936107965618576","-1","-2,63335616388298","-0,649771413642322","-1,73871859679276"
"3694","2,23597676379533","-4,27403227779157","-1","-3,12058889816377","1,56824323494207","2,27470083189011"
"3694","2,82238070326147","-3,44813696420199","-1","-2,21335638339046","1,14871324527498","1,3375810329844"
"3701","1,19118617764855","0,138875296793983","-1","10,626601037554","-5,91425260789415","-0,645766304125128"
"3701","1,81196783617195","-0,59940409124125","-1","6,07128604443667","-3,76268037386349","-0,171019309440499"
"3701","1,95628648564503","-0,859091612079037","-1","5,20396928471468","-3,19959881003482","-0,0452913136140314"
"3713","1,98983752939731","-0,950435904730016","-1","-7,62838830978848","3,90093549823449","1,72317385178434"
"3727","1,99763743981068","-5,92732513954623","-1","-3,07162633510055","1,75919519274141","1,19151927244816"
"3727","1,99945075455897","-4,67793073387715","-1","-0,3944307348732","1,19868671365925","-0,684448070675973"
"3734","1,9998723120131","-4,23846006597694","-1","-6,31351165469174","2,79029068545648","-0,181263462721966"
"3734","1,99997031523472","-4,08387760020927","-1","-4,44048489181495","2,20682462248196","-0,0480042888944195"
"3747","3,76751417900845","-4,0295036898025","-1","-4,08386685216119","2,05412745620315","-0,0127130515860968"
"3747","3,17843086735102","-4,0103778328158","-1","-2,20636462848494","2,01416553541772","-0,00336681751470643"
"3753","-2,26108182495158","-2,35539731809615","-1","-1,03929113599591","3,74200019724493","3,46944520409509"
"3753","-0,525653860491485","-2,77326297455698","-1","-1,81708424110667","3,19418666257984","2,38915549241216"
"3753","-0,122203441733259","-2,9202459435091","-1","7,0828432497825","-9,11723082666298","0,367892241357596"
"3764","5,27415351612849","-2,97194675411161","-1","3,77735971786902","-5,33921524491498","0,832597904714987"
"3764","3,52869275313768","-2,99013235640291","-1","4,95761003391133","-4,35048203471061","-2,51467020477158"
"3770","3,12290992021337","-1,34827603357562","-1","7,80153243208851","-2,35343063272517","0,334035921132077"
"3781","3,02857396549735","-1,77075808446756","-1","6,34300575786612","-2,83078825582036","0,0884632601537221"
"3781","3,00664284463635","-1,91936485606736","-1","-6,60191622968884","-1,21742312105481","3,49376470848608"
"3793","1,23402324125557","-3,61988988720804","-1","-2,06658613946758","3,41968479657579","0,660427643294529"
"3793","1,8219265504514","-3,2180443753548","-1","-1,20307443850647","1,63324850436275","0,910070516876025"
"3804","0,191080596693789","-1,42844339044612","-1","-2,8482680348607","4,64231153509224","0,976183833061653"
"3804","0,811943290825628","-1,79895670750269","-1","-2,16150740058212","3,42980446245172","0,993692726924125"
"3809","4,49132293955066","-1,92928363563199","-1","3,39805955051342","-2,10239608515215","0,998329634917464"
"3821","-1,95586209404902","-0,326872681810371","-1","6,88539254892733","-2,28850479745372","-5,94111605280264"
"3821","-0,454696707116224","-0,763229520826727","-1","4,54936910396817","-1,33721075447781","-3,77890040579945"
"3821","-0,105707399356734","-0,916716706790753","-1","4,10459804247675","-1,08825042262955","-3,2062774236931"
"3821","-0,0245747420288835","-0,970705355870393","-1","4,01991511792516","-1,0230957553722","-3,0546287756543"
"3821","-0,00571310948392659","-0,989695698361445","-1","4,00379177193552","-1,00604432137908","-3,01446742486918"
"3832","-0,00132817752214732","-0,996375493356787","-1","-6,85689809957197","-1,00158184135331","2,20167383457636"
"3844","3,53473338690543","-2,64697814376773","-1","-2,92473717588912","-1,0004139789912","0,583072756192473"
"3844","2,35679316013665","-2,22757258690155","-1","-2,17606686962338","-2,73840131835291","0,154416078201385"
"3850","2,08294688849962","-2,08004796268305","-1","-9,27193590409382","-0,454951833555788","0,0408942536825117"
"3863","-1,51575875713299","-3,67640967940837","-1","4,23465437256501","2,61922888724065","0,0108300897401927"
"3863","-0,35238195870147","-3,2379250397112","-1","0,806264048590478","1,42376357140284","0,00286814975745082"
"3869","5,22064186311737","-4,73194245926786","-1","-1,65609335815573","1,11090190266683","1,73592799847208"
"3869","1,74873134175248","-0,960952419661619","-1","-1,12491798401","2,76731678391964","1,19489697324349"
"3875","3,70910641381415","0,0137348671751143","-1","-2,83338730697083","0,462519213963765","2,78678329484706"
"3886","1,39733121309372","-2,29167490823087","-1","5,07973920049498","-4,35554142778685","0,473196639794561"
"3886","1,85989221135693","-2,10259575851175","-1","2,58637205729964","-2,61646173428102","-4,34501943079664"
"3892","1,96742789262537","-2,03608774484046","-1","2,11164328119945","-2,16133236518358","2,58447006887531"
"3916","3,75994875174899","-2,01269375407484","-1","2,02125650784653","-0,303928835838982","-0,315550712966513"
"3916","3,17667206499309","-2,00446498924289","-1","2,00404716809624","-0,817833287931229","-0,08356779330272"
"3923","1,27355145075714","-2,00157054633496","-1","-3,42803945285411","2,52426026216625","-1,75729981242869"
"3932","1,83111602590228","-3,64880548779275","-1","3,96651941808509","-3,81596931616094","2,26977993922922"
"3932","1,96073803611176","0,068290756244713","-1","-1,24478795115907","2,73962700809973","1,33627782521508"
"3935","1,99087242104174","-2,27248504080508","-1","3,38220321184455","1,45527260517037","1,0890569871501"
"3959","3,76539911039301","-2,09584578122975","-1","-1,3560398051835","2,85744101523081","-0,711583319392783"
"3959","3,17793915848377","-2,03371346093862","-1","-0,25818544966985","2,22439833537103","-0,188449733463255"
"3967","3,04136710337389","-3,66011165987503","-1","7,18925571292367","-4,8944452882905","3,42042940337499"
"3967","3,00961697951214","-3,2321922610968","-1","4,60722363547574","-2,75749665921925","2,37617456055295"
"3979","-0,532806415171456","0,214833186850589","-1","-3,12280000815028","3,01663673592284","-1,37071394115803"
"3987","0,643654820170764","-2,22093918822093","-1","-0,59457069125208","1,52776799634122","-0,363008336235346"
"3990","2,684678337569","-2,07771468494833","-1","-3,73241095381476","-4,07675834034944","3,3742007731224"
"4014","0,391652200312779","1,26917020265403","-1","-2,3298452592718","0,933083711842133","0,628763337601795"
"4014","0,858571960599464","0,446426744115857","-1","-2,06280143566658","0,244194560302008","0,90168480882825"
"4019","4,50216312233649","-6,43598296731647","-1","1,60724949650345","1,80220040851796","-2,49637381092545"
"4028","3,3492212602085","-4,85684957190664","-1","0,306014935844916","1,20994148064743","-1,39628703785655"
"4036","4,84870766147328","-2,65314116811579","-1","7,29667758186971","-4,15993577155648","-1,10494932163775"
"4036","4,19730664045813","-2,87799346481497","-1","4,62767640052894","-2,5652703603351","-1,02779389447558"
"4042","0,510827474483425","-2,95708457372415","-1","4,11950749019184","1,32865073117493","0,727807720908406"
"4051","1,65379877970918","-1,33665157691041","-1","-5,02526287326464","-1,39057574987182","1,92791488916669"
"4051","1,91951551423548","-1,76666921732404","-1","3,6624134136407","-1,10221641669886","-0,489427257354302"
"4051","1,98128905368","-1,91792660953258","-1","2,31651796141776","-1,02675075410131","-0,129615792957001"
"4051","1,99565009940904","-1,9711309354661","-1","2,06026396266898","-1,00700086021502","-0,034326355002558"
"4052","1,9989887398089","-1,98984539468498","-1","2,01147405720769","-1,00183217428431","-0,0090907027676213"
"4052","1,99976490332303","-1,99642814858158","-1","2,00218462216845","-1,0004794928773","-0,00240750516048323"
"4065","1,99994534497846","-1,99874361216813","-1","-3,42839407537777","0,738167490490197","-0,000637583391066035"
"4078","5,53502945404086","1,29694803641256","-1","2,15684855909374","-5,02169531512521","-0,000168852215661158"
"4089","0,821819829323281","-2,84030859349127","-1","-4,20854991841935","-1,79079888490056","-1,73521313924418"
"4089","1,72609794646242","-2,29557598237054","-1","-0,610897187758555","3,2696283324417","2,27562918774486"
"4098","3,70384462652324","-2,10396794943073","-1","-0,925916124171026","1,59397767387386","1,3378268909305"
"4109","3,16362903855815","-2,03657040880703","-1","-0,985894677485813","-2,32113782561449","1,08946722866817"
"4109","3,03804030214981","-2,01286352965155","-1","2,62189228638886","2,13083490716264","-0,711474674484126"
"4114","4,77636464844743","-3,65277776019785","-1","1,30880287413149","-5,65722447167875","-1,92358938270607"
"4121","2,41296733483627","-4,87786563718929","-1","-4,37001498432347","4,99605058017375","-1,24459563378885"
"4143","-2,43903596022064","-2,66053350491872","-1","-0,641639597005742","-0,692498476622716","4,14072861783028"
"4143","-0,567024445652243","-2,88059369671723","-1","-0,931769376210589","-0,181231714649526","2,56693253826064"
"4148","3,40322092949378","-1,30974614444331","-1","-2,79661245717131","-0,0474296124880889","-1,32019520487613"
"4156","2,32621928608296","-5,05371141942206","-1","-2,15167235112213","-0,0124126626794907","-0,349629379579436"
"4172","0,308318027191562","0,574119383851333","-1","1,59032877103377","-0,00324848099557031","-1,82776132220866"
"4172","0,839198522040702","-0,446308312381669","-1","0,302793286231514","-0,000850150290156313","-1,21921733729583"
"4180","2,73013812617481","-2,45349369216762","-1","5,48646085049648","-1,73851546744501","0,677112748450538"
"4187","-1,36530043722345","-2,15951502174264","-1","-1,95539617910422","0,545018292825156","-3,29101600593014"
"4192","3,21763858918371","-0,407855868998132","-1","5,05650911875618","-1,59565786232604","2,86360345926302"
"4208","2,28307530405342","-0,791715109685302","-1","-2,03725755276845","0,582405131353237","3,22870946701637"
"4208","2,06580904093936","-0,926736425707698","-1","-0,387887033510526","0,152419513022749","2,3254010672434"
"4221","0,24777813466724","-4,27073586723843","-1","-5,50266241576126","5,25476818840919","-3,11932878736505"
"4221","0,825124273215217","-3,44697746185358","-1","-3,4764985649501","3,5900886698199","-1,56126518738629"
"4228","-0,80817600017191","-1,508969904709","-1","5,95729296499774","-5,53703453671812","-1,14864074533873"
"4228","-0,187883883616653","-1,82728166305413","-1","2,75345536298989","-2,92566677834478","-1,03936476316613"
"4228","-0,04367904233158","-1,93924685227355","-1","2,14345538453672","-2,24225349671769","-1,01042503235297"
"4243","3,52488770359731","-1,97863026576137","-1","2,02731342606802","-2,06339944140254","-1,00276087777035"
"4243","2,3545042463154","-1,99248326122152","-1","-5,23321297509398","1,45999387522697","-1,00073116761701"
"4249","3,84993584437731","-1,99735601008263","-1","-2,61559295137363","-1,35620232666936","4,20531162926239"
"4271","3,19759216709311","-3,64732303753261","-1","-0,307603501784665","-1,09322065044716","-0,886300684590691"
"4271","3,04593601358836","-3,22769390223042","-1","-0,868170019376854","-1,02439649889726","-0,234720409019625"
"4277","1,24315807473335","-1,43183758206544","-1","-4,59410669210232","-1,00638473509452","-0,0621613763457525"
"4288","1,82405020667187","-0,151897551128443","-1","7,55410745049926","0,736622047130281","-1,75163071724334"
"4288","1,9590953820888","-0,701682552793415","-1","-1,56172317250113","-1,54551381421874","-1,199055549037"
"4294","3,75801161869931","-2,54332080159682","-1","-2,10695021586225","-1,14276479624623","4,15278907034441"
"4302","4,9437428024846","-2,19111143324991","-1","4,2180503963078","2,43922340449289","-0,900210316757657"
"4305","4,21940030739388","-3,71547591611302","-1","-8,43531065322003","1,37665487241509","-0,238404118857952"
"4313","-1,25155729378113","-3,25166646920619","-1","0,584341685916173","1,09857322530411","-3,53347378272657"
"4316","0,476560392227665","-3,08852291222715","-1","-4,31755331487233","-2,4507886489595","2,79939298359817"
"4322","4,41335348552853","-1,38288461120887","-1","-3,2508577504613","0,35861139903054","-5,46413760381518"
"4325","1,56105381167522","-1,78293154599304","-1","-3,04776247781108","0,0938511216026527","-3,65258145040838"
"4338","1,89795426423991","-5,22015293982275","-1","2,4197162038956","-1,71373147951723","0,29751266830482"
"4338","1,97627651756914","-4,42918507156045","-1","0,460705883255151","-1,18678854062335","-0,656377672377293"
"4344","1,99448479042798","-2,50271148574203","-1","10,9453369016761","-2,78717685001383","2,56133888700434"
"4355","5,53375999021685","-2,82508028328891","-1","-0,296837731769223","3,00886922155219","-0,321676580365982"
"4355","4,35656686592584","-2,93847252366176","-1","1,5626897674178","1,52573518328029","-0,0851901164336872"
"4361","4,08289427986591","-1,33010484512196","-1","-8,94088244793058","-2,33899736466004","-0,0225610329783046"
"4361","4,0192711726499","-1,76436642440406","-1","-4,94072751530491","-1,35042501391775","-0,00597487396844162"
"4372","2,23695906131242","-1,91711660915321","-1","-4,17911137683966","-1,09170868712683","-0,00158233530233703"
"4372","2,82260906672727","-1,97084602030552","-1","1,3947078122321","0,714292169665564","-0,000419052355287597"
"4377","1,19123926734042","-5,28625128247541","-1","-5,97286565113027","-1,55135769997078","1,73505744354885"
"4385","1,81198017840618","2,14057724986073","-1","-4,37562703051061","-1,14429418218831","1,1946664228093"
"4396","5,49133151513554","-2,54356459318845","-1","3,16689522819203","2,43882315345119","1,05155381596629"
"4407","-2,72338118049692","-2,19119718619799","-1","-1,20663706617939","1,37655012390657","-2,45668376524862"
"4415","4,66943452492838","-0,418999973622371","-1","0,770260332824318","1,0985458118838","3,81972940511337"
"4419","5,1556294153054","-2,44388806737906","-1","7,385068354853","-2,45079582324411","-0,988415033520424"
"4432","-1,03390376198613","-5,45264237837675","-1","2,8349023684283","-3,11797643281732","-0,261763513198912"
"4432","0,52716025021383","-4,51096252180152","-1","2,96856596238265","-2,29258228385624","-0,0693232443037514"
"4440","2,6575958057701","-2,53147645420479","-1","8,42282508437073","1,40001511583865","-0,018358984191757"
"4440","2,15287716266238","-2,83519827312871","-1","6,46129780371381","0,366393787920096","-0,00486203875681774"
"4440","2,03554071765456","-2,94203149569855","-1","6,08782956107062","0,0958878274296492","-0,00128762139701671"
"4440","2,00826246765314","-2,97960975558483","-1","6,01672245507296","0,0250945178447821","-0,000341002806637521"
"4440","2,00192084955579","-2,99282779377663","-1","6,0031838995921","0,00656741155517485","-9,0308311436951E-05"
"4440","2,00044655703004","-2,99747719835706","-1","6,00060620384796","0,00171873772597756","-2,39164926383218E-05"
"4440","2,00010381509602","-2,99911261222399","-1","6,0001154191879","0,000449805733336573","-6,33384248932882E-06"
"4440","2,00002413482139","-2,99968786405891","-1","6,00002197542787","0,000117717319335256","-1,67740150223139E-06"
"4457","5,53504777101844","-2,99989020713564","-1","-3,04801251618843","-8,6914340782688","1,73516797761655"
"4457","6,12438732790629","0,296544725133193","2,39422521943759","-8,8187447627655","-2,48948826840721","-0,540472726124543"
"4465","1,72635419137022","-3,84045045700251","1,42229323817969","-4,91747290799512","-2,86639549459158","-0,143134245009063"
"4468","0,93638311797202","-1,64737282951335","1,12790729684564","-2,36508043723206","2,24984416878143","3,43243037569716"
"4469","1,75273149606875","-3,52421752223598","-2,35548371209809","-6,49832011600495","4,06538597358982","-1,09098404669845"
"4475","-1,59252687490278","-4,83264496596957","-1,41055892412607","-3,47567180557999","0,802233037053972","3,18140981686226"
"4501","4,93233431246778","-5,94113337770035","-1,1243531210852","-0,280962982968801","-6,00492891166634","-1,15746221744394"
"4501","3,44922699386635","-5,33104079240667","-1,03766499231882","-1,67270109362221","-3,78641099936733","-0,306532545699962"
"4507","3,10443580632819","-3,46818953517575","-1,01140825122841","-0,128080041372197","-3,20580928138595","-0,0811794978334574"
"4529","8,32684236372689","1,13182186617274","-1,00345541544225","0,97561398791613","-1,31556875716414","-0,0214988945250297"
"4529","6,54094179951863","-0,250138166842925","-1,00104660176564","0,185753644702366","-1,82087953708752","-0,00569358616564217"
"4535","2,5907154051047","-2,38449144236499","-1,00031700247746","-7,20304648666383","-3,69141589406211","1,73366058043583"
"4557","0,137328879352576","-2,13524369103251","-1,00009601605311","4,43816734750247","0,295637559096598","4,66463333303748"
"4557","1,56696822972548","-2,0475715554333","-1,00002908205175","1,65461557932291","-0,660922551707891","3,44084747263701"
"4557","-1,6357129184211","-5,31323925522013","-1,00000880858676","-7,92338008038041","-0,911261050489726","-2,08875493363239"
"4563","1,38725230753425","-7,75843400464529","-1,00000266800986","-6,55660180307669","2,49980956057493","-0,553168265452002"
"4574","1,09002799818798","-6,61852379278589","-1,00000080810654","-16,1539918244659","3,13080367209323","-0,146496424724677"
"4574","1,02092961178035","-6,21756385581238","-1,00000024476528","-11,9813028288018","2,29593926245861","-0,0387968793538379"
"4596","1,00486569354082","-6,07652742207823","-1,00000007413632","-11,186836781006","2,07744938332436","-0,0102746387867492"
"4596","1,00113117117898","-6,02691828708436","-1,00000002245496","-11,0355730990599","2,02026904753188","-0,0027210488048629"
"4602","2,76778405354454","3,88004989218233","-1,00000000680132","16,1372771014643","-10,1627462879195","-0,000720619649227438"
"4607","5,71353576767291","-0,283457348798342","-1,00000000206004","11,7397070411811","-11,5660058922051","-3,47052768652982"
"4607","4,3983609444947","-0,747958309983031","-1,00000000062396","7,90242438979518","-8,9332487855374","-2,38944216794368"
"4618","4,09261052211021","-0,911345104998179","-1,00000000018899","7,17181858967685","-8,24423776124735","-2,10313658393646"
"4618","4,02152999415243","-0,968815911338895","-1,00000000005724","-14,6825263949753","11,0573040112144","-0,292145402443929"
"4624","-1,29755797048563","-5,93379025075832","-1,00000000001734","-21,3203474058856","12,0618249535983","2,65779909386561"
"4635","4,00090836477353","-4,68020481700858","-1,00000000000525","-10,9649596756321","11,8013010931137","-0,296130871553796"
"4635","3,23269009557082","-4,23925996777584","-1,00000000000159","-10,9933284392767","9,73312016920316","-0,0784248060538788"
"4641","1,2865744620013","-7,38066506905335","-1,00000000000048","1,66849362320948","0,500397811160165","3,44956747853715"
"4648","3,60166468158091","-1,54088556424504","-1,00000000000015","7,93688229310606","-7,3456283328846","-2,82161402255377"
"4676","3,13987435532155","0,809745154054011","-1,00000000000004","15,7975859394708","-19,0436252705884","0,252747505464031"
"4676","3,03251783904818","-0,36342766705813","-1,00000000000001","10,2942376586167","-13,1050732225382","0,0669355207466692"
"4680","3,00755971209971","-0,776087625288394","-1","9,24641852738562","-2,85944756024724","3,48806348328481"
"4680","3,00175747370377","0,727013547133717","-1","-3,62030611576641","0,0367835605628986","4,12925462251793"
"4684","3,00040857558842","0,255724795694324","-1","19,0259458881193","-16,1115962324546","-1,90644298171654"
"4684","3,0000949852115","0,0899504161796255","-1","13,3377166301063","-12,3377406320397","-0,504886303509688"
"4698","1,23250100196876","0,0316397842802829","-1","12,2546967783354","-11,3500961181652","-0,133709836547096"
"4698","1,82157266190616","0,0111291975270437","-1","-27,7627800651448","21,9359439529297","-0,0354105870275564"
"4705","-1,57652275502359","-4,94084449748886","-1","-18,8107840160199","18,6003063111893","-3,47971468533676"
"4712","-0,366508307300453","-2,03443307384586","-1","5,79928287216357","-0,178997302507069","2,81363009020008"
"4724","-0,0852054554190262","-2,01211172860406","-1","-0,51504259111375","2,90632705743593","1,4803065189763"
"4724","-0,0198084722462025","-2,00426026356041","-1","12,7595576512024","-17,1457376155002","-0,607968088427016"
"4733","7,06547926812961","1,29500757112719","-1","18,1446172398304","-15,6083826946092","-0,161009148325741"
"4736","4,71265930925938","0,455514959597022","-1","11,3603112591042","-10,4677531380455","1,69252811499701"
"4747","7,70072042666122","0,160225996390177","-1","3,83018870008759","-6,64582832690245","-2,2869335300798"
"4747","6,39538164785803","0,0563590050740296","-1","-15,3187615647512","6,2607400541516","0,394347784094373"
"4747","6,09191789844603","0,0198241079755846","-1","-6,96465773677694","1,63847964044986","0,104435746003469"
"4747","6,02136897375107","0,00697306945911169","-1","-5,37406427103256","0,428801628712964","0,0276578834298481"
"4748","6,00496783593722","0,00245275589405996","-1","-5,07122058781224","0,112220397646447","0,00732468091714168"
"4758","-2,8364504833201","0,000862749397682363","-1","-5,01356016203932","8,72083375188979","1,7371082286522"
"4771","70,8089493389765","-4,94445568927578","-1","11,283848250865","-4,45598953911087","-2,27512730822619"
"4782","-22,7708908576658","-2,03570329953225","-1","5,38682037856702","-1,90445673330358","-1,33769397738553"
"4782","-4,52623103187401","-2,01255852661136","-1","15,1216660083173","-13,4047535189805","-2,82460045080974"
"4788","3,25030993872143","1,2920886824329","-1","21,8327681416607","-16,3676338612994","1,25195660495596"
"4797","8,36075502446839","0,454488249409923","-1","17,1105395724507","-18,3579193861983","2,06672606531695"
"4807","4,78130469816845","1,80811790713049","-1","-12,7422104154169","6,71901761731299","-0,452665674508935"
"4807","4,94915795244095","1,28425300671854","-1","-2,42607430350989","0,281828142859522","-0,119880164956602"
"4815","1,45313813551626","-7,14128013725765","-1","-13,1291398245165","10,7652212899429","1,70342036857055"
"4823","-2,66217601577604","-8,40144180405007","-1","-17,2149844512075","16,9385567627609","2,92145634816004"
"4825","1,14862127533433","-6,84469982317889","-1","-22,0409323214517","21,2456268961639","-1,2263061048071"
"4834","-0,732969766525334","-7,94537363692129","-1","-17,959776677052","15,6345244208669","1,41040384080879"
"4844","-1,93792109973866","0,908732973928371","-1","11,7709151671456","-9,17004218289557","-2,36164894684878"
"4844","-1,21804688422747","-0,976862056532814","-1","1,43153959236381","-1,66157146200965","-1,36060763948647"
"4849","7,78691409631827","-4,93662045776609","-1","17,5589904174018","-15,3411887377345","2,37483655343107"
"4859","8,41541985908293","-4,32945338659735","-1","17,8680165482297","-15,1361195802102","3,09926855599517"
"4859","6,56153419996728","-4,11588422294271","-1","15,7364574314247","-17,2973304729457","0,555952604654457"
"4859","6,13054486430057","-4,04076192163551","-1","14,3306156950933","-14,8629345414483","0,882402227515215"
"4859","6,03034892905232","-4,01433788149264","-1","14,0629481240737","-14,2258360297624","0,968856396325393"
"4859","7,7745765663371","-2,35679025312854","-1","-25,7992883684667","22,4450496450127","-0,743416231556001"
"4872","-1,6575326769239","-1,12549988228794","-1","-16,8177350750329","-15,0323166966883","1,53828832801674"
"4888","-2,38534140644578","-4,98890335919693","-1","-12,1076773267759","-9,84040666647368","1,14255574741086"
"4888","-0,554541593785648","-4,34784373756044","-1","-11,2108980633235","24,5459192162004","-0,697415158283613"
"4903","-1,89644031085873","-4,12235297274981","-1","-11,0401542868473","14,5450621899252","-0,184697556997166"
"4903","-1,20840347523167","-4,04303728463162","-1","8,89799149842179","-5,45516209986984","5,15659152003545"
"4912","6,02163490553524","0,929620925262479","-1","8,93256122177623","-7,64253316378681","-1,63437172985056"
"4924","5,46998749928994","-0,321261730505992","-1","6,74874652168571","-11,1681554413812","1,3023351773379"
"4924","4,34174110611522","-0,761255885835165","-1","7,14255883688016","-15,044007459941","-2,39026894154483"
"4936","0,544405443057076","-2,56427553962198","-1","-1,02087397384777","5,32458461868572","2,10214972584227"
"4945","5,19664710975716","-0,550229145463068","-1","-7,62318101499515","4,13177416564684","-0,443284370588003"
"4946","2,51067414749842","-4,13830058085679","-1","-3,88023822361181","1,81960729315003","-0,117395699434074"
"4954","2,88624205432669","-6,69689986001075","-1","-15,8348177980695","13,3825478246069","3,43924675534118"
"4963","-0,561488484522471","-3,94862629235498","-1","-11,110929820185","9,40865056656008","0,64598956772541"
"4963","0,636986843667274","-3,98192945517538","-1","-10,2115173272051","8,36865374601942","0,90624685853754"
"4969","2,68312817359349","-0,697137635197419","-1","-8,23066885257467","2,88160034290482","-2,49516563610132"
"4980","3,9263339800473","-1,54172214070767","-1","7,43290814129305","-2,50757197605279","3,80953819052511"
"4980","3,21535312315676","-1,83880216207689","-1","1,41520088383743","0,082043780692669","2,47922285472772"
"4986","-0,484977098710634","-3,59155220554788","-1","12,9366729017759","-14,8848723835598","-3,07859192063102"
"4986","0,65477412800158","-3,20807668234336","-1","8,13032269172983","-9,80181945424771","-1,55047677868004"
"4999","0,919742262153032","-3,07319033777402","-1","7,21520966517411","-8,47154880509592","-1,14578363403528"
"4999","0,981341767790966","-3,02574447786819","-1","-5,62624817889241","2,30635022894843","4,16689715566563"
"5004","2,76318343441924","1,93570361724806","-1","-8,30963222151528","9,55675996065666","-0,896474050257299"
"5011","2,17742406052652","-4,26388132091252","-1","-19,2973663009794","10,6691220374619","1,49775378434118"
"5024","3,80876843404776","-5,09281944902395","-1","-9,77018749006328","11,4368209592082","-2,33851592345139"
"5024","3,18802161200423","-4,38439590491019","-1","-9,9562444656927","9,63773315846846","-1,35448128439265"
"5030","-0,491331098902866","-7,4317161918528","-1","-6,37246241231884","7,428606269136","-1,09387783797196"
"5038","0,653296956899786","-4,8553487466634","-1","6,78670444102036","-4,3175885921884","4,18064344955245"
"5047","2,68691993110138","-3,30086631033254","-1","17,5785959180821","-14,2979940963856","0,842334824291958"
"5047","2,15969440364668","-3,75408185905462","-1","-2,03388737044439","-0,218471422070704","-0,776923139148212"
"5053","9,10720990283781","-3,91349904468944","-1","12,0895813583258","-11,9635193225981","3,26458306264545"
"5061","3,18731864196225","0,975185605693013","-1","8,77864263123006","-9,03728084195098","2,33490152818793"
"5065","3,81106871565289","1,34301855964456","-1","4,52904427618839","-1,31829177243859","0,353524078390951"
"5073","0,421035298896661","-1,17585037467959","-1","0,291124923106063","0,178407830691812","0,828792761441348"
"5076","3,40044507180307","-2,71010788535162","-1","-8,37338080715352","7,26156951365541","-0,780509505024407"
"5102","-2,20946820249603","-2,249778280774","-1","-2,21347041828868","7,59186862440156","1,52846485786518"
"5102","-0,513654781290408","-2,0878587477106","-1","-2,04064405464087","5,67831022132706","1,13995418230766"
"5108","1,64810717132993","-3,67915709919616","-1","-11,0557551924871","8,65410450288377","-0,698104134875563"
"5116","1,15067125517631","-4,88714448914809","-1","-5,96259890218806","2,2180118335123","-0,184880019755323"
"5123","1,03502789066478","-2,66379731276768","-1","3,05513774433845","-1,68123774924763","-0,0489620674010496"
"5147","4,54318540636968","-1,23348867824981","-1","3,39129136226477","-3,17828470321299","1,7222017202659"
"5147","3,35875807649275","-1,73038198266765","-1","1,45529388834896","-1,57007240461152","1,19126182132396"
"5159","4,85092477022242","-3,55341573843818","-1","4,70589311573312","-4,62577790611066","-0,684516251863493"
"5159","4,19782207150545","-3,19466229646488","-1","3,32479635147189","-1,68718451849034","-0,181281519253457"
"5165","2,27846838142721","-3,06847186849424","-1","-0,557366539609527","1,55845196265648","-1,78317749267958"
"5187","1,06473802854311","-1,37583171778994","-1","-4,72532740760565","0,407857823411547","2,2629267123294"
"5187","1,78257130704338","-1,78045071226481","-1","-2,51889323568567","0,106739256713729","1,33446287431975"
"5193","3,71697349239475","-1,92277420830428","-1","3,3300144811953","1,76622739024005","-0,646592091005222"
"5215","3,16668122311559","-3,62108911644892","-1","-7,60438972537549","4,67711304341795","3,29909883980769"
"5215","3,03874987071909","-3,21846620057914","-1","-4,68626376487932","3,43891226158655","2,34404239592504"
"5221","-2,29355471218044","-3,07684481909515","-1","-4,13066232867959","1,37657344413139","-1,37922355302596"
"5221","-0,53320312224079","-3,02702993051608","-1","-4,02487767096224","1,83684489209401","-0,365261950175813"
"5232","-0,123958485950851","-3,00950769553897","-1","3,23367673473058","-4,99587074612828","-0,0967328987048751"
"5232","-0,0288177349274564","-3,00334430287965","-1","0,615681249659459","-2,78404041383183","1,70955049562196"
"5244","5,29586372438168","0,295329757500295","-1","-3,50198302656393","6,48627600321495","1,18791137753592"
"5244","3,53373991890339","-0,544371712329845","-1","-2,28597255156342","3,91238291365711","1,04976486666604"
"5244","3,12408327985918","-5,7844932995486","-1","-2,05444821865583","-0,237808938248938","-2,45715753551505"
"5250","-0,506195413300753","-2,97943701729716","-1","-3,81997009901974","2,41434968504942","0,349267092095165"
"5261","5,95240455741522","-2,9927670336113","-1","-3,15611956811444","2,10843822249577","0,0924969551970187"
"5261","4,45389290273405","-2,9974558261544","-1","-4,83932798436955","3,7666720215168","1,75966453646475"
"5267","-1,1970427084897","0,297401011211389","-1","1,2690047753131","-2,01423547917232","1,20118315806002"
"5272","4,02427604431676","-0,543643155160328","-1","4,86082095077824","-7,48031147916031","-0,68188876859828"
"5283","6,77316474865305","0,808775179868248","-1","11,5927074539874","-4,91082195582401","3,28975116497711"
"5283","5,41222342558826","0,284484200397448","-1","4,25522947928447","-5,97666147955455","-1,12877000724329"
"5289","5,0958332567421","0,100066448983955","-1","4,85819818042453","-5,25559916815275","-0,298933942391781"
"5297","3,25475813192819","-1,61305498497835","-1","-2,26541195301158","0,147986834088957","-0,0791671477275815"
"5300","5,59426805553003","-2,86389327227605","-1","-5,05053354936493","5,51531514805856","1,71420246117474"
"5324","-0,164408444585574","-0,655618768216916","-1","-8,00962141901464","11,6114475475184","1,18914336491478"
"5324","1,49682066255999","-0,878864953086643","-1","-5,57302186590249","8,20684820871951","1,05009113582785"
"5330","-1,65202074907","-4,25389722289147","-1","-5,1091014493477","7,31584065174357","1,01326571455284"
"5332","3,15098216076954","-3,44105452011147","-1","0,408037468590098","-5,08539312334034","1,00351318012038"
"5335","2,26757908957067","-1,50688652803344","-1","3,88729231120241","2,14570285992336","1,00093040103562"
"5342","0,294685417643112","-3,47480189458304","-1","1,54973081236005","-3,17674746973858","-0,734922022270854"
"5355","0,836029227697332","-3,16701011689015","-1","-4,32414310959546","-1,5696700998155","-1,92979898082397"
"5355","0,961880251958368","-3,05874529874856","-1","-2,44250908531906","-1,14908666583302","-1,24624013145812"
"5377","4,52618012232929","-1,37241042657628","-1","-0,274648911796174","-1,03901702746275","2,40512468107183"
"5377","3,35480470642629","-1,77924728352531","-1","-0,861895575512935","-1,01021103009798","1,37212138679218"
"5387","3,08248461492875","1,37415519990922","-1","-10,0217220790895","9,42708556457433","1,09854949412924"
"5387","3,01917593418778","0,483354896390184","-1","-6,76572245111667","6,15859938303531","1,02609901805658"
"5387","3,00445800046823","0,170018609164234","-1","-6,14579099714341","5,30321359521744","1,00691184414021"
"5387","3,00103639113381","0,0598035267212978","-1","4,82986192137652","-1,87381878128044","-2,46850636909926"
"5395","4,76776201918201","-6,57197650370751","-1","0,919589577862823","0,247901442522276","-1,38890685925859"
"5411","2,41096740487627","0,0400742755869192","-1","5,60389680429429","-4,41170840580288","0,632173604552847"
"5411","2,86306233849421","-0,634157048819797","-1","3,49577325439914","-2,63116102688044","0,167419533361391"
"5426","4,73568596044883","-4,16782196463784","-1","-0,524813108363121","-9,11835118186225","-1,69083044261144"
"5432","2,40351039738703","1,53398134794138","-1","0,709680677115566","-6,81609440402592","-1,182953716354"
"5435","-0,673713418733872","0,539573256024985","-1","4,56393085069767","0,739594271726987","5,89222176595046"
"5443","4,14593907235614","-8,05147201903491","-1","-0,321439469724776","3,93184999211892","-1,43955361088666"
"5447","3,26640667782332","-2,77683986098501","-1","-10,1092177016491","3,50557871004261","3,08909758908165"
"5458","3,06193393671701","-2,92150410239023","-1","-2,3535713052706","4,13231349902483","-1,18190941041004"
"5458","3,01439833471371","-2,972389307657","-1","-2,87692213562594","3,29633439476991","-0,313006934394624"
"5464","3,00334730930274","-1,34203497034725","-1","-8,40537640585096","3,07755279222519","-0,0828941204090509"
"5477","-0,534263981329927","-0,120309756616237","-1","8,01885108677534","-2,19458282106333","5,18355228480864"
"5477","0,643315966764546","-0,690571642508572","-1","3,14596914367471","-0,574337736512294","3,57827359756888"
"5483","2,68459956129511","-2,53941257282478","-1","2,21818869736452","-5,36518715056751","1,41797668760385"
"5489","3,92667604667094","1,10676938011752","-1","2,04154239921764","-3,61898608767324","1,84586184765538"
"5496","3,21543264643596","-1,25895030232976","-1","5,62711621415206","-4,90028598333809","-3,24632591567556"
"5503","6,58512570913788","-2,73933803120562","-1","4,30979749252943","-4,23561116441876","-1,59489803729786"
"5506","-1,70157600758149","-0,611806842426851","-1","-1,36982561230257","-2,32336811924817","0,577620635786788"
"5528","0,371940527704348","-0,863454241944037","-1","2,35839645879453","2,39195824651208","0,152972184550059"
"5528","0,853989412241848","-0,951970446466295","-1","2,06823748869335","0,625992271491501","0,0405118650481436"
"5533","2,73357669635327","-4,27961185700297","-1","0,203388849883475","5,37870550513395","1,74589724300012"
"5542","0,403020037948287","-1,80184651124145","-1","0,848327897736734","3,62252393600074","1,19753714400486"
"5545","2,62873582330529","-3,57855316818895","-1","-11,69610124201","4,9012118630912","-4,15319119194535"
"5553","2,14616782511035","-3,20350431063729","-1","-7,08451865123114","4,23585347365247","-2,5702330214314"
"5555","2,03398093810716","-3,07158201998547","-1","-2,58728204875622","5,80001748756353","4,78965797640021"
"5567","2,00789985178866","-3,02517875699613","-1","-3,73102322062796","5,20937019490331","2,73878952440154"
"5567","2,00183654901127","-3,0088565509048","-1","-0,329581039508131","-1,89837825819137","-4,74501889171041"
"5573","3,76794803902112","-1,3548622118283","-1","-1,68195780920069","-6,71169785363738","4,21370600222597"
"5597","6,71357389083939","-1,7730747525609","-1","7,10857087108873","-2,23308441787435","-2,61924601139656"
"5597","5,39836980732726","-1,9201797369966","-1","3,78225817103425","-2,06099982907611","-1,42882747661864"
"5597","5,09261258253195","-1,97192346617297","-1","3,14893934298563","-2,01596408366226","-1,11356705738895"
"5612","5,02153047315705","-1,99012416494159","-1","3,02835755344001","-2,00417791280788","-1,03007614303469"
"5612","5,00500538114469","-1,99652620516828","-1","-4,23301417672979","1,47549256516449","-1,00796511242468"
"5613","5,00116364560225","-1,99877810327314","-1","-1,61555510082908","0,386146766475957","-1,00210941329361"
"5613","5,00027052307277","-1,99957020155667","-1","-1,11719963521471","0,10105732064005","-1,00055863925153"
"5628","88,0735536551707","-1,9998488197097","-1","-1,02231441909255","0,0264474105225525","-1,0001479453146"
"5628","60,3863407910473","-1,99994682279443","-1","-2,81385193091131","0,00692147307011836","2,47029766309972"
"5634","-34,4264065554361","-1,99998129508028","-1","-2,15495468934157","1,74010437525456","-3,81612401506063"
"5640","-10,0034138123691","1,29651268522675","-1","5,20891050489455","-0,544602464492727","0,989369854657954"
"5662","4,74450148185626","-1,19220867402761","-1","-1,00824083787554","-5,35740522105344","-1,47315204185781"
"5662","4,17308090037288","-1,06760881429263","-1","-0,191965687959415","-3,61694950206804","-1,12530560195226"
"5668","5,80775874086625","-1,02378119402352","-1","5,3922603943289","-4,89975299458256","0,701983541528809"
"5679","3,42026579953334","-1,00836496239583","-1","3,45547838881735","-4,23547167751834","0,185907409141606"
"5679","3,86522401924098","-1,00294234998522","-1","-7,77089847637233","2,89154731688406","-3,42110269113727"
"5685","3,96866742556341","-4,2975410684529","-1","-2,09875979482742","-0,981554737393446","-0,64118444656815"
"5691","-1,30984740333484","-1,80815305663262","-1","-5,63801021516735","5,95799916333695","-0,904974310718239"
"5701","-1,3045119095734","-1,93251842336278","-1","-6,12147501398357","3,77412915464865","0,760334225103148"
"5701","-0,303271519746553","-1,97626356143332","-1","-5,21352509688288","3,20259503636944","0,201360512758996"
"5707","1,69701684474066","-0,343397727285307","-1","4,00736223497392","-0,423565410473459","-1,68184179947346"
"5719","1,16204172322396","-0,769042155122991","-1","0,762988384759624","0,627442934583636","-1,1805732398063"
"5719","1,03767128479536","-0,91876128315899","-1","9,19328714027743","-9,52725866329581","0,687346925775048"
"5719","1,00875777960082","0,676828523548167","-1","5,79838786573143","-4,44652240932842","-1,55313725075274"
"5730","4,53707815932363","-1,4101806860555","-1","3,34240704293473","-2,37856507324041","0,588680210792508"
"5731","3,35733827029586","-1,14427980407359","-1","-3,36361686282284","4,11580579315562","0,155901109252542"
"5739","3,08307361512067","-1,05074998060903","-1","-0,640421416042051","1,8154282579255","0,0412875367993982"
"5742","6,55435502449745","-5,96261030948641","-1","-7,36034745876578","6,42828223316545","0,0109342435286994"
"5753","1,82631261706966","-4,69034218468101","-1","-6,44940227247685","9,85037744532762","-1,7322726888758"
"5753","2,72714242490508","-4,24282575590611","-1","0,152848668534451","0,792791886659351","-2,9290973536799"
"5759","-0,59847579452839","-0,788907112485437","-1","-5,20931148422202","2,42235813583312","-0,510885896588845"
"5759","0,628388073786744","-1,57400177417939","-1","-4,23024886743832","2,84882706745166","-0,870467140095968"
"5770","0,913608060768496","-1,85015642460362","-1","-4,04383861531815","2,9604369818863","-0,965695608288741"
"5770","0,979915695278583","-1,9472929798139","-1","-4,00834672593353","2,98964608031425","-0,990915113805475"
"5770","0,995330822531234","-1,98146046655955","-1","-4,00158918873928","2,99729030650415","-0,997594035251749"
"5781","0,998914514665196","-1,99347877571193","-1","-4,00030257622799","2,99929085418235","-0,999362824558737"
"5781","0,999747647541787","-1,99770617926541","-1","-5,80966094955049","6,47640036584648","-0,999831255822329"
"5787","0,999941333373078","1,2973129502689","-1","0,274653279653353","3,64809136714619","0,735213110632311"
"5793","4,53502852142717","5,40108502841451","-1","-10,61493031324","5,64619601652196","-3,27562919532219"
"5795","5,1243828527821","-6,04494398904674","-1","-7,68827065760267","5,16911403566563","-2,33782689293721"
"5819","4,26139531117942","-2,42279669928036","-1","1,9169722658855","-7,12379250920789","-2,08946722919962"
"5819","4,06076889961237","-2,14871744820983","-1","-1,25422156344804","-3,34093248331874","-2,02369374750205"
"5825","2,24660640805535","-0,404057855472031","-1","14,4284237838099","-5,82751740234798","1,4640619911475"
"5839","8,1274151117499","-0,790379170022506","-1","8,41434707715061","-4,47827413858676","0,38772984763171"
"5839","6,49457916737852","-0,926266513009819","-1","-5,39793642082775","4,56629718479923","0,102683107445935"
"5848","6,11497923064184","-0,974064471053211","-1","-1,02774906516264","1,93332501885498","0,0271937293947219"
"5849","-9,88095947346391","0,657375796042261","-1","3,42352669081812","1,24425771204193","0,0072017582715124"
"5851","6,00544845421255","-1,41702312356819","-1","-4,96737863290391","2,80221693577181","1,73707567485397"
"5859","7,2337455706599","-2,79493966349348","-1","4,67343437966928","-6,48151907977215","-2,27513592949995"
"5864","5,51929875761939","-2,27961759975127","-1","7,93782299663365","-5,64943097052853","2,13264058311981"
"5890","-0,181837225990205","-2,09835463706398","-1","1,94014500599668","-0,955081714416981","-0,435209428735908"
"5890","1,49276883828371","-2,03459594331899","-1","2,79820714910758","-1,72653754635185","-0,115257199839878"
"5890","5,41712160756104","-2,01216901744401","-1","1,15197597514045","-5,40501890967993","-0,030523746127271"
"5890","2,56192982061543","-2,00428041473496","-1","-7,2094776421294","6,06205454695229","1,72708476998736"
"5896","9,96824223821463","-3,64975867572946","-1","-7,42067716330161","4,8013611793068","-0,542613414757532"
"5905","-1,14755165088352","-4,87680368344454","-1","-0,0320788265745064","-1,7434500601053","3,32663567673279"
"5905","1,2682605918436","-4,30841301884522","-1","-5,24452106162418","4,75860580670181","-1,11900182378557"
"5905","1,82988601273667","-4,10848333782033","-1","-4,23695265337403","3,46023949004992","-0,296347018950971"
"5913","3,72797316407016","-4,03815868288798","-1","5,00290170646715","4,85874088388551","-1,81365047055562"
"5916","1,40171733481543","-0,71691609438232","-1","1,76213911503031","4,22473852012675","-1,21548033818345"
"5924","1,86091189219738","-1,54867915334402","-1","4,76431542201568","-1,15606328240726","4,1484392675139"
"5927","3,73518602701642","1,45525683579578","-1","3,33591976345482","-9,99401476559039","-2,63653070375136"
"5935","4,93843633358387","0,511882149216946","-1","4,8735613410212","0,646203172170799","-1,43340500897287"
"5938","4,2181666652353","0,180052983254793","-1","4,16632316159424","-4,0457630230816","-1,11477933250638"
"5950","2,28319807060352","0,0633330871735692","-1","9,46047739458221","-1,5353905502404","0,704771230078242"
"5950","2,83335866166494","0,0222772200628236","-1","7,46846667781758","-1,87840844411246","0,186645677099555"
"5955","1,193738321561","0,00783594414665735","-1","-7,38763222962279","1,508407318383","1,78459809106744"
"5961","8,88264547619463","-1,64549678348305","-1","-2,2161838415264","2,13305376569242","4,67812319436532"
"5967","1,36759106651556","-2,87530457585806","-1","-4,85076402140967","6,51140705918639","1,70925159205611"
"5978","0,852978254202491","-5,60439181815667","-1","-8,78118930817893","9,87213179607101","-5,01767304710344"
"5978","1,73334162342442","-4,56433992396609","-1","-11,9583391751153","9,48995003874456","2,4063301501174"
"5987","1,93800754862892","-4,19850484537372","-1","-9,56325789794919","8,38993038884462","1,37244063306194"
"6006","1,98558806186272","-5,71807652625612","-1","-3,67843240231961","-2,32771034167581","-2,37170280306819"
"6006","1,99664952818804","-5,25258122588459","-1","-1,93877460345264","2,60570078783875","0,371898203749844"
"6012","1,99922108593197","-3,44059162218193","-1","9,05967381124339","-5,79465575864733","1,83365881005735"
"6020","12,6049453994425","-3,80322981092826","-1","4,15374165406359","-2,9930880613605","1,22077917830995"
"6023","0,232947332250998","-0,634280580888169","-1","6,83887523747661","-9,21307002854728","-0,676699123629943"
"6049","4,12423966455995","1,77689374207676","-1","-3,69790099695122","3,58887487146132","-3,6495481405376"
"6049","4,0288831030268","0,625016949071413","-1","-0,704067998655275","0,939233758014304","-2,4368524373005"
"6055","4,0067147125953","0,219847803712768","-1","3,48515448477105","0,245804070576156","1,35464452329991"
"6063","2,23403994904104","-1,57092225913468","-1","-1,33643822668042","0,0643286515164713","-1,37641577490148"
"6068","-0,713111725521906","-1,20082016167397","-1","-2,06405671464036","1,75512823701634","2,37065005998144"
"6079","5,90430087663841","0,577615174132071","-1","-1,20259284446777","2,93591533992795","1,36299141848253"
"6079","4,44270981098339","0,203174374091405","-1","-1,03857300091698","2,24493561725818","1,09613159021329"
"6084","4,10292069869071","0,0714659658127257","-1","2,61186250955565","-3,15077756024665","1,02545868074669"
"6094","4,02392689286794","-3,27136817053318","-1","13,9741166184535","-8,51604550069289","2,74191068444531"
"6134","2,23804141812011","-2,44719987260714","-1","3,70864183017957","-0,705294868783206","0,461312955565953"
"6134","2,82286069186888","-2,15730118992673","-1","4,75412971766356","-1,66116657463234","0,857338659891112"
"6141","1,19129776488157","-2,0553302133297","-1","-4,09482958077498","1,5652610412844","-0,772949649688116"
"6148","1,81199377785136","-2,01946223362033","-1","-13,4468652555862","9,10110469282563","-0,204701475560923"
"6148","-5,11379180382382","-5,30335188708777","-1","-4,60825493173412","9,54987385386902","3,4161254288675"
"6151","-2,72389095537566","-4,45845004726167","-1","-4,92541304744923","7,66731989495545","2,37503473219179"
"6151","-2,16828938743791","-4,16125840451565","-1","-6,79540223340558","5,43634932585804","0,364152618143693"
"6151","-2,03912373502378","-4,05672215148031","-1","-6,15144192855934","5,8524886601393","0,831607534397545"
"6163","-2,00909544366115","-4,01995184361534","-1","21,115216063335","-16,6364134564592","-0,779764064260271"
"6163","-2,00211449891844","-4,00701800008043","-1","11,3066966730643","-9,52191707670334","-0,206506147726266"
"6169","8,60463490411898","0,942290598639577","-1","9,43918734207544","-16,3514682957527","-1,7898577708464"
"6169","1,53543838890541","-0,316805211575023","-1","9,08361980302467","-13,1388098127355","-1,2091792799709"
"6169","7,19456245869321","0,888564734007606","-1","-0,0320957690346972","-3,60656963997268","-1,05539727883193"
"6181","3,74266842998007","3,60905603830365","-1","3,23230243296638","-6,11191544320671","-1,01467094877853"
"6181","3,94017583454318","2,56598054916333","-1","2,04422960733568","0,185589873977503","0,731283091327392"
"6193","7,52113430281135","-4,39393028137853","-1","-17,0876122309653","8,26344910482173","1,92883527699942"
"6193","6,3536316597547","-2,84205766801121","-1","-9,7302510157211","4,3774815951791","1,24598491225339"
"6199","-0,987872414056925","-2,29619121399316","-1","-4,71022733417847","6,83708256160101","-0,670023849331157"
"6221","-0,462138431737615","-3,75243740818991","-1","-14,8024482925658","12,4339493165124","-0,177443473419567"
"6221","0,660083636631637","-3,26466756120397","-1","-11,7239734545474","9,89868865226424","-0,0469926350989318"
"6226","-0,846544469106018","-8,03785516538866","-1","3,33898459273816","7,49690015451531","1,72272328813054"
"6227","6,87328057652943","-3,4203032272002","-1","7,25493819418547","-18,2060594199152","-4,01410531657163"
"6232","8,20301932520941","-2,14784037701799","-1","1,19091934038349","5,71193234555438","0,936938154133701"
"6241","6,51215555326419","0,596250651642075","-1","19,1323838052024","-23,1029558939545","-3,22220603369841"
"6259","9,65410753002968","1,20972934641304","-1","17,9771887341059","-13,9057215319128","-0,58851033088895"
"6259","8,38454513199528","0,425518604400919","-1","14,7572434509753","-12,4987407085102","-0,89102454153502"
"6265","-4,28324892369163","0,149674870026246","-1","3,28655658355295","0,0375268940036602","2,49919698633627"
"6265","-0,228244003392251","0,0526476785872","-1","7,10257611663243","-3,68164383401123","1,397034703856"
"6276","0,714459160706191","0,0185186602142035","-1","7,82913349004503","-4,6549769327347","1,10514732720432"
"6276","0,933617774090956","0,00651388219446587","-1","-24,6053925336446","17,6881036626175","-0,707322089243181"
"6276","0,984567531819485","0,00229123817558011","-1","-12,780817955704","10,5354447666679","-0,187321225157856"
"6283","0,996412276465858","0,000805936033306804","-1","-10,5294584507025","8,6635437015015","-0,0496085756804018"
"6286","-0,768355150182766","-6,59272872611743","-1","-1,052790420361","-0,517810839062903","1,72203050445799"
"6294","-0,178626375421303","-3,26373136111936","-1","-2,43886113985613","-1,39722175595033","-0,543951943874086"
"6296","7,02855745353719","-3,09276670112452","-1","16,202872365214","-8,31883465459434","1,59111277010902"
"6305","6,47159684577246","-3,03263040391177","-1","12,3714028404024","-12,0834412682373","-0,578623094070146"
"6311","5,34211524524724","-4,65973069787232","-1","13,2611105202623","-10,806958234463","3,31709917653159"
"6311","3,312013502609","-4,23205825887539","-1","-3,04631882953655","-0,78142877424919","-2,85669581202936"
"6312","12,6776630426274","-4,08162578410547","2,39422521943759","-7,19921561038938","0,318908647629724","-1,49171168205271"
"6314","9,85497913194068","-4,02871162036259","1,42229323817969","18,7253267939755","-13,561176161558","4,07528448478125"
"6314","9,19876462513863","-4,01009922480843","1,12790729684564","11,6612730785687","-10,193691833965","2,5496008652243"
"6321","9,04620858536842","-4,0035523714943","1,0387415073395","-24,0661626154699","25,4534620067969","-3,05995360104384"
"6328","-8,66446827888916","-5,6495025887422","1,01173431405362","-11,8685470402897","14,782572511767","-1,54554076308962"
"6341","0,753214853025336","-1,93195444688607","1,00355417576044","12,1690783051792","-3,65471100349935","0,590692000608764"
"6341","0,942627655581651","-2,62431823734358","1,00107651502068","4,74576188415089","0,520122418160834","0,156433894724497"
"6349","-4,31590110093489","-4,51610813982395","1,00032606282521","15,9996106121462","-10,5553451961402","3,51176547890762"
"6360","0,996643973618931","2,41147274910747","1,0000987603182","11,1423058215694","-6,45387285222149","2,4003632375787"
"6367","5,53426195479297","4,14473428330756","1,00002991325504","13,8366978931659","-17,5485395757718","-3,09947643749326"
"6371","8,89172572228956","1,10615068354958","1,00000906034775","19,5881145043902","-13,4520917735762","0,179160763605767"
"6384","6,67226527259206","-0,610914874044535","1,00000274426509","-6,84167840345116","1,52632120217187","5,25295269330539"
"6384","6,15628750446479","-0,214887441874488","1,00000083120329","1,12617730365427","-2,55372293083138","3,59665301727565"
"6384","4,26881247014269","-3,37209210747478","-2,3942249676766","-11,8335963031062","10,2848446831464","-3,78266112720594"
"6390","6,59753539289818","-5,77913531575316","-1,42229316192446","-17,1587139518603","16,0745458540027","3,46856872774899"
"6399","138,702995389545","-4,62580541576875","-1,1279072737489","-12,1725985660383","11,5897513106558","2,38892337379821"
"6402","-48,7544774436422","-14,1096434619515","-1,03874150034379","-20,2712755506755","12,1543420597374","2,10299919086418"
"6410","-14,8694304170256","-6,50079538261015","-1,01173431193471","-4,14601321825515","7,82551346952461","2,0272774382652"
"6410","0,310691957072737","-5,1761532469478","-1,00355417511865","22,6874396515029","-8,69030114471162","-1,46311291666708"
"6413","-4,46281282957643","4,17930389773772","-1,00107651482629","19,8444561531395","-15,1806566574568","-5,59298376827558"
"6413","-2,5725520665589","1,47005738697314","-1,00032606276633","14,3031615907505","-9,87922827597705","-3,68670398348159"
"6413","-2,1331062860255","0,517088197908773","-1,00009876030036","13,2481176142575","-8,49180723737353","-3,18186089967046"
"6421","-2,03094440560836","0,181884194988523","-1,00002991324964","13,0472407650301","-8,12870940791226","-3,04816250906434"
"6421","5,06289039836939","5,00873636905289","-1,00000906034612","-6,89664225664496","-2,81880522452754","-1,27758653143796"
"6424","-0,822984708567488","-2,88644532634206","-1,00000274426459","-19,5995277109796","12,9537637623948","1,66165474265027"
"6424","-0,19132659614971","-1,66355138438515","-1,00000083120314","-11,0181146732466","7,0815558347595","0,440058647844089"
"6434","-0,0444794004228236","-1,23340217369205","-1,00000025176095","-9,38424229318769","5,54475778042428","0,116541426189115"
"6450","8,82726487748456","-12,6198698724386","-1,00000007625522","-21,7403818295666","13,8340318226107","3,50120069350892"
"6450","5,88975840492474","-9,62502512356406","-1,00000002309674","-17,0929495272027","11,0033930538322","2,3975653487887"
"6456","5,2068500729572","-3,62683846740891","-1,00000000699571","-5,35047389919247","1,57113012315523","2,10528785873928"
"6468","-0,254474958727577","-6,16524767596956","-1,00000000211891","7,17168430038235","-20,2334610072414","2,02788354979044"
"6468","1,47588209663226","-6,05812536553532","-1,00000000064179","0,555861396980722","5,44305413485731","-1,46295239919531"
"6474","7,18071687619174","-1,07568626113278","-1,00000000019439","24,6306775739967","-20,4350302328434","1,34773242920153"
"6485","5,50697070400523","-2,32312851711814","-1,00000000005888","15,2144421630757","-14,2075066499412","1,09209052800096"
"6485","5,11786000169284","-2,76191252232685","-1,00000000001783","-19,1512377293433","6,54350275528772","1,02438847986358"
"6491","-2,04268435446839","-4,56450650950327","-1,0000000000054","-14,9327617580528","14,8805314651442","2,7416272614565"
"6496","0,292640027648004","-5,84681649424203","-1,00000000000164","-10,1295780230284","9,06239042826911","2,19640631805397"
"6500","-0,931967362450139","-5,29786511659156","-1,0000000000005","-16,4534812429298","14,4929139675242","-1,41832224852111"
"6520","-3,75170492599444","-3,45652009249027","-1,00000000000015","-13,6575312938631","10,1758271383907","-0,375616519407577"
"6520","-2,40723446919514","-3,80883260173096","-1,00000000000005","-13,1251917621659","10,0460151969256","-0,0994751156156338"
"6526","1,44036873063287","-5,5810105041907","-1,00000000000001","14,1202140073395","-7,37088727124241","-1,76151257370103"
"6526","0,334855366768782","-5,20436867107388","-1","4,30764826490938","-1,92901296356702","-1,20167257667779"
"6526","0,0778468139922674","-5,07188605613022","-1","2,43936852198439","-0,504836239746533","-1,05340926675208"
"6537","0,0180977432353091","-5,02528570078185","-1","2,08365429907418","-0,132119189334087","-1,01414446040203"
"6537","0,00420734380014204","-5,00889416805494","-1","30,9695809398912","-29,585557131144","-1,00374589977041"
"6543","12,3736256793767","3,23813676811067","-1","15,0405548717996","-18,5554357106373","-1,00099203254781"
"6569","-0,588350706514256","1,1390047224293","-1","-6,70751856843214","11,1439121623657","4,20524254399109"
"6569","1,39826302340287","0,400641433830846","-1","1,1517208881417","2,916440074986","2,58401786313875"
"6577","5,39515099779239","-9,74859391625894","-1","-24,4959562702677","19,8844755979432","0,419497950520058"
"6577","4,32434319707728","-7,31855646590859","-1","-14,379188336774","13,3251296583781","0,846264726114267"
"6577","4,07540295613648","-6,46379821144362","-1","-12,4529895127202","11,6085027606493","0,959286044798817"
