Timer,AX,AY,AZ,GX,GY,GZ
"0","-2,99966928646117","-8,999964000144","-0,999999960000002","-1,99990200480176","3,99985600518381","-0,99999951000024"
"6","-4,7456773690579","-7,22713569759981","-0,999999993333334","-7,19510110472914","5,74743608919453","-0,99999986586597"
"13","-7,6590760004094","-9,57539806205331","-0,999999998857143","-5,63459540979584","5,20160260093668","-0,999999960307369"
"15","-6,45309831428202","-9,13821718355633","-0,999999999803922","-0,0571059810460364","8,51266567910894","2,40425545258616"
"27","-4,39698655490322","-10,7929545731483","-0,999999999966358","5,40139526759684","-2,96350497395494","-3,68733012508325"
"38","-8,28883765966098","-6,67102077298276","-0,999999999994228","2,98982699387568","-0,0744335697429643","-2,50292768157787"
"38","-7,3521205877503","-7,68070616538505","-0,99999999999901","5,70603235454564","-4,47801326542231","1,25397088498948"
"44","-5,36941003623057","-7,92328807396031","-0,99999999999983","4,49646789832045","-2,6717453146083","0,373761966172469"
"52","-4,10092574405871","18,4146060804795","-0,999999999999971","4,14447579487884","-2,18209820684851","0,111404510340376"
"68","0,426010467204075","-13,1342698898402","-0,999999999999995","2,33305083996463","1,40847198739867","0,0332055320964324"
"68","-1,33719474919466","-7,71404369864339","-0,999999999999999","2,80591290877525","0,381811704413865","0,00989733143437365"
"74","-6,99929263053832","-8,17155253741649","-1","4,65251190930921","-3,35433321031941","0,00295002559332144"
"96","-7,27301465165502","-5,52172625937994","-1","-0,937092278343672","-0,638217858669833","0,000879292671865737"
"96","-6,34779767312615","-5,88509236348008","-1","0,436291957059772","-0,901927296215898","0,000262084371249961"
"96","-4,36822898616971","-7,73213791481753","-1","-6,00001386834202","4,21333912426303","7,81175822923005E-05"
"102","-8,28097934016625","-8,9356448065041","-1","-0,455040662702519","0,871079083486642","2,32839395729335E-05"
"113","-7,34997368903278","-8,22479330184035","-1","-0,841412840810742","2,6939696187495","-1,70193033333201"
"113","-7,0956155803413","-8,05400770484805","-1","-0,953849974964297","2,18812282055867","-1,20921926903161"
"121","-1,84574666468767","-6,25323057477681","-1","-0,986570004648016","2,05099675066283","-1,06236046578346"
"125","-3,41144094738281","-6,82058494458323","-1","2,42189357626192","-4,90184683274472","2,38528721634999"
"134","-9,01957727921401","-10,4763847317037","-1","1,4137814466068","-2,78663906352107","1,41290248482037"
"136","-7,55176448872438","-9,35470874878938","-1","-2,29757191716462","4,70242728601216","1,12307084044278"
"147","-7,15074642310086","-5,56573044688878","-1","-1,37760293310575","2,73257997131836","1,03668283026653"
"147","-7,04118511528395","-6,65540963159127","-1","-2,81887789423708","2,19858940040853","-0,691003488998115"
"147","-5,2844600098817","-6,91721045619181","-1","-7,36527748966889","2,05383405429942","-0,205962384016385"
"157","-2,35092463553319","-8,73985444576955","-1","-5,68831307605641","2,01459345461717","-0,0613897097556166"
"157","-3,54945956527243","-8,17775369733223","-1","-0,0733261234371403","0,275038239781854","-1,72023525768106"
"183","-3,87690878919282","-6,28296116275919","-1","8,81463225940716","-6,11219538368918","0,487261988713348"
"183","-3,96637050748367","-6,82772786569149","-1","5,40109325651125","-3,84366081438014","0,145234636921261"
"184","-3,99081215661549","-5,19886572197122","-1","6,11672107580637","-1,49978365505347","1,74522630528309"
"191","-5,72428189791845","-9,327013607216","-1","3,61598133885156","-0,135482459631591","1,22212418448186"
"217","-5,19787954400677","-8,3188215958444","-1","0,470262407287515","-0,765644671290351","-2,33766760674403"
"217","-5,05406225676613","-8,07659846848897","-1","1,5548351546074","-0,936470438678199","-1,3987088541419"
"221","-8,4683544150374","-9,77814820565469","-1","-6,6745096040987","9,39072845134099","2,28503429863055"
"225","-7,40116604173454","-9,18695396292941","-1","-0,651323862747092","-4,18325832844408","-2,02085371999708"
"237","-8,83639382547335","-10,8046616601184","-1","-12,8614814121945","10,2394997886558","5,50347065039066"
"237","-8,228509409486","-10,1933239517656","-1","-0,869763330073738","0,23358184329104","2,04425401459567"
"247","19,5662428522821","-10,0464470375298","-1","-2,38008552425265","1,52115545558762","2,01319047225309"
"248","11,1599890430215","-10,0111591309591","-1","14,2703263997264","-11,9611485287858","2,00393158812481"
"259","-13,5849631584366","-2,96370086061225","-1","9,11571824024348","-7,61596133995766","2,00117185987632"
"259","-7,34547984698852","-5,2705140837919","-1","14,4516602048259","-9,89589394985198","-1,40352525906312"
"259","-5,64080364832121","-5,82473739328159","-1","12,0044584043362","-8,51394312905075","-0,418338565559172"
"271","-5,17507262585479","-5,95789229013029","-1","-7,50661466708648","3,96310366223005","3,27918341332327"
"271","-5,04783122631088","-5,989883414017","-1","-2,18447985694723","0,345409128062718","2,38127689598829"
"276","-6,73985995881358","-5,99756944007954","-1","-2,34469231513987","2,82255205730375","0,411707157798845"
"287","-7,92892768288727","16,87726952576","-1","-1,3913153140915","1,49406144645469","0,824651831418097"
"287","-7,25379039132867","9,37306295554472","-1","-2,82286829755237","-0,594986515545894","-2,45613930004374"
"287","-7,06933754254213","7,57014013602563","-1","-2,23946070241292","-0,161290261813712","-1,43402085007096"
"287","-7,01894356512322","7,13697899330813","-1","-2,06968481854344","-0,0437229212364041","-1,12936543797057"
"287","-7,0051755318464","7,0329098820134","-1","-2,0202787926641","-0,0118525062824486","-1,03855901516847"
"288","-7,00141399624193","7,00790676225587","-1","-2,00590127721517","-0,00321300364209235","-1,01149300519587"
"298","-7,00038631495884","7,00189963881807","-1","-2,00171731489873","-0,000870988140237124","-1,00342563646543"
"309","-7,00010554430273","-21,1554643059817","-1","-7,12747777506748","5,18651724921491","-1,00102105454521"
"321","-5,27323674612609","-11,9204105422801","-1","-5,61911161713348","0,134890364017683","0,701632935104777"
"328","-5,80144252991722","-7,94189806242996","-1","-5,18016601581536","0,765484164700553","0,209130625705115"
"350","-5,94575252846711","-7,98604072154422","-1","6,91051909193396","-5,97924421661437","0,0623340445118666"
"350","-5,98517916164784","-7,99664621416849","-1","3,42899702718429","-3,80762011768257","0,0185794552668062"
"355","-4,26915874030831","-6,23944919235614","-1","5,83383395209534","-3,21893144940861","-3,3983367037176"
"361","0,380047881768631","-3,29778381120301","-1","13,0786224866818","-9,97501956678641","2,68901976961376"
"372","-4,80333626994807","-6,35077916839432","-1","5,05993099724297","-2,61972153164653","-1,90044070901168"
"372","-4,2194778238118","-6,08427643367657","-1","5,72643303383251","-7,08366662954746","-1,26838781286379"
"377","-4,05996307766395","-6,02024783086679","-1","0,793411985010587","0,62190839585491","-1,07999640328664"
"377","-4,01638238716097","-6,00486464171447","-1","2,35786672353645","-1,28924726767797","-1,02384394608129"
"385","-4,00447579776669","-6,00116875428118","-1","2,81313451267713","-1,80732757585968","-1,00710699158174"
"388","-9,18159909159306","-11,2795159309376","-1","-7,30833527337608","8,42573678448996","0,699818944117793"
"396","-7,59603012955408","-9,54766499974252","-1","-5,96274979937435","6,92865631142632","0,208589942605518"
"399","-1,98246387810576","-7,3718341864524","-1","5,6827814781926","0,336071063947391","3,46604743384602"
"400","-5,17558526101447","-9,60882509406699","-1","-0,346268961296939","-1,90889711199193","0,735036822040995"
"405","-5,04797128229175","-9,14627324620113","-1","-0,100766804290061","1,21144973117271","0,921024352730666"
"419","-3,2863140443908","-7,27539782835708","-1","5,09765414564815","-4,12943309737502","-0,725476970166104"
"419","-3,80501535125225","-7,82591073711732","-1","3,61043272250296","-2,57725143816962","-0,216237643808484"
"419","-3,94672865151896","-7,95817419180194","-1","3,17764039390165","-2,15648259777669","-0,0644523817057062"
"429","-3,98544584618731","-7,98995114229072","-1","3,05169465590925","-2,04241964902605","-0,0192108526266464"
"432","-7,44960786887113","-7,99758571213297","-1","-2,11193450029923","-2,01149921236649","-1,70766331252061"
"460","-2,94246015820105","-7,99941995537468","-1","9,63936763738843","-3,73203501814795","-1,21092805644006"
"460","-3,7110717494589","-7,99986064140405","-1","7,05908264224069","-3,19844167329668","-1,06286979161759"
"471","-5,64785460577225","-11,5194566063595","-1","-2,23676256600891","5,59079492290669","2,38513540530314"
"471","-6,90379109261997","-5,08582184821146","-1","0,0580783827669656","1,24448285079087","-0,289080037800705"
"475","-6,24692287602244","-6,54010921232071","-1","0,725893909448886","1,06627495242786","1,6157732891359"
"488","-9,52104546185906","-3,37001887107765","-1","2,62922579433494","-5,89770518398742","-0,518398207883242"
"500","1,94519088393065","-8,12787904350426","-1","2,1831093154712","-3,78551633620717","-0,154515183302852"
"500","-0,922142641731807","-7,27097852999706","-1","5,47127150138257","1,97381385121519","-0,0460552168353391"
"526","-6,88589711147302","-10,5845940227606","-1","2,71915810991178","0,535065828411151","-3,41760189031684"
"526","-5,51524200940885","-9,3807065672536","-1","2,91827295271001","0,145046829292971","-2,42253428465191"
"548","-5,14076819283758","-3,81223150764421","-1","6,39420217979136","-3,41851595681642","2,97987009925699"
"548","-5,03845898384236","-5,47437777707924","-1","5,40572304738379","-2,38453444588056","1,59012548008544"
"554","-5,0105072986189","-5,87371665594715","-1","5,11806837886527","-5,56207602127605","1,17589440962655"
"554","-5,00287067710159","-5,96965980072807","-1","5,03435876314585","-4,42345102596716","1,05242756732584"
"565","-5,0007842916929","-5,99271061675817","-1","5,00999865176653","-4,11479004155391","1,0156267036658"
"565","-5,00021427469471","-5,9982486895498","-1","-1,83306101756127","6,34238917863","-0,697279535504224"
"582","-6,72685063095397","-9,5190693269376","-1","0,175558490633561","-2,00960888689578","-0,207833039550223"
"582","-6,19858134219226","-8,36496393434019","-1","0,760081481424813","-1,27368701212912","-0,0619472824445497"
"588","-6,05425399358204","-8,0876843939951","-1","-5,90578874486962","7,57039724987807","-0,0184641759104788"
"599","-4,28803053081525","-8,02106661022325","-1","2,99036488769768","1,51003561822724","1,69643379079034"
"599","-4,80548430892183","-8,00506135751275","-1","1,5792107625045","1,86717937070722","1,2075809545748"
"605","-6,67364886387635","-9,76096106020305","-1","-7,3764087982573","1,96399468977337","1,06187214530944"
"618","-6,18404619856941","-9,18282466605476","-1","-4,98255969377941","1,99023960079531","1,01844178033112"
"618","-6,05028287736275","-9,04392453210301","-1","2,55003862995371","-1,46048144302939","2,70743408073525"
"624","-4,28694559045028","-7,25080804255237","-1","5,8690579451773","-0,395910542786256","-1,19301481582394"
"635","-3,07839580521926","-4,30051283125739","-1","-1,29206114485799","-1,8362420926069","1,34634402453562"
"635","-3,74821044355513","-5,59168978501107","-1","-0,375999257996006","-1,22669035773435","-2,3006423025206"
"640","-3,9312091013759","-5,90190144725385","-1","-0,10941853841529","2,39638384838431","2,01620155580093"
"640","-3,98120578231946","-5,97643133652399","-1","-0,0318415962115155","1,37853482493079","1,30289180649056"
"640","-3,99486527105637","-5,99433751179304","-1","-0,00926613774942842","1,1026140583416","1,0902807577054"
"641","-3,99859715143388","-5,99863955914485","-1","-1,71168918858041","1,02781684610197","-0,675027944605925"
"651","-3,99961673067438","-9,51916323529497","-1","-1,20710676727255","1,00754065222218","-0,201200669696033"
"651","-3,99989528778835","-8,36498649628846","-1","-2,76926226102996","1,00204413669786","-3,46384496701508"
"657","-5,72676348120778","-4,56819972666219","-1","4,61210974536912","-2,45728144330408","-0,734380348772132"
"657","-6,92534962160453","-7,41574793227104","-1","-0,657842278628739","3,79171027883159","4,18498313770135"
"662","-7,97960492609399","-7,09988550118468","-1","4,93554110182456","-6,15888814214458","-0,752612515229006"
"686","-7,26763581505952","-5,26425294271812","-1","-6,69069940849371","-0,398482818305098","1,47761153504899"
"686","-7,07312022183084","-5,82323312310825","-1","-4,07402056365719","-0,836939390749044","1,1423581963892"
"696","-5,29318493361577","-11,2367660136951","-1","-5,0215405262532","4,23095618954704","-0,659505601237828"
"699","-5,80689253254128","-6,01790403230261","-1","-2,58828310169764","-2,581980815861","3,20730050910443"
"711","-2,49365733347206","-6,76404657646991","-1","2,24679065724178","0,30007092445429","0,657914008154838"
"733","-7,04203944627352","-8,70305606458256","-1","-2,76415280937592","-1,64757389570545","-0,803900356865325"
"733","-6,28469341986632","-8,16891270387841","-1","-2,22237406524015","-1,17554576524516","-0,239612732276749"
"747","-7,80457258381207","-8,04058211424213","-1","6,48025089112659","-1,0475873346654","-3,47529417112196"
"747","-5,49302350512708","-6,25000501009619","-1","-2,82319219498184","-1,01290008002981","4,36801889045401"
"750","-5,86149001111871","-6,81980998668274","-1","-3,23955495893756","-2,73241476845536","-0,698056379699459"
"759","-4,23536588592989","-6,95670845627457","-1","-4,06971224788258","1,25929095555473","-0,208064587849193"
"767","-8,24468009015553","-5,22985394808965","-1","-3,3112941001854","0,341371380046671","-0,0620162983618787"
"771","-5,61326435736912","-9,33445868211933","-1","0,327396485732277","1,8214574956328","1,68345252642355"
"771","-5,89434076312704","-8,32061031198789","-1","-5,74069592281664","1,22268251645651","1,203711723523"
"780","-2,51754888183498","-8,07702821640736","-1","-1,08856991556877","-0,668552516667738","-2,34315567506072"
"783","-3,59498262745779","-8,01850641074553","-1","-1,73476716885636","1,54768508994468","2,00352990406494"
"783","-3,88934604989604","-8,00444625689982","-1","-1,92281530320521","1,14846768664597","1,29911485942369"
"791","-3,96976846549382","-8,00106823525594","-1","-1,97753868782528","1,04024694917335","1,08915499056445"
"799","-7,44532468444838","-6,24051160483804","-1","8,26049245408447","-4,17584312652766","1,02657377957706"
"799","-6,39487413715892","-6,81752914901993","-1","5,23983451387621","-2,58983237161472","1,00792065319663"
"805","-4,38109064854596","-8,71590551769859","-1","0,942815576565612","-5,61772863747206","1,00236085148819"
"816","-4,83090906924608","-8,17199984867173","-1","3,40134426311745","-0,980701887963748","2,70264095523817"
"816","-4,9538030201094","-8,04132381607869","-1","1,40780144595017","1,73414916113561","-2,89638074128503"
"822","-6,71417070906096","-8,00992825161471","-1","-6,71729749039613","-1,25882079254738","-1,56524041440678"
"822","-2,74153290840078","-8,00238531165508","-1","-5,79075347494925","5,84550943139036","-1,16847709909891"
"831","-8,83655310359785","-6,2408280389704","-1","-1,10313702993008","-1,41538636256581","2,35365780328706"
"831","-7,50176083611726","-6,81760517388848","-1","-5,15699165507983","4,80306729006533","-2,00039961109076"
"832","-7,13708502965032","-6,95617873907365","-1","-4,33669304703486","3,48877947261638","-1,29818183576477"
"832","-7,03745271452361","-6,98947172488324","-1","-4,09798014309256","3,13249942149552","-1,0888768909887"
"842","-7,01023237788083","-6,99747052972482","-1","-0,610527590147338","-7,33758848071045","4,07932093176032"
"853","-3,54921138775649","-5,23964723825387","-1","6,94931002277085","-4,17584308789258","-2,48604375383619"
"864","-4,60363307454457","-5,81732148066426","-1","4,14927814683356","-3,31875014734415","-1,44293425310562"
"864","-4,89170942047027","-5,95611058037054","-1","3,3344483596308","-1,35748970938754","2,27185235563074"
"869","-4,97041415703035","-7,74920039339342","-1","-2,02965110123718","3,36092647057491","3,08102905435016"
"875","-6,71870900307162","-8,939744151544","-1","4,53633468542092","-1,81783039814939","0,620277194059855"
"885","-4,46956489563741","-11,7452682777554","-1","-3,3888860507723","0,507218511361671","-2,51705576170129"
"885","-4,85508093343475","-10,4193093533215","-1","-3,40417601489656","5,32425127554704","0,24975949667949"
"891","-4,96040696461939","-10,1007411502425","-1","-2,40862550646156","7,08789875360188","0,0744439965729034"
"897","-6,71597495894218","-6,50471347266849","-1","1,29907233351612","-1,34967892849989","1,72412625400356"
"907","-6,19561002256568","-7,64075000113329","-1","0,378039565255163","-1,36587395185329","1,21583504566622"
"907","-6,05344220555517","-7,9136884073208","-1","3,52799763200838","3,087571437769","-0,63760489120082"
"907","-6,01460083331692","-7,97926321209653","-1","2,44465850408183","2,29482127301311","-0,190046252360654"
"907","-6,00398906316336","-7,99501788393418","-1","2,12939888198152","2,07992080336293","-0,0566457041574889"
"927","-6,00108984361206","-7,9988030219237","-1","2,03765602255295","-4,89400603650679","-1,71882124643751"
"927","-6,00029775389612","-7,99971242008492","-1","2,01095817840768","-2,78451356311896","-1,21425382064649"
"927","-2,54649716989516","-6,24018586352375","-1","3,71218158480681","-3,941585459647","2,34001346884808"
"933","-7,05647570757847","-6,81745088805479","-1","-3,62872064028785","1,93150628772772","-0,302529205209678"
"945","-8,01542961006647","-6,95614167113746","-1","-1,76497696270841","2,25251478664332","-0,0901726797789545"
"949","-0,370255044465764","-10,5089529070807","-1","-1,22261389989714","1,3395344811771","-0,0268771147991558"
"966","-5,73511705414471","-5,84304332637955","-1","-7,90075297407135","8,00771290362887","3,39586348069304"
"966","-5,20083979440024","-6,72203542525811","-1","-2,42615501534572","-4,55816924483395","0,714117601601109"
"966","-5,05487102059094","-6,93321763331927","-1","-2,83300690583149","-1,96455639595499","0,914789112848144"
"981","-8,46857537571214","-8,74370024940637","-1","9,0115449360126","0,467443703054913","4,37847635745311"
"993","-5,67443432052647","-6,41893262673947","-1","5,45839628786414","0,126715673849725","3,41087242164712"
"993","-5,91105288095198","-6,86039568379054","-1","4,42440400307937","-3,42348520701544","-1,98334606594136"
"993","-5,9756989434521","-6,96645937114839","-1","0,705519324583191","-2,38588152122543","1,11077573721359"
"993","-4,26656866970314","-6,99194169769025","-1","-0,0856960337299306","-2,10460561703725","2,73495539168081"
"999","-4,79962075869006","-5,23831890895655","-1","-4,44292352280629","1,42947885016335","-1,18481173884408"
"999","-4,94525480615657","-5,81700234296735","-1","-2,71090864048629","0,387506291278673","-0,353148217379828"
"1006","1,92212517767402","13,4011615777832","-1","-2,20687962205935","3,56288163570563","3,29861422624919"
"1009","-3,65523646455675","7,01842070541747","-1","-2,06020348549167","-1,03416615869524","-4,42068059655718"
"1021","-3,1790157854224","5,4849355778172","-1","-8,85349035376093","4,90640930687482","-2,72151465882176"
"1021","-3,04890852869746","5,11650817592275","-1","-6,83038659585324","3,51679365531137","-2,21505662648558"
"1021","-3,01336219693535","5,02799166668271","-1","-6,24164858229288","3,1400935681582","-2,06410036446229"
"1030","-1,27685856849323","6,76647018062428","-1","7,60161988932299","-3,87769427021579","-3,72104320281379"
"1030","-1,80243204043866","6,18414825953929","-1","5,33910509641963","-5,23792730580729","-1,51297882961585"
"1030","-1,94602287056918","6,04424253199743","-1","3,68069671789807","-3,60666228837563","-1,85483714204655"
"1039","-3,71204511066102","4,25088444360302","-1","1,48909505665497","-3,16445535616019","-1,95673236275829"
"1041","-3,19453635692786","4,82002127494125","-1","-11,8206184780262","7,32892579519759","-1,98710353007048"
"1052","-3,0531488716096","-0,322475912603372","-1","-2,56686459151145","2,4445770017236","-0,294218769602854"
"1052","-3,01452069216255","1,4420136517516","-1","-2,87395442324721","2,12051691783059","-0,789632922089327"
"1058","-1,27717507855368","3,62568605841621","-1","-6,38130516306749","-1,42516557951989","0,76463985823408"
"1058","-1,80251851349096","3,15032417644937","-1","-5,40196992104156","-0,386337040323939","0,2279106410073"
"1069","6,68791395137056","3,03611612840213","-1","-5,11697619160659","-0,104729100162903","0,0679316670783033"
"1069","4,00756726508105","3,008677078841","-1","12,0558858175203","-8,67297912733475","-5,08556392230817"
"1074","-3,63189301038002","4,76182975517176","-1","7,05331445996217","-4,26676152686639","-0,217754322355117"
"1074","-1,7190539902562","4,18303337432626","-1","5,59752954916317","-4,07231430525888","-0,766841720455203"
"1086","-1,19645123827762","4,04397467529961","-1","-3,37107789714751","2,89606802285208","0,771433065935488"
"1086","-1,05367203234219","4,01056513368026","-1","-0,981008362505565","0,785072530942259","0,229935443017098"
"1091","-4,46824780263787","7,52202841368053","-1","-0,285480619750787","0,212819199679262","0,0685351850861556"
"1097","-10,308305272033","4,60592982561909","-1","-0,0830769516022664","5,24444485839578","1,72236505754089"
"1108","-0,996686813308935","4,9053226875839","-1","1,6848166731306","0,150593508554416","-3,89050172157307"
"1108","-2,45267899001142","4,97725330646904","-1","1,1992866684252","0,769741007885149","-2,56348809776173"
"1114","-2,85046757044029","-0,284700137783161","-1","-4,06898414348912","-0,791336903531943","1,23591974799121"
"1114","-2,95914655735489","1,45108946886979","-1","-2,60208954185594","-0,214517359668925","0,368381609936984"
"1114","-2,98883851629462","1,86812152448242","-1","-2,17521246721638","-0,0581518407569999","0,109800827084713"
"1114","-2,99695059435779","1,96831554266406","-1","-2,05098811145834","-0,0157639297287945","0,0327275339030885"
"1114","-2,99916687825596","1,99238765209612","-1","-2,01483791394181","-0,0042733209690264","0,00975485798983504"
"1122","-2,99977238454905","1,99817109568912","-1","-2,00431794165046","-0,00115842130855002","0,00290755956998241"
"1140","-4,72672990307056","7,27879572860442","-1","1,41672879658378","-1,72923181361555","1,70280390853968"
"1140","-4,19854835837948","5,54749196756262","-1","0,412278457886469","-1,19768177440631","1,20947964923989"
"1147","-4,05424498214347","-0,147697473339165","-1","-3,2980092978922","5,86208313177744","1,06243807541829"
"1177","-2,28802806881895","5,0034951259437","-1","-5,7957155633361","5,5047776176368","-0,683326810404098"
"1177","-2,80548363628496","4,2410946773535","-1","-4,52256638323449","4,40791844786158","-0,20367425226347"
"1190","0,506727588130368","4,05792419110509","-1","-5,86106332013729","0,652743863489632","-1,76264497637306"
"1206","-0,588350103822112","-1,26531855794254","-1","3,29438763930832","1,6347828239628","0,474621232325949"
"1206","-0,88753399197161","0,455745989482068","-1","2,66768361030619","-5,01467502540783","1,84340417201275"
"1206","-2,69606548634676","6,14847540856654","-1","-0,223684527597583","-4,54614256596965","-0,450549926276087"
"1216","-7,37054686539399","0,996691776850144","-1","-0,0650938361056608","-3,41913174962926","-0,134292139492341"
"1218","-5,64765215604443","1,75895022696901","-1","3,39904256609063","-1,38470137635951","-5,14583930147672"
"1229","0,00343257589651369","3,70183164135734","-1","7,53410965910652","-1,83320348695712","3,16815438059649"
"1229","-1,45264637193605","3,16861853013028","-1","-7,93449692281556","-1,95478443199067","-0,0556912670503381"
"1230","1,6031255199006","4,80025648151761","-1","0,69100327223434","6,65684606728766","-1,71853676431099"
"1235","-4,7423896945352","5,95201062975102","-1","-3,21689833515105","0,533470355030786","-1,21416902712819"
"1241","-1,7492425584611","3,46898022800843","-1","2,77285169407702","0,873532111039686","2,34003874263534"
"1252","-3,65828317274519","2,1126748240561","-1","-5,32005786867577","-2,49211876771907","-0,302521672035736"
"1252","-3,17984817020073","2,78681572887497","-1","-3,67515383509638","-1,40448685880176","-0,0901704344205893"
"1269","-3,04913594280356","2,94878142231593","-1","-1,48748203715594","2,34818637926955","-0,0268764455415193"
"1269","-3,01342432826811","2,98769448287092","-1","-1,85085351842217","-0,363448437898988","-1,70994814004577"
"1274","0,449916546147497","6,5165336264761","-1","6,5883660917808","-3,55635997955226","-1,21160907836201"
"1283","-0,60387132990056","1,84486463178453","-1","2,33524814424571","-4,15081929492524","2,34080176794453"
"1286","-7,79894287136761","2,72247300290809","-1","2,09755966579645","5,33262228886463","-0,302294242631619"
"1312","-2,31110915491591","1,17357771954192","-1","-1,38959477182599","4,63233241401831","1,61183462721423"
"1312","-2,8117895715916","1,80144795135162","-1","-0,404382257914836","3,44249628444514","1,18236509721178"
"1317","-1,2217873326914","3,71204193025999","-1","-1,82667087392533","-0,337882700020976","-0,647581035296095"
"1323","-1,78738614317176","3,17107160264157","-1","-2,94955995461009","0,637323795877229","-1,8949570424771"
"1328","-3,66870430182631","4,80084584434594","-1","-0,567336228064262","-0,827232854507914","3,8390584839548"
"1336","-1,45590321569061","2,43266213913862","-1","0,834901001678321","-1,95316589972857","-0,855719760720606"
"1339","1,60223572442331","6,38318435514102","-1","1,95195498207505","-1,2583863222145","1,44687910832622"
"1347","0,437743474538604","5,33231689641694","-1","-2,14095947601626","-1,07004393624084","-0,568739267921147"
"1356","-3,3339891987726","1,56035069338175","-1","5,50394313298376","-1,01898766529924","-0,169519976917356"
"1356","-2,36445640174317","2,65411711914903","-1","3,72866579403993","-1,00514721834416","-0,0505275865320505"
"1357","-9,00674072966989","1,15715487969543","-1","1,50305440920409","0,727522466859085","-0,0150603902099309"
"1362","-1,64108908419493","1,79750228268652","-1","-3,27159283109019","1,92613618710614","-0,00448894096953372"
"1373","-2,62873478801813","1,95134891983197","-1","8,59290589356989","1,25105904787851","1,70059928742163"
"1373","-2,89856740716055","1,98831133687373","-1","6,04556193443944","1,06805764249274","1,20882253385834"
"1378","-2,97228781324484","3,75693678473102","-1","-3,24069719102344","6,20520257500091","1,06224221381598"
"1378","-4,71922090077114","3,1818578139282","-1","0,765926052682426","-0,588962162705442","1,0185520839592"
"1384","-2,46970475013833","4,80343728506427","-1","-0,777109907967974","-4,61749273931446","-0,69640758867765"
"1410","-2,85511914279073","4,19302978959084","-1","1,48284799877118","-0,980637940168957","-1,90951041810817"
"1410","-2,96041740371771","4,04637636360939","-1","1,14051230468878","-0,994751289957325","-1,2710911550865"
"1415","-2,98918572157408","2,25139710722311","-1","-0,668102564646482","4,1881761905461","2,32307237797259"
"1415","-2,99704545358674","2,82014444491675","-1","-0,194422740419082","2,59317564591174","1,39435856045903"
"1428","-2,9991927945477","2,95678881152287","-1","-0,0565784416829281","2,16079936726439","1,1175435877859"
"1428","-2,99977946508496","2,9896182978127","-1","5,11051328286349","-1,4142457239502","2,73697263567557"
"1428","-2,99993974811665","2,99750574459754","-1","3,61417482563072","-0,383376861701761","2,21966407321424"
"1428","-2,99998353870884","2,99940074277797","-1","3,17872937332417","-0,103926648388768","2,06547367259687"
"1428","-2,99999550264504","2,99985602548247","-1","3,05201155689839","-0,0281726659177588","2,01951526137431"
"1428","-2,99999877128705","2,99996540940862","-1","3,01513574406199","-0,00763710864555728","2,00581677201541"
"1429","-2,9999996643059","2,99999168943899","-1","3,00440461239716","-0,00207028431864803","2,00173376292689"
"1429","-2,99999990828572","2,99999800334653","-1","3,00128177447304","1,72835656894643","-4,80723232352083"
"1442","-4,72679206435527","2,99999952029411","-1","-0,417612343473495","-2,26039106126165","2,2690804996896"
"1443","-4,1985653413342","2,99999988474828","-1","-2,83052092573833","-1,34166959913711","3,08020286741062"
"1456","-2,32745753260871","4,7597450162866","-1","-3,24168767327346","2,36521502108412","-2,78384360828506"
"1466","-2,81625607770255","4,18253250547709","-1","-2,36134020875995","-0,358832275977933","-1,53169728970179"
"1469","-2,94979970690593","4,04385433907628","-1","-2,10515264770445","-0,0972730477540152","-1,15847914389088"
"1480","0,467299296011791","2,25079117832981","-1","-0,32160751614806","3,43146657927747","0,654700547670206"
"1480","-0,599122225129868","2,81999886749714","-1","-2,51157549233185","0,65912734308464","1,89707910374735"
"1481","-0,890477020726699","2,95675383582633","-1","-2,14887221575482","0,907595485540423","1,26738584363297"
"1481","-0,970077455671406","2,98960989472826","-1","-2,0433229053306","0,974950779655435","1,07969775360574"
"1481","-0,991824924184518","2,99750372571486","-1","4,82336341566121","-0,735708184307619","1,0237549297431"
"1492","-7,9049348622669","2,9994002577314","-1","2,82161943617488","-0,199437403310888","1,00708045912927"
"1492","-5,7936511841132","2,99985590894763","-1","0,530104599986357","-1,78298171900622","-0,699826852452919"
"1492","-5,21683178174699","2,99996538141055","-1","0,863256996432405","-1,21225241775101","-0,208592299785449"
"1503","-5,0592401580401","2,99999168271231","-1","-11,0027419380542","0,67137993091495","-3,4660481364335"
"1503","-5,01618487980102","2,99999800173041","-1","-7,45583455097293","0,181999157971491","-2,43697430486266"
"1509","-3,27762974778121","-0,51949056804697","-1","0,412312179590952","0,0493367346521529","4,67750334086743"
"1509","-0,349058553895949","2,394679904372","-1","-4,71598483386381","3,47120988365647","2,79806394624209"
"1515","-5,00253391583201","5,61431389102109","-1","-4,20835683151727","-1,0590167401834","-1,16600143100017"
"1547","-0,82031601761306","4,38784691289556","-1","7,90231535805619","-0,287080602377296","1,35439570767071"
"1547","-1,67770100401833","4,09318214300161","-1","4,42660968053037","-0,0778224452306947","1,10563215092136"
"1553","-1,91194536472335","2,26264242769264","-1","1,70616119287886","-3,47893185314169","2,73342228032608"
"1562","1,47764140174617","6,34233627684442","-1","5,33247610388068","-0,671994334602247","0,516668571211874"
"1567","-6,50346503768045","5,32250294316214","-1","-2,44821039134263","2,54675207431951","-0,846000356919432"
"1570","0,496409816063065","3,3177378864505","-1","4,41453086589326","-2,03853859590337","-1,95409844648898"
"1578","-0,591169000770539","3,8360831459126","-1","-1,71533917989712","2,17630623071403","2,11949336241394"
"1581","-2,61509622632939","7,4801082513825","-1","-2,2081689414833","-0,410042089077223","1,3336792440044"
"1603","-3,89484124421814","1,07636821091687","-1","-3,0605786868888","5,07559824135104","-0,60247992813092"
"1603","-3,2444777066405","2,53783792910823","-1","-2,30863616702938","3,56265776621918","-0,179576810096545"
"1609","0,386790935408156","2,88896327198212","-1","-2,08981538548358","1,42360872667421","-0,0535251536503354"
"1609","-0,621117746115226","2,97332287579306","-1","-2,02613693510779","1,84375057761341","-0,0159538532383538"
"1609","-0,896486371057396","2,99359068869683","-1","-2,00760603957942","1,9576435606749","-0,00475524899589593"
"1609","-0,971719257719244","2,99846013119471","-1","-2,00221341323476","1,98851792265918","-0,00141736248134764"
"1620","-0,992273477491607","2,9996300388879","-1","6,54431925362119","-3,1898659455527","1,70151481048076"
"1631","0,728903036482963","2,99991111500928","-1","4,03142286629864","-1,5936337084397","1,2090954171576"
"1631","0,199142075618514","2,99997864494046","-1","6,71813695889475","-6,34767689847668","-0,639613723250326"
"1642","0,0544071903898248","2,99999486934111","-1","5,49999044104909","-4,6364134509198","-0,190645010318599"
"1642","0,0148644748073493","2,99999876733377","-1","1,72751553173196","-0,714684794760269","-3,46069871840005"
"1648","-3,44952308672057","6,51948979179863","-1","2,62969769829832","1,80626166366913","2,67043197748165"
"1655","-7,57639744210852","0,0858298211776924","-1","-3,94373138087054","-1,23927237571813","-3,60791831042245"
"1666","-5,70389216200187","1,54011112786536","-1","-1,8566473957922","2,39297308709523","-0,777323242337572"
"1666","-5,19230890685956","1,88950941924955","-1","-1,24929066744553","1,37761022820981","-0,933628358462141"
"1682","-1,59895613580583","3,73319913435718","-1","-1,07254541037619","4,56019898902105","0,721720185851781"
"1682","-2,61722373322184","3,17615472578153","-1","-1,02111124584236","3,42294219590811","0,215117886432534"
"1691","-2,89542249593099","3,04232204589599","-1","-2,7151362018054","-2,0721012518331","-1,63781864963741"
"1694","-2,97142859861883","3,01016808127557","-1","2,91886815048024","1,16720799164368","0,511827307623424"
"1718","-1,26540197771375","6,52193301987251","-1","-0,150587986384055","-4,14142624606879","3,55643118966828"
"1718","-1,79930200920934","5,36565195076034","-1","-0,0438222071523873","-2,58050256746793","2,46391412414766"
"1724","-1,94516772127694","5,08784969334987","-1","3,40523276593886","-3,88628170730693","-2,96753631147089"
"1724","-1,98501938769731","5,02110632421246","-1","2,40893302875597","-3,2402552072648","-1,58644923766869"
"1735","-0,269115088801123","5,00507089899549","-1","2,11900250695891","-3,06512891346167","-1,1747986587882"
"1736","-5,98069272876831","3,24147326463876","-1","-11,6373107956746","9,08476921337563","4,05371085537627"
"1741","-2,81434883253063","5,57750523652946","-1","-2,51352071314822","5,37839049501013","-2,49367716303149"
"1749","-2,94927863243753","5,13874849520579","-1","-2,85843096387919","-2,5420139979464","-1,44520948786358"
"1752","-4,71293461055845","3,27358996963761","-1","0,459182975793161","1,03982300413573","-1,1327003538579"
"1774","-4,1947793753363","3,82547639010018","-1","9,67858898273343","-5,9048758366897","0,662384244115716"
"1774","-4,0532152661612","3,95806983777844","-1","6,36150366643013","-3,78746017261607","0,19743205385369"
"1774","-2,28774674226693","2,230181026743","-1","1,9782221912319","-4,94238423307267","-3,34502741052446"
"1781","-1,07861468623316","6,3345372643868","-1","6,12064052196966","-4,25546360414899","2,70490928289568"
"1794","-0,0214781541672651","3,56088414779071","-1","10,4530926248658","-0,611416066951905","1,50816990945442"
"1794","-0,732660091035654","3,89450024023819","-1","0,168904550591576","1,83425597901945","-2,2524080380283"
"1794","-0,926960622055155","3,97465315985793","-1","2,17613048536458","0,497234171463493","-1,3732961546223"
"1794","-0,980045064161066","3,99391029603633","-1","2,76024793608162","0,134791339975981","-1,11126566967358"
"1794","5,91262020397581","3,99853691844201","-1","-12,4507036784317","5,22329289344955","-2,73510142228568"
"1805","-11,7453779244474","0,480158399451828","-1","-7,87720202429664","3,60269515947607","-2,21910633424921"
"1805","-7,56968269827476","1,63485052309746","-1","-3,12829419105888","-0,294455634329759","1,33856711541282"
"1805","-6,42884973028125","1,91227102848474","-1","-3,7463272240195","0,649096100983524","0,398976964148312"
"1805","-6,11716513876622","1,97892267980661","-1","-3,92617936393951","0,904876194224516","0,118920161782034"
"1816","0,87515791489331","3,75468111334024","-1","-3,97851765414199","0,974213628145559","0,0354456676676907"
"1816","-1,21448411346241","3,1813158776974","-1","13,0961782661843","-5,92266137157898","0,0105650323509582"
"1842","-0,0585987564933137","4,80330708219897","-1","6,35604718306367","-7,25011708719286","0,0031490423490749"
"1842","-0,742801733236909","4,19299850770716","-1","5,39461966383608","-5,60996672129933","0,000938612148723596"
"1880","-2,65652348834322","5,8061138919582","-1","-1,72113348555293","0,0214022294556626","-1,70165750811026"
"1880","-2,17936741050198","5,19367285766243","-1","0,208130222359992","-1,4520338086644","-1,20913795000213"
"1886","-3,7757966848631","3,28678581992425","-1","-2,64842525527704","3,33529724684148","0,639601045794717"
"1886","-3,21195379131228","3,82864675853049","-1","-1,47970382463143","1,63305754754848","0,190641231641613"
"1886","-3,05790745246556","3,95883153450624","-1","-1,13959732698184","1,17161064145052","0,0568230453042381"
"1886","-3,01582077409557","3,99010907213324","-1","-1,04062384475556","1,04652059259558","0,0169368318167259"
"1886","-3,00432236063453","3,99762365556034","-1","-1,01182183640908","1,01261090522797","0,00504823827114851"
"1897","-1,27438881370543","3,99942907147115","-1","2,41454510824012","-2,45441698029825","-3,40236985514945"
"1908","-1,80175728389342","0,480372743638611","-1","1,41164298858211","-1,39426657480361","-2,41799418271835"
"1909","-1,9458385217433","1,63490202035063","-1","6,24676914897177","-4,56471422832947","-0,422651212394721"
"1914","-1,98520265569115","5,43177348890783","-1","2,94483360617728","-5,15308398317838","4,27789797404863"
"1914","-1,99595724847913","4,34399067661331","-1","2,98394617528264","-4,31258055885418","2,6789564810467"
"1927","-1,99889548830396","4,08264546488226","-1","2,99532821940684","-4,08473502988418","2,20237161997909"
"1927","-1,99969823866731","4,01985598253084","-1","1,28964780300749","2,89270098532369","-3,04549238338346"
"1927","-1,9999175564168","4,00477049820975","-1","1,7932823070735","0,784159786955124","-1,60968503701747"
"1940","-1,99997747576089","4,00114613583759","-1","1,93984363707218","0,2125717710186","-1,18172438449667"
"1940","-1,9999938461997","4,00027536481526","-1","-4,85347664074965","5,24437778488669","2,34970928128144"
"1940","-1,99999831873308","4,00006615776158","-1","-2,83038260526651","3,60841089852452","1,40229802848727"
"1956","-0,273207451252241","5,7597609387065","-1","6,30331595208369","-2,02182398533773","1,1199100472741"
"1968","-5,98181079456295","1,66304624296458","-1","3,96128914010982","-0,548080521853796","1,03574071563647"
"1968","-4,54144638636262","2,67879023389787","-1","3,27974218158277","-1,87749266740601","1,01065297515301"
"1974","-5,87471952532571","2,92282776177078","-1","-2,04557099979284","0,491045131331414","-4,10263656539913"
"1992","1,66818806378487","4,7412040312744","-1","-0,595276145530089","0,133113601275697","0,777156959095034"
"1992","-0,27102991403839","4,17807794193835","-1","-0,173229718974822","0,0360847297203445","0,231641522218962"
"1998","-5,98121587417053","2,28303906413277","-1","-3,4683964664303","1,73869971461959","1,77098097711137"
"2006","-4,54128384940524","2,82774658188258","-1","-2,42731412829726","1,2002483539705","1,22980069218952"
"2024","-2,42109094011852","1,19887021862888","-1","-3,83334421619134","2,7832015533063","-0,633442252519445"
"2024","-2,84183746532951","1,80752459960749","-1","-3,24250927147697","2,21231201091974","-0,18880552492546"
"2035","-4,68358083378176","3,71350187511947","-1","-1,36157929985569","-1,40028156246956","-0,0562758895551956"
"2035","-4,18675969131529","3,17142236162959","-1","8,43974114812185","-0,379591425893765","-3,42064829189534"
"2040","-2,32423213563391","6,56067515990758","-1","-4,96195885079755","1,62601730213297","2,68236951680687"
"2062","2,36500139450276","1,85546985395792","-1","5,68301165002245","-0,559215630065111","-0,200485628089313"
"2062","0,64613708952901","2,72502096009498","-1","3,7807760442436","-0,151593410988092","-0,0597572929511066"
"2073","-5,00384650405359","4,69367996683661","-1","1,51821887374088","-0,0410942774477331","3,38606312514219"
"2073","-3,54746671651088","4,16666004992678","-1","1,85979816302748","-0,0111399277049312","2,41313375431056"
"2079","-3,14957223773423","4,04004090296605","-1","1,95920023840889","5,18373352234436","-1,28073477355544"
"2079","-3,04086431855329","4,00962002538125","-1","1,98812697050312","3,59197131758045","-0,381739298649015"
"2087","-3,01116445508953","4,00231125877492","-1","1,99654486144192","3,1604728952742","-0,113782256203207"
"2090","-3,00305021744786","4,00055529137533","-1","0,290001854752068","4,77241913390811","1,66802302388464"
"2101","-3,00083334353577","4,00013341150496","-1","0,793385338724736","-0,977364269808966","-0,502824509480247"
"2101","-3,00022767604621","4,00003205277526","-1","0,939873620037437","0,46397171625654","-0,149873244293711"
"2106","-1,27327011348454","5,75975274481451","-1","-2,43548256625249","0,854692266184865","-0,0446716278375938"
"2119","-1,8014516461435","5,18253436229422","-1","-1,4177359422386","0,960609657835527","-0,0133149471946423"
"2141","-1,94575501909225","5,04385478518579","-1","0,587428455350251","-4,19743137976433","-1,70590596287181"
"2141","-1,98517984210632","5,01053632948624","-1","0,170945983645155","-2,59568456309413","-1,21040425601216"
"2147","-3,72274310503963","3,24278636140097","-1","1,75873920810281","-2,16147949008842","0,639223607172664"
"2147","-3,19745913361952","3,81807567055792","-1","1,22079866761297","-2,04377421765603","0,190528731256803"
"2159","-3,05394739732264","3,95629177823027","-1","1,06425402971011","-2,01186641182944","0,0567895131327986"
"2159","-3,01473885570416","3,98949888310084","-1","-2,39928695590364","3,1835365854196","0,0169268371262781"
"2159","-3,00402677197139","3,99747705462119","-1","-1,40720275448039","1,5919179314829","0,00504525922646216"
"2159","-3,00110014595672","3,99939384986897","-1","-1,1184989844698","1,16045842325269","0,00150380372141021"
"2159","-3,00030056857818","3,99985436942692","-1","-1,03448407253112","1,04349742459776","0,000448227837464948"
"2194","-1,2732900283009","3,99996501153307","-1","-1,01003511771558","1,01179137815444","0,000133600011369901"
"2194","-1,80145708702887","3,99999159384742","-1","-1,00292029276631","1,00319643289383","3,40391436799671"
"2230","-5,39934068440984","5,75974302435658","-1","0,708142848030061","2,72978428230783","0,716517271022336"
"2230","-4,38231094458792","5,18253202690603","-1","0,206074756194102","2,19783153884247","0,915504364858757"
"2240","-2,37765828495333","-1,99512595180839","-1","-8,48499410945767","5,51146418391378","-0,727122272801968"
"2240","-2,82997132036056","0,28040614616313","-1","2,53080455831893","6,13864884325337","1,48520922620832"
"2251","-2,95354681969573","0,827114010291569","-1","5,86346068943465","-5,06483926804947","-0,557314488474558"
"2262","-1,26051653425658","6,2376984160747","-1","3,83328803657082","-2,10190562751297","-0,166114676004776"
"2262","-1,79796726741012","4,53761813454811","-1","-1,8844851010561","-1,2987070169019","1,65242468014935"
"2268","-1,9448030592588","5,88891046524975","-1","2,8695863802528","2,37686141298689","1,19446347906219"
"2276","3,19545650908774","5,2135651447375","-1","2,25305600670657","1,37324263992454","1,05796231479213"
"2290","-3,58056018260306","1,53181999650428","-1","-1,34434419755094","-0,627738345088433","-4,08853541463295"
"2290","-2,43182154504704","2,64726247782541","-1","-0,391214009323024","-0,170168700272014","-2,62251456027254"
"2295","-5,57156124089371","2,91525306212207","-1","-8,65880951559193","6,86954143682213","2,92026343304059"
"2304","11,1117658417259","2,979639128167","-1","-6,06474037121711","4,77788164527677","1,57235895462983"
"2306","-7,1445539396797","2,99510819963316","-1","-0,182869223802892","4,2108698784739","-2,23327567620588"
"2317","-0,678740743353091","4,75856976469439","-1","-3,18019430756565","0,599327501074431","0,334343762715181"
"2317","-0,912229429734552","4,18225014545748","-1","5,49252550959274","-5,29536854662459","0,0996554135344097"
"2323","-6,1563966541237","4,04378650068218","-1","6,434335856612","-2,89331580089692","-1,67223370912866"
"2323","-1,13556044544669","2,25077487981943","-1","4,70840956671582","-2,24216202492723","-1,20036781225093"
"2324","-1,76382827547116","2,81999495169924","-1","4,20615237328547","-7,25239917642306","-2,76165944984761"
"2334","1,51810816222308","6,47624298298927","-1","0,642006501536458","-3,88166756889722","2,8787895278623"
"2334","0,414759159047047","5,35467469295824","-1","1,60481394412506","-3,96792218261264","1,55999712936991"
"2340","-3,34026869558433","1,56572226480657","-1","0,176005288233982","-2,26238648804613","-2,23696027554853"
"2351","-0,639379920534313","-0,864082422147327","-1","-7,7847518702871","4,11562504855812","0,333245520988708"
"2351","-0,901475741573222","0,552144959642627","-1","-5,10139051900935","1,8445905355254","0,0993280686109584"
"2356","-6,15345866145003","2,65214565095039","-1","7,64243601318249","-0,499964314080262","-1,67233127844908"
"2364","-2,86154985201933","3,91642626866647","-1","-0,775995136395491","-0,135531433080517","0,501540379377911"
"2368","-1,23538223493731","6,73966604083013","-1","-0,22582026915242","-0,0367401609185846","0,149490492974108"
"2373","-3,51789246742135","-1,6210167877702","-1","-3,48370070177788","-3,46779517656252","1,74649481734219"
"2379","-1,41470022952094","3,88977781486995","-1","2,69521025095917","-0,66897537966082","-0,479434992761609"
"2382","-1,84009147263998","3,21377352978236","-1","4,91130395032757","-0,91026511309705","3,26097284564619"
"2390","-1,95631172535482","6,57085023794967","-1","-1,57077457327378","-4,43351004060894","-1,0280255422794"
"2401","-5,44164819659168","5,37740455483826","-1","1,2518857672698","-1,65968128910618","1,39552117726698"
"2401","-4,39386969159329","5,09067331472577","-1","-0,635692071182172","1,55008992195117","-0,584047152884862"
"2427","-4,10760831548401","1,50229462528916","-1","-0,1849910494017","-3,03763376477806","-0,17408268684802"
"2427","-4,02939944303524","2,64016886106254","-1","-0,053833750506124","-2,28128405806684","-0,0518875602946395"
"2437","-0,554447981579428","4,67329382951506","-1","3,40231933348453","-0,347333318963925","3,38840879911534"
"2448","-3,33185584281387","4,1617621794011","-1","2,40808519856976","-0,823073671233016","2,41383291229069"
"2451","0,362918537393186","4,03886416529829","-1","5,53674113139869","-7,86770956392969","-1,28052638062156"
"2466","-4,08122405292228","2,24959226434824","-1","2,73821025183657","-4,04846727091498","1,32026008892358"
"2466","-3,29539896437602","2,81971082247122","-1","2,92381726557435","-4,01313861509635","1,09545759532363"
"2472","-4,80749742325927","4,71642967555769","-1","6,39581561544909","2,91210949994433","4,43232689794926"
"2473","-5,94740677322592","5,93187082417152","-1","-3,13877080410738","-0,939496696137716","0,0230487137628921"
"2479","-3,53204693557732","5,223886583881","-1","0,795587377924788","-2,71251641664968","-0,99313003753136"
"2488","-0,418567342191313","-0,225445270564593","-1","-0,768478245041888","2,99360283101585","1,40592222655804"
"2488","-1,56794008782499","1,46532574438757","-1","3,19435255053022","-1,91740530354113","4,52486483244583"
"2500","-1,88195781414598","3,63128690420728","-1","-2,77941268255818","5,66697888417758","-3,35324372398078"
"2510","-5,42133411986629","1,3919247634322","-1","-1,51782212550328","3,72297054007346","-1,7014142407087"
"2510","-4,38831972513563","1,85390691077936","-1","-2,859682706384","1,46706666831061","2,19480910575591"
"2516","-2,37929993133194","3,72464545525034","-1","1,16781138417209","-5,06013989217159","1,35612805982032"
"2538","0,623164347687091","8,45333479391307","-1","7,17581236592864","-2,82954949649925","1,10614850052649"
"2538","-0,556538660028021","6,58942584302275","-1","4,92418466252614","-2,22487611396544","1,03163891149074"
"2544","-0,87884285387985","6,14161247999461","-1","4,26894450680143","-3,7898777010066","-0,692506893181144"
"2552","-2,69369099866809","4,2742780561771","-1","-4,46669855148595","-1,48520400961526","3,19746405404669"
"2555","-2,18952186833958","4,82564170630147","-1","-0,299841998758618","-3,58936574947526","-1,04695514586621"
"2577","-2,05177887365973","4,95810955581511","-1","5,03972180575582","-4,88868435830677","3,09181624141509"
"2577","-2,01414639788516","4,98993561317455","-1","3,59357398721773","-4,24090652321681","2,32542972585522"
"2599","-3,73065699722088","6,75732702516225","-1","-1,95424364541499","-2,3363876874291","-1,30687607541007"
"2599","-3,19962127156697","6,18195157112584","-1","-0,568699216398316","-2,82010650520515","-0,389531046356509"
"2605","0,399046068311006","0,764479634790066","-1","3,25248971132334","0,506601499222155","4,98970713444973"
"2610","-5,79814581509787","4,22265019694302","-1","-4,47148701750775","2,86624844212488","-1,51275428660298"
"2624","-4,49126766107484","4,05349281327519","-1","4,11674987178633","-3,68084659942121","1,25104160607567"
"2644","-2,40742612180921","4,01285191350101","-1","-0,801995630541968","1,0021879551807","-0,627111127811203"
"2644","-2,83810412887066","4,003087735913","-1","-0,233386603412614","0,271675329531355","-0,186918452632518"
"2650","0,497815411508687","4,00074184385599","-1","-0,0679172112392531","-1,65527143643925","-0,0557134236422823"
"2650","-0,590784980975709","4,000178231663","-1","-0,0197644059901855","-1,17763243162808","-0,0166060949586762"
"2650","-0,888199219671282","4,00004282104036","-1","-0,00575158692498132","-1,04815299280793","-0,00494965794145324"
"2651","-0,969455142404321","4,00001028796717","-1","-3,41965910316238","4,17369993871682","-0,00147530854173462"
"2660","-6,17203117151409","7,5194925596879","-1","-2,41313119856646","2,58925139151837","-0,000439734486516068"
"2664","0,586960170136366","4,60532057412961","-1","1,29776114410767","2,15973557169593","-0,000131068460028162"
"2672","-0,5664299277312","1,38568622394129","-1","2,08665067414966","2,04330147239751","-3,40391361343561"
"2685","-2,60833731587443","0,852408070748322","-1","1,31622330630958","0,28282047279548","0,985420227290724"
"2685","-2,16620256700256","1,7242853515046","-1","-2,32596205064182","-0,923332400127407","-1,40822023361988"
"2685","-2,04540785606508","1,93375818925067","-1","-1,38586466991621","-0,250298991097295","-1,12167523588337"
"2685","-2,01240578547981","1,9840850766715","-1","-1,11228944555199","-0,0678516046178808","-1,0362668525663"
"2685","-2,00338935873014","1,99617636079559","-1","-1,03267705121879","-0,018393363189513","-1,01080979696088"
"2701","4,90624235803245","1,99908135173109","-1","0,699483413340748","-5,19173947222075","-1,00322199755608"
"2715","-5,83995204476227","5,51926937815335","-1","0,203554797265839","-3,59414158819649","-1,00096035737664"
"2715","-3,77589736431866","4,36501199763624","-1","0,0592359371211454","-1,43214343083462","-1,00028624673819"
"2723","1,96839497050103","4,08769594144018","-1","-1,69175458298916","1,61177138829412","0,70185195392326"
"2723","0,537781077101853","4,02106938455416","-1","-1,20130565101689","0,436922556073887","0,209195907051327"
"2737","-5,03345022380843","-3,03391815184609","-1","2,3594039301478","-1,61047585244424","-1,63958377095861"
"2751","-1,82876259751838","6,31006630375461","-1","1,39559650182701","-1,16548914555037","-1,19063608265686"
"2751","-1,95321658705354","4,55500487822017","-1","-5,72084921854186","0,684056622267504","-1,0568215105838"
"2762","4,91994995615061","4,13334267260967","-1","-3,79178705385742","0,185435583526966","-1,01693637437377"
"2762","2,79775342654045","4,03203623794391","-1","1,89656219103628","3,50810386090472","-1,00504810192445"
"2763","2,21795254682927","4,00769686493837","-1","0,551913490635383","2,40882013325028","-1,00150465102372"
"2771","5,51313053875116","-1,27738592198191","-1","0,160610868752422","2,11082386676639","-1,0004484803867"
"2774","-7,67414539294776","7,49182692137107","-1","-1,66225373527429","-4,88562876566627","-1,00013367528688"
"2796","-4,27701349659021","3,83892872343603","-1","7,35224268485974","-1,05332484779121","-1,00003984362049"
"2796","-3,34889018919566","3,96130182753246","-1","4,97552717775469","-1,01445541778964","-1,00001187589816"
"2802","-1,36852747020234","0,471212484322818","-1","-0,843092469015454","-1,00391860665578","0,701933733643936"
"2802","-1,82747670954048","1,63270122265155","-1","0,463646590158853","-1,00106226456725","0,209220282537852"
"2809","-1,95286527228584","1,91175464840063","-1","0,843917228742248","-1,00028796103053","0,0623607678718899"
"2812","-3,71391450893743","0,219053572955806","-1","-2,46340657903668","2,45775751129179","1,72052469391088"
"2834","-3,19504709132501","2,57211879449011","-1","-4,84384738374752","-0,333745652862123","-2,18911299196804"
"2834","-3,05328840828711","2,1374543758105","-1","-3,53657309555822","-0,0904725104230834","-1,35443026061372"
"2840","-3,01455881468666","5,5525141829684","-1","1,97083132244126","-1,75344327461601","2,29823209694728"
"2848","-4,73076967275351","2,61325418277869","-1","3,99151170115868","-1,20424507085358","-2,01691994824577"
"2851","-2,47285996600148","4,66682744466758","-1","4,28853716823982","2,40246836644127","-3,00504320590795"
"2861","-2,85598117272415","5,91995364237034","-1","-5,16998961810096","-5,53548691525532","-0,597628644890653"
"2861","-4,68744500652702","5,22102342189144","-1","3,91348049821486","1,4994279525667","-0,880068096792996"
"2862","-2,46102332446483","3,29335692853031","-1","0,847844167340104","0,406468248811307","-0,964252769924575"
"2873","-1,12595521920922","0,31073541198687","-1","6,08269956194823","0,110186312726073","0,712592190270967"
"2873","-1,7612040516801","1,59414581069468","-1","-7,35686789322301","3,48770512198938","0,212397171181383"
"2873","-1,93475905790272","1,90249151959646","-1","-4,2678804726525","2,40329039794644","0,0633076799630648"
"2873","-1,98217565852483","1,97657310432872","-1","-3,36896250525153","2,10932485387851","0,0188696597040984"
"2884","-1,99513024890797","5,51386166016353","-1","-4,81636346643706","-4,88603512139842","0,00562434222129465"
"2898","-1,99866954547906","4,3637127665884","-1","-4,23756774890798","2,40440056880276","-1,70026086662875"
"2898","-1,9996365093002","4,08738379474192","-1","-4,0691339552069","1,38070801524922","-1,20872166323408"
"2903","1,45368348735928","2,2612493457865","-1","-2,31112581278057","2,83212095778685","-2,7641494214492"
"2915","-3,05642635058745","8,10174662598873","-1","-2,79953256525211","2,22557319138397","-2,22776446008198"
"2918","-5,74220821475842","-0,534025132705924","-1","-2,94166250798769","0,332231093890967","-0,365950822586603"
"2950","-4,47598506616281","-0,36855714079736","-1","-4,69201603709728","9,46356865764057","0,890923700020711"
"2950","-4,13004288539727","0,671197364321945","-1","-4,2013817360776","6,93891185935208","0,265551147214923"
"2962","-2,30873665559384","6,20023866915392","-1","-0,640618211162224","-5,84790219802534","0,0791508989889061"
"2962","-2,81114138600895","4,528618244699","-1","-1,6044099414564","-2,31418006011342","0,0235919327649583"
"2968","-1,22161024326269","5,88674819710983","-1","10,078068327206","-8,27192198483466","0,00703187580553349"
"2982","-1,78733776093896","5,21304564910063","-1","6,47775508201072","-5,88695985502098","0,00209594007566402"
"2985","-5,39548317282991","5,05118527305569","-1","5,4300375539866","-1,78260346864297","3,40449926842677"
"2995","-4,3812570419091","5,01229751552705","-1","-8,54679731853881","5,97460347780299","-0,985245665367215"
"2995","-4,10416243981682","5,00295453905215","-1","-4,6141586521078","3,07744430972921","-0,293665009383758"
"2995","-4,02845800254407","-0,278525289279153","-1","-3,4697319920932","2,29207598872468","-0,0875305934020221"
"3001","-2,28098286200223","4,97206309477837","-1","-1,4277027760484","-1,37865896678492","-0,0260896073297518"
"3001","-2,80355883005091","4,23354297608814","-1","-1,83345731553391","-0,373729924787529","-0,00777633949645902"
"3001","-2,94633071840481","4,05610985744968","-1","-1,95153485883147","-0,101311535373695","-0,00231783695323113"
"3001","-2,98533712771264","4,01348067133406","-1","-1,98589628889425","-0,0274637552923028","-0,000690860802079191"
"3010","-2,99599398729916","4,00323879809853","-1","-1,99589571675315","-0,00744493558382426","-0,000205919854364281"
"3013","-1,27211343622788","5,76052318127113","-1","11,6731357734288","-5,1887715482278","1,70187589637327"
"3026","-0,0743435433546484","3,42297441949483","-1","-4,31202465436291","-1,86441925058738","-0,492734230003263"
"3026","-0,747103333557943","3,86136674453124","-1","-1,96382343626765","-1,96324647030093","-0,146865708080711"
"3050","-4,38449080899145","3,96669267330394","-1","0,428512994287928","4,92563437300656","-1,74571246680014"
"3050","-3,37825384115238","3,99199774968938","-1","0,124700420359454","2,79308744259604","-1,2222690911092"
"3057","0,350242237211672","-3,04090275620207","-1","-10,217667311901","3,94390968587648","2,33762441547958"
"3065","-5,81147940782119","4,54864317396582","-1","-2,10039405993831","4,98479491347481","-0,30324129297067"
"3068","-4,49491050408341","1,61232415368101","-1","-2,73820808148428","0,809124812875617","3,31348962021447"
"3076","-0,681629285923843","0,14711391261482","-1","-2,92381663398594","1,67717491791807","2,39150229755336"
"3092","-3,36660278123962","2,55483493455853","-1","8,98511863990364","-6,73210106893365","0,414754968869843"
"3092","-3,1001587798781","2,13330184280272","-1","5,4507060421137","-4,01170621988174","0,82556027029606"
"3098","-1,30057208156517","5,55151651633323","-1","2,71317341061468","-5,00317334800074","0,948006018538214"
"3106","-1,80891075979774","4,37275953240153","-1","2,91653136137434","-4,27194245199847","0,984502532119049"
"3109","-1,94779290794856","4,08955732506451","-1","1,26671734010289","-4,07371876191321","0,995380782468109"
"3119","-3,7125286988751","4,02151659119497","-1","1,78660937439385","-4,01998384517783","0,998623183427716"
"3119","-3,19466847705341","4,00516946767132","-1","-3,18907625907134","1,18133609361717","-2,4042849245146"
"3125","-3,05318496787305","2,24149694625164","-1","-5,05502257644572","4,77807477590181","0,283372279891584"
"3126","0,439053624877405","6,33725597013072","-1","-0,180041274337852","2,75308666034585","-1,61747455902103"
"3150","-5,78721543416065","0,0420472423668556","-1","-5,88836402817283","-1,25368717333768","5,62370294296217"
"3150","-4,48828139453706","1,52959214631856","-1","-4,54952776518744","-0,339852294357635","3,78202805295064"
"3168","-9,31377860781731","1,88698218180061","-1","0,967061418681242","-5,27888127092671","-0,170781133077988"
"3168","-7,6321426190042","1,97284690905862","-1","-0,427570717686112","-3,61776417990398","0,651033783230573"
"3178","1,46125408293013","3,75322137930637","-1","0,875573789034212","0,290370690912405","0,895986177940694"
"3181","-1,05435800398964","6,70045525731409","-1","0,254798386522025","-2,37912124269106","-4,13681446362597"
"3193","-6,92201939434307","3,6487977590897","-1","5,20112622082556","-0,37385523956355","0,766969801560306"
"3193","-5,52511090283744","3,9156219210547","-1","3,64054385435213","-0,830263292183319","0,228605110267924"
"3198","0,0369118156459898","2,21998270437724","-1","1,47741027922801","4,23276596112576","1,77007593588618"
"3204","-3,17029166820837","2,81259697894251","-1","-1,57006278614898","6,06309871203862","4,6334054799473"
"3212","-3,0465250308617","1,19523045144074","-1","-0,456899772080093","1,10143379373631","0,082982744172778"
"3212","-4,73950309588409","3,56639517147816","-1","3,28502416859366","-3,43033867504554","-0,975265937011653"
"3215","-4,2020380956996","3,13607924701547","-1","-4,46201925211474","3,52793177029966","1,41124684906709"
"3237","-2,32840631657286","6,55218380146022","-1","5,82849773548802","-6,23039380418956","-0,57935991627061"
"3237","-2,816515292987","5,37291985096037","-1","3,82311356085534","-3,87570230387673","-0,172685596322587"
"3242","2,23050574166482","5,08959584239281","-1","3,23953207583073","-8,42414067777044","-1,75340841308985"
"3252","-4,57098445500298","5,02152584517398","-1","3,06970558873086","-4,92822363528333","0,477374307562495"
"3252","1,75117088771995","5,00517169098565","-1","6,43827018617543","-6,709460490357","0,142287487717751"
"3274","-4,7019425289211","1,48175243643753","-1","-9,96238691149932","12,8257735279022","-3,36146395026375"
"3274","-3,46498416226682","2,63523349838336","-1","-5,73509826801212","7,1214280126199","-2,40580165717434"
"3285","-1,40024526201694","-0,607127047757587","-1","-7,92291165548497","12,4907525468834","1,28292019841951"
"3285","-1,8361422611706","0,613879761816661","-1","-6,55958137780986","9,94628092822766","0,382390692342764"
"3294","-3,68202485895314","6,18646783108464","-1","2,3821210929962","-1,11698678831821","1,81591368579017"
"3297","1,99404168155358","6,28505477658066","-1","-1,72477066122415","0,155040321045821","-2,16068108896149"
"3307","-4,63558830679504","5,3087407788353","-1","6,6250571268306","-8,87364247135393","2,05791877673169"
"3307","-3,44685566388109","5,07417650224177","-1","4,0549181788384","-5,32115779039108","1,31532615510709"
"3313","0,331499676561456","5,01782127228408","-1","13,5609449654253","-16,4605668820138","-0,607950299849066"
"3313","-0,636223755418494","5,0042816489889","-1","10,327268395606","-12,4802625589644","-0,181207324006335"
"3324","-0,90061345229646","5,00102868738954","-1","9,38624482587026","-11,4012728514853","-0,0540111490720361"
"3324","-0,972846808961395","5,00024714724354","-1","-13,1045046963058","9,63823550151524","-0,0160987103588579"
"3330","-2,71937362282289","1,48056929039733","-1","-6,64947756060599","3,34167200305302","-0,00479842550419985"
"3335","-3,92333065383566","-0,884540846269297","-1","-15,0249734262773","15,4661279201965","-0,00143023178913749"
"3343","-6,70584541754065","4,06671980980769","-1","-6,33532605304804","10,7528522713033","3,40344824802631"
"3346","-3,73925837289949","5,01602976497125","-1","-8,51556768706328","0,830578143150893","0,716378338033041"
"3355","-3,92876332485664","2,48436114252544","-1","3,81291474865522","-2,0459272520203","0,915462954113154"
"3358","-2,25374548741453","2,87611520897339","-1","0,400593448301009","0,174303297456866","0,974802657604809"
"3359","-1,06932527443757","6,48972615293271","-1","18,2065023741291","-21,6997629106858","-0,709447661983742"
"3364","1,70785187603233","5,35791409136006","-1","12,3881523066419","-5,98484427212389","1,49047736890028"
"3374","-2,98698553618066","6,84573567825634","-1","10,6949698153623","-11,9115626965465","-0,555744251499709"
"3386","-2,26965225612016","6,20319218818707","-1","3,36627060872101","-3,60251950278126","1,53629062651587"
"3386","-2,07367112947984","6,04881793023722","-1","5,23356545406215","-5,35008567927814","1,15984824638584"
"3391","-5,47371171418049","2,49223866172951","-1","-19,8579281865541","13,1942758610697","-0,654292469247571"
"3398","-4,40262969823982","-3,40122730992586","-1","-20,7047000138529","15,865911371898","1,50691707603301"
"3410","-4,11000161859664","-0,817161717772507","-1","-3,98816809620331","2,94555530961917","1,15109308583919"
"3410","-4,03005331237805","-0,196327152567604","-1","-14,6684982262605","9,62982994381565","-2,35883932967839"
"3422","-5,73500289209338","5,23206656052283","-1","11,14934491303","-12,30519552515","0,296917917800126"
"3422","-5,20080860442472","3,53626505334016","-1","4,66252639214449","-6,25139078897693","0,0885001641539639"
"3434","-3,32807040983057","8,40807546873643","-1","16,4467560810773","-14,983818716415","1,72831587363822"
"3434","-3,81642352060778","6,57855206584278","-1","11,8760532445488","-11,3510246108101","1,21708381511792"
"3440","1,23053081460479","2,61950991318362","-1","0,291989189267738","-5,17948538378486","-0,63723267957316"
"3462","-3,8441855154651","1,90858537092452","-1","2,92094169147874","-6,50649086758609","-0,189935309948044"
"3462","-3,23063816082859","2,73778222628795","-1","3,68598612770527","-6,86621845185606","-0,0566126363594915"
"3462","-3,06301217002176","2,93700088030821","-1","3,90861966289045","-6,96373420176391","-0,0168741167529551"
"3474","-3,01721542331324","2,98486414926892","-1","3,97340765250518","-6,99016898712904","-0,00502954524824249"
"3474","-3,00470338983329","2,99636353684822","-1","5,70125410669721","-5,26841720106435","1,70043815343631"
"3494","0,452299175515639","10,038106497611","-1","-1,63190061646571","-0,614927556680358","-0,493162767583196"
"3494","-0,603220376709185","7,72992014297854","-1","0,234097640929289","-2,35344928199802","-0,146993439160233"
"3506","2,56198751066772","7,17536693185205","-1","0,777116802982547","-2,8247316000318","-0,0438132652674516"
"3516","-3,75362892408345","3,52264268654731","-1","18,0250661031364","-13,3259945713442","-1,7149963747131"
"3516","-2,47910529429493","4,64505758362528","-1","4,49938232422365","-1,52811125426142","0,488823504455083"
"3522","-3,85768744581814","6,67446836933938","-1","-1,27266143471893","1,85683843206355","0,145700066560861"
"3527","-3,23432699500925","-0,876935807490654","-1","1,0476315489994","-0,225561913375057","0,0434277591039815"
"3527","-3,06401998870076","1,30880191408861","-1","1,72285380429547","-0,790063609028779","0,0129441962883775"
"3527","-3,01749076734878","1,83393623426576","-1","1,91934842684804","-0,94308997837891","0,00385818243927497"
"3527","-3,00477861600193","1,96010235726641","-1","1,97652980140914","-0,984572705351704","0,00114998037754537"
"3539","-8,1816818239304","3,75015943757599","-1","7,12014802413383","-0,995817934813837","1,70228003969338"
"3550","-3,14246855385844","4,93997456666191","-1","5,61697860591856","-0,99886631651109","1,20932350346319"
"3550","-3,76571562533645","4,22583354817666","-1","10,3065233177787","-6,18644603717824","1,06239153418234"
"3564","-3,93599165551483","4,05425762918584","-1","12,0892005308742","-9,77945999071472","1,01859659079474"
"3567","1,19786385429398","4,01303566431399","-1","10,6079726586778","-7,75346216744392","1,00554295055762"
"3575","-3,85311038743686","5,7628769269329","-1","8,4679318226903","-8,93316797856592","-2,40222239985647"
"3579","-3,23307650645226","6,94303000650808","-1","2,00919356433059","-3,06621188286623","-1,41795023179167"
"3591","-3,06367834533489","6,22656763274254","-1","-9,54228797852002","5,89772228102381","0,577361887738321"
"3591","-3,01739742767863","6,05443399664093","-1","-4,90385372651237","2,32768539850421","0,172090058490442"
"3597","-3,00475311486568","0,733842905539958","-1","-8,68101340472417","6,546665255661","-1,65064364135323"
"3610","-8,18167485681824","2,45554452692793","-1","-6,78019454022389","2,96143786910249","-1,19393261778245"
"3610","-6,59605082921295","2,86919187426026","-1","-6,22704232642873","2,98954649218756","-1,05780408483165"
"3616","-0,982469533416307","4,72831774347927","-1","-0,939092956310725","1,26824845375754","2,38664530367988"
"3625","-2,44879471667771","2,41523690345442","-1","-5,8182463025883","0,0727173846922913","-1,99056726678018"
"3631","-2,84940635623864","4,61925281193162","-1","3,30684770506611","-4,4381231827815","-1,29525118041075"
"3636","-4,68564871465251","2,38903351312172","-1","7,79828760456842","-7,84768518850704","0,613933901543351"
"3650","0,993051615509678","2,85321227356317","-1","3,39633684222232","-2,31412123269278","0,182990812642183"
"3650","-0,455482532433233","2,96473352124011","-1","3,11533692440574","-6,27190603776724","0,0545427405576854"
"3650","-0,851233520407597","2,99152705369644","-1","3,03356388988918","-5,34479110446007","0,0162571579665044"
"3661","-0,959355820945077","2,99796433265845","-1","3,00976733782609","-5,09346673589465","0,00484565283015719"
"3661","-0,988895688762854","2,99951092083238","-1","-14,0870843793163","13,9927584785472","1,7033815819012"
"3667","-6,17734248256539","2,99988249630609","-1","-3,93541544613425","6,43777687650884","-2,19422271467594"
"3689","-2,86807510088311","-0,519518318797611","-1","-0,563220072483856","0,203002380022403","0,345983994910347"
"3689","-2,96395707395779","0,634928193140224","-1","-1,58188651613001","1,51286590698803","0,103124932880682"
"3695","-6,44373696630921","4,43177977705025","-1","4,95764478511672","-3,31880674695797","-3,37313684813886"
"3706","1,51272799764583","5,10373723134709","-1","7,98767432220081","-13,7310117697525","0,994593633870801"
"3706","-0,313502833888058","4,26517833997891","-1","7,57842778823549","-7,82465757164006","-1,40548598304248"
"3717","-2,53923563303454","2,30396536643364","-1","-2,08562932412249","-0,307878855334003","2,28301428911197"
"3717","-2,14732344061578","2,83277422972161","-1","0,102059263264747","-2,27021384029347","1,38241873727111"
"3723","-0,313457839978888","6,47931326786855","-1","2,44768534246784","2,38458540638002","1,11398477153146"
"3728","-11,1731837874043","1,83592225616409","-1","-8,12367633357933","0,646418690950186","-2,36989993502024"
"3752","-2,95977055481804","2,72032455284665","-1","-8,61800536981342","8,81982154079631","0,29362116361416"
"3752","-3,71580108675007","2,93280658774329","-1","-6,7618587405069","6,03548567958961","0,0875175246123863"
"3753","-2,19556251930737","1,22411140571679","-1","-7,93069914901165","3,55178396417581","0,0260857120106797"
"3758","-4,5070134061139","1,81358891990127","-1","1,27412310299678","0,420661032343901","0,00777517844703543"
"3769","-0,68493589449964","0,195468770172169","-1","-1,04720619282327","1,57186929631147","0,00231749088767422"
"3769","-1,64071408344741","0,806707384758101","-1","11,9492113744062","-8,48956533616678","0,000690757652835719"
"3769","-1,90184024543509","0,953560491225371","-1","7,73126409020218","-5,21704131031563","0,000205889109419526"
"3780","-3,69997406796386","0,988842677861594","-1","9,92179588165546","-9,51667161129126","6,13678693294868E-05"
"3791","-1,46444636316162","6,27655452998949","-1","-5,11268471748656","4,42019959162942","1,82914744575791E-05"
"3791","-1,85368250987176","4,54695350848796","-1","-1,48782870516067","1,19823749072474","5,45200675024099E-06"
"3797","-1,96002490423963","4,13140829112873","-1","-3,85095440135102","3,782656444046","1,62503999738288E-06"
"3803","-8,89624684526111","0,512081405253471","-1","-5,9566266389771","5,94108202769742","1,70193775777037"
"3825","-1,61090128090289","-1,87696990450032","-1","-9,69637070883319","2,79727502702761","-2,19465306483309"
"3825","-2,62048724135548","-0,450951321863347","-1","-7,78466362821775","2,94504486553465","-1,35608154983741"
"3839","-2,89631411216937","6,93063688590253","-1","-0,392372165303437","-2,20165071811855","0,595802635772353"
"3841","-2,97167219522837","1,18460994819086","-1","2,88581682562044","-0,596828350675951","1,87952383153641"
"3863","-1,26546853023447","3,56384354293691","-1","12,8027425582894","-8,80637848157181","-2,14172127548136"
"3863","-1,79932019188447","3,1354662056125","-1","8,68864059177204","-6,03184150533482","-1,34030455637976"
"3870","1,50841148989705","6,55203651522491","-1","4,07342143290957","-8,73754945195952","-1,10143210394673"
"3870","0,412109951461198","5,37288446471238","-1","4,7303588494341","-7,47101875201944","-1,03023312946648"
"3870","0,112591698771098","5,08958734067136","-1","4,92153244996071","-7,12768480603746","-1,00901136900223"
"3870","0,0307609427707672","5,02152380259327","-1","4,97716536813374","-7,03461307988891","-1,00268595321515"
"3883","1,73519622231444","5,00517120024551","-1","-13,805564465936","12,0087126579073","4,10501123768076"
"3895","-10,8866832021159","-2,03773776941802","-1","-8,27147643833413","6,17101955697181","2,62742538901304"
"3898","-7,33508050735391","0,270168445797242","-1","-4,95202360837207","4,58852478770111","-1,21686242462984"
"3910","0,542413801768863","4,34414443999318","-1","-1,5680531693562","-2,75613254248628","-0,362701332174322"
"3910","-1,30539243736949","3,32293736331993","-1","-0,874300308106824","0,981779275066807","-1,81004502141349"
"3917","-3,53701980854766","1,31784225804641","-1","6,87255022960854","-4,19169267306004","-1,24144422774598"
"3939","0,306866118987177","7,11534335363498","-1","7,54492583396311","-4,32304668797912","2,33190902197082"
"3939","-0,642953838213704","5,50822172440239","-1","5,74059206023889","-3,35865442513454","1,39699243466308"
"3965","-4,35603634297969","3,36235774407013","-1","3,50652504003245","-4,82614262175638","-0,583608625893862"
"3965","-3,37047985594642","3,84680328784278","-1","3,85639517175652","-4,22395257081801","-0,173951978297398"
"3971","0,352366151466732","-3,07578644524789","-1","-6,29574610468309","1,12604379992522","1,65008867245887"
"3983","-5,8108991376453","2,78051715081178","-1","-8,37707160829885","4,76308601852187","4,59764174905367"
"3983","-4,49475196968108","2,18752311374395","-1","-2,5647672271222","6,20685904721866","-1,62961436437706"
"3983","-4,1351701518957","2,04505335744596","-1","-2,87334407484594","4,59824023605859","-0,485727300742123"
"3983","-4,03692955477324","2,0108242924119","-1","-6,38112754721169","5,89109007377609","1,55716006976643"
"3988","-5,73688153591087","3,76234563387381","-1","-1,98393288429178","3,51264088368929","1,1660686495436"
"3994","-5,20132186477684","4,94290236071753","-1","5,84064634683814","-6,50562110538011","-0,652438398921861"
"3999","-3,32821063661896","0,707046877255942","-1","1,40866354651681","0,236441828627243","1,50746970528959"
"4009","1,36391443656136","6,96859673628375","-1","2,82791676027058","-10,3094115428778","-2,25261674279084"
"4009","-3,80774405480373","5,47296512230406","-1","3,94992251666315","-5,43928703500414","0,328578911673643"
"4019","0,232902113322138","3,35388717068346","-1","3,27643441089493","-1,66124732953593","0,0979371263145635"
"4019","-0,663161389660143","3,84476819060627","-1","3,08044443855827","-4,3660057485663","-3,37468313990899"
"4030","-2,63476511647613","2,20295974448425","-1","3,02340992090675","4,54537128242971","4,39800728874273"
"4030","-2,17342285118638","2,80850712846202","-1","-8,95613626385074","1,96108709597435","-0,689117955939352"
"4036","-5,50096467364546","4,71373793254621","-1","-15,6962280060792","11,634040334845","-1,90733765029833"
"4047","-7,86365960117724","-1,10775605633293","-1","-3,11268070373244","8,25620591279569","5,53730555963725"
"4047","-6,50916654568427","0,493601161377253","-1","-4,45077625945005","7,34053507982589","3,75627621330627"
"4052","-4,4123162386752","6,15757030122549","-1","-4,84017186822589","3,6344774309094","-5,28426861683675"
"4052","-4,83944014748215","4,51836695783876","-1","-4,95348884285151","4,62983111898077","-2,97891805879975"
"4053","-4,95613377816934","4,12454023065964","-1","-4,98646491255776","4,89965380025444","-2,29177898571745"
"4053","-4,98801540118827","4,0299214076403","-1","-4,99606119040461","4,97279793002683","-2,08696844004562"
"4063","-4,99672571279942","4,00718876647679","-1","12,0910729686187","-7,10979850076722","3,07988976985199"
"4075","-4,99910543883527","9,28096226870294","-1","7,06355417869116","-3,38517548964601","1,61993761581596"
"4075","-4,99975559881329","7,54801248955872","-1","2,18252403308853","-2,37549643823097","2,88671756949449"
"4083","1,90723512998691","1,85242758465012","-1","2,76210850530447","-2,10179040574865","2,26429745648187"
"4099","-8,8396808116109","1,72429003981622","-1","-9,03217688992387","8,34591314868264","-1,32509732630234"
"4099","-6,7758232612761","2,69350435961718","-1","-5,46440033758928","5,17809975731561","-0,394962122079402"
"4100","112,936693117253","2,9263629033984","-1","-4,42615122553135","4,31936189028715","-0,117723487008133"
"4100","76,643099588222","2,98230832259428","-1","1,00296489550153","-9,74476896140022","-0,035088983521736"
"4115","-48,967667258189","-0,523740601129894","-1","-0,417122542924701","-5,55730468781028","-0,0104587181018822"
"4115","-16,2855224156111","0,633913768884162","-1","6,00559230827862","-4,4221576023285","-1,70505462744064"
"4121","-5,62970982023469","2,67179101261882","-1","5,58364205344024","-5,84335720361328","0,491786768754215"
"4129","-1,99166543602584","5,68089120814658","-1","4,46085143833518","-3,49970135157465","0,146583305197478"
"4137","-7,17809919942797","6,16358748727011","-1","-4,41085222861792","-0,406542362419632","0,0436910196202442"
"4141","-0,414697663091371","1,76006757263089","-1","-1,99258298432565","3,61871138259563","-1,68891460897086"
"4157","-6,74725912912046","0,9423550452138","-1","-8,12481961795825","12,0833927961065","-1,20533976673994"
"4157","-5,47736501592222","1,74589555789926","-1","-5,90934539932536","8,37801737276969","-1,06120413075257"
"4163","-1,67683571976309","1,93895014843768","-1","-5,26462617250672","5,6446382138588","0,683694603315626"
"4163","-2,63850105163224","1,98533247059765","-1","-5,07700815468744","5,90366774031389","0,203783877621502"
"4163","-2,90123562763681","1,99647605336846","-1","-5,02240993712825","5,97388603778419","0,0607403781996565"
"4176","-1,24622470277381","1,99915335435701","-1","-5,00652145586569","5,99292096931152","0,0181044427405087"
"4187","-1,79406262599224","7,27903172111747","-1","8,67004360550949","-13,0200146475405","0,00539625956669152"
"4199","-0,216944190923093","3,78780362195707","-1","4,65002422444248","-3,71624775293646","1,70354569724638"
"4219","-2,5128550479409","2,18927372454853","-1","-5,06479423671496","0,263673545912093","-2,19417379800868"
"4219","-2,14011605608227","2,80521899434423","-1","-2,89187757367467","-0,657440577657089","-1,35593869826096"
"4222","-3,76507290433436","1,19345785407554","-1","-3,96853558190118","0,821779552768553","2,29778248790925"
"4225","-4,93581605905276","5,32571434015254","-1","-1,5728582746097","-4,96398353819032","-2,01705395994155"
"4236","-4,25567235018819","2,55876439651681","-1","-7,00267665278679","6,84110571182226","2,10072867042017"
"4236","-4,06985170858995","2,8939909594891","-1","-3,8738009017165","4,04125543979016","-2,07578835806799"
"4245","-2,2922919499425","1,21478575865755","-1","2,87269556052647","3,28226582974678","2,08322213556978"
"4250","-4,53344065175006","1,81134838697716","-1","-4,29100257214446","1,34759945980437","-2,08100640357871"
"4253","-5,87253229529949","7,23391064693862","-1","3,46027949288736","-5,09252532752965","0,379729557290843"
"4266","-3,5115906359067","3,77696306026449","-1","11,9699154026229","-2,8383286120109","0,113183227214243"
"4266","-3,86656269812462","3,94641426985221","-1","8,44628178869548","-2,22725597603352","0,0337357013081264"
"4273","-5,69033596297251","3,98712576275985","-1","2,29390057122599","-7,24835841168998","-1,69188191829108"
"4274","-5,18860524604724","3,99690690069803","-1","3,50351256839556","-5,60948997565066","-1,20622421104656"
"4284","8,76280827010025","3,99925686756323","-1","-2,9804521780266","0,0215314667215232","2,34240679617892"
"4295","-2,33272355105794","7,51931154670188","-1","-0,867333416758506","-1,45199877474026","1,4001214298667"
"4295","-1,36411061677551","6,36502212883901","-1","-1,96139305244323","1,60638895771247","1,11926128435455"
"4301","-4,5530620796567","0,808463243582659","-1","3,84720560301896","7,35113461968708","-2,36832720322129"
"4309","-3,42430884579594","2,47347243296285","-1","-11,1343910349721","4,90843299143748","0,294089936342357"
"4312","-3,11592453320377","1,11375409855988","-1","-2,36716737870409","4,24626002640536","1,78959452169643"
"4323","-4,75846358891479","-1,73241505802939","-1","-9,65181176993105","-1,11999664548041","-2,16852585077293"
"4323","-4,20721825238423","-0,416221303581475","-1","-7,77169665058594","0,425306616100359","2,0555805456367"
"4331","2,85055469187982","5,17923590094114","-1","4,73837934402745","-4,34254251337032","-0,387308057835016"
"4349","-2,67479008744032","3,52357222554567","-1","3,08789577417129","-4,36393939664139","-1,81737936915645"
"4349","-2,18435798987484","3,12579082202365","-1","8,44356366338867","-5,0986574973296","-1,24363032343203"
"4357","-2,05036806121385","4,78996691238986","-1","9,42008760070236","-6,02674429278381","-2,77455439188952"
"4385","-2,01376095276459","2,43004842181993","-1","0,868292521402901","1,63733902891932","-0,528928520535023"
"4385","-2,00375960115251","2,86306630864876","-1","2,3796575081552","-0,285064297506579","-0,859591150410245"
"4388","-3,72781924218786","2,96710100200626","-1","-7,4344802570769","7,83839528396822","0,743787917953098"
"4391","-4,92563806385598","4,75184089666019","-1","7,67248248324699","-1,87515045380372","0,221695454832387"
"4401","-5,97968373079884","5,94037854554024","-1","-12,0212074412088","1,22059784998263","1,76801642514724"
"4401","-5,26765734512828","5,22593060610431","-1","-2,62523744918849","1,05980015353221","1,22891706974796"
"4401","-5,07312610401594","5,05428094783398","-1","-2,89094135243475","1,01621075800493","1,06823164597287"
"4401","-5,01997863008761","5,01304126673477","-1","-2,96826313466219","1,00439444816731","1,02033731043863"
"4401","-5,00545831978264","5,00313322896585","-1","-2,99076433970201","1,00119125673761","1,00606179420092"
"4401","-5,00149125614313","5,0007527737874","-1","-2,99731235519854","1,00032292851363","1,00180679490757"
"4410","-6,72719951238735","5,00018085763319","-1","-2,99921787567475","1,00008754017637","1,00053853821655"
"4421","-1,01830039112271","1,48055336398991","-1","5,54519097699461","-2,45781184182063","2,70209779157572"
"4433","0,995000188378428","6,15443550323799","-1","-2,09530147966595","0,33373092482209","-2,89654263812725"
"4436","-3,9085343457358","3,51761380708613","-1","-1,31874075408528","-5,09628484069477","-1,565288669821"
"4446","-4,97501085970795","0,364614238482286","-1","-4,51074124357146","1,61848782324294","0,533445791167276"
"4446","-4,26638067978109","1,60709046578494","-1","1,68734125521493","-3,0190923102768","1,86093758041166"
"4457","-2,34598521953158","5,42509162508871","-1","-1,21796400892937","1,18157777287182","1,25661340264429"
"4457","-2,82131798833477","4,34238532571529","-1","-1,06342912326822","0,320304718443753","1,07648689047259"
"4463","-6,40476683975801","2,32251472739645","-1","-2,72745101413097","-3,37100666023999","2,72473516452944"
"4468","-5,38379341315312","4,5969758496004","-1","2,91528444988279","-4,10057330679139","-2,88979528102175"
"4490","-5,10485539650487","2,3836813625165","-1","10,102325178194","-6,75618142085664","0,138659739241691"
"4490","-5,02864732379294","2,85192639285488","-1","7,19380667795627","-5,47606954739547","0,0413292999471192"
"4495","-1,55424249665273","6,48391466997989","-1","-7,32453490856252","3,51553494418416","1,71425599723696"
"4495","-7,78538388153106","1,837027765826","-1","1,57749936120447","-2,50483657705429","1,21289309002219"
"4506","0,419387357779349","4,48033520099825","-1","-7,37690682857228","3,04990114169444","-0,638481778521597"
"4506","-1,33900423507889","4,11540291259242","-1","-4,98270462424933","1,5556917395561","-0,1903076197864"
"4512","-3,54620281757095","4,02772612168989","-1","-0,867988895109349","2,87955593315045","-0,0567236080450494"
"4525","-4,87601901995799","2,24691629417091","-1","-3,3795691506796","-1,21940360288848","1,68503008013039"
"4525","-4,23933532607778","2,81906790737394","-1","-3,11045740333705","-0,33055862818339","1,20418193348221"
"4532","-4,06538830436753","1,19678512406647","-1","-3,03214391351383","-0,0896085647177459","-0,641078249591685"
"4540","-5,74465669142546","1,80702364530509","-1","0,408631234935648","-0,0242912880988835","-0,191081531033072"
"4548","-3,47665400935714","3,71338151836558","-1","2,82790735736376","-1,73550272235655","1,64498299126515"
"4548","-3,85701773538203","3,17139344532297","-1","1,53193443111375","-1,19938170623034","1,19224538898291"
"4561","-0,50735193540796","4,8009231686452","-1","2,86378949069469","-4,51188440672104","1,05730118481527"
"4561","-1,59219674103009","4,19242576066114","-1","2,25136906938073","0,0479906004259085","-0,684857926023446"
"4568","-1,88858492368599","4,04623124266545","-1","-8,1808058071395","-2,44482617420052","-0,204130620759703"
"4584","-1,96956051979228","4,0111072851735","-1","-5,21664511588004","-2,12058446405725","-0,0608437294048563"
"4584","-1,99168369321308","4,0026685803109","-1","4,19091073197445","3,15406505514196","1,68380202552399"
"4584","-3,72452000861127","4,00064113964524","-1","3,63757107226409","-1,87390684859419","1,20381589617782"
"4592","-6,65152877655631","4,00015403697727","-1","0,767552503246302","-1,23690060316952","-0,641187351668666"
"4618","-3,72441863690602","0,480546920194402","-1","4,35034142491245","2,39361603244833","-0,191114050295614"
"4618","-3,92470899159219","1,63494386713138","-1","3,39295924641721","1,37778451925948","-0,0569639749214338"
"4630","-3,97942990090686","3,6720384988279","-1","-5,43060935380233","-2,35542490858624","-0,0169788376826851"
"4630","-3,99438008620618","3,16146057998206","-1","-2,99833245248282","-1,36743158485553","-0,00506075865408921"
"4636","-2,27167250568237","4,79853674851953","-1","-3,99951473145708","0,629313618761036","1,70042884988345"
"4644","-2,80101516705393","2,43210736742239","-1","0,127119240552728","1,89951351514924","-0,493165540625526"
"4647","-4,67242785896451","6,38305106848674","-1","-0,672000044419393","1,24384211502723","1,55494300770573"
"4664","2,72345574728072","1,81279478568488","-1","4,22242841365111","-9,30740545685772","-0,536529447425766"
"4664","0,744069654292529","2,71476806344373","-1","2,64674294851108","-6,16766100696748","-0,159919429997416"
"4669","-4,97709055265606","2,93147161362615","-1","2,18820693565632","5,0569745864828","-0,0476660213403047"
"4675","1,64021948930324","2,98353571554538","-1","-6,49019377612279","5,55760922462851","-0,0142074642865541"
"4675","0,448120939577702","2,9960443740624","-1","-4,01567195585677","3,69332237064064","-0,00423471554322979"
"4675","0,122430185592605","2,99904964126432","-1","-3,29556797934007","3,18794736310845","-0,00126221086116285"
"4675","0,0334488951986155","2,99977167160375","-1","-3,08601244713652","3,0509491872688","-0,000376218010814102"
"4675","0,00913850276867949","2,9999451429712","-1","-3,02503025219082","3,013811418476","-0,000112136566096826"
"4675","0,00249671124733051","2,99998682032696","-1","-3,0072839867437","3,00374402989615","-3,34237306416497E-05"
"4676","0,000682121263223888","2,99999683351823","-1","-3,00211969350041","3,00101493991277","-9,96236828797609E-06"
"4693","0,000186360925092817","2,99999923923706","-1","-3,00061684633619","-0,457560440247011","-1,70194024281718"
"4693","5,09152789597926E-05","2,99999981722293","-1","-3,00017950680247","0,6048812891145","-1,20922222267978"
"4699","-6,90715444719236","2,9999999560869","-1","-1,29105956317715","0,892890345140431","-1,06236134615588"
"4704","-4,79425759227306","-0,519490098503137","-1","-3,50268581424188","2,69988226384432","-1,01858759286926"
"4716","-0,76341327842864","0,634934973205832","-1","-1,43729257969302","3,91864341968309","4,10027155160814"
"4716","-1,66215472553904","0,912291318041813","-1","-1,83624801864348","3,249027891898","2,62601266525904"
"4722","-1,90769799846261","2,73867259844965","-1","1,46563837535532","-3,84816411257789","0,484653768482637"
"4733","-0,247990273604573","7,45670488458556","-1","-2,99147384564427","1,68574893950985","-2,55748004971878"
"4733","-0,794544993909904","5,59023552400907","-1","1,12945919722682","-4,00085901797669","0,237710523172396"
"4733","-0,943868067066349","5,14180700986437","-1","0,328680900113846","-2,54239729208938","0,0708526466767264"
"4745","-0,98466431188595","-0,245165295010396","-1","-5,03132947420546","-0,41811647249452","1,72305580646135"
"4756","0,730981920719399","3,22033295475796","-1","-3,59113175725954","-0,842261725191643","1,21551598515312"
"4756","0,199710043237105","3,05293608435592","-1","-1,46303099701154","2,50059561314105","1,06423728215922"
"4761","0,0545623636361814","1,25297311264259","-1","-8,6797087850962","1,40678478082476","1,01914673946933"
"4761","0,0149068693657655","1,8205230880295","-1","-6,77981488635532","1,11027211892502","1,0057069293716"
"4761","0,00407267463282404","1,95687978240728","-1","-6,22693184437186","1,02989281011831","1,00170102292898"
"4773","0,00111268692693724","1,98964015401853","-1","-6,06603882907481","1,00810340914349","1,00050701153221"
"4786","-10,3604485416036","5,51700108361211","-1","16,1976869870047","-9,37131002712639","2,70208839464623"
"4796","-5,4645169458642","9,64370216056018","-1","2,84062359132604","2,45960453166592","-1,19460816559515"
"4800","-3,40011761479979","5,87541750234848","-1","13,2075763452866","-9,70675167570649","1,3458691063584"
"4811","-2,10931529752877","0,690833305576227","-1","13,6424208878199","-8,73375223645002","-2,30078385792741"
"4814","2,42371837479157","2,44521125738005","-1","3,2240004620132","-5,74107160823014","2,01615936341042"
"4825","-1,0646130563826","2,86670925503946","-1","-5,06179224851701","7,90153317127769","-2,10099531630144"
"4825","-1,01765279813097","2,96797623793115","-1","-1,47301862388372","3,59980067686805","-1,32816566594346"
"4832","-1,00482288409339","4,75205117642884","-1","-7,26462990844456","5,89151308152522","0,604123320241051"
"4832","-1,00131765008616","4,18068402232041","-1","-4,95003121802075","4,51275555356637","0,180066644029752"
"4832","-1,00035999242693","4,04341023183676","-1","-4,27646604378627","4,13899891059762","0,0536711548880453"
"4832","-1,00009835277879","4,01042952334091","-1","-4,08045364396137","4,03768013240021","0,0159973707653517"
"4832","-1,00002687075719","4,00250574467162","-1","-4,02341259974649","4,01021441370722","0,00476821994864751"
"4832","-1,00000734130343","4,00060201757589","-1","-4,00681323803248","4,0027689458804","0,00142122863889129"
"4832","-1,00000200570217","4,00014463770622","-1","-4,00198270217703","4,00075061197914","0,000423615283220676"
"4846","-1,0000005479737","4,00003474992575","-1","11,3803570906983","-8,10222102586202","5,10593808414591"
"4857","-7,90716850736009","4,00000834884188","-1","3,43874530271589","-0,925285798568277","1,92576437399105"
"4868","-4,06746934420977","5,75974704982704","-1","3,12767809706757","-0,979746308873792","1,9778731269014"
"4868","-4,01843315856027","5,18253299404526","-1","-0,380830087697057","4,19224377403621","-3,11240701634632"
"4868","-5,73182817414812","-3,7548707634248","-1","-13,0737730675672","7,7810316540572","-1,62962979496738"
"4868","-5,19994124636819","-0,902126310140929","-1","-8,76751245537409","5,75388821742214","-1,18766917343247"
"4879","-5,05462553016055","-0,216740316970642","-1","7,86657499933689","-5,16914103028183","0,646000087875696"
"4879","-5,01492412695991","-0,0520729353223229","-1","3,70721629971393","-2,13017998012188","0,192548547571856"
"4884","0,176298878692946","5,26672435114331","-1","5,91479779846411","-6,49312504960896","-1,64454572831564"
"4885","-1,40541793053802","3,54459175930156","-1","4,55722018597968","-4,67584185772145","-1,19211505719594"
"4885","-1,8375554751294","3,13084086918181","-1","4,16215515597119","-4,183208706968","-1,05726233776748"
"4885","-1,9556188707737","3,03143516727137","-1","4,04718833823619","-4,04966462187182","-1,01706776852609"
"4885","-1,98787472441456","3,00755245473038","-1","4,01373215209937","-4,01346319564442","-1,00508726562375"
"4893","-1,996687278792","3,00181451467912","-1","4,00399615685419","-4,00364963288007","-1,00151632426272"
"4902","-8,90626329600975","4,76018099012083","-1","-9,67077848602061","9,83035293906107","-1,00045195974415"
"4902","-6,79401412272044","4,18263725035146","-1","-9,06822342928914","15,9540116991565","4,10567710786592"
"4914","-4,49013885003321","-1,23535562737774","-1","-8,60186816845123","9,88510888617953","2,62762386009598"
"4914","-4,86070190052775","0,462944732047253","-1","2,78780067638728","0,595348345303603","2,18707127901533"
"4914","-4,96194265729435","0,87096981021577","-1","0,102277743918167","3,07705949223632","2,05575897549064"
"4925","-3,26281034350454","0,968999857427673","-1","-4,09721445114816","-8,35261725946679","-1,38725487454624"
"4935","-2,0718018648297","4,51204215006236","-1","-3,31929744279985","-4,4509993363058","-0,413488970387347"
"4935","-2,74640892687876","3,36327562026906","-1","19,1239868751944","-12,0379290433178","-1,8251829233365"
"4941","2,24965935546815","3,08727876817219","-1","19,4911177158463","-10,8235285304216","2,15791827474499"
"4951","0,614624732041443","3,020969156609","-1","15,5979554798499","-9,4943261509492","1,34513227814291"
"4951","0,167920338836546","3,00503794379895","-1","2,50206802795047","-2,21833188252633","1,10287106785869"
"4951","0,0458771649187052","3,00121039096587","-1","5,69106884706062","-4,24593924866592","1,03066203097354"
"4960","0,0125340043711251","3,00029080242828","-1","6,61909144607305","-4,79558754219072","1,00913920855487"
"4963","0,00342438914553174","3,00006986672462","-1","-13,6187592749015","15,8024260160233","1,00272405742077"
"4963","0,000935570203489804","3,00001678582685","-1","-7,50812208470625","9,38618113121038","1,00081193998223"
"4975","-3,45332857364417","3,00000403287809","-1","-5,7298818996036","2,46009790496166","-0,701695264361587"
"4986","-7,57743713123968","3,00000096891895","-1","-5,21240097944887","3,58255993104593","-0,209149203733346"
"4986","-5,70417621329706","3,00000023278758","-1","-1,64382489170344","2,15792163577752","-0,062339581929616"
"4992","-3,46559442250809","-2,27923507600083","-1","5,93962026410255","-5,87286139817781","-3,42245565257768"
"5001","-5,58078825817938","4,73163760897717","-1","8,27343637993185","-4,7787816277508","2,68183080995396"
"5005","-3,4318838570987","3,41603451759362","-1","9,37057931496897","-3,48219606151262","-1,90258346992925"
"5018","-0,391201996802141","1,34020931075236","-1","-0,855107427029973","-3,13071477583917","0,432910783381207"
"5018","-1,56046365898871","1,84148201697003","-1","9,71410619706638","-6,49327002321593","-1,5729027049402"
"5031","-0,153123105232622","5,48140535691098","-1","2,66284676136089","-0,218045585082338","-1,17076094230726"
"5031","-0,768626533055636","4,35591497887777","-1","3,61087861239684","-1,51694385231828","2,35297707475327"
"5037","-0,936786938530706","4,08551033759842","-1","-1,24021519810755","3,3177012885101","-0,298665237487094"
"5037","-4,4363138703788","5,78028932637567","-1","-1,36091170770023","5,08612316861557","-0,0890209750240918"
"5059","-6,84599649029894","-0,0917667541351261","-1","-7,2320059746091","8,75226424541026","-0,0265338345396907"
"5059","-5,50434084406674","1,49744267047364","-1","-4,94053741429184","6,74608988460092","-0,00790874706988042"
"5083","-5,13778990823149","1,8792581108953","-1","-2,56471060273809","-0,713419447201499","1,69957997069094"
"5083","-5,03764529292799","1,97099116274295","-1","-2,87332759673537","1,26444024929202","1,20851871353433"
"5089","-5,01028499182432","1,99303048308051","-1","-4,67213007734349","3,52952062060062","-0,639785617104716"
"5100","-6,72960203053907","1,998325539019","-1","-2,48660210149966","3,14354362208373","-0,190696245469523"
"5100","-6,1993330463241","1,99959770245065","-1","-2,85059745070033","3,03891212285094","-0,0568394428757852"
"5106","0,852708992552063","0,240158302043572","-1","9,00642595859829","-5,63404054660761","-1,71887899272813"
"5117","2,23296684219446","6,09667939820178","-1","7,16589930255543","-6,44295932880891","0,487666240743201"
"5117","0,610064205367483","4,50373761661056","-1","5,63029256308487","-4,66224282307024","0,14535512938351"
"5122","0,166674366872774","-1,15820967300299","-1","10,3103977768439","-4,17952225054924","-3,36054960062465"
"5133","-3,40804742330284","0,481479429922956","-1","-3,29060604471181","4,59592364190883","-0,703591850221328"
"5133","-2,38468969452891","0,875422863238807","-1","-0,248597789342344","1,97479094149463","-0,911651778692441"
"5139","-3,83189235707919","2,72981476946229","-1","0,636648896844758","6,45100184501806","0,728270585139137"
"5150","-1,50048748329912","5,69483170329534","-1","-0,814730507321373","1,20658743376328","1,91900758971092"
"5150","-1,86352922899977","4,40719171634263","-1","-0,237092545843267","1,78491996508997","1,27392190794934"
"5155","-5,41629928462341","2,33808478392667","-1","-3,48698101686866","5,39953120039843","-2,32222863605598"
"5163","-4,38694416831877","1,08122654489455","-1","-4,14171504323109","-0,807365342525782","0,307830200963702"
"5166","-5,83250829715279","5,29875021190079","-1","8,63070128124139","-2,94778017059781","0,0917527090270593"
"5166","-1,77386367358734","2,55228613106947","-1","1,92958264526557","-3,25692634683882","1,72928533603147"
"5172","-6,11859403498983","4,65217956808534","-1","3,68850070855553","-0,611812590478478","1,21737277572218"
"5194","-1,85202456027073","2,39694432947343","-1","-3,63561194874846","-4,35260487006411","-0,637146551187576"
"5194","-2,68636402870561","2,85511288639786","-1","-1,76698238395192","-3,36666712256996","-0,1899096382866"
"5199","-1,18752008218519","1,20544510891673","-1","0,485795182447839","9,00302756810608","3,34726956221896"
"5199","-1,77802405925938","1,80910424958445","-1","0,141369956727937","5,35623178885103","2,40157083917138"
"5210","-1,93935441702952","1,95413634987882","-1","15,4220737645527","-7,73477418767505","3,82163057265038"
"5210","-1,98343114699027","1,98898103075705","-1","10,8688705096328","-4,28351306862518","3,24489744873673"
"5216","-3,72226534770071","5,51684272598191","-1","-0,710101039209119","3,56773358073022","1,37105752789974"
"5227","-1,47053651712285","0,844938894472704","-1","5,33831876891489","-1,76176866889947","-3,29327612832421"
"5227","-1,85534638811067","1,72249084488697","-1","5,09845324006868","-1,20650193716668","-1,68354013564005"
"5227","-3,68727157834909","5,45281713809497","-1","-3,51631275901895","2,40185657012487","2,20013671024809"
"5243","-6,64135221075171","4,34904651762334","-1","-1,0232727712111","3,10893616865843","-0,344221253265048"
"5243","-5,44843040803792","4,08386015574179","-1","-0,297779872287065","2,3006128715598","-0,102599525299604"
"5249","-3,39572264541168","2,26040277405348","-1","-3,5046414734217","3,81040858892111","-1,73251836766452"
"5264","-3,83490664653748","2,82230810100504","-1","-4,14685436545762","4,94860514056778","2,18553812486715"
"5264","-3,9548951898486","2,95730864062122","-1","-3,33374302149527","4,2571499815246","1,35336472597842"
"5273","-3,98767700906108","1,22999814535346","-1","0,320863685184166","2,3407910000669","-0,596612419699436"
"5284","-2,26984117198105","-1,70448684967899","-1","9,63833705592447","-0,636535407462394","-0,177827924535146"
"5284","-2,80051483219981","-0,409511413112432","-1","2,93180471163332","-4,6303889998207","-0,053003876051405"
"5285","-2,94549907411208","-0,09838714654849","-1","2,98015467152871","0,744783899186025","-0,0157984798159045"
"5285","-1,25831782650073","5,2555971323619","-1","11,5391882371268","-6,71377347661895","-0,00470893796996054"
"5291","1,65621761576652","5,30166343381897","-1","2,19395900444284","-8,19349129419165","-1,70334083229721"
"5291","0,452491754282055","4,31273109104971","-1","3,47442884035144","-6,59461647597454","-1,20963968619903"
"5302","0,123624326745547","4,07513519452736","-1","3,8470549425324","-6,16118995066752","-1,06248577647068"
"5302","0,0337751440079575","4,018051602857","-1","3,95549186789585","0,871975416142049","4,0871871393114"
"5310","-1,71756445288812","0,484846899097764","-1","-6,26690824018533","7,42313038479275","0,920175416247476"
"5322","-58,1801832354926","1,63597695837371","-1","-3,24170155462965","4,19903197662364","0,976207266917533"
"5322","-40,6062173393958","1,9125416601425","-1","-12,6153002960402","17,1563785322586","-2,41096627370871"
"5330","10,8185155779487","-1,54050238754916","-1","-2,50711549651927","16,1267202939042","0,281380818733463"
"5333","-2,13184058917488","-2,12985837735127","-1","-1,8565669989195","5,20300932818284","0,0838691340428011"
"5344","-0,489604070723788","4,00778105716577","-1","14,4226741255719","-13,5052278577192","-1,67693901063669"
"5344","-3,040932062827","2,48237934959438","-1","9,16005254446991","-6,5766982103181","-1,20177028724786"
"5349","-0,284390873948673","3,87563907339989","-1","21,3005325105908","-18,5298393447623","4,04567161825692"
"5355","3,64909425295062","8,48961175900143","-1","16,8335011143937","-13,7701233053187","2,60973846025255"
"5356","-1,72983067302624","4,83839651969833","-1","8,69759155691658","-5,56417779948909","-1,22213423884126"
"5367","0,527396576152047","4,96117396294686","-1","-6,75994446913341","4,76273257795009","1,33766460991425"
"5367","0,144088916621589","4,99067185217523","-1","-1,25820068508063","0,562174304752426","1,10064523430516"
"5372","-3,41421794697565","6,75750391023098","-1","-6,49312364001193","8,06806659988311","-4,07581322726393"
"5383","-2,38637553040879","6,18199406864025","-1","-4,01652456771088","5,10278049977109","-2,61872255041709"
"5383","-2,10556085136519","6,04372497695772","-1","-20,3857428418085","18,1302864688322","1,21945641643085"
"5384","-2,02884005964134","6,01050514241611","-1","-15,149305270359","13,6618116271825","0,363474504443292"
"5396","-2,00787933243583","6,0025239125292","-1","25,6813679380403","-23,8567859354464","0,108338201841581"
"5396","-2,00215269595162","6,00060638249371","-1","14,5633929419908","-13,0274104212931","0,0322915798351362"
"5403","-2,00058813356307","0,720910554470162","-1","-0,634967947602291","0,281747384341928","0,00962491633167167"
"5403","-2,00016068274191","2,45243746549038","-1","1,94219769971649","-2,11037665392915","0,00286882880505216"
"5417","1,45354027902849","1,10870034337482","-1","-17,815740313597","19,717092286734","0,000855090935763755"
"5420","-4,78325756564862","-1,73362924775913","-1","-11,5654450099281","12,6341308887603","0,000254870735799114"
"5442","-3,4872000735505","-0,416513018681598","-1","-2,91059259228625","5,5273126741488","1,70201324087296"
"5442","-3,13310691413289","-0,100069316986605","-1","-4,39196713864646","6,60078065947706","1,20924398067932"
"5462","-6,48995004071969","1,73570289462447","-1","-4,82305798327273","6,89177873738035","-0,639569442001971"
"5462","-5,40706613750503","1,17675626659444","-1","-4,94850857696438","6,97066314054913","-0,190631811728977"
"5463","-1,65762951007407","6,32170170098674","-1","20,6498745005575","-18,9417194938466","-0,0568202375793934"
"5470","-0,906461673800461","8,07729042802329","-1","16,5171768433031","-12,6950233293435","1,68500127846792"
"5490","0,0255554106608434","4,73933427645658","-1","3,06057550374629","-10,001655104151","-0,497763924626356"
"5490","-0,719810149061477","4,93737376805322","-1","5,14460593918088","-9,27153088309461","-0,148364872574002"
"5490","-0,923449916257217","4,9849537373977","-1","5,7510740622128","-9,07360719290362","-0,044222038450101"
"5490","-0,979085911565324","4,99638506084017","-1","5,92756072862617","-9,01995360080372","-0,0131809413559587"
"5490","-0,994286105596916","4,99913149295113","-1","5,97891964138483","-9,0054090662791","-0,0039287473196258"
"5490","-0,998438918848815","4,99979133687717","-1","5,99386546122129","-9,00146630166151","-0,00117101313818448"
"5504","-0,999573500280427","3,2402048236742","-1","-9,38271926727833","11,7466159461321","-0,000349035368844053"
"5518","2,45370070192192","2,0577103993485","-1","37,8673988027938","-20,5627147791287","-0,000104034433715219"
"5526","-0,329629558020427","8,05284538536318","-1","26,6175292863814","-14,3211996784409","-3,10087869727665E-05"
"5544","-0,090057402814696","6,49320627778368","-1","21,6347421728887","-23,0027426647136","-9,24256359345912E-06"
"5544","-0,0246043948559547","6,11849525257948","-1","21,1847146220399","-19,3561545566087","-2,75486370538004E-06"
"5549","-0,00672211530986925","6,02846907169749","-1","2,2548338873284","-2,80736930363229","-1,70193809452871"
"5549","-0,00183653507853873","6,00683983556871","-1","7,74609992490687","-7,32128796159964","-1,20922158235506"
"5549","-0,000501755911528517","6,00164330439377","-1","9,34409856746733","-8,54493102430228","-1,06236115529895"
"5549","-0,000137083684213715","6,00039481202486","-1","9,809127878404","-8,8766388946374","-1,01858753598192"
"5549","-3,74523469396882E-05","6,00009485554567","-1","9,94445481440423","-8,96655899846183","-1,00554025165543"
"5549","-1,02322774539965E-05","6,00002278951495","-1","9,98383594410189","-8,99093473927143","-1,00165134251443"
"5561","-2,79553914375965E-06","6,00000547529391","-1","9,99529614132576","-8,99754256905305","-1,00049220365239"
"5561","-7,63763408432601E-07","6,0000013154665","-1","20,2525871903722","-12,4571694065841","0,701790565843851"
"5587","-10,3607527451402","-2,79872490383465","-1","27,4914900719308","-26,955272784439","1,91111488295952"
"5587","-7,19139214608918","0,087337515283449","-1","23,5980638381981","-21,8854507439697","1,27156938625481"
"5591","4,03525477755044","2,54047335884643","-1","-3,16984183591498","7,15157241756246","-2,32292983508662"
"5594","1,10246352646344","2,12985140306158","-1","33,0933769962599","-26,9107738547672","-1,39431607373778"
"5602","-1,42559033284815","3,79094248710856","-1","-21,205555570907","22,078474565668","2,28634362273513"
"5606","-1,11627464560375","3,19002785245746","-1","-17,5519060814993","22,4610129831636","-0,318526185877958"
"5617","-4,48535133180439","-2,23357999859377","-1","-16,615645339553","15,5647123442408","-0,0949407834542051"
"5617","-3,40580973385088","-0,53662866433734","-1","-13,3431866051783","13,69524790003","-0,0282983087812813"
"5623","-6,56445460830621","-0,128927696151371","-1","-7,26389911761083","6,27279819506717","-0,00843467107333288"
"5623","-5,42742137474458","-0,0309755179690719","-1","-8,49478192562142","8,26070409724687","-0,00251406105803674"
"5636","-5,11677490073447","-0,00744202170746762","-1","-8,8529778394401","8,79959003003042","-0,000749347893780915"
"5636","-5,03190382663875","-0,00178798259805432","-1","13,2596892957417","-11,801341012759","-1,70216062608291"
"5642","-1,55513219899105","3,51906051627233","-1","20,366578812767","-19,2172292957453","-1,20928791071686"
"5647","-2,60525068701095","5,884451905487","-1","28,1066771198453","-18,4142980673787","4,04343089490825"
"5653","0,561432813832326","0,93325882172857","-1","1,8511903309793","0,363622383358397","-2,49674123607786"
"5657","-0,573404203409853","1,74371014512583","-1","6,21065134393112","-3,54601737034655","-1,44612277383026"
"5664","-6,06382692198513","-1,58106499576489","-1","-4,48366228890094","5,76765554728556","2,27090197644975"
"5667","-4,56385384117013","-5,65909383295715","-1","-24,5216833406374","16,1237689100028","3,08074578174018"
"5675","-5,88084141923526","1,64037466002945","-1","-9,5169235543958","17,8467981915147","0,620192761053355"
"5678","-6,96744493312067","0,394108141807605","-1","-9,15042854099203","14,3138807835845","0,886793618779622"
"5686","-6,26431360878652","0,0946864342785291","-1","-7,33478313275799","6,44049856666891","2,6681946707522"
"5691","4,28853996767756","1,78249392908002","-1","10,9925024021261","-7,25409539058917","-1,20471062135341"
"5691","-2,2819211347838","1,18799804451985","-1","30,9607668664172","-20,9845518858075","3,04479521425632"
"5704","-2,07702308418478","4,56465754987144","-1","18,3536927514699","-15,4355522151812","-1,09246003651999"
"5704","-2,02104331589714","3,37591673083636","-1","4,72199311005661","-4,28672816909389","-3,7294961639926"
"5715","8,35500333610592","3,09031585763563","-1","7,7550686569889","-6,26448026544417","-2,5154983422726"
"5718","5,18982136205981","3,02169883240448","-1","10,3467085342026","-3,34277810965958","-0,451713568045666"
"5719","4,32506860830093","3,0052132520251","-1","10,1008947232256","-4,5507566212132","-0,836576251137482"
"5730","-6,27194122120248","3,00125250963603","-1","-24,1504923887953","17,5977131102906","2,45258507498913"
"5741","-11,8010885822597","-4,03867925425807","-1","-14,1178969429113","10,6017693173288","1,43296146806025"
"5741","-8,31169538010547","-1,7300577506016","-1","-11,1983381755581","8,70529338633133","1,12904967567995"
"5746","-9,08515764353844","-2,93514503674188","-1","-5,22174716352117","9,920110278746","-2,36540964861387"
"5752","-4,8428894736247","-0,464928185701709","-1","0,353455300267148","0,604836600286506","0,294959550623628"
"5764","-2,23028407194534","2,6480437431665","-1","6,52084343080772","-2,10712176920599","0,0879164478936656"
"5764","-3,51649960896248","1,39595067703944","-1","13,5695546029771","-5,02903880634224","3,43007916298464"
"5769","-5,59469595780866","4,61461920045242","-1","14,7477592124371","-6,27895411770657","-2,67955852565584"
"5775","-1,70889146124316","1,62817522102316","-1","13,799618059207","-14,9912906445866","-1,5006137936303"
"5780","-2,64725893378435","1,91066725407843","-1","14,2326947127375","-7,89521454523477","2,25466023451329"
"5781","-2,90362835032076","3,73828240903355","-1","6,52275249289783","-2,78484116834033","1,37396745044744"
"5781","-2,97367050295125","3,17737600771535","-1","8,27910282864729","-4,3995098400011","1,11146575793758"
"5793","-1,26601448371215","1,28287042095689","-1","8,79021364228871","-4,83721779806401","1,03322378773268"
"5801","-5,25305352951806","-3,45152906740542","-1","-20,1139248353538","14,0622230078975","-0,692034500647155"
"5804","-6,06913622606646","-5,10848209623287","-1","-11,5252408662231","8,18552526110824","-0,206269690159647"
"5816","-7,01888856386953","0,0129168146458214","-1","-12,443856265044","11,7792103846993","-0,0614813062625764"
"5816","-6,27836841565646","-0,756641715241702","-1","-2,16621670222355","8,02447671748995","-0,0183252857791522"
"5824","-6,0760524532151","-0,941531965997416","-1","-4,17534830179996","8,00663520276367","-0,00546208464493879"
"5829","-4,29398604242563","-0,985952765061923","-1","3,78494305815208","-7,5584613903703","-0,00162804384215483"
"5832","-1,35352722298071","0,7631199617887","-1","14,7733875530171","-6,23571780521101","1,70145201421992"
"5843","0,903413566073582","3,70283344081307","-1","13,3890907448185","-7,33498111826532","-3,89673512028669"
"5843","-0,479972356628822","2,40911417343806","-1","10,9862502331288","-5,63297185071421","0,838528505234784"
"5843","-0,857924334106734","2,09829170774799","-1","10,2870060425009","-5,17158741056297","0,249934092596633"
"5843","-0,96118380417595","2,02361506992248","-1","10,0835208607968","-5,04651429511515","0,0744960371080194"
"5843","-0,98939510824195","2,00567363758572","-1","10,0243051823141","-5,01260919809304","0,0222044919408252"
"5844","-0,997102659680775","2,00136311954865","-1","10,0070729860982","-5,00341812933327","0,00661833141050527"
"5844","-0,999208423705123","2,00032749622722","-1","10,0020582907669","-5,00092659406671","0,00197267790571446"
"5855","-0,999783735094406","2,00007868259167","-1","-19,0522764908035","10,5600088926536","-1,70134929165125"
"5866","-2,72673300412935","-5,038961272023","-1","-10,5073007463613","5,77830173315038","-1,20904608216398"
"5866","-2,19854920561327","-2,73012550676731","-1","-1,18467951104199","6,21098375682467","0,639628428173043"
"5872","-7,23462148185145","3,10381886040911","-1","0,946256909438688","0,141522799064425","0,190649393307958"
"5878","-2,15693208718627","-0,254292136187187","-1","2,98436036695795","-1,96163568632683","0,0568254779927623"
"5900","-2,76966717705666","-0,0610949459968001","-1","4,99544875221847","-2,26068233071594","-1,68499971649602"
"5900","-2,93707125070389","-0,0146783635637255","-1","3,5806902043213","-1,34174855710559","-1,20417288321456"
"5906","-4,70959945730125","1,7562184943839","-1","8,29596312708743","-8,00831310023309","4,04495549395218"
"5907","-4,19386818508342","1,18168524111244","-1","6,66814208879097","-5,81550017500655","2,6095250102897"
"5935","-4,05296632177606","-0,716094264362793","-1","-9,18649982932122","10,3391924830316","-1,22219786031918"
"5935","-4,01447081810395","-0,172045195993236","-1","-4,80031676881118","5,7184423319873","-0,364291626683449"
"5941","-4,00395354197867","-0,0413347109974266","-1","-3,52390536773333","6,1947569378408","1,59335551788208"
"5954","-4,00108013894341","-0,00993086917293498","-1","-3,15246029981771","5,32387735565954","1,17685716349922"
"5958","-2,27350301309154","3,51710414741638","-1","0,373618285157648","-1,82787375423987","-0,649222745036356"
"5964","-2,80151527615851","0,604746746244345","-1","7,94469635634707","-4,95333963624673","-1,89544637495856"
"5974","-2,9457724033157","0,90503844690075","-1","15,4018915838113","-6,25843341909446","-1,26689918803839"
"5980","-6,43876877043836","6,2564201481654","-1","6,44501199796017","-9,79897448957005","2,32432184710073"
"5980","-3,66629092017791","-0,737119008460951","-1","15,3834577989935","-9,48766998719748","1,39473098063416"
"5983","-3,90882803955768","0,582648549014453","-1","14,6936036792476","-6,67436308732655","-0,584282681047788"
"5983","-3,97509109918337","0,899729245497081","-1","13,4928510769561","-6,91172562481837","-0,174152889014451"
"5983","-3,99319469125285","0,975909454286448","-1","13,143423273717","-6,97607038695419","-0,0519084849437787"
"5983","-3,99814073581629","0,994212126999006","-1","13,041737223282","-6,99351310752023","-0,0154719845556792"
"5996","1,18088423391987","6,27784456675587","-1","-17,7497223053956","22,3933608466203","-1,706548895309"
"6009","-5,58454144345418","-0,731971685714667","-1","20,3426128810294","-12,5741470983504","0,491341383199111"
"6021","4,201051190056","2,3436302627909","-1","34,9356735566193","-34,7159011422906","-1,55548672104198"
"6043","-1,57903167150532","5,602048961628","-1","6,67444901756204","-2,24220562524145","-1,16556988666024"
"6043","-1,15819603313605","4,38490020282359","-1","10,4502256524116","-6,43916435430092","-1,04935021185973"
"6048","-4,49680458650103","5,85221922527926","-1","-7,2499151086289","2,79662149942613","2,38916508810817"
"6048","-3,40893885363598","5,20474989249194","-1","-1,40078573039626","-0,699721225187929","1,41405833384999"
"6049","-3,11172532976","5,04919217641649","-1","0,301353765780481","-1,64751755117033","1,12341535595608"
"6060","124,752090372609","5,01181866418165","-1","34,9765423203375","-24,3803794980819","1,03678551749977"
"6072","-38,6435341372683","-7,31537581519158","-1","25,0672761987393","-17,5428540405987","1,01096439164513"
"6072","-11,2845113087785","-3,27704538272776","-1","25,6015925174224","-19,1471580750943","-0,698669196937334"
"6072","-3,80980984608657","-2,3068164822674","-1","23,7570824802307","-17,5820563643693","-0,208247245826018"
"6084","-1,76766227719796","-2,07371418045447","-1","23,220316547666","-17,157785127808","-0,0620707418964851"
"6084","-1,20973140679022","-2,0177101971834","-1","-9,40674708845524","12,3488296236957","-3,42237552138439"
"6091","-6,23767654767078","1,51523512530733","-1","-25,5363517315532","20,6367259342241","-0,72201985273713"
"6091","-4,61135093416015","0,364042748396128","-1","-15,2301848382212","12,8834272138044","-0,917144479367972"
"6102","-7,62061009018238","-6,95151710139897","-1","-12,2310147756451","10,7816458324414","-0,975303857607096"
"6102","-6,44276349661601","-4,70911661139952","-1","-4,52226361889776","11,9408080688664","0,709298272944492"
"6102","-6,12096648979495","-4,1703687802874","-1","-6,27896056273208","11,2550363340666","0,21141537720188"
"6102","-6,033049001928","-4,04093194381574","-1","-6,79017224186523","11,0691358140375","0,0630150437725811"
"6102","-6,00902924876376","-4,00983410236141","-1","-6,93893858531416","11,018741489522","0,0187824357632629"
"6115","-6,00246686218892","3,03661748407522","-1","13,5256814143796","-16,657604094774","3,40947289082871"
"6127","4,36007857020967","0,72956240009699","-1","0,645065046994167","0,484419805429996","-0,983763213913047"
"6140","-5,71596040148431","-6,86369919355382","-1","-11,0662373936803","8,7759065242768","-0,293223145861286"
"6140","-4,4688139559407","-4,68801792381209","-1","-7,47431219368862","6,02358109969256","-0,087398890355732"
"6146","-4,1280836813569","-4,16529971602892","-1","-14,973999021351","19,1088169201275","-1,7279876249672"
"6182","-9,2153697432009","-0,520223988052444","-1","-15,5744481755114","16,3849094005932","-1,21698597642403"
"6182","-7,60525653871905","-1,64447647932476","-1","-13,7491832778919","14,6465065200187","-1,0646754317655"
"6190","-7,16536087431295","1,60490637577798","-1","20,9618356704257","-10,029592588157","-2,72121460894216"
"6191","-3,59159372013932","0,385586710734536","-1","31,5709085512909","-30,3815287415259","1,1889073540127"
"6191","-2,88842017360838","1,85238416220721","-1","36,33016787208","-26,8142477938529","2,05630624101058"
"6197","3,2108607594692","2,96453456338271","-1","7,49824242780025","0,628709843314441","-0,3870917550932"
"6209","4,33081673810717","2,23173420910876","-1","-13,5269492006322","8,89934984236454","1,58655964944159"
"6209","2,63679757098101","2,05567529221859","-1","-25,1533460774885","23,88838667726","1,17483156842227"
"6215","-13,367150670876","-12,0645840869276","-1","34,7330675020596","-27,2712966899155","-0,649826499427965"
"6225","-8,73955593118687","-7,45704638310622","-1","46,0863499892474","-33,4289547762846","-0,193689058232194"
"6225","-7,47526044130994","-6,35006261469753","-1","-50,0593953707081","45,7874428721672","-1,75966876221453"
"6225","-7,12984491215526","-6,08410427809966","-1","-28,038511574833","26,2615993157553","-1,22642894257356"
"6234","-3,58189047832571","1,01877370626937","-1","-18,2122877295979","19,2395726320211","2,33638451880989"
"6234","-4,61256126059889","-1,27472465595505","-1","-17,3527846097845","18,3360260932508","1,39832641345379"
"6234","-4,89414867152751","-1,82574900411148","-1","-17,1026629057296","18,0910906972521","1,11872625686824"
"6234","-4,9710805797151","-1,95813533464573","-1","-17,0298756576124","18,0246930678674","1,03538787184038"
"6246","-4,99209898560856","-1,98994180666637","-1","35,9700788779211","-35,5897575207813","-0,691389467837436"
"6257","-1,54425720154192","-0,237838425226552","-1","20,3934538927103","-19,1236814778772","-0,20607742992164"
"6257","-2,60227955168023","-0,816886904369927","-1","26,114497964979","-18,1178567040178","-0,0614240006518205"
"6271","-2,89133962731657","-2,71575121523845","-1","1,27145160343855","-2,01385320800609","-1,72024547851908"
"6273","-6,42389730544015","6,62676244314104","-1","6,04194312740873","-5,64834428930808","-1,21467833114402"
"6284","-1,93543582888604","-3,1676325246207","-1","-6,24175029037852","10,6555876843733","2,33988693809172"
"6293","-2,70915264712347","-3,28052950085447","-1","-12,0703511054135","10,2620470160073","-2,00450419271844"
"6295","-2,92053820242065","-2,30765355891471","-1","11,0324027814703","-8,40489493541712","2,10446928825681"
"6317","2,2020858599252","-0,31417024829116","-1","-0,080497299402559","2,45050026037629","-0,37273614590994"
"6317","0,601627276724804","-0,835226003163516","-1","0,685567370817653","1,39320482169634","-0,111098751949861"
"6326","-5,01600693701048","-2,72015727461262","-1","-4,21848022228336","6,29334419214936","-1,73505167033383"
"6326","-3,55078904299087","-2,17302135434213","-1","-0,936601321283734","2,89276703440427","3,88672031517277"
"6326","-3,15047992361011","-2,04156923787861","-1","-2,6905431946913","1,24201326409154","-0,84151354535334"
"6326","-3,04111230551491","-2,00998721541846","-1","-2,20095312814833","1,79452327760096","-0,250823821793361"
"6338","-3,01123220708917","-2,00239947800116","-1","-2,05847883234973","1,94429891520826","-0,0747612322183259"
"6338","-3,00306872783012","-2,00057648648165","-1","1,40096758064104","0,255982640421026","1,67965373668804"
"6349","-3,00083840071863","-2,0001385037343","-1","0,407691828590194","0,798310127061724","1,20257944589668"
"6349","-3,00022905770857","-2,00003327620859","-1","20,6265534040262","-11,1570990406756","-0,641555891410761"
"6362","2,18031368785905","3,27922713715517","-1","2,54744151105529","-2,21124446611003","-0,191223898256001"
