Timer,AX,AY,AZ,GX,GY,GZ
"7","-3,99958388329278","6,99998628002689","-1","0","0,999804038408472","2,99999853000072"
"12","-3,99986931631913","6,99999624425116","NaN","-13,7389131755679","6,26865587399137","-2,09259290273538"
"27","-48,5929467945712","6,99999888860747","NaN","-9,76260978531679","4,58792742699296","-0,696682578108005"
"31","-37,2037685158387","6,99999966894697","NaN","-8,5454596613142","4,15297274031324","-0,234321222033918"
"48","-33,1908840964966","6,99999990133103","NaN","8,73423437156274","-9,87810655815571","-1,74217693638442"
"52","-31,7738625658195","6,99999997059061","NaN","4,0856322711685","-5,5298645321739","-1,24994191886391"
"71","-31,2733495305945","6,99999999123416","NaN","0,955644924492264","14,7389126253721","5,56873171912647"
"81","-31,0965548471666","6,99999999738723","NaN","4,36684652539156","-3,16397401683076","-1,12459498008729"
"89","-31,0341059370106","6,99999999922123","NaN","1,73303175693735","-6,04267672987079","-2,04196037935304"
"101","-31,0120471941681","6,99999999976788","NaN","1,91731774776946","-3,79190286024923","-1,35090541929359"
"101","-31,0042554141848","6,99999999993081","NaN","1,97439262902837","-3,20610475438641","-1,11817590767378"
"110","-31,0015031342273","6,99999999997938","NaN","-1,38851442559967","-4,79337669704272","0,623427152732794"
"121","-31,0005309500808","6,99999999999385","NaN","-0,430034294406364","-4,20648834281106","0,209954208782809"
"158","-31,0001875467827","6,99999999999817","NaN","-15,3458114029302","15,0833410972822","-1,59251858464014"
"158","-31,0000662468977","6,99999999999945","NaN","-12,6556415924141","12,5832819726297","3,79013226537804"
"171","-31,0000234003026","6,99999999999984","NaN","-10,8224739601804","9,93260359059072","2,60287044243744"
"186","-31,0000082656574","6,99999999999995","NaN","-10,2547269244115","9,24272425776875","2,20303123819064"
"212","-31,000002919667","6,99999999999998","NaN","-10,0788910155963","9,0631726769056","2,06837569198875"
"220","-31,0000010313101","7","NaN","23,7814029359977","-18,8193151894862","-1,30342433759063"
"232","-31,0000003642883","7","NaN","14,2682134072574","-10,07615640305","-0,438959747435781"
"241","-31,0000001286771","7","NaN","6,25102524436262","-7,80061645402627","1,51539541721903"
"249","-31,0000000454524","7","NaN","-1,68342265102892","4,96977101734835","-0,489653852223275"
"261","-31,0000000160551","7","NaN","-19,4242878531146","15,211336855118","1,49832294834436"
"269","-31,0000000056711","7","NaN","-12,918779166049","13,3563296162524","1,16782233478243"
"281","-31,0000000020032","7","NaN","-10,9039698227539","10,873535790717","1,05651824011998"
"290","-31,0000000007076","7","NaN","-8,58967505429108","-0,211057849356985","-2,30741762199344"
"302","-31,0000000002499","7","NaN","-8,8729190023149","2,90400819681699","-1,44030458277631"
"317","-31,0000000000883","7","NaN","-5,5800583607861","1,97501667437853","-1,14828324351191"
"318","-31,0000000000312","7","NaN","20,4844364638993","-12,9243807095404","2,27651353224257"
"331","-31,000000000011","7","NaN","22,6985749096212","-21,7200537328479","-0,233328873546635"
"339","-31,0000000000039","7","NaN","12,3134363083251","-12,5297917052663","-0,0785791552663753"
"351","-31,0000000000014","7","NaN","0,265031147357306","-3,43921233074645","-1,68968919052563"
"359","-31,0000000000005","7","NaN","0,152957737358558","4,36515792079911","0,43095619827911"
"377","-31,0000000000002","7","NaN","2,11824768400802","0,396363886303793","0,145134948379257"
"380","-31,0000000000001","7","NaN","-20,937171207849","16,7607729469639","0,0488777126890453"
"392","-31","7","NaN","-14,077623343322","11,0198591044138","0,0164607547967703"
"400","-31","7","NaN","-20,4046241984262","18,2243730409945","0,00554355827170536"
"408","-31","7","NaN","-13,983564590566","8,1405180744847","0,00186692765254134"
"421","-31","7","NaN","23,1915099238792","-20,0594500718832","-1,66259702167327"
"429","-31","7","NaN","21,1563941276018","-19,0975943653435","0,440080142994539"
"441","-31","7","NaN","15,5261020907655","-13,8472567998376","0,148207657973821"
"450","-31","7","NaN","8,71147909564919","-3,7821026438896","-1,61331323268085"
"461","-31","7","NaN","-0,540816320555033","0,796445900860362","0,456677653831861"
"470","20,049911706241","8,70193727340652","NaN","-5,85778705215262","3,20728714974907","1,81702302698211"
"482","7,0822033375939","8,20922133760914","NaN","-2,50449645234889","0,834745223724706","1,2751523132031"
"489","2,5016371568067","8,06236108234931","NaN","-1,46595487839002","5,43645953784203","1,09266421258734"
"494","0,88364992728973","8,01858751423836","NaN","-11,286060882617","5,37386042543189","1,0312069202489"
"498","0,312130474986976","8,00554024517448","NaN","-8,32742817320311","4,35756805507215","1,01050968701108"
"513","0,110253427750978","8,0016513405827","NaN","-14,1722826075133","14,5314713350226","-2,32291211773831"
"521","0,0389446699536383","8,00049220307661","NaN","-15,363065528649","9,43964947991684","1,88092877976334"
"533","0,0137563733730207","8,00014670739105","NaN","-13,7318607560093","9,11442545875643","1,29667412485839"
"540","0,00485914525924167","8,00004372800499","NaN","-13,22666327264","9,0297809646314","1,09991220446236"
"540","0,00171638934260957","8,0000130336884","NaN","-13,070199472703","9,00775094864391","1,03364785724166"
"562","0,000606277898323928","8,0000038848567","NaN","-13,0217413518758","9,00201730218024","1,01133173172434"
"568","-3,29332853599887","11,403875704744","NaN","30,9408534940844","-22,3147014100125","-0,659409519426254"
"572","-2,45684069877502","10,4184430203543","NaN","15,1758457125791","-12,4653533931934","-0,222072143166479"
"577","-2,1613692254119","10,1247222675708","NaN","12,2932936319939","-9,90191088556343","-0,0747881783894514"
"580","-2,05700023439212","10,0371750591391","NaN","4,63937640845062","-5,75526640999024","-0,0251867323251766"
"588","-2,02013411610835","10,0110804994883","NaN","6,26889553191852","-6,67603916626185","-0,00848224276725493"
"601","-2,00711194674526","10,0033026838895","NaN","-5,05847168954475","5,26245934734215","-1,66608235572959"
"620","-2,00251214338068","10,0009844069652","NaN","-11,7084009678361","8,32857423147251","-1,22431938257572"
"629","-6,94120139711445","10,0002934150241","NaN","-7,76793855154452","5,12657722759317","-1,07554499074523"
"630","-5,68568795788295","10,0000874560821","NaN","-20,0698795069935","19,95082206651","2,30100990241347"
"642","-5,24220463486405","10,0000260673983","NaN","-15,8798914168974","14,8090570784825","1,43814662785147"
"650","-5,08555361731997","10,0000077697198","NaN","-14,5822177747108","13,4708345979644","1,14755649987098"
"658","-5,03021998914529","10,0000023158639","NaN","11,1740594822097","-4,27480616453502","1,04969322886482"
"670","-5,01067456610895","10,0000006902727","NaN","10,9121568088209","-11,0715224807089","-0,646490355182956"
"679","-5,0037705626255","10,0000002057446","NaN","13,5922106309561","-12,7994104053126","-0,217721301380141"
"699","-5,00133187076343","10,0000000613248","NaN","10,4222452587029","-9,2491194974054","-0,0733229269309782"
"721","-5,00047045491792","10,0000000182786","NaN","-7,46243705516847","3,85304128414812","1,638532481453"
"743","-5,00016617815772","10,0000000054482","NaN","-11,4529287384694","2,00281255110207","1,21504129446153"
"750","-5,00005869888708","10,0000000016239","NaN","-11,0694003218891","12,6994060212691","1,0724203696239"
"754","-5,00002073412891","10,000000000484","NaN","-8,95061842883261","8,4833570342133","1,02438931531544"
"761","-5,00000732388846","10,0000000001443","NaN","-8,29441431630528","7,38606621159096","2,67143944807996"
"781","-5,00000258700727","10,000000000043","NaN","-1,33001530006026","7,10047959883862","2,22612351330835"
"781","-5,0000009138051","10,0000000000128","NaN","-3,17308386189857","7,02615134264448","2,07615257551091"
"787","-3,35322897741953","8,2980627265973","NaN","-3,74389729668937","7,00680628436034","2,02564622613587"
"789","-3,77154194183545","8,790778662392","NaN","-3,9206828944062","7,00177143894383","2,00863698844852"
"801","-3,91930206747347","8,93763891765102","NaN","-3,97543484251258","7,00046104390672","2,00290871526534"
"810","-3,97149517786163","8,98141248576174","NaN","12,9105260955094","-19,095902042619","-1,32547192926059"
"822","-3,98993128002539","8,99445975482555","NaN","8,14024655320188","-10,8878771374487","-0,446384808478376"
"842","-3,99644343958945","8,99834865941731","NaN","6,66285189364514","-8,75161391376438","-0,150330906933226"
"871","-3,99874372095104","8,99950779692339","NaN","-12,3879192089155","10,9414638828522","4,93904968676374"
"871","-3,99955624624169","8,99985329260895","NaN","-7,28809911194608","5,06688666654364","3,65302199461813"
"880","-3,99984325345696","7,29801899858849","NaN","-9,0892266555109","10,4968778763238","1,55669523449643"
"887","-10,5870300140799","7,79076562870246","NaN","-7,64705061329851","7,91011561139396","1,85070637221472"
"898","-8,91381313138","7,93763503279398","NaN","18,153980220891","7,23687141941994","1,94972175119306"
"900","-8,32278498298733","7,98141132783066","NaN","-0,687271774385967","0,102710177095683","0,319841825885033"
"913","-8,11401690527777","7,99445940968945","NaN","0,477438106804778","2,24593629179576","0,770940244312317"
"919","-8,04027403805718","7,9983485565451","NaN","0,838158300064522","2,80374345999644","0,92285857367814"
"922","-8,01422594427975","7,99950776626102","NaN","0,949876299479381","2,94892125283964","0,974020754378675"
"951","-8,00502501115888","7,99985328346964","NaN","0,984476279260028","2,98670597977818","0,991250859165643"
"953","3,5256244396071","11,403830816084","NaN","11,1369430154697","-10,921338390161","2,66027926952383"
"971","0,598580232196494","8,71649236731141","NaN","6,59095334145366","-8,28085310847247","-1,10408645704943"
"976","-5,37564969133915","10,6174342153973","NaN","-3,9587277471498","5,58451693201399","-0,371827883181585"
"981","-4,48591888972406","10,1840341257334","NaN","-14,7483848711123","10,8918642172195","-3,45167356434228"
"982","-4,17164047568012","10,0548537133024","NaN","-8,39973828100524","9,01291680944853","4,16401675042405"
"990","-4,06062833430581","10,0163498473507","NaN","-19,265553059861","11,0033617959632","-2,26089215680102"
"1008","-4,02141566495975","6,60099873326769","NaN","-15,6307849259686","9,52140535365026","-1,42463600435468"
"1010","-4,0075646265219","7,58300986793004","NaN","-6,05360842093471","-1,30270514713403","0,520219284983259"
"1022","-4,00267204284916","7,87571078427265","NaN","-8,08747838669254","1,88015559475339","0,175196457026104"
"1031","-4,00094384210074","7,96295401747414","NaN","-8,71738457960927","2,70854347460982","0,0590016545724313"
"1037","-4,00033339207544","7,98895797343901","NaN","1,22927915028207","-4,03479519984727","0,0198702376827507"
"1039","-4,00011776363427","7,99670878345611","NaN","11,8321768574263","-10,4885255844034","1,66991753912132"
"1051","-4,0000415974901","7,99901901102312","NaN","8,80627295870884","-7,16820699806689","-0,437614781256675"
"1060","-4,00001469342546","7,99970760375079","NaN","5,17883392202452","-4,56430882274586","1,51584836718879"
"1074","-4,00000519013891","7,99991284757671","NaN","-1,70578089505691","2,0723344600125","1,17372444448515"
"1080","-4,00000183330578","7,99997402311109","NaN","-3,21858612601765","3,27909134010682","1,05850591866006"
"1099","-4,00000064757613","7,99999225725766","NaN","-221,425049145713","1,59316815793539","1,01970328659506"
"1101","-4,00000022874245","7,99999769217711","NaN","57,3519726130775","6,37358543508362","-0,656590195353722"
"1119","-4,00000008079839","7,99999931212402","NaN","12,3109167994018","49,850866545159","-0,221122667430046"
"1121","-4,00000002854031","7,99999979496981","NaN","-1,32895903665679","-13,5460847642579","1,58875733540925"
"1133","-4,00000001008125","7,99999993888814","NaN","-4,55334034146019","-2,04610482276244","1,19827830722413"
"1148","-4,00000000356099","7,99999998178483","NaN","6,28008499493395","-6,01199948080565","1,06677502725013"
"1150","-4,00000000125784","7,99999999457074","NaN","7,70616100481638","-4,78391863998224","1,02248810939875"
"1162","-4,00000000044431","7,99999999838174","NaN","1,76724481664416","-1,72455713488116","-0,655652338756058"
"1170","-4,00000000015694","7,99999999951766","NaN","-3,14296160685406","-0,188577005867724","1,44241893334197"
"1191","-4,00000000005544","7,99999999985623","NaN","-5,04427638099919","7,90985917798949","1,1489953023277"
"1210","-4,00000000001958","7,99999999995715","NaN","-3,63312914498198","5,01760027146876","1,05017778047614"
"1211","-4,00000000000692","7,99999999998723","NaN","-1,50579347725096","-0,954358471549387","2,6801243389687"
"1219","-4,00000000000244","7,99999999999619","NaN","3,22393522886671","-1,24838629615979","0,565822606057585"
"1232","-4,00000000000086","7,99999999999887","NaN","3,37906276869811","-5,54411591328648","-0,809445518941583"
"1240","-4,0000000000003","7,99999999999966","NaN","2,427107038822","-3,66214483083751","-3,59905191330095"
"1255","-4,00000000000011","7,9999999999999","NaN","-4,62888867655797","-1,43259845280422","-0,875293746274508"
"1260","-4,00000000000004","7,99999999999997","NaN","-4,50448016943575","-0,112590321791822","0,705223609291351"
"1272","-4,00000000000001","7,99999999999999","NaN","-3,46594983543841","-0,769038144766891","0,237501148699211"
"1281","-4,00000000000001","8","NaN","-9,90547570778142","11,2382549498268","0,0799842700815495"
"1293","-4","8","NaN","-11,2804332457187","7,36333545949022","0,0269366421826469"
"1299","-4","8","NaN","-9,7062688609378","6,35482877273182","0,0090715673386301"
"1301","-4","8","NaN","-9,21873725304911","6,09234958064205","0,00305507024302811"
"1309","-4","8","NaN","2,76429792597875","2,54456577701189","0,00102886897505468"
"1322","-4","8","NaN","14,6881683624341","-15,5158817022323","0,000346496572458784"
"1342","-4","8","NaN","9,38108873488341","-9,21638763379798","0,00011669112164579"
"1350","-4","8","NaN","4,35685907766109","-7,57684856542393","-1,66318645625984"
"1350","-4","8","NaN","8,18139759976615","-1,93092919859321","2,10310739143082"
"1369","-4","8","NaN","7,36588851643343","-3,46149287906519","1,3714981590969"
"1371","-4","8","NaN","7,11331867144843","-3,85984533777176","1,12511101211404"
"1383","-4","8","NaN","7,03509572102456","-3,96352261914343","1,04213416666788"
"1391","-4","8","NaN","7,01086943235823","-3,99050620726417","1,01418970217568"
"1403","-4","8","NaN","-16,6607189386851","18,6190233353043","1,00477872623948"
"1410","-4","8","NaN","-9,99200381044922","11,503497008888","1,0016093519222"
"1418","-4","8","NaN","-7,92664809509106","9,65157314365876","1,00054198827882"
"1420","-4","8","NaN","14,6868029769046","-11,7072358160699","-0,663043227130758"
"1432","-4","8","NaN","8,69037405730156","-5,26619045004365","-0,223295882335853"
"1441","-4","8","NaN","20,3555653411053","-14,0282193197551","-0,0752003022245092"
"1453","-4","8","NaN","4,13632801501723","-12,048405297151","-0,0253255250186471"
"1461","-4","8","NaN","6,11309732274322","-10,5331286093866","-0,00852898457183438"
"1473","-4","8","NaN","6,72531897401302","-10,1387548228575","-0,00287234234129512"
"1482","-4","8","NaN","-20,1297398682856","23,018848194597","-0,000967330923876"
"1519","-4","8","NaN","-15,8275552417674","12,6486182952085","3,32612573750678"
"1530","-7,29354269072523","11,403874546813","NaN","-12,4951334129681","9,94960836149584","2,44660499425698"
"1533","-3,16337365363567","3,61069358159219","NaN","-11,4630550683777","9,24715000782818","2,15040505983261"
"1534","-6,99802229196476","6,98977408766859","NaN","19,2818405682094","-13,5522278858429","-1,27579895915277"
"1540","-6,35253007148883","6,99695203668859","NaN","2,35232762280281","2,21256153406432","-0,429656231464676"
"1543","-6,12452372287122","6,99909151574485","NaN","8,87028597756413","-9,12282124728004","-0,144697153036572"
"1551","-6,04398534710024","6,99972921470584","NaN","15,3404101174314","-7,81276168892984","-1,71195602931722"
"1563","-6,01553688497998","6,9999192889969","NaN","12,3442605765358","-6,47179877913448","-1,23976845437163"
"1572","-6,00548807297873","6,99997594305835","NaN","-5,48658955020342","2,57588120963147","0,582477914586292"
"1607","-6,00193854463483","6,99999282952238","NaN","-11,1507007705714","15,5882906513282","3,52261506966485"
"1622","-2,70714205878809","6,99999786274789","NaN","-3,52433881144463","4,75576355840066","0,849551785955343"
"1627","-3,54332552878846","6,99999936296481","NaN","-3,16239202607651","4,93643375427095","0,949332916277072"
"1635","-5,48546083628932","8,70193708353008","NaN","-3,05029414103559","-0,235748488764576","0,982936631123954"
"1642","-1,87793598735639","8,20922128101405","NaN","-3,01557650756396","1,41811247783287","0,994253496826614"
"1648","-2,60365483839687","8,06236106548043","NaN","-3,00482417201874","1,84855492907393","0,998064725731383"
"1653","-2,85999953179489","8,01858750921037","NaN","-3,00149408560107","1,96058411869293","0,999348249468978"
"1674","-2,9505478229673","8,00554024367582","NaN","8,83157991492015","-11,9281370014975","0,999780507206872"
"1681","-6,27607476476308","13,1074631603556","NaN","5,49637988721972","-5,80315294555491","0,999926080480273"
"1682","-5,45074617237398","11,6281562157709","NaN","-3,98801792081402","1,74990644961899","-3,98970215866322"
"1690","-5,15921646405061","11,1872299543993","NaN","-1,92541363241263","-0,284295054563853","-2,67008044260836"
"1703","-5,05623981739272","11,0558062707082","NaN","-4,66719179733058","6,14521229871347","2,7640114292063"
"1711","-5,01986551503468","11,0166337692083","NaN","-3,5163429597758","3,81858930035518","1,59407361755234"
"1723","-5,00701706914938","11,0049579066038","NaN","-13,3016664842771","10,1719895156743","1,20006869413001"
"1731","-5,00247862989513","11,0014777671605","NaN","-18,7837203883822","6,08582367559798","-0,59584777137532"
"1743","-5,0008755231032","11,0004404673091","NaN","-15,4815573997137","6,02233691588653","-0,200666183444574"
"1752","-5,00030925984785","11,0001312868871","NaN","-14,4588504658377","6,00581352182653","-0,0675792024618445"
"1760","-5,00010923943999","11,0000391317275","NaN","11,2122673485783","-2,69716095469401","-1,68598468972292"
"1772","-5,00003858650042","11,0000116637094","NaN","4,16282287210718","0,0377576736421143","-1,23102197608356"
"1781","-5,00001362985763","11,000003476517","NaN","1,97955215809318","0,749561810810785","-1,07780225161455"
"1793","-5,00000481445627","11,0000010362201","NaN","13,1354179747985","-9,50358915931186","-1,02620179456046"
"1801","-5,00000170060391","11,0000003088586","NaN","9,59048102386238","-6,1721275223667","-1,00882408958535"
"1809","-5,00000060070203","11,0000000920592","NaN","8,49258500470267","-5,30506400119753","-1,00297172610947"
"1821","-5,00000021218517","11,0000000274394","NaN","-5,3697768400151","3,61927646955466","2,32545070883112"
"1834","-5,00000007494988","11,0000000081787","NaN","-1,66306388464024","0,941971705444688","1,44637766198426"
"1842","-5,00000002647445","11,0000000024378","NaN","-19,1082743828505","12,4233060689733","-0,512897254646189"
"1858","-5,00000000935153","11,0000000007266","NaN","-13,5111990115467","8,41149782557726","-0,172730585786183"
"1883","-5,00000000330323","11,0000000002166","NaN","-3,32627987691451","2,14815935319688","1,60505454217735"
"1891","-5,0000000011668","11,0000000000646","NaN","4,96982386823238","-3,44090888150725","1,20376678673193"
"1903","-5,00000000041215","11,0000000000192","NaN","1,53919517226289","-0,89554882989969","1,06862340579353"
"1922","-0,0596859640577421","4,19225090637965","NaN","13,9990358082202","-12,4112238100974","1,02311059568751"
"1924","-1,31462548351008","6,16311464956515","NaN","9,85795054292916","-8,4083532340837","1,00778305341822"
"1932","-1,75790608161752","6,75055567060325","NaN","8,57542250627021","-7,36654533273099","1,00262113194008"
"1957","-1,91448549091386","6,92564994304672","NaN","8,17821306491844","-7,0953989934452","1,00088272973063"
"1964","-6,91010786109137","13,7855881129282","NaN","-5,467140405574","3,41357977664306","1,00029728063873"
"1971","-5,6747048299856","11,8302799881058","NaN","-3,38350998513867","5,36790561986286","-0,663125638361541"
"1973","-5,23832507937316","11,2474755170908","NaN","-11,8799434106724","6,35601822642417","1,43990211850836"
"1981","-5,08418324715333","11,0737632273892","NaN","-1,75019123213632","-0,606014858058519","-0,515078050912388"
"2005","-5,02973593513498","11,021986068678","NaN","-4,30321579077567","4,06147983049158","-0,173465021802615"
"2012","-3,3637322389995","9,3046159541707","NaN","-0,713324801810824","-0,203203347030431","-0,05841855178197"
"2019","-3,77525199479265","9,79273193527052","NaN","-1,60150614874254","-2,79262156168392","-1,68289961850489"
"2022","-3,92061256448817","9,93822111549098","NaN","-3,56687499570072","5,49238220474312","2,09646850609572"
"2041","-3,97195808295904","9,98158601723734","NaN","-3,17556583086101","17,5665587663233","1,36926235349936"
"2043","-3,99009479137017","9,99451147809032","NaN","-8,12524959580523","-4,68830130946494","1,12435805037157"
"2055","-3,99650119648178","9,99836407619463","NaN","-6,65820721306176","-0,480466864201523","1,04188058854541"
"2059","-3,99876412234042","9,99951239209007","NaN","3,93789867206791","-1,12504880334197","1,0141043035949"
"2071","-3,99956345259701","9,99985466225686","NaN","-0,470692322568469","4,92639335817174","1,0047499661969"
"2084","-3,99984579894816","9,999956680236","NaN","0,854222731081157","-1,71783125927945","-2,32485184336793"
"2092","-3,99994553176991","9,99998708799303","NaN","1,95485158538921","-3,92656129694551","0,21704977530432"
"2104","-3,99998076026037","9,999996151412","NaN","4,67630897256741","-4,24115165901935","-1,59012898058057"
"2112","-3,99999320397265","9,99999885287937","NaN","3,51916662364826","-3,32302858176121","-1,19874024199136"
"2124","-3,9999975994484","9,9999996580861","NaN","3,16079015713763","-3,08407309765601","-1,06693059498268"
"2147","-3,99999915205639","9,99999989808821","NaN","3,04979802910031","-6,50135090621292","-1,02254050060446"
"2154","-5,64677104584463","16,80774906325","NaN","-10,506911594336","6,78739422669899","0,655634694747304"
"2154","-5,22845806638212","14,8368853413826","NaN","-6,70553564166756","3,24599210430437","0,220800879434554"
"2168","-5,08069793542921","14,2494443266986","NaN","-49,4758053314356","2,32428838120969","0,0743600495057132"
"2174","-5,02850482316368","14,0743500561491","NaN","2,15460325668105","7,30360538686888","-1,63818320528074"
"2182","-5,01006872033678","14,0221609804582","NaN","3,59642286285608","-1,35939089852126","3,7747535972305"
"2194","-5,00355656053848","14,0066053622593","NaN","-0,957033791556922","0,385932661628301","2,59769130308024"
"2202","-5,00125627909414","14,0019688122852","NaN","-2,36727662619355","0,840179642851367","2,20128703744296"
"2211","-5,00044375377427","14,0005868295579","NaN","0,576543226081468","-2,5210652816709","-4,5851147291985"
"2223","-5,00015674654868","14,0001749120181","NaN","-2,20202345196556","3,82332405119459","3,78230295767848"
"2242","-5,00005536737251","14,000052134753","NaN","-0,372276511857593","-18,4022698346058","2,60023373324667"
"2243","-5,0000195573425","14,0000155394266","NaN","-4,18617250545961","6,95026440799907","-4,45075975685384"
"2252","-5,00000690821378","14,0000046317239","NaN","0,0132162691422626","4,2883815442203","-1,1621270123973"
"2260","-5,00000244017906","14,0000013805442","NaN","6,07496860632917","2,59558607474454","0,608625552601554"
"2272","-5,00000086194117","14,0000004114888","NaN","0,571759359155286","-1,32445927742115","1,86819516589631"
"2285","-5,00000030446232","14,0000001226495","NaN","2,55766217123511","-2,08444545794462","-2,03406573798854"
"2293","-5,00000010754482","14,0000000365572","NaN","5,55329615663087","-6,50144781863701","1,97820480127531"
"2305","-5,00000003798791","14,0000000108963","NaN","4,48106854664672","-4,65103981075321","1,32943418357678"
"2309","-5,00000001341842","14,0000000032478","NaN","4,14899087053351","-4,16944300497802","1,11094494850916"
"2325","-5,00000000473977","14,000000000968","NaN","4,04614369336151","-4,04410011716913","1,03736340129023"
"2344","-5,00000000167422","14,0000000002885","NaN","-7,81775156556001","4,68719628639251","-0,650642723557536"
"2351","-5,00000000059138","14,000000000086","NaN","-14,6338479730968","8,91858807967424","-0,219119712105181"
"2354","-5,00000000020889","14,0000000000256","NaN","-19,1963079107039","11,2390765080509","6,57910914364966"
"2362","-5,00000000007379","14,0000000000076","NaN","-15,6093391359142","8,84301888734407","4,86857753507848"
"2374","-5,00000000002606","14,0000000000023","NaN","0,714200741945628","3,00020407001764","-0,697162720720092"
"2383","-5,00000000000921","14,0000000000007","NaN","-3,23026521089329","4,47952271716379","0,428439305789074"
"2395","-5,00000000000325","14,0000000000002","NaN","-4,45189863548473","4,86453787714682","0,807513078634989"
"2403","-5,00000000000115","14,0000000000001","NaN","8,69208593542974","-14,1723389027908","-0,728050392473158"
"2411","-5,00000000000041","14","NaN","4,76288565233098","-8,12697539922421","-0,245188621375054"
"2424","-5,00000000000014","14","NaN","15,37802277621","-8,2933124749467","-0,0825732128892659"
"2436","-5,00000000000005","14","NaN","11,6656177186429","-7,33660422682447","-0,0278085314425188"
"2460","-5,00000000000002","14","NaN","-8,07735441674793","5,09053725134048","1,65386055763825"
"2460","-5,00000000000001","14","NaN","-6,57249826419012","8,2838288931883","-0,443022359075437"
"2473","-5","14","NaN","-7,48701559669037","6,85466637570402","3,1772529890749"
"2485","-5","14","NaN","-5,77024910766703","5,48270511071728","2,39646848677659"
"2493","-5","14","NaN","-6,92884426617964","5,12563134101363","2,13352037537016"
"2505","-5","14","NaN","-6,28767067972497","5,03269746579113","2,04496622363087"
"2510","-5","14","NaN","2,36236506593876","-3,69016399970634","-1,31130804362682"
"2522","-5","14","NaN","1,73164381696865","-2,70015606490573","-0,441614776585307"
"2534","-5","14","NaN","5,60717969783384","-8,40143066382991","-0,148724483042973"
"2542","-5","14","NaN","2,11717310786012","-4,14553922135563","-0,0500865755159504"
"2555","-5","14","NaN","2,0362894715626","-4,03787879420174","-0,0168678686628222"
"2563","-5","14","NaN","-1,36934446631131","2,94908067782366","-0,0056806637366456"
"2569","-5","14","NaN","-0,424097200945857","0,767543065292647","-0,00191310124200606"
"2577","-5","14","NaN","-1,82163818447109","8,89843875964025","-0,000644283226721375"
"2583","-5","14","NaN","-2,94475988432246","0,795423526770156","-0,000216977997358486"
"2595","-5","14","NaN","-2,29259987706848","1,68649066619481","-7,30726012801492E-05"
"2604","-5","14","NaN","6,36083845313408","-3,30079997596643","-2,46089701391506E-05"
"2612","-5","14","NaN","0,660295592986476","-3,33855296275675","1,66321746715691"
"2624","-5","14","NaN","4,27537437477069","-7,56758315858345","-0,439871192935114"
"2633","-5","14","NaN","3,39499389365142","-3,92851773565121","1,51508846584897"
"2645","-5","14","NaN","4,81262465174394","-0,501926049505477","-0,489757225539231"
"2653","-5","14","NaN","4,25167651288836","-1,61010348728534","-0,164937619950343"
"2661","-5","14","NaN","-6,06380456082249","8,53988530743836","1,60767901236439"
"2673","-5","14","NaN","-15,0906362147579","10,4007785537907","-0,458575114126091"
"2682","-5","14","NaN","-10,8863199393622","7,88510430222761","-0,154436287916196"
"2692","-5","14","NaN","-23,106543192759","-3,20804696842296","-0,0520101642907214"
"2706","-5","14","NaN","-18,891246460783","-0,0952081756618258","-0,0175156838204743"
"2710","-5","14","NaN","-17,5857345248398","0,714955427770325","-0,00589883119737727"
"2723","-5","14","NaN","-17,181406781561","0,925812818089584","-0,00198657442391588"
"2735","-5","14","NaN","26,8914038022916","-11,197451958499","-1,66389478192635"
"2743","-5","14","NaN","16,2314061573529","-9,0924506633106","-4,55003417370787"
"2755","-5","14","NaN","11,9299175439829","-7,54459208531259","-3,52201158884708"
"2755","-5","14","NaN","10,5977112761585","-7,14173836668429","-3,17580005880697"
"2767","-5","14","NaN","-1,64692656589664","1,6617844480911","1,93047233236619"
"2776","-5","14","NaN","1,5608087679308","-1,04696494712281","0,650133362565288"
"2792","-5","14","NaN","2,55427068340918","-1,75195814366241","0,218948172441495"
"2805","-5","14","NaN","-8,97008866690568","17,2016394893696","-1,58948964931766"
"2813","-5","14","NaN","-5,53927718258164","11,1346013221793","-1,19852493168787"
"2837","-5","14","NaN","14,1164831159378","-14,8007247990111","2,25959342563076"
"2845","-5","14","NaN","9,2040331299382","-7,55078757624021","1,42419862514513"
"2860","-5","14","NaN","7,68260711909594","-5,66388123251435","1,14285917178784"
"2860","-5","14","NaN","7,21140901772811","-5,17278518014989","1,04811128974528"
"2881","-5","14","NaN","7,06547510497101","-5,04496996905058","1,0162026432884"
"2895","-5","14","NaN","-28,4758497599377","21,0843179184224","-3,98422063150946"
"2903","-5","14","NaN","-21,8638728915766","16,3643317979162","3,98466861385827"
"2911","-5","14","NaN","-17,8160894801868","13,1358836776886","2,66838527435612"
"2923","-5","14","NaN","-16,5624577921501","12,2956309898013","2,22509494625787"
"2932","-5","14","NaN","26,0830973756731","-26,1972231952723","-2,91387108385389"
"2952","-5","14","NaN","15,9810670341673","-14,2155734951622","1,68190902001992"
"2960","-5","14","NaN","8,47180185338559","-0,658758254109712","-0,43357635932851"
"2972","-5","14","NaN","-7,06650535876092","3,82854815283679","1,51720840368535"
"3002","-5","14","NaN","-19,7817644805045","11,434846655963","-2,15226903989882"
"3009","-5","14","NaN","-8,64890899354564","2,19529703146981","0,275171218672945"
"3022","-5","14","NaN","-1,43980520615512","2,79056382290241","0,0926705794626714"
"3030","-5","14","NaN","-3,20708669538018","2,94549105198733","0,0312090644485403"
"3042","-5","14","NaN","-3,75442825282098","2,98581321787561","0,0105104091222984"
"3050","-5","14","NaN","16,3595572601474","-14,4010403498543","1,6667653899229"
"3058","-5","14","NaN","10,5890233775328","-8,92623322895115","1,2245494109006"
"3079","-5","14","NaN","-3,03020089227751","2,93707734260318","2,73884821318496"
"3091","-5","14","NaN","-0,248186237805133","0,0246842124597059","2,24882504929481"
"3099","-5","14","NaN","0,613426495132925","-0,733310360987238","2,08379786815708"
"3108","-5","14","NaN","0,880275018151141","-0,930589968409849","2,02822096379594"
"3136","-5","14","NaN","-14,2497060663105","7,71673902768666","2,00950409378051"
"3140","-5","14","NaN","133,73921837644","-1,99160139228711","-1,3232507756395"
"3149","-5","14","NaN","-40,6507436954955","-3,99781413470421","-2,10886253596847"
"3161","-5","14","NaN","-14,6607438140108","-2,51996149049658","-1,37343634355444"
"3169","-5","14","NaN","-4,92113609505316","-7,35453228731849","2,20068776692677"
"3186","-5","14","NaN","-6,28528339597016","6,56534080597411","-0,258865038425738"
"3198","-5","14","NaN","2,05339623377393","11,886873338987","-0,0871790779182186"
"3217","-5","14","NaN","0,635953638109866","8,27188305511906","-0,0293596681610257"
"3218","-5","14","NaN","6,95812727839559","-6,58685152472232","3,31656392956497"
"3230","-5","14","NaN","4,91615625554655","-2,45406301593105","2,44338482360486"
"3239","-5","14","NaN","4,28374109887263","-1,37844199813483","2,14932058929191"
"3239","-5","14","NaN","4,08787694315466","-1,09849528141707","2,05028732874798"
"3247","-5","14","NaN","9,09809162880333","-13,2037785108199","-1,3095160324675"
"3266","-5","14","NaN","7,64979616816237","-9,35436244228022","-0,441011273379781"
"3267","-5","14","NaN","-2,94050364158918","2,08591540588623","-5,13819850317923"
"3280","-5","14","NaN","-8,67186529681261","6,02236079008813","1,26958707752866"
"3288","-5","14","NaN","-5,44691496136946","3,04688052576967","0,427564229719598"
"3300","-5","14","NaN","-4,44812141883952","2,27246656688192","0,143992620727967"
"3315","-5","14","NaN","-22,7319967465561","22,9477311939054","3,37494451580504"
"3320","-5","14","NaN","-17,394662744554","16,328783027073","2,46304590146878"
"3336","-5","14","NaN","26,5156484897352","-27,1475340834222","-4,49696108534814"
"3337","-5","14","NaN","28,6373661102702","-19,6821107534893","0,485539324897172"
"3349","-5","14","NaN","21,2944794416516","-19,9583252827677","-1,49970861517887"
"3358","-5","14","NaN","19,0203272764097","-17,0302143118048","-1,16828899168468"
"3370","-5","14","NaN","18,3160037175596","-16,2681289314115","-1,056675398146"
"3378","-5","14","NaN","-30,9205934478806","23,9441158263531","2,30736469521785"
"3397","-5","14","NaN","-17,169571010269","11,4099636533614","1,44028675840141"
"3398","-5","14","NaN","-34,8845601767336","25,5451080857636","-0,514948514102741"
"3410","-5","14","NaN","-27,3710374694208","19,2239942442823","-0,173421397141323"
"3427","-5","14","NaN","35,8064671089707","-29,3940113639399","-0,0584038601195925"
"3440","-5","14","NaN","26,134225148014","-18,5270558043417","-1,68289467073138"
"3462","-5","14","NaN","8,99690172417685","-11,9590306661114","-1,2299813372701"
"3468","-5","14","NaN","-5,52329401337685","4,40801091598088","-1,07745179126365"
"3480","-5","14","NaN","-1,02031760457784","-0,332217772858501","-1,02608376854032"
"3489","-5","14","NaN","-28,3606696260514","17,5711484974889","0,654441413362746"
"3501","-5","14","NaN","-19,8282006603831","11,2307716571851","0,220399012996988"
"3509","-5","14","NaN","-20,5662087238899","16,5395314357934","0,0742247112395403"
"3517","-5","14","NaN","-18,7947758680299","13,9212168484768","0,024996971101084"
"3517","-5","14","NaN","-18,2461485983281","13,2397606850827","0,00841833607424751"
"3534","-5","14","NaN","10,6587264727117","-9,55415106938723","-1,66039067604721"
"3538","-5","14","NaN","16,1331375663885","-18,1442262375631","0,440823183377352"
"3550","-5","14","NaN","9,82860753670892","-11,3799238484341","0,148457894837878"
"3559","-5","14","NaN","12,9469183498139","-13,098880955478","0,0499967954744066"
"3570","-5","14","NaN","10,9126847585244","-11,546265666574","0,0168376330570995"
"3579","-5","14","NaN","0,14091510882464","6,25517408255969","0,00567048116335089"
"3587","-5","14","NaN","-3,95635743620851","2,62800411849366","0,00190967201357079"
"3599","-5","14","NaN","-1,22531631442392","0,683978011140369","0,000643128350903551"
"3607","-5","14","NaN","-12,2115331476837","8,87668968431054","-1,66300916575933"
"3620","-5","14","NaN","-8,61405451655489","6,00896740664279","-1,2232844113432"
"3628","-5","14","NaN","-9,19017771503514","0,0433946941810008","2,25125507055889"
"3640","-5","14","NaN","-8,36860779007215","1,49076373349527","1,4213904819098"
"3648","-5","14","NaN","2,0275899862018","3,60719832490349","2,80513921629367"
"3669","-5","14","NaN","-0,752622381198985","3,15803259200115","-2,71852711264407"
"3677","-5","14","NaN","3,45719848842433","3,04113038378123","1,74769583847374"
"3689","-5","14","NaN","8,52218173091479","-5,68796920463947","1,25180470162304"
"3706","-5","14","NaN","12,8520157670585","-11,6585240458147","-2,2416501713277"
"3718","-5","14","NaN","10,1930008445643","-8,21245168121436","-1,41815579922122"
"3726","54,2837684330541","14","NaN","9,36948213641864","-7,31555897636726","-1,14082410364859"
"3738","39,2244941984961","14","NaN","-2,71761100047041","-1,86292461207182","-1,0474259312088"
"3738","33,9051270208078","14","NaN","0,538917219390113","-3,44379365191787","-1,0159718321846"
"3750","32,0261741091107","14","NaN","1,54749069145764","-3,85523884492125","-1,00537890172804"
"3773","-26,2745229877066","7,19225090637391","NaN","-18,4236475184454","20,3939635245108","2,32464003407917"
"3783","-11,8679997876371","9,16311464956344","NaN","-12,6088726556515","12,7051869703444","-0,217121107217665"
"3789","-6,77920297967431","8,04861839719622","NaN","4,4046370212012","-6,69328200287458","1,5901049578293"
"3794","-4,98169412947457","8,71642860543743","NaN","-11,158182277092","12,1758500564256","2,86195790657168"
"3800","-4,34676249661972","8,91547793695277","NaN","-8,97811492779424","9,08682843999938","2,29028522335895"
"3808","-4,12248645015969","8,97480712343084","NaN","22,1223223096032","-21,292628022471","-2,89191667749038"
"3820","-4,04326572400122","8,99249094251906","NaN","13,7543825435794","-12,1993432610438","-1,63714881099723"
"3829","-4,01528269348086","8,99776182985308","NaN","11,1627630352946","-9,83267770596128","-1,21457530988822"
"3837","-4,00539828525748","8,99933288490343","NaN","-9,9233844388188","4,70116139169899","-1,07226343802096"
"3849","-4,00190682903885","8,99980115785536","NaN","-9,52481250047186","12,6619575129862","0,638889290030941"
"3857","-4,00067354665602","8,99994073256821","NaN","-19,9237059574338","16,4325497004866","0,215161458401039"
"3870","-4,00023791597914","8,99998233458768","NaN","-16,8346202709252","15,8933732259998","1,73568659256818"
"3878","-4,00008403874123","8,99999473459904","NaN","-8,11673789739348","8,53383994707653","1,24776029689806"
"3890","-4,0000296848915","8,99999843058023","NaN","-9,41673829630735","9,61840956414221","1,08343928697236"
"3898","-4,00001048555429","8,99999953221446","NaN","25,6767688650085","-24,8940107585864","1,02810020288812"
"3929","-4,00000370379823","8,99999986057057","NaN","25,6872664106328","-187,849872894856","1,00946342461693"
"3929","-4,00000130828767","8,99999995844128","NaN","6,16818313455563","48,9310720987323","-2,32326447196636"
"3936","-2,35322911676208","10,7019372610194","NaN","8,12296311426931","7,55691153062853","-1,44564139371435"
"3939","-2,77154199105524","10,209221333917","NaN","-18,3162944134533","19,4052098871334","0,513145210837033"
"3960","-2,9193020848593","10,0623610812488","NaN","-10,5047490999491","9,48890959987391","0,172814091045191"
"3975","-2,97149518400281","10,0185875139103","NaN","-14,846616738414","12,1272461536099","0,0581993350674772"
"3980","-2,98993128219463","10,0055402450767","NaN","-12,1913287211561","9,81391333805005","0,01960003713708"
"3980","-2,99644344035568","10,0016513405536","NaN","-11,3689642660986","9,21183331574046","0,00660078771225673"
"3988","-2,9987437212217","10,0004922030679","NaN","-11,1142712563209","9,05513283977518","0,00222297529936061"
"4000","-2,99955624633729","10,0001467073885","NaN","-11,0353907443646","9,01434915943722","0,000748640828486498"
"4000","-2,99984325349073","10,0000437280042","NaN","-11,0109608035039","9,00373458681603","0,000252122949921286"
"4009","-2,99994463264141","10,0000130336882","NaN","22,8024414792692","-22,3142544605874","-1,6631408463081"
"4017","-2,99998044266242","10,0000038848566","NaN","13,274729216488","-12,465237067813","-1,22332875796062"
"4029","-2,99999309178796","10,000001157931","NaN","10,3239186633569","-9,90188061011531","-1,07521137388822"
"4038","-2,99999755982155","10,0000003451361","NaN","-14,2540568333708","13,3818242962771","2,30112225597867"
"4050","-2,99999913805905","10,0000001028722","NaN","-7,86605722444583","6,44176235412984","1,43818446563858"
"4072","-2,99999969553776","10,0000000306624","NaN","-0,816765985973706","2,89577095912044","1,14756924266317"
"4079","-2,99999989245521","10,0000000091393","NaN","-1,63354273102353","2,97287280808192","1,04969752030905"
"4087","-2,9999999620121","10,0000000027241","NaN","-1,88650518122892","2,99293973603566","1,01673684488919"
"4099","-2,99999998658159","10,0000000008119","NaN","8,17690111427016","-7,44024635551664","2,66886229312843"
"4119","-2,99999999526023","10,000000000242","NaN","-4,84813034043141","6,28276721949932","-1,10119591575366"
"4128","-2,99999999832578","10,0000000000721","NaN","-4,57238110909479","5,59412486141176","-0,370854423318554"
"4140","-2,99999999940862","10,0000000000215","NaN","-3,48697931279743","4,41489522202226","-0,124894218483193"
"4148","-2,99999999979111","10,0000000000064","NaN","-11,6022805157207","4,10798278693455","-0,0420611561564922"
"4167","-2,99999999992621","10,0000000000019","NaN","-4,04478037152995","4,02810416137674","-0,0141651141158219"
"4169","-2,99999999997394","10,0000000000006","NaN","2,05700657151728","-6,43109427940746","-1,66799620043844"
"4190","-2,99999999999079","10,0000000000002","NaN","13,4691144347629","-8,37246403538535","0,438261838641331"
"4197","-2,99999999999675","10,0000000000001","NaN","3,93266232567226","-0,658530611239957","0,147595299897769"
"4210","-2,99999999999885","10","NaN","-4,47231406195123","-1,65086220448707","0,0497062957145593"
"4218","-2,99999999999959","10","NaN","-7,14627953489341","5,04980762701242","-1,6464859546045"
"4230","-2,99999999999986","10","NaN","-4,97442855101017","2,79375878462487","-1,21771981937865"
"4238","-2,99999999999995","10","NaN","-5,99208031272808","3,94632258933129","0,589903326993207"
"4251","-2,99999999999998","10","NaN","-5,30725540146581","6,7257644405269","0,198664247674799"
"4262","-2,99999999999999","10","NaN","-5,0951595153323","5,44915642308998","0,0669050020540882"
"4274","-7,94031403608784","8,29806272659348","NaN","-1,6488880685961","-1,8420394244809","0,0225318815652473"
"4279","-6,68537451654134","8,79077866239086","NaN","5,86990946797711","-8,43835796444303","1,67081391223078"
"4292","-6,24209391840065","8,93763891765069","NaN","6,57912628334306","-8,63461971738613","1,22591284894491"
"4324","0,501570872357899","10,6833497591682","NaN","4,79877654203264","7,2321785980681","1,07608162917892"
"4324","-1,11637348627695","10,2036810924347","NaN","-2,51377958613811","-0,117715608241157","1,02562233323847"
"4341","-4,98142048608091","10,0607097417666","NaN","-15,9911643929546","10,4077715384839","-0,654596812888225"
"4341","-2,69989449256932","10,0180953111617","NaN","-4,40405366864653","5,40745472793011","-3,54690285720339"
"4353","-2,89399413536099","10,0053935377834","NaN","-9,88630595777949","8,5855158901099","4,13194597720213"
"4361","-6,25609838177512","10,0016076125777","NaN","-8,58420441057956","7,41265460640542","2,71798449722772"
"4384","-2,1501472507614","6,59660462257517","NaN","1,9608179463389","-5,07074398427283","-1,08465282254675"
"4384","-2,69980765674656","7,58170014731607","NaN","9,36844860993502","-8,27867739462419","-0,365283135590926"
"4396","86,031689187121","7,87532040537538","NaN","5,66265252090158","-5,11359081749223","-0,123017952264064"
"4396","63,3741964412418","7,96283766007562","NaN","4,51493710867316","-4,28982893413771","-0,0414292780167963"
"4422","55,3709207611586","7,98892329163554","NaN","4,15948024169529","-4,0754323848077","-0,0139523138322827"
"4450","-38,0284895349531","11,4005729929163","NaN","-1,02148308193324","4,67904158756493","-0,00469877995932215"
"4450","-16,0198375777739","10,4174586050618","NaN","0,37393012649573","1,95752648569201","-0,00158242807404765"
"4466","-8,24575105655697","10,1244288500646","NaN","0,806101030469768","1,24921081998656","-0,000532921020182307"
"4466","-5,49972093363288","10,0370876023172","NaN","-9,20180293855199","6,28406531056333","3,3262720355742"
"4483","-2,88297306235605","11,712991705276","NaN","2,15012623492205","-2,36447650034165","-2,54302300079456"
"4483","-2,9586627322597","11,2125162517131","NaN","0,665911712023082","-0,615390943534295","-1,5196504063814"
"4493","-1,33862714716709","11,063343173431","NaN","8,65769734584419","-12,338308462449","0,488220881459886"
"4496","-1,76638415698014","11,0188802389839","NaN","6,13281883736547","-8,38937590672138","0,164420218832691"
"4496","-1,91748019006812","11,0056274955103","NaN","5,35084327568766","-7,3616061948755","0,0553724950890106"
"4509","-1,97085163855683","11,0016773466557","NaN","5,10865903711622","-7,09411350775536","0,0186480302370993"
"4518","-1,98970396350254","11,0004999545176","NaN","-15,2498490838599","13,8523231583511","1,66950593113137"
"4532","-8,58344852633036","11,0001490178067","NaN","-9,55504585644217","7,30395163584879","1,22547235459745"
"4543","-6,91254804728061","11,0000444166538","NaN","-11,1719022495105","17,7777820446597","-0,587292472796698"
"4553","-6,32233811903291","11,0000132389489","NaN","3,84967852980569","1,32561196848542","3,128666530425"
"4553","-6,11385906012434","11,0000039460372","NaN","0,50198517654084","4,04368467299288","2,38010581883901"
"4561","-4,39344693726339","11,0000011761666","NaN","-0,534822884303878","4,75110440246787","2,12800985022642"
"4561","-4,78574807768336","11,0000003505714","NaN","-0,855930835838393","4,93522113813155","2,04311042068506"
"4576","-4,92432008172662","11,0000001044923","NaN","22,7087046915173","-22,8526165220058","0,351292724561167"
"4592","3,26058904252784","9,29806275773873","NaN","19,387449004265","-15,824558383358","0,781532096974072"
"4600","-2,14180920990771","14,8965904918937","NaN","2,83649445323277","-7,77619503603979","0,926425636863315"
"4626","1,24345161429433","11,8633656598386","NaN","5,71052821846719","-8,68148615925571","0,975222049390356"
"4680","-1,20754860453874","10,2573371226187","NaN","-3,54111081500931","1,52130688221422","-0,671570330437818"
"4680","-1,07331211435309","10,778639877828","NaN","-17,3093372919785","12,0946172483799","1,43705816370863"
"4711","7,2079607872915","10,9340207984263","NaN","-11,5734698419134","6,84648195990289","1,14718993318087"
"4711","-12,9813411259643","5,87452223906093","NaN","0,344726143200719","10,6997793993822","1,04956977864446"
"4725","-7,46600973348902","9,06841157666722","NaN","-18,8670289733848","13,9218630260627","-2,30975768486199"
"4730","-8,16460799120825","10,7223282144785","NaN","8,84701834636305","-5,63688876642224","0,222133099141722"
"4733","-7,41137291391444","10,2152991171029","NaN","10,1914531024285","-12,9054947830494","0,0748087067920029"
"4733","-7,14530870093626","10,0641726418768","NaN","6,60783556201343","-7,79725996409687","0,0251936457624506"
"4750","2,82930087523686","15,1249392928301","NaN","-6,33408279811007","5,71037939728316","-1,65474118378938"
"4762","-9,528009275814","10,2294906526535","NaN","-11,7937599863795","9,18488703419055","-1,22049996795614"
"4762","-7,89296531540661","10,7703398830641","NaN","-8,48466674547294","6,08918045080289","-1,07425871026971"
"4770","-4,0218782462737","7,52767233254328","NaN","-17,6015642946723","17,4616193821695","3,96466884337395"
"4770","-1,36095667813447","8,56115400099883","NaN","-14,4251421649951","13,4214694476062","2,66164986674757"
"4786","-5,71458562325027","8,86919636498307","NaN","-13,4413782054069","12,3699590266349","2,22282663444455"
"4786","-5,25241211832391","8,96101231189852","NaN","-2,99494760767205","3,39761344706275","-1,25140923802839"
"4798","3,14469753384334","12,3922537701939","NaN","22,9753582517499","-25,2528022915221","-2,08466815636722"
"4798","1,11079727912099","11,4149789548541","NaN","5,56711573173514","0,948104817312169","0,297937455197513"
"4798","0,392365428478777","11,1236897587627","NaN","5,17564038878334","-1,23271091723619","0,100337661583725"
"4798","0,13859471242778","11,0368673067485","NaN","5,05439726751641","-1,80030135527363","0,0337911402425587"
"4833","-3,24458706691451","11,0109887699716","NaN","-10,1957789790107","5,0109138169068","0,0113799857488155"
"4875","-7,37993785131314","9,30133806933313","NaN","-24,5120933863959","11,4823100915539","-1,65939326871358"
"4875","-5,84066224533993","9,79175491997837","NaN","-17,9459732591412","8,16658932159237","-1,22206667034499"
"4885","-2,00340330320064","11,6398671770556","NaN","-14,2221002497034","17,7420314147998","2,25166517436438"
"4899","-2,6479734895735","11,1907205554509","NaN","26,4982170887936","-27,5194495149813","-0,241697160514919"
"4916","-2,87565414932535","14,4607212355881","NaN","15,1096330106057","-15,2994377919267","-0,0813973787935331"
"4925","-1,30930613709384","16,8392611010854","NaN","-1,93983924278603","7,01808880022381","-0,0274125408024765"
"4925","-1,75602713603936","15,5482151787068","NaN","10,9215503443974","0,0868294658029063","3,3172196719114"
"4931","-1,91382179349515","15,1634025109253","NaN","-14,7592572115511","4,50206829291328","-0,882845848909898"
"4939","-1,96955938805723","15,0487041979386","NaN","-8,71281372742564","2,65120129861331","-0,297319744373173"
"4951","-1,98924750359712","15,0145169060341","NaN","-6,84018063883361","2,16948503464784","-0,100129632487121"
"4960","-1,99620191016162","15,0043269485942","NaN","-9,64079444086229","5,52358066086978","1,62950467342368"
"4972","-1,9986584058362","15,0012897020958","NaN","-5,12758386919856","6,13626982415025","-0,451224793597389"
"4980","-1,99952611049845","15,0003844121232","NaN","-4,03951376964972","1,81626188544614","1,51126486555591"
"4992","-1,99983260864892","15,0001145789256","NaN","-4,70252954471283","2,69191416573286","1,17218083918247"
"5001","-1,99994087257826","15,000034151707","NaN","-4,90787096267222","2,91981597947291","1,0579860721494"
"5013","-1,99997911450037","15,0000101793509","NaN","-4,97146688227996","2,97913089005477","1,01952821567882"
"5022","-1,99999262264306","15,0000030340851","NaN","5,15058777932062","-0,484901107863541","1,00657660009486"
"5022","-1,99999739410613","15,0000009043477","NaN","2,28547104311281","0,61353191977538","1,00221482953277"
"5032","-1,99999907952362","15,0000002695523","NaN","1,39812091456406","0,89941580874204","1,00074589754409"
"5037","-1,99999967486136","15,0000000803435","NaN","6,19417672873402","-0,765913366831326","5,98992846355515"
"5068","-3,64677123051433","6,49031365691479","NaN","4,67955451088454","-0,199340593747391","4,67015665626752"
"5075","-1,58168678625013","10,6558305924987","NaN","4,21046359995349","-12,2300250359585","-0,763985762408763"
"5093","-1,85223978629009","12,5993532013966","NaN","-1,00569311814833","-1,40225428965056","0,405935026364024"
"5094","-1,94780685850232","10,4767075759943","NaN","2,06911221415113","-6,0636320018539","-0,863291537905859"
"5108","-6,92187792293531","9,14208875988862","NaN","-1,35917899399837","10,3807868286668","1,3724913987794"
"5108","-5,67886235309574","9,74428863659721","NaN","-0,420948870879703","5,66069674467776","1,12544550965839"
"5112","-5,23979363566798","9,92378197380323","NaN","-8,58183034683809","11,3911607760544","-0,620978937998362"
"5117","-5,08470198331761","9,97728224729622","NaN","-9,4899058191489","10,6223359318249","1,45409604170982"
"5123","-5,0299191676124","9,99322868468703","NaN","-1,00997700725915","0,723563569736456","1,15292785168412"
"5131","-5,0105683073236","9,99798172329519","NaN","-2,38367357388698","3,14725762511969","1,05150216181727"
"5138","-5,00373302897771","9,99939842694235","NaN","7,3326321830167","-3,18087837236358","1,01734460167093"
"5152","-6,64808995816613","6,59594614668115","NaN","4,34185168651902","-0,82787193806063","1,0058412151356"
"5158","-4,58215259864441","9,28344115360223","NaN","18,6282087202468","-12,3936098704713","-0,661258584006052"
"5160","-4,85240432457544","9,08448324307148","NaN","8,98193512942626","-11,8832385434471","3,10375664915388"
"5178","-4,94786497813949","9,02518130578135","NaN","3,92352974208047","-4,53120224191955","0,708491057552258"
"5181","-4,98158441636872","9,00750560866037","NaN","5,35690014755513","-5,61772306128837","0,901827295945181"
"5195","-0,0531810520817206","10,7041744155886","NaN","-4,34092413251985","1,05843259266466","0,966937961695076"
"5201","-1,31232776220425","10,2098881463077","NaN","-1,34441977122027","-1,20399643698553","0,988865557005888"
"5214","-1,75709446061193","10,0625598331681","NaN","-12,2484204641282","15,6045200488039","0,996250206365205"
"5220","-1,91419880311798","10,0186467544493","NaN","-8,62547882069411","9,97919191300175","0,998737166079077"
"5222","-1,96969255865909","10,0055579024733","NaN","-5,81313230263996","5,03564516944548","-2,32687679958901"
"5230","-1,98929454326965","10,0016566035653","NaN","-2,56154193003422","2,26954239464833","1,87959357702571"
"5238","-1,99621852592186","10,0004937717756","NaN","-3,55449774971977","3,54962210943962","1,29622446296427"
"5272","-1,99866427499883","10,0001471749617","NaN","-3,86202430286378","3,88278230932771","1,09976076991738"
"5283","-1,99952818365487","10,0000438673704","NaN","16,3262338818605","-15,1675905120445","1,03359685798708"
"5283","-1,99983334094717","10,000013075228","NaN","10,5787028542421","-9,12573955836844","1,01131455648887"
"5306","-1,99994113124699","10,0000038972381","NaN","8,79864540257071","-7,55325602616203","1,00381045122104"
"5312","-1,99997920586957","10,0000011616214","NaN","-12,0361546530726","15,4725591425009","1,00128326183374"
"5320","-1,99999265491729","10,000000346236","NaN","-11,5597383598095","10,2051122792298","2,66365792435967"
"5332","-1,99999740550631","10,0000001032001","NaN","-11,7927719432593","7,8341791806193","2,22350289653113"
"5340","-1,99999908355049","10,0000000307601","NaN","-9,86494435341524","7,21710780926087","2,07527001927386"
"5353","-1,99999967628377","10,0000000091684","NaN","5,94474590528712","-3,38190320764759","0,362123249101067"
"5361","-1,99999988565415","10,0000000027328","NaN","1,84113651516627","-0,14045690411411","0,785179538700854"
"5373","-1,99999995960977","10,0000000008145","NaN","0,570215064106238","0,703178758519455","0,927654001297674"
"5402","-1,99999998573301","10,0000000002428","NaN","6,9377675033974","-4,29645664632032","-0,687590023928714"
"5410","-1,99999999496049","10,0000000000724","NaN","-5,2319001725648","4,36125146689258","3,09488889834954"
"5451","-1,9999999982199","10,0000000000216","NaN","-11,4524049965105","11,3132255916673","-2,62094688217979"
"5452","-1,99999999937122","10,0000000000064","NaN","-8,37894630821706","8,12258251082169","-1,54589316271608"
"5474","-5,29354269050312","3,19225090637583","NaN","-2,35619555056854","5,55243435655851","2,1426087518282"
"5474","-4,45691634428244","5,16311464956401","NaN","-11,9423593259733","9,36298384422008","-0,27842455489611"
"5486","-4,16139594557272","7,45249294400943","NaN","3,61106166048209","-2,08367155500693","-0,0937662193135306"
"5487","-4,05700967271858","7,13487128065576","NaN","0,42808357700307","0,937162415884972","-0,0315780477322978"
"5505","-4,0201374499957","13,8479491952775","NaN","18,0354990562632","-13,9342328556065","-1,67386042801342"
"5515","-2,3603417790072","11,8488675023441","NaN","17,5595353161059","-10,5444742866492","-2,89016459182228"
"5522","0,519488303554259","11,2530157622653","NaN","14,4121254459685","-8,66223810295155","-2,29978450849312"
"5530","-0,463273190798284","11,0754145679719","NaN","13,4373468208718","-8,17235753070958","-2,10095970156315"
"5533","-0,81041271127786","11,0224782717546","NaN","13,1354498938269","-8,0448586667845","-2,0340006272871"
"5554","-0,933032337068329","11,0066999349683","NaN","-15,693010768506","7,64593807200766","-2,01145053559011"
"5562","-0,976345102518436","11,0019970008846","NaN","-7,62142124173582","2,72970638541442","-2,00385624548022"
"5562","-0,991644412387002","11,0005952315287","NaN","-5,12158383069471","1,45018237415498","-2,00129868416081"
"5581","-0,997048567028756","11,0001774163324","NaN","-12,7988227345481","1,11716680455641","4,65246565591903"
"5590","-0,998957469302315","11,0000528811958","NaN","-1,72506749407806","7,98943365121833","-2,09639514534603"
"5603","-0,999631748284239","11,0000157619134","NaN","10,2268996887211","-9,87956768189535","-1,36923764748826"
"5611","-0,999869922941874","11,0000046980389","NaN","14,3799808862043","-12,4891860540932","2,20210177962518"
"5623","-0,999954053055759","11,0000014003103","NaN","10,6662241613519","-10,9081136977614","3,06806267428194"
"5631","-0,999983770222701","11,0000004173803","NaN","-2,31599937048772","0,941793225968347","-0,966755508716814"
"5640","-0,9999942671776","11,0000001244055","NaN","0,663299631802217","-1,9740884072245","-0,3255783567176"
"5652","-0,999997975002856","11,0000000370806","NaN","-1,79457066928272","4,22594829307382","1,55357934949512"
"5664","-0,999999284712983","11,0000000110524","NaN","-0,555793240098663","1,83960206987919","1,1864312675711"
"5672","-0,999999747340129","11,0000000032943","NaN","-8,62359275283307","2,95825400102571","-0,600440505410838"
"5701","-0,999999910753294","11,0000000009819","NaN","-9,50283997846598","10,9480741790095","-0,202212897982679"
"5701","-0,999999968475506","11,0000000002927","NaN","-12,8460254678483","11,5070159111001","1,59512565874134"
"5709","-14,1741707517656","7,59612545327419","NaN","-9,19114559981735","4,43328458417775","-0,46280276031692"
"5728","-10,8276653735103","8,58155732480772","NaN","11,2243023195374","-13,5448443238722","-0,155860050270983"
"5734","-9,64558378101237","8,87527783530912","NaN","7,23742562071006","-3,74445599140119","3,27396185886544"
"5763","-9,22803869042272","8,9628249715256","NaN","-1,75850998539094","-4,93349078811169","-4,22386547589491"
"5781","-9,08054979982329","8,98891950965173","NaN","-0,544624950834023","-4,24295516440684","-2,74894061701691"
"5796","-9,02845249742289","8,9966973188348","NaN","-6,92984203564431","15,0738500527544","4,40067910831968"
"5803","-9,01005023738576","8,99901559384683","NaN","-4,90739608411123","9,10134217921009","2,80848689461355"
"5812","-9,00355003183056","8,99970658521791","NaN","-4,28102800200262","7,54690623745495","2,27227756366796"
"5824","-9,00125397296743","8,99991254399003","NaN","-4,08703667482424","7,14234065994886","2,09169607098257"
"5832","-9,00044293918424","8,99997393262321","NaN","21,3274211261129","-17,3192409138971","-1,29557063455777"
"5840","-9,00015645881213","8,9999922302866","NaN","15,8887787470187","-11,4254740777495","-2,09954057734931"
"5853","-9,00005526573572","8,99999768413804","NaN","14,8946784471717","-10,6312664900702","0,292928806847334"
"5865","-9,00001952144147","8,99999930972787","NaN","13,5867974391443","-9,42456189534349","0,0986508778162433"
"5884","-9,00000689553251","8,99999979425561","NaN","-18,9338083485955","16,985523350726","0,0332230749124902"
"5891","-78,1643989409294","8,99999993867526","NaN","-10,0057064187694","8,85914940539459","0,0111886759760712"
"5899","-60,5952440919378","8,99999998172138","NaN","-7,2406000986641","6,74413708490529","0,00376805790635738"
"5916","-54,3893151615125","8,99999999455183","NaN","-19,9065584673867","13,15261219511","0,00126898485719201"
"5928","18,6139646159492","8,9999999983761","NaN","-9,06814232677525","9,08078043343274","3,32687887106593"
"5972","9,63467164267182","10,7019372729225","NaN","7,19152202153805","-1,41738447905304","-0,879592879405631"
"5972","1,46292806612611","10,2092213374649","NaN","2,22727329383417","1,85030855577317","-0,296224228023793"
"5978","-1,42356592345884","10,0623610823063","NaN","10,8315556272494","-12,956837892669","-1,76298644561973"
"5984","-5,73670100274406","11,7205247876321","NaN","7,49637236512909","-4,33115318382605","3,73272308016985"
"5985","-5,2602239040693","11,2147615827798","NaN","-3,6783120569632","-0,606718043977347","0,920310752598542"
"5993","-5,09191853953889","11,0640124229309","NaN","2,24138023068643","5,32156201324932","-0,690063040966502"
"6006","-5,03246826205755","11,0190797173146","NaN","-4,68640979079089","6,34395659849234","-0,232395459745174"
"6014","-5,011468720525","11,0056869525654","NaN","-2,83200312331708","4,61005032722516","-0,0782648055379518"
"6026","-5,00405108072146","11,0016950685877","NaN","-7,3285536038004","0,679305264108568","1,63686818401538"
"6034","-5,00143095779307","11,000505236765","NaN","1,03999509587429","1,65626912362057","-3,77519646252453"
"6046","-5,00050545529609","11,0001505922478","NaN","-2,05848861059601","-5,04840039413584","-0,934614693881102"
"6055","-5,00017854129422","11,000044885936","NaN","-3,70840620842433","-2,79339253088221","0,68524584193803"
"6063","-5,00006306590115","11,0000133788245","NaN","-1,52910740058197","4,75244674587224","1,89399890600275"
"6075","-5,00002227668342","11,0000039877289","NaN","-1,85416070369988","6,19583570098274","2,96430156158127"
"6083","-5,00000786876291","11,0000011885933","NaN","4,80633485098333","-0,64770479469137","0,661526175699074"
"6096","-5,00000277947254","11,0000003542754","NaN","2,86914489706513","0,57115978605641","0,886010733309307"
"6113","-5,00000098178934","11,0000001055963","NaN","3,95947310245927","-2,59108178785254","-0,701614404072148"
"6113","-5,00000034679613","11,0000000314743","NaN","3,29715668127826","-1,41410321588112","-0,236285661335829"
"6141","-5,00000012249833","11,0000000093813","NaN","3,09203185894631","-1,10777665529974","-0,0795749252422261"
"6145","-5,00000004326992","11,0000000027962","NaN","4,71879482727515","-6,24725491974658","3,29965272426514"
"6157","-5,00000001528418","11,0000000008335","NaN","4,22261664745535","-4,5848822457001","2,437689565205"
"6161","-5,00000000539881","11,0000000002484","NaN","0,688362586735122","-4,15222449323807","2,14740257294321"
"6168","-5,00000000190701","11,000000000074","NaN","1,59377514620559","-4,0396187378091","2,04964139023991"
"6188","-5,00000000067361","11,0000000000221","NaN","1,87418883437494","-4,01031137862375","2,01671794172752"
"6207","-5,00000000023794","11,0000000000066","NaN","3,65132705766773","-5,742418495415","-2,98404709226658"
"6222","-6,64677134544666","-2,61549818725021","NaN","3,20172132641049","-5,19322569639611","-1,66817596189121"
"6228","-6,22845817221014","1,32622929912747","NaN","11,5139337800742","-10,2694943313105","2,10142705443801"
"6235","-6,0806979728107","2,50111134120566","NaN","10,7785858896153","-10,330405192965","1,37093226487451"
"6254","-6,02850483636789","2,85129988609319","NaN","-5,66178363560047","-9,34625817040828","1,12492043351444"
"6256","-6,01006872500089","2,95567803860418","NaN","-11,8952516207684","11,786698677907","2,70529573952811"
"6266","-6,00355656218598","2,98678927533839","NaN","-7,82580772971919","5,28687186747995","2,23752544030525"
"6276","-6,00125627967609","2,99606237538708","NaN","-6,56546761365682","3,59519315842943","2,07999245086884"
"6284","-6,00044375397983","2,99882634087157","NaN","-7,86542175960671","10,1138472746575","0,363713642436857"
"6296","-6,00015674662129","2,99965017596009","NaN","-7,26802820978677","7,81042607617215","0,785715142216047"
"6305","-6,00005536739816","2,99989573049284","NaN","-7,08301053266115","7,21092570283879","0,927834378767217"
"6313","-6,00001955735156","2,99996892114639","NaN","-7,02570904211228","7,054896619724","0,975696477381691"
"6325","-6,00000690821698","2,99999073655215","NaN","13,2755393769637","-13,8625299494631","-2,3346363101334"
"6337","-6,00000244018019","2,99999723891148","NaN","7,56300235070994","-7,3066081083542","-1,44947113592932"
"6346","-6,00000086194157","2,99999917702243","NaN","5,79378282798466","-5,60032981506005","-1,15137030253088"
"6358","-6,00000030446246","2,99999975470106","NaN","-6,58620159978304","5,28216385659132","-1,05097761937686"
"6365","-6,00000010754487","2,99999992688553","NaN","-3,42038421251357","2,11449822220497","-1,0171679492865"
"6373","0,587085343462525","16,6154981654595","NaN","-7,51078004802731","6,50926950726505","2,32066978648633"
"6386","-1,08616732469663","12,6737706943775","NaN","-5,77760915296021","4,65307552408939","1,44476757047035"
"6395","-1,67720811353891","11,4988886568584","NaN","-0,16995650652716","-4,52870118178915","-2,1766652468247"
"6433","-1,88598065621748","11,1487001133298","NaN","-1,43322053560293","-1,91839811027855","-1,39627055032392"
"6458","-10,1935818274061","9,34238468781731","NaN","-6,89533917545472","2,24044253921174","0,529772039353536"
"6463","-8,12806461236907","9,80398938700121","NaN","-2,20641845911511","4,8023136273947","0,178413578668503"
"6463","-5,75169340000856","6,53770199543528","NaN","-7,82509671406274","10,4280187220154","0,0600850982851889"
"6474","-0,9719769576596","14,3718925632933","NaN","-11,6361228257706","6,15245916757254","0,0202351136213051"
"6502","-2,28364414918048","12,706972764602","NaN","3,70590561374485","-6,13846380157004","0,00681466511586049"
"6502","-2,7469625865734","12,2107222298446","NaN","0,457457526432848","-2,33736329657245","0,00229500370051941"
"6509","-7,85093397097024","10,3608711689748","NaN","12,9737209895889","-6,56727352987894","0,000772898138917971"
"6511","-6,65380291638845","10,8094995179801","NaN","8,85011033618199","-4,66817195249542","0,000260292187331839"
"6519","-6,23094192455389","10,9432189069118","NaN","4,19241071700967","2,78503730444714","4,98976492417767"
"6533","-6,08157530530954","10,9830756725752","NaN","-3,70157605040848","4,20431788914948","0,343650070768607"
"6540","-6,02881473534612","10,994955488822","NaN","-7,90757565767371","2,57370723094825","-4,21071901646082"
"6548","-6,01017819020004","10,998496419244","NaN","-1,82962458492582","3,88905082823589","0,581938281584245"
"6560","-6,003595228431","10,9995518386202","NaN","-1,9472333379799","3,23138898946933","0,195981825519405"
"6583","-6,0012699377018","10,9998664197972","NaN","-0,293365925932437","-3,89871670861863","0,0660016313574627"
"6589","-6,00044857838588","10,9999601847205","NaN","-2,47144144394831","-1,75443507689659","-3,30422386006773"
"6597","-6,00015845073974","10,9999881325492","NaN","-2,14600927794811","-1,19635319434965","-2,43922900601451"
"6617","-6,00005596934163","10,9999964627553","NaN","6,40623876277231","4,16810050433765","-2,14792101695983"
"6618","-6,00001976997524","10,9999989456792","NaN","-6,08681078511529","-0,915188498705954","-0,386590234008022"
"6626","-6,00000698332176","10,9999996857463","NaN","-3,95601059194646","-0,238191715438497","-0,79341938907462"
"6638","-6,00000246670935","10,9999999063327","NaN","-3,29608431340235","-0,0619930138804801","-0,93042897068766"
"6646","-6,00000087131242","10,9999999720813","NaN","-3,09169973782869","-0,0161346240061726","-0,976570269117237"
"6655","-6,00000030777252","10,9999999916785","NaN","-3,02840016014771","-0,00419928110484284","-0,992109470067286"
"6655","-6,00000010871407","10,9999999975197","NaN","-3,00879576229457","-0,00109292672644519","-0,997342672737874"
"6667","-6,00000003840093","10,9999999992607","NaN","-6,38330773264291","1,73945035162977","0,664120674207141"
"6675","-6,00000001356431","10,9999999997796","NaN","6,40362090653577","-7,50622082023343","0,223658738761718"
"6694","-6,0000000047913","10,9999999999343","NaN","3,36383747583926","-4,91254725453658","0,0753225029234372"
"6695","-6,00000000169242","10,9999999999804","NaN","7,49326706036337","-5,97723909392306","-1,63785907575746"
"6704","-6,00000000059781","10,9999999999942","NaN","5,77218523718796","-1,77487172102229","0,448411246057533"
"6723","-6,00000000021116","10,9999999999983","NaN","5,23915209485987","-2,68114174641122","0,151013358919342"
"6724","-6,00000000007459","10,9999999999995","NaN","5,07406736327173","-2,91701229362976","0,0508574099615155"
"6767","-6,00000000002635","10,9999999999998","NaN","-16,9508542151726","9,19974242873631","1,68035322067564"
"6777","-4,35322865464669","7,59612545318691","NaN","-4,01098566331367","3,61357718815914","-3,76055182212683"
"6777","-4,77154182782284","8,58155732478171","NaN","7,82864029553328","-3,79924642157395","-0,929682756165297"
"6785","-4,91930202720094","8,87527783530137","NaN","4,49546946300982","-1,72854642298559","-0,976318963284729"
"6807","-4,97149516363623","8,96282497152328","NaN","0,0825755328368696","-6,40881968598492","-2,65525059155949"
"6814","-4,98993127500056","8,98891950965104","NaN","0,715866125598616","0,592272475753437","4,4322314959236"
"6823","-4,99644343781454","8,9966973188346","NaN","7,67316863703022","1,15414791292307","1,1558871713081"
"6835","-4,99874372032409","8,99901559384677","NaN","-0,93326499647839","-4,91881987266722","-2,27395272519864"
"6843","-4,99955624602023","8,99970658521789","NaN","5,47212740986458","-1,75966723085968","1,89741704223015"
"6863","-4,99984325337874","8,99991254399002","NaN","-5,68582091825976","-0,19771494193462","1,30222694700491"
"6876","-4,99994463260185","8,99997393262321","NaN","-3,14152893817317","-0,791193120847265","1,10178225194935"
"6884","-4,99998044264844","8,9999922302866","NaN","4,40762636071029","-0,945654836341285","1,03427764107253"
"6906","-4,99999309178302","8,99999768413804","NaN","-2,32521380868027","2,49361375959748","1,01154382669861"
"6914","87,2191977804865","8,99999930972787","NaN","-1,41042957469281","1,3887356802496","1,00388766352286"
"6926","63,7936585040467","8,99999979425561","NaN","-1,12711340213869","1,10117436862649","1,00130926494841"
"6926","55,5190867812746","8,99999993867526","NaN","-1,03936806214651","1,02633216704059","1,00044092671474"
"6933","52,5962709439392","8,99999998172138","NaN","4,05868280807911","-2,47261625818281","1,00014849276153"
"6945","51,5638486379644","8,99999999455183","NaN","2,63759093348775","-1,38327076139522","1,00005000853768"
"6975","51,1991674958073","8,9999999983761","NaN","3,88775894270105","-2,83948684286127","-0,663208913236724"
"6988","-37,8553009829896","10,7019372729225","NaN","3,27494621841089","-7,43769361628346","-1,88657743597338"
"6992","-18,6054337639278","10,2092213374649","NaN","3,08515309661477","-5,63444681068111","0,364649308034469"
"7001","-4,86551502810247","13,4662356291194","NaN","3,02637261172382","-1,68565481969548","-1,54042125935709"
"7005","-6,30572470894507","12,4370301894438","NaN","-3,75299941204938","4,30101751772072","0,481225793127344"
"7008","-4,81444803690485","12,1302624098693","NaN","3,2182489448651","-5,09979923321658","1,82529020806381"
"7015","-4,28768638434796","12,0388263690583","NaN","-4,38386554603212","5,15216934978973","-0,385289267952627"
"7023","-4,10161907450072","12,0115726934252","NaN","-2,73830269181783","2,82039997862812","-1,79298125721331"
"7043","-4,03589476897139","12,0034493885564","NaN","-7,29953381243023","17,8711347843136","-1,26705566433653"
"7063","-4,01267906095228","12,0010281341582","NaN","1,0489827630354","-8,08850037680493","-1,08993746977684"
"7064","-4,00447860764224","12,0003064484705","NaN","-0,365413249939645","-2,84488995111386","-1,03028862349711"
"7070","-4,00158197255212","12,0000913408667","NaN","-0,803463284017287","-1,4801606476397","-1,01020042831565"
"7085","-4,00055879803626","12,0000272253078","NaN","9,20261987024071","-6,3441735130885","-1,00343524154647"
"7105","-4,00019738347856","12,0000081148495","NaN","1,23071038850765","2,34883242713527","-2,66438265570306"
"7113","-4,00006972150058","12,0000024187342","NaN","-8,38000613483314","5,83052374299078","2,7659302970905"
"7133","-4,00002462763185","12,0000007209345","NaN","-5,35652378755523","3,73668682122391","1,59471984283564"
"7134","-4,00000869918527","12,0000002148837","NaN","-4,42012653168882","3,1917339410803","1,20028632616201"
"7148","-4,00000307280151","12,0000000640488","NaN","-4,13011662917241","3,04990167205802","1,06745127631223"
"7154","-4,00000108540154","12,0000000190906","NaN","-4,04029818616581","3,01298766853775","1,02271585266619"
"7162","-4,00000038339493","12,0000000056902","NaN","-4,0124806784389","3,00338023811808","1,00765011413518"
"7184","-4,00000013542607","12,000000001696","NaN","16,27963630958","-7,43752905617933","1,00257636141338"
"7193","-7,2935427385616","10,298062727099","NaN","2,11281217182902","-4,15493437657277","1,00086765217029"
"7195","-6,45691636125807","10,7907786625415","NaN","-0,655352952553668","-5,04032402613062","1,00029220290472"
"7210","-4,51462460620639","10,9376389176956","NaN","3,8679072404454","-0,791290533367603","-2,32635310323583"
"7216","-4,82855150265619","10,981412485775","NaN","3,26879798356731","-1,6854149918503","-1,44668156517876"
"7224","-4,93943947794364","10,9944597548295","NaN","-1,98762648158013","8,52028434382273","0,512794907877256"
"7236","-4,9786082882699","10,9983486594185","NaN","-0,615584206970723","5,17647269786205","0,17269611803033"
"7244","-4,99244383444518","10,9995077969237","NaN","-5,2615268921787","0,826725294316017","0,058159604794446"
"7253","-4,99733094580685","10,9998532926091","NaN","-5,39070521483327","3,4343722293299","-1,64363909781988"
"7271","-4,9990572135782","10,999956271995","NaN","7,40132984569011","1,37331717166957","3,77291619313887"
"7273","-4,99966698082062","10,9999869663116","NaN","-5,77862292345297","1,83689626986469","-0,729378996944305"
"7285","-4,9998823680833","10,9999961151433","NaN","-3,86056228605118","1,95754977545033","-0,245636061142962"
"7294","-4,99995844903632","10,999998842069","NaN","8,56551945446209","-6,70972232818056","-0,0827238990793645"
"7306","-4,999985323009","10,9999996548639","NaN","5,41397878264843","-3,96551161471023","-0,0278592786704477"
"7314","-4,99999481566622","10,9999998971278","NaN","4,43792081442691","-3,25128907116818","-0,0093822875453808"
"7336","-4,99999816874475","10,9999999693376","NaN","-6,00612317464259","5,63327221234359","-0,00315971280611743"
"7343","-4,99999935314817","12,7019372642672","NaN","-3,24072917137272","2,94561431020693","-0,00106410989525234"
"7351","-4,9999997715134","12,2092213348851","NaN","-2,38426399029346","2,24611049528032","-0,00035836480675765"
"7362","-4,99999991929198","12,0623610815374","NaN","1,26157390672978","5,54352360152094","-0,00012068803729336"
"7363","-4,99999997149162","12,0185875139963","NaN","0,390719775624956","-0,817478932141513","3,32641086502584"
"7375","-4,99999998993002","12,0055402451023","NaN","0,12100911587506","0,526973486629003","2,44670101786199"
"7385","-4,999999996443","12,0016513405612","NaN","-6,72368971130917","-0,862847141383168","2,15043739810971"
"7396","-4,99999999874356","12,0004922030702","NaN","-4,84354902015476","-0,224569081733286","2,0506634411946"
"7404","-4,99999999955619","12,0001467073891","NaN","-4,26125404316413","-0,0584475164276355","2,01706214216632"
"7412","-4,99999999984323","12,0000437280044","NaN","4,37054651472647","3,46425775042924","-2,98393117442362"
"7440","-4,99999999994463","12,0000130336882","NaN","7,11476129168511","-4,57784387695739","-0,00491116892289356"
"7447","-4,99999999998044","12,0000038848566","NaN","-5,1770837461328","-0,931188243546116","-0,00165395520693807"
"7447","-4,99999999999309","12,000001157931","NaN","-2,98396886762544","-0,982090694610714","-0,000557009516371063"
"7460","-1,70645730927233","12,0000003451361","NaN","-2,30474322045637","-0,99533883109434","-0,000187586459431573"
"7465","-2,54308365563824","12,0000001028722","NaN","-2,09438147229011","-0,998786859953815","-6,31742882802588E-05"
"7474","-2,83860405439926","12,0000000306624","NaN","1,35135289770896","2,47978534297414","1,663204479351"
"7501","-2,94299032727152","12,0000000091393","NaN","-8,0329339677447","1,38513662466491","1,22335018793061"
"7502","-2,9798625500008","12,0000000027241","NaN","2,51213453231355","-0,639497142706523","2,73844434577445"
"7515","-2,99288687562896","12,0000000008119","NaN","0,778028647841632","-0,166438850198253","2,24868903715249"
"7535","-2,99748744064815","12,000000000242","NaN","0,240961847017325","-0,0433182402318087","2,08375206277051"
"7535","-2,99911249204045","12,0000000000721","NaN","0,0746278583431025","-0,0112742303527424","2,02820553772145"
"7541","-4,64645785212008","12,0000000000215","NaN","1,71340466568859","-1,74266909221048","-1,31695261097259"
"7543","-4,22834743738415","12,0000000000064","NaN","1,22094727024768","-1,1932909180206","-0,443515721492523"
"7556","-4,0806588580971","12,0000000000019","NaN","1,06842917992803","-1,05030689896902","-0,149364672329221"
"7571","-4,02849101993023","12,0000000000006","NaN","1,02119307769846","-1,0130931349998","-0,0503021747795962"
"7576","-4,0100638446392","12,0000000000002","NaN","1,00656366980878","-1,00340768736766","-0,016940476942097"
"7585","-4,00355483830238","12,0000000000001","NaN","1,00203282231923","2,4785827024143","1,65752063848916"
"7602","-4,001255670751","12","NaN","-0,689662224767881","3,12455842160215","-0,441789738109591"
"7623","-4,00044353889005","12","NaN","-5,28446946124901","-2,92652098747215","-1,8120091604025"
"7634","-4,00015667064541","12","NaN","-3,70751890995829","-1,50140636544614","-1,27346377207034"
"7640","-4,0000553405613","12","NaN","0,16145920951913","-2,87023342919079","-1,0920955554219"
"7652","-4,00001954787201","12","NaN","-2,33057837288743","1,25297812945141","-1,03101541116125"
"7654","-4,00000690486853","12","NaN","-2,10238283067843","0,326106600424883","-1,01044519168265"
"7668","-4,00000243899742","12","NaN","-2,03170880153523","0,0848741987916703","-1,00351767154464"
"7674","-4,00000086152378","12","NaN","3,0610549438466","0,0220898001179442","3,98849260329354"
"7683","-4,00000030431489","12","NaN","-3,43254981611721","1,74548400861236","-2,32000416896102"
"7703","-4,00000010749274","12","NaN","-0,753380609157941","2,93375834521427","1,88190810201782"
"7715","-4,00000003796951","12","NaN","-0,92361995397927","2,24302480020901","1,29700393537143"
"7724","-4,00000001341192","12","NaN","4,09453094556108","-6,63542311445763","-0,563202478675314"
"7736","-4,00000000473747","12","NaN","2,64869339538777","-3,94617411517061","-0,189672089636989"
"7752","-4,00000000167341","12","NaN","2,20090565962347","-3,2462561930298","-0,0638766748184035"
"7752","-4,0000000005911","12","NaN","2,0622221289067","-3,06409191673416","-0,0215120189463045"
"7792","-4,00000000020879","12","NaN","3,70956250963575","-3,01668089537209","-0,00724469394284806"
"7813","-4,00000000007375","10,2980627265935","NaN","3,21975732303739","0,475128148310507","-0,00243982633413196"
"7835","-0,706457309300825","7,38690411557782","NaN","-0,312522969465004","-0,616075481024391","1,66240408415222"
"7835","-1,54308365564831","8,51919624243241","NaN","-1,09679092430149","-2,63981261163324","-0,440145119382559"
"7847","-6,77891809049066","10,5586275944695","NaN","-2,02997694231299","4,79241825389987","-0,14822954034785"
"7867","-5,62836484381412","10,1665060639579","NaN","-1,31899229815444","-0,752700316263546","1,61330586326086"
"7876","-3,57518512303928","8,34769197801113","NaN","5,66237269758127","1,54383310588943","1,20654561916154"
"7891","-10,4370285939917","10,5075085657937","NaN","3,82455863860204","2,88127563317493","-3,92011801948528"
"7892","-8,86082833156852","10,15126938689","NaN","-3,50579465958486","-1,25010422804976","0,679805212988002"
"7898","-5,01052654270847","11,7470250393131","NaN","1,60451847568039","-3,80482822874909","0,228940887470572"
"7904","-7,29726096724412","9,52072304664474","NaN","2,8775161315388","-0,729999173132878","0,0771013945677676"
"7918","-0,517915710085397","9,85714540448951","NaN","2,27177393586942","7,76894583065212","0,0259657639575574"
"7924","-2,12325670557687","8,25548309634921","NaN","0,393878808223483","-8,93695298807896","0,00874460055721801"
"7931","-2,69030914564857","8,77808726170291","NaN","4,19286291364263","-5,28491704488472","-1,66028079857223"
"7932","-2,89060831616394","8,93385608415734","NaN","3,36943941808207","-4,33441918856062","-1,2223655675432"
"7940","-2,96135972269007","8,98028496409637","NaN","-1,95645700470492","2,87190153349545","2,25156451348607"
"7953","-2,986351146831","8,99412368264368","NaN","2,77465284839693","0,747456020045021","-0,241731060506232"
"7961","-2,99517883395777","8,99824848882645","NaN","0,54962452777359","-1,54519801368091","-0,081408795437519"
"7973","-2,99829702600512","8,99947793980395","NaN","-4,21036039338997","-2,88163087117096","-0,0274163856341372"
"7982","-2,99939846078691","8,99984439331452","NaN","-4,3748585309255","-2,22945783287779","-1,67245888740164"
"7994","-2,99978751911305","8,99995361944705","NaN","-3,42580495193638","-2,05971988821018","-1,22646683421641"
"8002","-2,99992494566217","8,99998617568593","NaN","1,93900013703902","-3,75527781092463","0,586957557673681"
"8014","-2,99997348865722","8,99999587948725","NaN","0,600524229646197","-3,19657252868796","0,197672188435754"
"8023","-2,99999063543406","8,99999877182874","NaN","-1,50430453217703","0,428308616822591","-1,59665485277156"
"8035","-2,99999669216697","8,99999963392792","NaN","-1,15618724563639","-0,628260975637688","-1,20093798767259"
"8056","-2,99999883157859","8,99999989088756","NaN","-1,0483724696944","-0,903249269376208","-1,06767073912557"
"8063","-2,99999958728008","8,99999996747765","NaN","-2,70527315670046","0,76491565044196","0,640435992734754"
"8072","-2,9999998542155","8,9999999903063","NaN","4,54273835069584","-5,02012348436631","-1,44754340678763"
"8084","-2,99999994850474","8,99999999711067","NaN","6,1680905141393","-5,26550264021443","0,512504661819968"
"8092","-2,9999999818104","8,9999999991388","NaN","1,29089178349489","-2,58963149227304","-1,49062738419078"
"8104","-2,99999999357491","8,99999999974331","NaN","1,78038337526742","-2,8931953592559","-1,1652306669734"
"8113","-2,99999999773047","8,99999999992349","NaN","3,62227473838673","-1,23246766665413","2,27080607649865"
"8125","-2,99999999919834","8,9999999999772","NaN","-0,187860027903295","1,67923155922751","1,42797475717759"
"8131","-2,99999999971683","8,9999999999932","NaN","0,632110016622561","0,43704553354464","1,14413087580276"
"8133","-2,99999999989998","8,99999999999797","NaN","-4,18481396164827","3,59321734697971","-0,614686187919261"
"8141","-2,99999999996467","8,9999999999994","NaN","0,703928827787955","2,41465902759929","-0,207010476956466"
"8162","-2,99999999998752","8,99999999999982","NaN","-8,23344650687089","0,368186511326226","-0,0697157971204854"
"8181","-2,99999999999559","8,99999999999995","NaN","9,21120138203024","18,2329089617384","-0,023478484952077"
"8209","-2,99999999999844","8,99999999999998","NaN","5,61395176601369","12,8824744800038","-0,00790694904760585"
"8215","-2,99999999999945","9","NaN","4,49985408585455","11,4899425924772","-0,00266285679715055"
"8223","-2,99999999999981","9","NaN","4,15480890594556","-9,74930262340814","-1,66412253641212"
"8232","-2,99999999999993","9","NaN","0,667361973606547","-3,27713897596708","0,439566388919857"
"8244","-2,99999999999998","9","NaN","-1,79331252874111","3,62654438176368","1,81126039365737"
"8252","-2,99999999999999","9","NaN","-0,555403583664346","2,42333289489209","1,27321160671494"
"8264","-3","9","NaN","-3,55259665355446","0,370444017110968","-0,571215122199576"
"8272","-3","9","NaN","2,59002351467568","-2,64332111711451","3,13408096803677"
"8284","-3","9","NaN","1,49244331035895","-1,42769929523292","2,38192926197876"
"8293","-3","9","NaN","-2,22806988493781","-2,85105004399872","-2,86105332555933"
"8305","-3","9","NaN","-1,38034330556065","-2,22149870785165","-1,62675482894706"
"8313","-3","9","NaN","-4,49837905106867","4,90129080471797","0,452150870395353"
"8321","-3","9","NaN","1,60681515039767","2,75510502452648","-1,5109529867413"
"8334","-3","9","NaN","-4,57323160196387","0,456792755981744","2,15437570321841"
"8342","-3","9","NaN","1,58363270208076","-0,881112743111374","-1,9376875035479"
"8354","-3","9","NaN","0,490464023335154","3,25014662266434","0,347436753606177"
"8362","-3","9","NaN","5,22277614613405","0,585634855331331","6,76991076973904"
"8375","-3","9","NaN","3,68841198478277","0,892155173752612","4,93283460868304"
"8383","-3","9","NaN","-0,167376780798655","-2,50753785985157","-0,675522593259716"
"8411","-3","9","NaN","-1,05183796041565","-1,39235963895335","-2,89072436626846"
"8420","-3","9","NaN","1,36452897191691","-1,10211755895455","1,68970423836305"
"8424","-3","9","NaN","1,11289760937223","-1,02657764665768","1,23227462426923"
"8432","-3","9","NaN","1,03496531464958","-1,00691723645857","1,07822411126175"
"8432","-3","9","NaN","1,01082904443542","-1,0018003159136","1,02634386602472"
"8453","-3","9","NaN","-4,06752157569879","0,739266242843208","-0,654353819228767"
"8465","-3","9","NaN","-2,64032837224004","0,192405274757689","-0,220369513548635"
"8473","-3","9","NaN","6,25314408906466","-1,68965840556995","-0,0742147765850882"
"8485","-3","9","NaN","4,00752537903216","-1,17949408118826","-0,0249936253653298"
"8507","-3","9","NaN","3,3120388650494","-1,04671606250487","-0,00841720931661434"
"8514","3,58708538145045","9","NaN","-0,283942619794711","0,727576237182183","1,66039105551016"
"8514","1,91383268872179","9","NaN","0,602352450660697","0,189362773124613","1,22240269924025"
"8520","1,32279189120087","9","NaN","0,876845295842866","0,0492845395615428","1,07489950116168"
"8527","1,11401934545674","9","NaN","-7,48960105342644","6,97176626010728","1,02522422296777"
"8541","-2,25326779072691","9","NaN","-1,70017442531389","-0,445757074412591","-0,654730886174139"
"8543","-1,44269009561884","9","NaN","-5,28772517588986","5,84292415663606","-0,220496499984544"
"8555","-1,15637082689674","9","NaN","-4,39881903795436","4,47964901975153","-0,0742575423461888"
"8563","-1,05523465680927","9","NaN","-4,12351752377981","4,12483594689461","-0,0250080277722438"
"8582","-1,0195104635141","9","NaN","-4,03825438915592","4,03249045238359","-0,00842205967633152"
"8584","-1,00689165477844","9","NaN","-4,01184769775908","4,00845613400907","-0,00283633279032164"
"8592","-1,00243432994561","9","NaN","11,2089569293946","-11,6554123843929","3,32549630581398"
"8611","-1,00085987509163","9","NaN","6,92296483414642","-4,99243741677912","2,44639301787374"
"8612","-1,00030373252177","9","NaN","5,59555796495504","-4,25829692036364","2,15033367164615"
"8636","-1,00010728703004","9","NaN","-6,6475934640195","6,37118311550829","0,387402753968879"
"8643","-5,94035193294112","12,403874546813","NaN","-10,2005650018664","-0,341802767624931","0,793693024871128"
"8657","69,4193226385217","11,4184426752183","NaN","-7,30094939842382","-0,0889593648492368","0,930521124176482"
"8657","51,0385191013109","11,1247221646986","NaN","-6,40291468802584","-0,0231530266690632","0,976601304038875"
"8665","44,5458925967077","11,0371750284767","NaN","-6,12478598016468","-0,0060259270605949","0,992119921829595"
"8687","42,2525108714237","11,011080490349","NaN","7,48368721147727","1,73816646332314","0,997346192622236"
"8690","41,4424227300317","11,0033026811654","NaN","3,69834286000714","1,1921190404236","0,999106266023512"
"8702","41,1562763857101","11,0009844061532","NaN","4,21628250561917","-5,90893730966596","-5,65320400588233"
"8715","41,055201297476","11,0002934147821","NaN","1,68640085110964","-2,0173603412274","-0,567079266729784"
"8723","41,0194986800417","11,00008745601","NaN","1,9028757741128","-2,0045182926396","-0,854203446831992"
"8735","41,0068874925183","11,0000260673768","NaN","1,96991983145501","1,47829365051376","-4,27735098550612"
"8743","41,0024328597161","11,0000077697134","NaN","1,99068392533964","0,384748389031979","-3,43017891396832"
"8756","41,0008593557644","11,000002315862","NaN","1,99711473534639","0,100136615489931","-3,1448731790422"
"8776","41,0003035490805","11,0000006902721","NaN","-6,45235262258408","3,50553168085579","0,277661954130357"
"8784","41,0001072222333","11,0000002057444","NaN","-0,688638281086845","-1,0876321044597","-2,23294211463223"
"8788","41,0000378739652","11,0000000613247","NaN","-0,903568724509133","-0,283072784561374","-2,07844890482491"
"8792","41,0000133781698","11,0000000182786","NaN","-0,970134443870445","-0,0736739942033399","-2,02641957070727"
"8805","41,0000047255529","11,0000000054482","NaN","4,08012502692513","-3,49864438149816","1,3175540786657"
"8825","41,0000016692007","11,0000000016239","NaN","2,64423176435126","-2,39004497605253","0,443718280320867"
"8834","41,0000005896095","11,000000000484","NaN","3,88981566243115","-2,10151513275733","0,14943288892574"
"8864","41,000000208267","11,0000000001443","NaN","-3,4855840246213","4,93251835359623","-1,61290060645186"
"8872","-33,1047104677517","11,000000000043","NaN","-3,46009754456374","2,76323246870521","-1,20640913910558"
"8874","-14,2806177221346","11,0000000000128","NaN","-2,45220417286634","2,19864284926691","-1,06951328201966"
"8883","-7,63140876683088","11,0000000000038","NaN","-2,14005133747337","2,05169982041227","-1,02341028308186"
"8891","-5,28271763314609","11,0000000000011","NaN","6,40808398575374","0,273720861554276","-1,00788398041424"
"8903","-4,45309262383585","11,0000000000003","NaN","-4,39594749794301","2,55070961895448","-1,00265512155299"
"8917","-4,16004529794366","11,0000000000001","NaN","-2,74204457131815","2,1433305477863","-1,00089417655686"
"8924","-4,05653258527368","11","NaN","9,60222536179027","-1,4421656515015","-2,66352689045924"
"8944","-4,01996892903939","11","NaN","6,42534690289796","-0,375345528230889","-2,22345876768822"
"8956","-4,00705359793913","11","NaN","5,44144161441293","-0,0976893780657197","-2,0752551578161"
"8972","-4,00249153291039","11","NaN","1,75613447194511","-3,50489475012406","-3,68856975379335"
"8973","-4,00088008081792","11","NaN","-7,52698618463219","4,56726748020277","-3,23189255908461"
"8985","-4,00031086976329","11","NaN","-4,40204471325961","2,66817037797526","-3,07809544154759"
"8993","-4,00010980810825","11","NaN","-3,43422473535535","2,17390149544072","-3,02630053337886"
"9005","-4,00003878737035","11","NaN","3,62668426762272","2,04526050707031","1,98081992219638"
"9014","-4,00001370081064","11","NaN","1,81350563943059","-1,46768987002511","5,65676639859952"
"9034","-4,00000483951891","11","NaN","6,32282478148155","-3,86145819884834","-2,75817252080037"
"9042","-4,00000170945675","11","NaN","6,40968967339486","2,73473162135063","-3,25533297840554"
"9055","-4,00000060382911","11","NaN","8,81717605514042","-0,288244534241357","0,903687693401759"
"9067","-4,00000021328974","11","NaN","7,56279431331611","-0,0750200206556342","0,304338740819989"
"9082","-4,00000007534005","11","NaN","3,79371839709924","-3,49899470533871","0,102493449717389"
"9083","-4,00000002661226","11","NaN","4,6264047039086","-2,39013615315611","0,0345171541640321"
"9092","-4,00000000940021","11","NaN","-3,56716455673446","4,85740034669645","-1,65160126628505"
"9104","-4,00000000332042","11","NaN","0,585511715698665","2,74368186579764","0,443783230215546"
"9123","-4,00000000117287","11","NaN","0,871629582240497","2,19355450773836","0,149454762377495"
"9124","-4,00000000041429","11","NaN","4,34082624280853","-1,42909410264134","-4,93934474968516"
"9136","-4,00000000014634","11","NaN","3,41526487346287","-0,371943458984124","-3,65312136421077"
"9141","-4,00000000005169","11","NaN","1,43831912728973","-7,05574314752169","0,106497055208271"
"9153","-4,00000000001826","11","NaN","1,8260428315872","-4,79530359404296","-0,627360289443048"
"9153","-4,00000000000645","11","NaN","1,94612403962382","-4,20698984703954","-0,874504542754673"
"9173","-4,00000000000228","11","NaN","-3,08756124584965","2,9050669562439","2,36871514753529"
"9193","-4,0000000000008","11","NaN","-1,64653482228088","0,756087825349466","1,46094801067181"
"9207","-4,00000000000028","11","NaN","-4,58082074483816","0,196783347252286","1,15523541835926"
"9207","-4,0000000000001","11","NaN","-3,48959313713734","0,0512158567530373","1,05227929084248"
"9214","-4,00000000000004","11","NaN","8,68041163941788","-10,4250791094439","-2,30884519093671"
"9227","-4,00000000000001","11","NaN","5,44956183369881","-7,15169408872582","-1,44078535122962"
"9235","-4","11","NaN","-0,621934242601177","2,39892812254707","0,514780600879373"
"9243","-4","11","NaN","0,49767367574185","-0,11537730062563","0,173364848292268"
"9285","-4","11","NaN","-7,60703361091588","4,44944090889677","1,72161057074789"
"9298","-8,94031403608784","7,59612545318696","NaN","-5,11712786354466","9,59644343179481","2,90624561009871"
"9298","-7,68537451654134","8,58155732478172","NaN","-6,03627545902739","-0,0229101493198893","2,30520018128483"
"9298","-7,24209391840065","8,87527783530137","NaN","-5,32094300038781","1,47350689030101","2,1027835606797"
"9305","-2,14520047300471","17,4725113385559","NaN","-5,09939867686784","1,86297216677977","2,03461485606438"
"9322","-3,34483165845739","15,0350261976967","NaN","-5,03078458464942","1,964336423913","2,01165739202295"
"9325","-3,7685757681559","14,3085027305812","NaN","1,7516329878848","-6,70795599977751","-1,32252560024926"
"9337","-3,91825432993522","14,0919531650386","NaN","-0,147796718136419","-3,96505190089943","-0,445392560749546"
"9341","-3,97112508694058","14,0274078110903","NaN","-0,736065661075923","-3,25116942366238","-0,149996743453321"
"9360","-3,98980055330725","14,0081692469035","NaN","-7,67942459867252","7,37303815484549","-0,0505150400553125"
"9374","-3,99639726316667","14,0024349480063","NaN","-5,82983975208482","4,13814963939502","-0,0170121644846505"
"9386","-3,99872741011535","14,0007257672419","NaN","-5,25700817051592","3,29622074077256","-0,00572925885312382"
"9394","-3,99955048478714","14,000216324163","NaN","-5,07959753620623","3,07709594962441","-0,00192946682567724"
"9414","-3,99984121834612","14,0000644781698","NaN","-5,02465200914579","3,0200653925616","-0,000649794733809097"
"9415","-3,99994391377002","14,0000192185391","NaN","-5,00763492921879","3,00522232335956","-0,000218834130997734"
"9434","-3,99998018873644","14,0000057283302","NaN","5,13938623884063","3,001359189021","-7,36976992854525E-05"
"9436","-3,99999300209403","14,0000017074017","NaN","0,59171002775021","-0,479115855241232","-3,32647632913555"
"9444","-3,99999752813909","14,0000005089128","NaN","0,183257443772669","0,615037619692175","-0,783497309663869"
"9456","-3,9999991268679","14,0000001516879","NaN","-3,32382728113519","-2,57966191481195","2,39936403976497"
"9464","-3,99999969158472","14,0000000452125","NaN","2,66087526373668","-3,15086582278804","1,47126976821793"
"9477","-3,99999989105889","14,0000000134762","NaN","4,89497029055939","-5,77899992559614","-2,16773998918276"
"9485","-3,99999996151888","14,0000000040167","NaN","0,206304212440567","4,23566224497104","1,93318675622995"
"9493","-3,99999998640736","14,0000000011972","NaN","0,754185911443301","-5,11680893619167","2,9774990202616"
"9505","-3,99999999519869","14,0000000003569","NaN","0,923869362695294","-3,55093169601668","2,32919649470863"
"9523","-3,99999999830404","14,0000000001064","NaN","-9,16532912112645","7,29502046780422","2,11086490102"
"9538","-3,99999999940094","14,0000000000317","NaN","-6,29003655745332","4,1178443506625","2,03733644335749"
"9542","-3,99999999978839","14,0000000000094","NaN","11,503383173198","-7,14747283373232","-1,31387755711924"
"9554","-3,99999999992525","14,0000000000028","NaN","-1,43730797824553","-4,07944283652834","-0,442480122552186"
"9567","-3,9999999999736","14,0000000000008","NaN","-3,82572967044336","-1,54120660070502","-0,149015909277784"
"9575","-3,99999999999067","14,0000000000002","NaN","-2,56544343805951","-1,88059204528417","-0,0501847203662035"
"9587","-3,99999999999671","14,0000000000001","NaN","-2,17512246573005","-1,96892226507328","-0,0169009213206841"
"9595","-3,99999999999884","14","NaN","-2,05423686250321","-1,99191154717896","-0,00569179502054808"
"9607","-3,99999999999959","14","NaN","-2,01679760070719","-1,99789485722842","-0,00191684997174015"
"9616","-3,99999999999985","14","NaN","1,37538125842195","3,21975230265988","1,6625802091219"
"9628","-3,99999999999995","14","NaN","0,425966844925002","1,57772427163006","1,22313994979542"
"9636","-3,99999999999998","14","NaN","-3,24865819095789","-2,32910808313787","-0,588077966663347"
"9651","-3,99999999999999","14","NaN","-2,38671967262543","-1,34592057786283","-0,198049513327537"
"9687","-4","14","NaN","-5,50035386419342","7,60864292455643","1,59652777946595"
"9687","-4","14","NaN","-6,15496369139205","4,93920416375475","1,20089519265601"
"9687","-7,29354269072523","14","NaN","-5,35770171842364","4,24444215724743","1,06765632686616"
"9707","-6,4569163443609","12,2980627265935","NaN","-5,11078315302623","4,06361978635284","1,02278490841172"
"9707","-6,16139594560043","12,7907786623909","NaN","8,48802400177426","-6,42185079825588","-0,655552384492499"
"9715","-6,05700967272837","12,9376389176507","NaN","4,69968599949563","-1,41111906925645","-1,88399891428488"
"9738","-1,07982341391132","9,5775379389486","NaN","-1,54446873906057","5,85193922389179","0,365517687729784"
"9738","-2,32173860782969","10,5760170796072","NaN","-0,478334623097718","3,74226052559188","0,123096943383582"
"9755","-6,05396133167643","10,8736264947187","NaN","-0,14814415200997","-2,02601982491162","0,0414558801914477"
"9773","-5,37228934322789","10,9623327684467","NaN","-0,0458814576971771","-0,527302450031283","0,013961272759571"
"9788","-5,13150326384423","10,98877280226","NaN","-0,014209863378719","-0,137238476341723","0,00470179709529724"
"9793","-31,3947922467699","10,9966535908296","NaN","-0,0044009111169605","-0,0357183991606338","0,00158344416773825"
"9799","-24,6717384805617","10,9990025601584","NaN","-0,00136299823180513","-0,00929625621477775","0,000533263214367987"
"9810","-22,2969632436691","10,9997027003612","NaN","-3,38100574471229","3,47705011287984","0,000179589316498771"
"9817","-21,4581245816754","10,999911386059","NaN","-2,42770879441337","-2,83477966779651","-1,66316527376775"
"9825","-21,1618227296415","10,9999735874871","NaN","-0,442173111567417","-3,21726409517469","-1,2233369844999"
"9845","-21,057160425081","10,9999921274144","NaN","2,55334717089654","-0,577076677817312","0,588011610449471"
"9845","-21,0201907000499","10,9999976534757","NaN","1,48108434618278","-0,889927777991003","0,198027166263696"
"9857","-21,0071319338148","10,9999993005886","NaN","1,14899576377928","-0,971352031390777","0,0666904494427484"
"9880","10,2861363585033","10,9999997915315","NaN","-0,644146597656268","-0,99254393078966","0,0224596257715129"
"9889","2,3398154166056","10,9999999378633","NaN","4,87137794037644","0,741675357746364","1,67078957834038"
"9894","-0,467052839017815","10,9999999814794","NaN","3,57958108127706","0,193032283523952","1,22590465391734"
"9915","-1,45851913669606","10,9999999944797","NaN","3,17950100967136","0,0502395854106479","1,0760788693047"
"9927","-1,80873344314326","10,9999999983546","NaN","3,05559293343745","0,0130756156232312","1,02562140378391"
"9935","-1,93243917144437","10,9999999995096","NaN","3,0172175869865","0,00340312768365824","1,00862862891967"
"9944","-1,97613557942311","10,9999999998538","NaN","1,315040621266","3,48035532053931","-0,660319854832929"
"9956","-1,99157040282592","10,9999999999564","NaN","1,78786246818873","2,38528496998852","-0,222378720685919"
"9976","-1,99702242473107","10,999999999987","NaN","1,93429926824835","2,1002762688386","-0,0748914258021485"
"9985","-1,99894823509367","10,9999999999961","NaN","-1,40093166793486","0,286363620501682","-3,35167301304316"
"9993","-6,93994252258498","-6,01937273406637","NaN","-0,433880016098531","0,814265286689712","-2,45520865869204"
"10000","-5,68524328732655","-1,09221337609174","NaN","-0,134376195983325","0,951659718142864","-2,15330255242848"
"10005","-5,24204756448166","0,37638917650675","NaN","-1,73190921540401","-0,752316095428778","-3,71485410620187"
"10019","-5,08549813556011","0,814124857616398","NaN","-2,91697008740773","3,28366790762107","1,74893281244584"
"10025","-5,0302003913979","0,944597548255193","NaN","-0,593701342772089","-4,62484512807677","-1,07423022704971"
"10046","-5,010667643623","0,983486594172979","NaN","5,88700124913746","-2,68315583587537","-1,02499882868389"
"10056","-5,00376811740511","0,995077969233854","NaN","0,513544328521738","-3,91753649102208","-1,00841896166029"
"10056","-5,00133100704152","0,998532926089465","NaN","0,849340692766734","-3,23880281612257","-1,00283528945831"
"10066","-5,00047014982659","0,999562719950112","NaN","0,953339578122234","-3,06215206212076","-1,00095485246718"
"10075","-5,00016607039072","0,999869663116045","NaN","-2,39503472796006","-3,01617601872785","-1,00032156971889"
"10083","-5,00005866082069","0,999961151432993","NaN","3,63882173401652","2,21499435255024","0,663117458424903"
"10084","-6,64679206604539","0,999988420690194","NaN","0,817264712221124","4,05595554764504","-1,43990487330035"
"10084","-6,22846549131935","0,999996548639347","NaN","-4,12747003535567","-0,94437592801714","-2,81137438647911"
