Timer,AX,AY,AZ,GX,GY,GZ
"5","-8,99997696005898","-8,999964000144","-1","1,99716145439648","0","-1,99999712000415"
"13","-3,7377469599075","-12,6049308483701","NaN","-1,63724298942849","1,82475847675646","-0,264705220900354"
"37","-5,40786291677228","-11,3298953919454","NaN","10,5658542052774","6,60673834659111","-5,9367439672253"
"42","-5,84436529399084","-11,0679223526073","NaN","15,9183805090697","6,29077370370224","-2,8407207346847"
"54","-5,95908194684363","-11,0139855497307","NaN","8,30070989989929","-11,1376029923056","-1,24079061232622"
"62","-5,98924198694238","-11,0028797026793","NaN","3,43255216377517","0,165321448456193","1,64461191110828"
"75","-5,99717154179394","-11,0005929469147","NaN","-18,0385952864573","-4,42714785938131","-2,9561045154271"
"87","-5,99925635184333","-11,0001220910923","NaN","-9,07534575671097","-3,25828173235561","-2,273849031709"
"97","-5,99980448267422","-11,00002513924","NaN","-3,76619817144987","-1,22772075331942","3,06229874274004"
"103","-5,99994859528077","-11,0000051763104","NaN","-6,58002707534645","3,59683254148328","-0,122891325065714"
"115","-5,99998648485423","-11,0000010658313","NaN","2,95090949406175","3,28899085150926","-1,74877708140724"
"124","-5,99999644664599","-11,0000002194606","NaN","-2,06918871972369","0,414255971174111","2,21269071815783"
"150","-5,99999906576481","-11,0000000451882","NaN","-2,01300804243421","0,893993476924247","1,34734088292151"
"157","-5,99999975437421","-11,0000000093045","NaN","-2,00244561784993","-0,838207245012628","-2,32767073864445"
"157","-2,52583281518286","-7,41181120884444","NaN","1,62352392596346","-1,97071914254177","-1,38027365072142"
"165","-3,61241721197854","-8,67298302854188","NaN","3,9292194339469","-2,99470082196477","-1,10891860852537"
"173","-3,89809811321426","-8,93266537314885","NaN","13,234660121548","-0,360996080722635","-1,03119664815218"
"185","-3,97320831870914","-8,98613542302417","NaN","8,98415870768667","-0,884354632090483","-1,0089353956051"
"193","-3,99295602653658","-8,99714520591101","NaN","8,18502984710096","-0,979070783894328","-1,00255929080041"
"213","-3,99814802357438","-8,99941218190034","NaN","4,41080339518657","-0,996212281609579","-1,00073303630757"
"214","-3,99951308495143","-8,99987896495946","NaN","5,70121810384306","-0,999314507980963","-1,00020995747265"
"232","-3,99987198202891","-8,99997507820694","NaN","-13,9880838993923","0,819146502163136","-1,00006013636687"
"234","-3,9999663419708","-8,99999486846316","NaN","-6,68983292699229","0,148247132383129","-1,00001722435775"
"242","-3,99999115075079","-8,99999894338781","NaN","7,36624068327999","-3,61121548320711","0,713573411221604"
"255","-3,9999976733869","-8,99999978243763","NaN","8,44487250726104","1,34645104582722","-3,22277381164596"
"263","-3,99999938829517","-8,99999995520269","NaN","0,211688486104739","-1,57534502326178","-4,06380724390012"
"275","-3,99999983917274","-8,99999999077598","NaN","-0,14820898067022","0,714897907033872","-3,30469743177049"
"297","-3,99999995771587","-8,99999999810072","NaN","-4,65184821666121","-1,68964196712523","-1,37369359813773"
"304","-3,99999998888281","-8,99999999960893","NaN","-2,49856904809298","-1,12480971807533","-1,82061228362272"
"312","-3,99999999707711","-8,99999999991948","NaN","8,77821612718336","9,89154690314949","1,47853721597544"
"324","-3,99999999923152","-8,99999999998342","NaN","4,89834352175394","5,8852602060737","0,423485076895288"
"341","-3,99999999979796","-8,99999999999659","NaN","2,35690403268479","-9,39196731897168","-1,59228304791057"
"365","-3,99999999994688","-8,9999999999993","NaN","2,87909272399441","-4,15680262666313","-1,1696426910179"
"374","-3,99999999998603","-8,99999999999986","NaN","2,97726844804809","4,06673446123518","0,6649890042714"
"386","-3,99999999999633","-8,99999999999997","NaN","2,99572628322121","1,55501010925161","0,190467251392522"
"398","-3,99999999999903","-8,99999999999999","NaN","1,18720464544981","-2,53760051357575","0,0545539454336847"
"399","-3,99999999999975","-9","NaN","5,47117158003707","4,178796146646","-3,41153125794437"
"402","-3,99999999999993","-9","NaN","-1,15938335214143","2,39431320274789","-2,40429311947776"
"410","-3,99999999999998","-9","NaN","-12,089924672482","0,252339396439425","-2,11579830452717"
"423","-4","-9","NaN","-7,14495540425014","0,864690210870703","-2,03316714206932"
"441","-4","-9","NaN","-4,40326907376521","-0,843510478500687","-3,72307813238536"
"451","-4","-9","NaN","2,36015771496616","-1,97167890878003","3,64720814297792"
"463","-4","-9","NaN","-0,368263001303215","-1,17585207462086","1,75821773836598"
"472","-4","-9","NaN","-0,881228302545186","-1,03182527877165","1,21716997973802"
"487","-4","-9","NaN","-4,60165367622118","-1,00575966118726","1,06220218508874"
"488","-4","-9","NaN","-5,1131157879816","-1,00104236940798","-4,12291898113252"
"509","-4","-9","NaN","-4,20927482777652","-1,00018864546843","-2,60804996874851"
"521","-4","-9","NaN","-5,85133723191934","2,63801074638913","1,25299801071726"
"529","-4","-9","NaN","-1,5360746066002","-4,16062414806309","2,07246410902973"
"537","-4","-9","NaN","-2,7247701111697","1,24702040813755","-0,406401399239614"
"550","-4","-9","NaN","-4,76024640181921","0,225682706379687","-1,82998050615716"
"558","-4","-9","NaN","-9,57890809421447","0,0408435047465897","-2,95130273513188"
"578","-4","-9","NaN","-11,1088394334383","-1,81163068580429","-0,558895359484163"
"578","-4","-9","NaN","-2,14851153325693","0,67213550518918","-2,58723642333184"
"590","-4","-9","NaN","-4,46389696002204","0,121641441371055","-2,16819722845213"
"599","-4","-9","NaN","-10,3351838481841","1,84103681432191","1,37898136070289"
"611","-4","-9","NaN","-8,43903356949181","1,15220878758881","0,394970124028405"
"630","-4","-9","NaN","-4,45855816232929","-2,61049851252826","0,113127996737749"
"640","-4","-9","NaN","5,16175477733094","0,527558357936238","-3,39475438120934"
"648","-4","-9","NaN","2,78244377061019","1,91449866602692","1,0276688306296"
"660","-4","-9","NaN","1,33511393616308","1,1655037340069","0,294346607619849"
"668","-4","-9","NaN","1,06300414748695","1,02995246137343","0,0843072426009393"
"681","-4","-9","NaN","1,01184529251754","1,00542072327075","0,0241474199836993"
"695","-4","-9","NaN","-9,86972415467032","-0,818041414240482","0,00691634400414683"
"697","-4","-9","NaN","-0,47957219266807","-1,96706957976369","1,7155593353493"
"716","-4","-9","NaN","-3,52613905849005","4,28204944095923","-2,22220499996991"
"718","-4","-9","NaN","-3,09891842523559","2,41299973165405","-1,35006597926762"
"738","-4","-9","NaN","-4,83058933005221","0,255721238780468","-1,10026647726332"
"750","-4","-9","NaN","-4,15615755420636","0,865302248434079","-1,02871849039381"
"777","-4","-9","NaN","-0,405375169131144","-2,6624221569305","-1,00822559755773"
"779","-4","-9","NaN","-1,70019755316437","-1,30086109984517","-1,00235598926872"
"793","-4","-9","NaN","-9,19160214395461","0,764573336794395","2,42648188295499"
"800","-4","-9","NaN","-10,224030901499","1,95739305775634","-5,44573807636084"
"808","-4","-9","NaN","-10,2301277718546","-2,46477823077509","-13,9819824162861"
"828","-4","-9","NaN","-9,23127403310377","-1,26509198503102","-10,426947650594"
"840","-4","-9","NaN","0,0164779045001824","-1,04797569970063","-9,40870870817997"
"848","-4","-9","NaN","-3,24486946388871","-1,00868252490356","-9,1170630247526"
"849","-4","-9","NaN","-2,04603745220069","6,27451843182874","8,10225406117678"
"857","-4","-9","NaN","-8,25662285976021","-0,0454305424539969","3,03423936491381"
"890","-4","-9","NaN","-6,42426346426118","0,810800534928392","1,5826502062754"
"898","-4","-9","NaN","4,79218618171599","-0,853263300373706","-0,546694708079629"
"917","-4","-9","NaN","-4,53500557732797","7,12166826681096","-0,15658520325889"
"939","-4","-9","NaN","-3,28859354192955","4,56495189515437","-0,0448493931206239"
"947","-4","-9","NaN","2,38171764829404","-6,81189104742585","1,70073250723164"
"959","-4","-9","NaN","4,07176602467462","2,58622304653425","-0,512873379972284"
"968","-4","-9","NaN","2,38950887471753","-4,16999655943996","-0,146898042476272"
"987","-4","-9","NaN","0,261238977642882","-2,39272067495707","1,67150356415703"
"1000","-4","-9","NaN","0,861106915029804","-2,0710736281437","1,19233316241884"
"1008","-4","-9","NaN","4,59787069160056","-2,01286273155357","1,05508838275858"
"1020","-4","-9","NaN","3,30041269507121","-2,00232786572658","1,01577850578023"
"1029","-4","-9","NaN","-0,567503690295412","1,63762359553398","-2,42263738355681"
"1037","-4","-9","NaN","2,51728840934287","-1,5226493266938","3,73326087959179"
"1049","-4","-9","NaN","2,09725443116059","-1,09458779805532","-4,35786992831772"
"1064","-4","-9","NaN","2,01828462461083","-4,65516315555252","-0,961766663316524"
"1070","-4","-9","NaN","2,00343765824518","-3,2995473835131","-0,98904914441759"
"1078","-4","-9","NaN","2,00064630772915","2,40285597695117","-0,996863437816595"
"1090","-4","-9","NaN","2,00012151111337","0,434863003348003","-0,999101620667323"
"1105","-4","-9","NaN","2,00002284507829","0,0787004437614235","-0,999742684704403"
"1111","-4","-9","NaN","2,00000429506065","0,0142430140079964","-0,999926299327088"
"1119","-4","-9","NaN","2,00000080750636","0,00257766587246892","-0,999978890531264"
"1127","-4","-9","NaN","2,00000015181777","0,000466499671092132","-0,999993953791021"
"1160","-4","-9","NaN","2,00000002854298","8,44259705857948E-05","-0,999998268234816"
"1180","-4","-9","NaN","2,00000000536631","1,52792058623891E-05","-0,999999503984949"
"1189","-4","-9","NaN","2,00000000100891","2,76519334234986E-06","0,713578486720114"
"1197","-4","-9","NaN","2,00000000018968","5,00437934369215E-07","0,204384331388051"
"1204","-4","-9","NaN","3,81199186104771","9,05680345457885E-08","0,0585400985236331"
"1216","-4","-9","NaN","3,15266107866894","1,63907815897814E-08","0,0167671519234523"
"1217","-4","-9","NaN","-0,595282196727663","-3,63804488401869","1,71838082006007"
"1229","-4","-9","NaN","0,700073963032626","-2,29644936055927","1,20575982365282"
"1250","-4","-9","NaN","0,943611463955734","-2,05365068090222","1,05893406929503"
"1258","-4","-9","NaN","0,989398496278063","-2,00970956913465","1,01687999368395"
"1270","-4","-9","NaN","-0,813985029997287","1,63628767288832","1,00483479573324"
"1277","-4","-9","NaN","-0,153035810653839","0,296131344782631","1,00138479019719"
"1279","-4","-9","NaN","-0,0287719779595403","-3,58445175980102","-0,713181710750071"
"1287","-4","-9","NaN","-0,00540936603117543","-2,28675020789276","-0,204270686157908"
"1309","-4","-9","NaN","-1,81300886585268","-0,232872908459916","-0,0585075480686931"
"1315","-2,26291643988096","-9","NaN","7,9071070212106","-2,68018965693491","3,41039886053306"
"1327","-2,80620861447872","-9","NaN","6,5465597808966","-2,12309906207374","-2,73676625761529"
"1340","-2,94904905883915","-9","NaN","5,29076582623998","-2,02227816746247","1,92970922284028"
"1348","-2,9866041599414","-9","NaN","5,05466634187267","-0,185009404818296","-0,447289490051203"
"1360","-2,99647801342258","-9","NaN","5,01027771720076","-0,852504993507443","-0,128113396160827"
"1376","-2,99907401182776","-9","NaN","1,37794857245986","-0,973306714127923","-0,0366944510008095"
"1377","-2,99975654248638","-9","NaN","-2,74093445327072","-2,81419155784024","-1,72408843004845"
"1385","-2,99993599101726","-9","NaN","-0,515317985647378","-2,14735039866694","-1,20739460675378"
"1389","-2,99998317098614","-9","NaN","-0,0968839754685816","-2,02666711510115","-1,05940230657694"
"1390","-2,99999557537559","-9","NaN","-1,83020683693765","1,63321873765494","-1,01701410698134"
"1398","-2,9999988366935","-9","NaN","0,655906218624333","-3,34246895060204","-1,00487320868589"
"1398","-2,9999996941476","-9","NaN","5,55929129055034","-0,423934306874585","-1,00139579249867"
"1410","-2,99999991958637","-9","NaN","3,48116759266443","-0,895745038470378","-1,00039978519799"
"1418","-2,99999997885794","-9","NaN","3,09046342363815","-0,981132191808588","-1,00011450713819"
"1418","-2,9999999944414","-9","NaN","3,01700785992469","-0,996585350176867","-1,00003279732407"
"1430","-2,99999999853855","-9","NaN","3,00319761609261","-0,999382025018681","-1,00000939386385"
"1439","-2,99999999961576","-9","NaN","-0,623382544173335","2,63815672658715","-1,00000269060603"
"1454","-2,99999999989898","-9","NaN","-4,7411847140317","1,29646960155403","-1,00000077064783"
"1459","-2,99999999997344","-9","NaN","-2,51536503670731","1,05365434406799","-1,00000022073023"
"1467","-2,99999999999302","-9","NaN","-2,0968928214508","1,00971023208544","-1,00000006322192"
"1467","-2,99999999999816","-9","NaN","-2,01821663904226","1,00175733407594","-1,00000001810813"
"1479","-2,99999999999952","-9","NaN","-2,00342487640495","1,00031803802703","-1,00000000518656"
"1488","-2,99999999999987","-9","NaN","5,24732353940905","-2,63798732924004","2,42715668781578"
"1500","-2,99999999999997","-9","NaN","2,61052325533605","-1,29643894443607","1,40876858096707"
"1508","-2,99999999999999","-9","NaN","-10,5691596860398","4,40341853465988","-2,31007651568593"
"1520","-3","-9","NaN","3,01291195676122","0,615942370174996","-1,37523428425706"
"1526","-3","-9","NaN","0,566451969925214","0,930494188596218","-1,10747522484073"
"1534","-3","-9","NaN","-7,14146986335651","4,62546589507413","0,682795112842738"
"1547","-4,73708356011904","-9","NaN","-0,966638180672278","1,47515040238423","-1,51801103816581"
"1557","-4,19379138552128","-9","NaN","5,44224787660121","0,0859915587970406","0,565208765609982"
"1578","-4,05095094116085","-9","NaN","2,64717061721501","0,834584985683883","0,161888030263967"
"1578","-4,0133958400586","-9","NaN","-1,50231037867383","-2,66798129208563","-1,66721010704121"
"1610","-4,00352198657742","-9","NaN","-0,282446578476746","-1,30186717854184","-1,19110342332455"
"1620","-2,2638424280532","-5,41181120692859","NaN","-3,67708597760703","-2,87365362785483","2,37242053044978"
"1624","-2,80645207199234","-8,4670774246831","NaN","-7,75128139660884","1,47993318818199","-3,74764407378514"
"1629","-2,94911306782189","-8,09617385899392","NaN","5,35468787086372","2,08685713568402","2,64017192537698"
"1635","-8,19787166931239","-9,81389713300934","NaN","0,00672490146242644","-2,44134813829624","-1,95737593137734"
"1639","-6,57785659461083","-9,16758598033015","NaN","0,00126433620882812","-1,26085166414545","-1,27421319905671"
"1647","-6,15192799861681","-9,03450689241203","NaN","1,81222956650973","0,771814146704573","-1,07854059839246"
"1660","-6,03994436851457","-9,00710516250578","NaN","1,15270576923048","0,139681038348495","-1,0224957282037"
"1668","-6,01050203116314","-9,00146299277346","NaN","1,02870992748575","0,0252791330107376","-1,00644326371039"
"1680","-6,00276115664493","-9,00030123840988","NaN","1,00539770003707","0,00457495572291073","-1,00184549025778"
"1688","-6,00072595347504","-9,00006202667657","NaN","-6,24695263250942","-1,81819447918466","0,713049756276097"
"1704","-6,00019086510318","-9,00001277164027","NaN","3,63751392222809","-2,96709728108327","1,9178112361897"
"1709","-6,00005018157342","-9,0000026297523","NaN","1,49587408407291","-2,17502290283547","1,26288101356768"
"1729","-6,00001319356063","-9,00000054148073","NaN","1,0932283637189","-2,03167521728801","1,07529481506597"
"1738","-6,00000346880399","-9,00000011149392","NaN","1,01752769116368","-2,00573250342663","1,02156606557042"
"1750","-6,00000091200559","-9,00000002295722","NaN","1,00329534859644","-2,00103745446282","1,00617698820005"
"1758","-6,00000023978126","-9,00000000472702","NaN","-0,811372308655119","-3,81921019946619","-2,42538746611599"
"1770","-6,00000006304244","-9,00000000097332","NaN","-0,152544597776604","-3,14825866016539","-1,40826183755914"
"1794","-6,00000001657489","-9,00000000020041","NaN","9,03127967911962","-1,20780904655528","0,59664331332101"
"1799","-6,00000000435781","-9,00000000004126","NaN","-1,490054053837","-1,85663121695825","0,170891565454518"
"1807","-6,00000000114574","-9,0000000000085","NaN","4,15583329338281","1,6639914190194","-1,66463129958794"
"1833","-6,00000000030123","-9,00000000000175","NaN","1,40531420545716","3,93918998804859","0,523213547625703"
"1848","-6,0000000000792","-9,00000000000036","NaN","1,88819423048543","2,35094986564079","0,149859690412153"
"1860","-6,00000000002082","-9,00000000000007","NaN","1,97897960534545","2,0635140491403","0,0429230605979883"
"1869","-6,00000000000547","-9,00000000000001","NaN","-3,43992758831595","-3,44557271306027","-1,70128425058153"
"1892","-6,00000000000144","-9","NaN","-1,45872624514463","-1,442593773871","-1,20086299592198"
"1897","-6,00000000000038","-9","NaN","-1,08624426765457","-1,0800995397206","-1,0575315117904"
"1910","-6,0000000000001","-9","NaN","-1,01621462426011","-1,01449621897601","-1,01647827084176"
"1918","-6,00000000000003","-9","NaN","6,24491896271667","0,81639895320365","0,708858611038871"
"1930","-6,00000000000001","-9","NaN","-0,0139125466770387","1,96677233117858","1,91661080143305"
"1945","-6","-9","NaN","-1,00261567200933","2,99398653768826","1,26253718305754"
"1950","-6","-9","NaN","-0,188499906614626","2,17988925479215","1,07519633456209"
"1965","-6","-9","NaN","-0,0354395166420178","0,213533474281708","-0,692040486029185"
"1980","-6","-9","NaN","-0,00666291757049818","0,857667209900581","-0,19821538157724"
"1988","-4,26291643988096","-7,2059056034643","NaN","5,4347229003035","-6,30184881453319","-1,77035152235772"
"1991","-4,80620861447872","-7,8364915140737","NaN","3,4577477214374","-3,59756053041132","-1,22064535823458"
"2002","-4,94904905883915","-7,96633268653381","NaN","-2,34991528580274","9,62501205978853","2,36395908055063"
"2008","-4,9866041599414","-7,99306771150372","NaN","1,37018866134895","1,37995605092055","-0,32291092697059"
"2027","-4,99647801342258","-7,99857260295379","NaN","1,06959848129466","1,88778596116836","-0,0924886822333056"
"2028","-4,99907401182776","-7,99970609094982","NaN","1,0130850809446","1,97969177744641","-0,0264907614663423"
"2041","-4,99975654248638","-7,99993948247966","NaN","1,0024601017169","1,99632466750524","-0,00758752775065422"
"2063","-1,52576887077917","-11,5881763321749","NaN","1,00046251914552","1,99933484730575","-0,00217323225835142"
"2069","-2,61240039994358","-10,3270144060842","NaN","-0,811904903648257","1,99987962229069","3,42653422852043"
"2070","-4,63517725317292","-8,27323970209057","NaN","-5,58862031300625","1,99997821433631","-1,01856639415601"
"2078","-4,16699854209759","-8,85035598228507","NaN","3,7612857564535","0,180973613791293","-0,291739472697371"
"2090","-4,04390666215361","-8,96918745822758","NaN","1,51914419628475","0,851774605908801","-0,0835605027007241"
"2098","-4,01154378330048","-8,99365552499208","NaN","2,90959519522194","-0,845847913127508","-0,0239335375053642"
"2110","-4,00303505040812","-8,99869363704483","NaN","2,17101129988606","-0,153079488494763","-0,00685508343065189"
"2119","-4,00079796464816","-8,99973101254737","NaN","-3,40382406679867","5,42936337869838","-1,71554178899443"
"2138","-4,00020979802445","-8,99994461397624","NaN","-1,45193848925326","3,43966024814558","-1,20494666367541"
"2139","-4,00005515934968","-8,99998859570735","NaN","7,97499119075873","-4,19652113656724","5,79561221593441"
"2160","-4,00001450229984","-8,99999765179224","NaN","1,12334697424393","-1,57849858462044","0,373567189301442"
"2168","-4,00000381289304","-8,99999951649086","NaN","-3,60079348694671","2,53334962669741","-0,893002267256082"
"2193","-4,00000100247227","-8,99999990044276","NaN","-5,11295406539693","1,27750186871135","-1,96935353226886"
"2200","-4,00000026356644","-8,99999997950061","NaN","-3,3972525616023","1,05022161012564","-1,27764384333118"
"2209","-4,00000006929595","-8,99999999577906","NaN","0,549297007209061","2,82811142777693","-1,07952320920447"
"2228","-4,00000001821904","-8,99999999913089","NaN","-0,708719552935027","2,14986958271499","-1,02277716921904"
"2247","-4,00000000479009","-8,99999999982104","NaN","-38,9970659864768","-3,42994429960302","-1,00652387451189"
"2250","-4,00000000125939","-8,99999999996315","NaN","11,0442504758682","4,01730194868615","-1,00186857893699"
"2258","-4,00000000033111","-8,99999999999241","NaN","2,26441711747268","-1,27295850957406","2,42662148782904"
"2278","-4,00000000008706","-8,99999999999844","NaN","5,0497125701726","1,58864552289441","-0,304963056549732"
"2298","-4,00000000002289","-8,99999999999968","NaN","-1,0506129372578","-0,712490815110029","3,33980866582396"
"2299","-4,00000000000602","-8,99999999999993","NaN","-2,00951564414255","1,69007759673989","0,670171871266023"
"2311","-4,00000000000158","-8,99999999999999","NaN","-1,18979715753446","1,12488855725854","0,90553008138724"
"2337","-4,00000000000042","-9","NaN","-1,03568341037326","1,02260202592839","0,972941769530216"
"2340","-4,00000000000011","-9","NaN","4,42926681145914","-2,63395442756041","0,992249936838021"
"2348","-4,00000000000003","-9","NaN","2,45672193232762","-1,29570907974445","0,997780214080084"
"2360","-4,00000000000001","-9","NaN","0,273875579519843","6,22257306728088","4,42652089454362"
"2368","-4","-9","NaN","0,863482699031823","3,58321339938329","3,4085864760056"
"2388","-4","-9","NaN","0,974333636305316","3,10554853594281","3,11702801481088"
"2389","-4","-9","NaN","0,995174514727175","3,01910191612787","3,03351935772438"
"2401","-4","-9","NaN","0,999092769494142","3,00345701810543","3,00960066992566"
"2409","-4","-9","NaN","0,999829433280961","-2,45644168778805","-3,85156353883008"
"2428","-4","-9","NaN","0,99996793206858","-0,444560814358979","-1,81674954912553"
"2430","-4","-9","NaN","-0,811997890044159","-0,0804555299016611","3,90680027608563"
"2442","-4","-9","NaN","-0,152662212169343","-0,0145606452091167","2,54614889149702"
"2450","-4","-9","NaN","3,59528198362036","-3,64068003697617","-1,27072781973154"
"2459","-4","-9","NaN","-1,32405772512264","1,34111862288251","1,3496143790247"
"2471","-4","-9","NaN","5,18704195422323","0,242712371355946","-0,613441215476477"
"2479","-4","-9","NaN","7,03516540972618","1,86294793539466","4,9650321855557"
"2499","-4","-9","NaN","5,38262766121526","1,1561742087409","3,56282777140159"
"2518","-4","-9","NaN","-0,364038468525762","1,02826402668742","3,16120606196142"
"2526","-4","-9","NaN","1,55554152703655","1,00511515448695","-2,09456212683265"
"2528","-4","-9","NaN","-5,33152925440749","-0,818096715332319","-0,599927951599437"
"2540","-4","-9","NaN","-6,25033833712916","5,30901018594994","-0,171832356987448"
"2563","-4","-9","NaN","4,63687738220337","-0,22016586558096","-1,76279485278159"
"2572","-4","-9","NaN","3,49575440936747","-4,67788996736425","2,20867572487567"
"2582","-4","-9","NaN","2,2812140028882","-2,48463798288946","1,34619090189945"
"2591","-4","-9","NaN","0,240878660328309","-0,268686154441521","-0,614421773461741"
"2604","-4","-9","NaN","0,857279009662287","-0,867648607190742","-0,175983701437588"
"2621","-4","-9","NaN","4,59715101423619","4,48101996214856","-0,0504055430802576"
"2631","-4","-9","NaN","3,30027738986926","-3,00805840008166","-3,44159392838915"
"2639","-4","-9","NaN","-4,19151285079873","0,455608940921437","1,01425296999055"
"2651","-4","-9","NaN","-1,60003039163479","0,0824549928509201","0,290504014607675"
"2659","-4","-9","NaN","-4,73679431929157","5,47198983360558","3,51036333005088"
"2671","-4","-9","NaN","-3,32653146777485","3,44737467979726","2,43260076517211"
"2680","-4","-9","NaN","-3,06139057357735","3,08096477639302","2,12390622726599"
"2692","-4","-9","NaN","-3,01154192748968","3,01465280739478","2,03548942672162"
"2700","-4","-9","NaN","-3,00216997630767","-2,45441550119929","-3,13057009360298"
"2712","-4","-9","NaN","-3,00040797320725","-0,444194120061117","-1,61024141304756"
"2727","-4","-9","NaN","-6,62406042430756","3,5576557205214","0,538791988962861"
"2729","-4","-9","NaN","1,94263086607017","-3,17516660429772","0,154321693367705"
"2742","-4","-9","NaN","3,17722227488245","0,425366106450062","1,75777941952135"
"2750","-4","-9","NaN","1,40933550806376","0,0769817185664307","1,21704443572897"
"2763","-4","-9","NaN","1,07695840709275","0,0139319633218987","1,06216622656585"
"2770","-4","-9","NaN","2,82646066790904","-1,81650107081318","-2,40935093578151"
"2787","-4","-9","NaN","2,15538133212032","-1,14776836868151","-1,40366862799468"
"2790","-4","-9","NaN","0,217221094073357","2,61130212869198","2,31153725265849"
"2805","-4","-9","NaN","0,85283119465771","1,29160952204597","1,37565267095877"
"2811","-4","-9","NaN","-2,65165265523359","-2,58527010823086","-2,31956162944891"
"2819","-4","-9","NaN","4,12545144107119","2,35114657639309","-1,37795102624223"
"2855","-14,4225013607143","-9","NaN","2,39960216994505","1,24452720587906","-1,10825335857728"
"2855","-11,1627483131277","-9","NaN","2,07512846030691","1,04425393621959","-1,03100610616083"
"2861","-1,62028784636991","-9","NaN","-1,60985896001677","-2,63003591774219","-2,72245916490318"
"2867","-5,84850167286421","-9","NaN","-0,302666587105827","-1,2949999174124","-2,20692794993387"
"2872","-5,96016859918154","-9","NaN","-0,0569037817756002","-1,0533883642232","-2,0592686459581"
"2880","-5,98952766990134","-9","NaN","-7,25866581816121","2,628382791282","4,83733755491701"
"2892","-5,9972466522532","-9","NaN","0,823319886980026","8,57079051259514","1,09909657461351"
"2897","-5,99927609961266","-9","NaN","-0,657201021269169","5,64623294176954","-2,39877328436107"
"2909","-5,99980967468733","-9","NaN","-6,371526584998","-3,97815855872654","2,0265177297362"
"2928","-5,99994996034637","-9","NaN","-2,63387443879387","-0,719957415357626","-0,419561437254176"
"2930","-5,99998684375242","-9","NaN","0,692818307422387","-0,13029613382086","3,30698520792224"
"2950","-5,99999654100622","-9","NaN","-0,681736380376789","-0,0235806759212702","2,37434886677019"
"2950","-5,99999909057367","-9","NaN","-0,940163849167072","-0,00426757310902613","2,10722162209847"
"2962","-5,99999976089687","-9","NaN","-0,988750316637699","-0,000772334953488557","2,03071059449068"
"2971","-5,99999993713586","-9","NaN","-0,99788496796685","-0,000139775292687673","-1,41836050999054"
"2983","-5,99999998347198","-9","NaN","-0,999602356763548","-2,52961909307322E-05","-0,406249165153622"
"2998","-5,99999999565451","-9","NaN","0,812066621176918","1,8190178654497","-0,116358558367587"
"2999","-5,9999999988575","-9","NaN","0,152675134181703","1,14822385202505","-0,0333276109017068"
"3011","-5,99999999969962","-9","NaN","1,84069602885929","6,4838925210332","1,70403259516736"
"3019","-5,99999999992102","-9","NaN","-2,46592602618371","4,44952879908378","1,20165018132772"
"3031","-5,99999999997924","-9","NaN","-1,2756060240768","-1,37571270683965","-0,655821365913281"
"3039","-5,99999999999454","-9","NaN","0,760175685331506","-3,06799556763265","-1,90141978588901"
"3047","-5,99999999999856","-9","NaN","0,142919215903064","-1,37426078469845","-1,25818614723898"
"3060","-5,99999999999962","-9","NaN","3,65085369783166","-1,06773280231129","4,06678493027153"
"3072","-5,9999999999999","-9","NaN","2,3103739314707","-1,0122581170577","2,59197196097944"
"3087","-5,99999999999997","-9","NaN","3,87034468625823","2,63582644291257","-1,2576031003172"
"3088","-5,99999999999999","-9","NaN","3,16363188474146","3,11507031600116","-0,360204761765312"
"3096","-6","-9","NaN","3,03076412612933","2,20180270112391","-0,103170444129535"
"3109","-6","-9","NaN","3,00578390610117","2,03652175974601","-0,0295502493907077"
"3121","-6","-9","NaN","-0,622896300601942","0,187587175345661","1,70511451330419"
"3129","-6","-9","NaN","0,694882286753403","0,852971512118722","1,20196006611143"
"3141","-6","-9","NaN","0,942635386560249","0,973391143526257","1,0578457364501"
"3146","-6","-9","NaN","-2,63476873624067","-0,823838049318601","-2,41058841771239"
"3162","-6","-9","NaN","-1,30734982777629","-0,149096197123565","-1,40402306961778"
"3170","-6","-9","NaN","-1,05778426913849","-0,0269830654399796","-1,11572095639925"
"3178","-6","-9","NaN","-1,01086391290351","-0,00488332925040879","-1,03314498789048"
"3199","-6","-9","NaN","-1,00204250404712","-0,000883772995360462","-1,00949344229813"
"3211","-6","-9","NaN","-1,00038400738477","-0,000159943077207628","-1,00271912745799"
"3219","-6","-9","NaN","13,4958626915826","1,81899349738523","0,712799527663038"
"3240","-6","-9","NaN","-2,65067611030661","1,14821944195229","1,91773956529614"
"3248","-6","-9","NaN","-1,49834868255856","1,02682439243143","-0,450717859178961"
"3260","-6","-9","NaN","3,34228197466123","-2,63319027398801","1,58448298932911"
"3283","-6","-9","NaN","-3,18361564698303","4,16149654537945","-2,25974810397415"
"3308","-0,788749319642874","-7,2059056034643","NaN","4,02543806898191","-1,24686252380293","2,06633755203786"
"3327","-2,41862584343616","-11,4246803071451","NaN","-6,67916046307563","3,41239075412645","-0,408156177834818"
"3327","-2,84714717651744","-10,2933496583864","NaN","3,55625533234732","0,43658858402303","-1,83048311274717"
"3327","-2,95981247982421","-10,0604023384361","NaN","1,48059680781264","0,898035178628072","-1,23786834789272"
"3333","-2,98943404026774","-10,0124371799463","NaN","4,71433983346451","-2,65649823120666","-1,06813064595864"
"3347","-2,99722203548327","-10,0025608850422","NaN","6,94629356370667","2,33825588474231","-1,01951409239549"
"3347","-2,99926962745915","-10,00052730058","NaN","5,36591903083671","1,24219428000241","-1,00558925864656"
"3364","-2,99980797305177","-10,0001085741441","NaN","5,06879575600788","1,04383172899492","-1,00160088471372"
"3377","-2,99994951295841","-10,0000223560247","NaN","-2,2350332819909","-0,811089884281526","-1,00045852804973"
"3379","-2,99998672612677","-10,0000046032308","NaN","0,391787413088818","-0,146789065365201","0,713447012287635"
"3391","-2,99999651008051","-10,000000947831","NaN","-0,926340777586269","-1,84558796986434","3,63150336356479"
"3405","-2,99999908244279","-10,0000001951637","NaN","5,26181597737351","4,30403488587941","2,46729789410024"
"3412","-2,99999975875913","-10,0000000401853","NaN","3,4252398126392","2,41697860375443","2,13384423636945"
"3429","-2,99999993657381","-10,0000000082744","NaN","-4,16801889825033","-1,56258111816167","0,324757543089244"
"3432","-2,99999998332421","-10,0000000017037","NaN","-1,59561333733869","-0,282792112609618","0,806595937729467"
"3454","-2,99999999561566","-4,6177168107437","NaN","2,51200356691466","-0,0511790255396752","0,944604888333188"
"3454","-2,99999999884728","-6,50947454229333","NaN","-2,33971474526534","-3,64730714197165","-2,44302304888319"
"3460","-2,99999999969693","-6,89899805961631","NaN","-1,25187727603205","-2,29812562137134","-1,41331305036837"
"3471","-2,99999999992032","-6,97920313451423","NaN","-2,85934683893219","1,58409084049699","-1,11838180806399"
"3471","-2,99999999997905","-6,99571780886199","NaN","-2,16156419993282","0,286684889599018","-1,03390711342894"
"3495","-2,99999999999449","-10,587307065921","NaN","-0,218383523544394","0,0518835308072454","-1,00971173155643"
"3498","-2,99999999999855","-9,3268354192916","NaN","-0,853049740859264","0,00938975462847556","-1,0027816502287"
"3510","-2,99999999999962","-9,06729724424274","NaN","-2,78436401626721","-1,81732310864366","-2,71437506951377"
"3523","-2,9999999999999","-9,01385687968729","NaN","-0,335474957975458","0,671105304413103","-0,49103414529977"
"3543","-2,99999999999997","-9,00285320917414","NaN","-0,875063883538078","0,121454998151888","-0,854221157380469"
"3547","-2,99999999999999","-9,00058749175681","NaN","-2,78850285426366","0,0219806287911486","-0,958245782582003"
"3559","-3","-9,00012096784472","NaN","3,28773062881936","-1,81504444300341","0,725537656721341"
"3572","-3","-9,00002490795707","NaN","1,43011197803006","-1,14750475173975","0,207809696656406"
"3580","-3","-9,00000512868793","NaN","1,08086455254586","-1,0266950495431","0,0595211973139717"
"3592","-3","-9,00000105602558","NaN","1,01520319403424","-1,00483120483716","0,0170481598630423"
"3604","7,42250136071425","21,4996045236654","NaN","1,00285832421705","-1,00087433964642","0,00488296216863273"
"3620","4,16274831312768","10,7796442159747","NaN","1,00053738821667","-1,00015823585277","0,00139858610734798"
"3621","3,30570564696512","8,5723443197063","NaN","-6,24786641068968","-1,00002863713799","1,71397892999868"
"3641","3,08037504035157","8,11784890253849","NaN","-3,61062531955523","-1,00000518267926","1,20449902701477"
"3649","3,02113191946452","8,02426574939479","NaN","-3,1148025299485","-1,00000093794863","1,0585729498349"
"3662","3,00555592903346","8,00499645377265","NaN","2,41439177302943","0,819022273744874","4,44393325055173"
"3690","3,00146074508171","8,00102879782924","NaN","-4,98205027900108","5,60529198030512","-0,013582937464347"
"3697","-9,15920086693684","-18,9112041127977","NaN","0,251342137688567","-1,98556795389344","0,709687897217617"
"3699","-5,35643872456579","-9,45258367083201","NaN","-0,764737493455972","-2,17836568006771","-0,796730017697539"
"3711","-4,3566300403795","-7,50500072078934","NaN","2,66821498805309","6,06283203251918","-0,228200730535437"
"3723","-4,09376390057118","-7,10398247816403","NaN","1,31363799533566","3,55430385723814","-0,065361630991888"
"3730","-4,02465207092753","-7,02141057491608","NaN","-0,753025365193083","-5,994795659817","-0,0187209865450292"
"3748","-4,00648143472396","-7,00440855734861","NaN","-0,141574897520672","-2,72296835726035","-0,00536209595599993"
"3760","-4,00170407574294","-7,00090774666127","NaN","-0,0266172330102709","-2,1308410467292","-0,00153582039985949"
"3772","-4,00044802952762","-7,00018691012408","NaN","-1,81699611745532","-0,204656849435406","3,42671679708008"
"3781","-4,00011779432836","-7,00003848584189","NaN","4,282373663433","2,78198414695919","2,40864258673438"
"3800","-4,00003097006545","-7,0000079244505","NaN","2,42910482493714","1,32249913665173","2,1170440861387"
"3807","-5,73709170265839","-14,1763792178316","NaN","-3,35530038346897","-0,760657337765525","0,319945616250034"
"3813","-5,19379352632874","-11,6540342796791","NaN","-1,4428156418536","-0,137661906328286","0,805217697678761"
"3822","-5,05095150401433","-11,1346693230437","NaN","-4,70723666676375","-0,024913715431454","-4,19652490341559"
"3830","-5,01339598804203","-11,0277291682294","NaN","-3,32097438853024","-0,00450882334230711","-2,62913229885234"
"3830","-5,0035220254847","-11,0057095911178","NaN","-3,06034579745037","-0,000815995831214607","-2,18019711447102"
"3842","-5,00092599840161","-11,0011756368047","NaN","2,42463008196177","1,81887476656087","4,80270102278668"
"3858","-5,00024346020309","-11,0002420702057","NaN","0,455850189443828","1,14819795433782","2,80275426639584"
"3862","-5,00006400968985","-11,0000498436118","NaN","0,0857035457746377","1,02682050365546","2,22992620581984"
"3871","-5,00001682919977","-11,000010263079","NaN","0,0161129641457581","1,00485390921587","2,06585584447911"
"3883","-5,00000442467329","-11,0000021132255","NaN","0,00302936840262351","1,0008784486294","2,01886253999014"
"3891","-5,00000116331935","-11,000000435125","NaN","0,000569545915686139","2,81918142297899","-1,42175404937326"
"3907","-5,00000030585578","-11,0000000895947","NaN","0,000107079267676338","-1,489791434718","1,30635719632955"
"3912","-5,00000008041451","-11,000000018448","NaN","1,81201199278589","-0,269618813561028","1,08774733530089"
"3920","-5,0000000211423","-11,0000000037986","NaN","2,96465672461162","-0,0487949540667193","-2,40202395227195"
"3940","-5,00000000555866","-11,0000000007821","NaN","2,18136331555644","-0,00883079155688932","-1,40157002124915"
"3973","-5,00000000146146","-11,000000000161","NaN","-7,02586152562181","1,81742426841453","-1,11501835022485"
"3984","-5,00000000038424","-11,0000000000332","NaN","-3,75689473325534","1,14793544672757","-1,03294374626695"
"4000","-5,00000000010102","-11,0000000000068","NaN","7,7296487958632","-2,61127189131545","-1,00943580233919"
"4000","-5,00000000002656","-11,0000000000014","NaN","3,88921246817683","-1,29160404975945","-1,00270261812554"
"4010","-5,00000000000698","-11,0000000000003","NaN","-0,456804540717298","0,766248655099376","2,42638260094403"
"4022","-5,00000000000184","-11,0000000000001","NaN","0,726108889430548","0,138673809277024","1,40854686572388"
"4030","-5,00000000000048","-11","NaN","-0,863485618995557","3,66314173413959","2,83059501421908"
"4043","-5,00000000000013","-11","NaN","3,46164139775389","-4,97509844679991","-2,90283463505445"
"4059","-5,00000000000003","-11","NaN","2,27480047905945","2,91864128320654","-1,54501304602835"
"4059","-5,00000000000001","-11","NaN","2,05166472666096","1,34723101124909","-1,15610353883042"
"4081","10,6337520410714","-11","NaN","2,00971338911085","1,06284101995948","-1,0447114339977"
"4081","5,74412246969153","-11","NaN","-8,87012496986232","-0,807649629251821","2,41435036636266"
"4109","-9,43811001050465","-7,41181120692859","NaN","-1,29163941019845","1,67285598707636","-0,308477771473126"
"4126","-8,90393564388097","-5,08479423507599","NaN","-1,866822443779","2,94079427591503","-0,0883547139438076"
"4129","-3,28932530089452","-10,1938371942864","NaN","1,64902218652418","-3,28680468124625","-0,0253067034257026"
"4130","-9,02440261855484","-7,45172337139197","NaN","-8,74992971262201","0,405162120070723","1,70632995676404"
"4135","-7,53224872935613","-7,88710676992109","NaN","-2,08103358458157","0,0733252504797876","1,20230819543918"
"4152","-1,92868626069635","-7,97675465133357","NaN","9,85671619263961","-3,62477466232292","1,05794544822843"
"4152","-3,45541756578577","-7,9952136524551","NaN","-5,77084085411356","6,80106446920017","1,01659683120155"
"4158","-2,11973676505565","-11,5872032572918","NaN","2,72702681163454","0,0498624727781771","1,0047536918663"
"4161","-2,76856432411033","-10,3268140445132","NaN","1,3246950968377","0,82804643197734","1,00136156029337"
"4174","-2,93915175603365","-10,0672928430561","NaN","1,06104532089497","0,968880263426517","1,00038998035308"
"4182","-2,98400199632336","-10,0138559734583","NaN","1,01147701717539","0,994368026115775","-2,42704499048304"
"4196","-2,99579386182813","-10,0028530225765","NaN","4,62614149466438","-2,63906414785693","0,304841756218529"
"4198","-2,99889413712621","-10,0005874533353","NaN","-5,75423146891733","-1,29663382443815","0,0873132804357105"
"4211","-2,99970925047023","-10,0001209599335","NaN","-2,70582607180114","-1,05368406472428","-1,68856993033428"
"4223","-2,99992355716873","-10,0000249063281","NaN","-2,13270104620851","-1,00971561085719","-1,19722133927012"
"4239","-2,99997990192295","-10,0000051283525","NaN","-2,02494887673942","-1,00175830751291","-1,05648846246396"
"4262","-2,99999471588513","-10,0000010559565","NaN","7,05526871317464","-6,45738554467485","-1,01617951892707"
"4293","-6,47416573095742","-8,20590582089166","NaN","-1,67355205917614","2,83135814269806","0,708944180056815"
"4296","-7,12466596589688","-8,83649155884321","NaN","-5,75061699118131","-3,12563260872201","-3,22409972369917"
"4303","-2,8215260515708","-10,7604270922878","NaN","1,91883720145553","1,43433064793341","2,7901263647774"
"4325","-3,69015982498654","-10,1565761993281","NaN","0,360757011266496","-3,37846323109828","1,51273095668404"
"4325","-3,91853792425337","-10,0322399168108","NaN","0,0678252543150682","-2,24947090729956","1,14685724936229"
"4331","-5,71566584117842","-8,21254398299086","NaN","-1,79924016117189","3,4119186952548","1,0420630964624"
"4342","-5,18816031510704","-8,83785839361614","NaN","-1,15026365530635","1,43650315196191","1,01204778171788"
"4352","-8,52363756041291","-10,7607085312266","NaN","0,783741070820378","1,07899727384988","-0,71012759906774"
"4358","-2,18933868269554","-8,36253975264694","NaN","0,147349700173361","1,0142967335921","-3,63055261173556"
"4362","-3,52394737262415","-8,86874336308427","NaN","0,0277029429100257","1,00258738791154","-2,46702557818749"
"4370","-3,87483793801436","-8,97297352296717","NaN","0,0052083787410033","-0,818554184350558","3,00696879475704"
"4382","-3,96709283625458","-8,99443509693704","NaN","0,000979217594240423","-0,148139936152733","1,57483932442878"
"4400","-3,99134816566147","-8,9988541552766","NaN","-7,24778334317065","1,79221243982643","1,16464643086279"
"4400","-3,99772529051728","-8,99976406415075","NaN","0,825365880850585","1,14337267159461","-2,37999838602624"
"4407","-2,262318381362","-10,7940458160223","NaN","-2,46880821878124","-0,793075207717384","-1,39526142210505"
"4417","-2,80605137506207","-10,1634984829264","NaN","-2,08813976075532","-0,14352881321935","-1,11321143081506"
"4419","-2,94900771801151","-10,0336652537924","NaN","1,60741272963365","5,43109183657272","0,681152139232145"
"4433","-2,98659329075818","-10,0069318643979","NaN","0,302206675883961","3,4399730602282","0,195096723263614"
"4449","-2,99647515573562","-10,001427309722","NaN","-3,56716640730143","1,26060280587669","-1,65769841822027"
"4462","-9,94740750097104","-8,20619949453393","NaN","-5,91862376174527","1,86618570251908","2,23877761963403"
"4471","-0,82658764655757","-8,83655202789175","NaN","-4,36071688286378","-1,66226227156891","-2,07234395287603"
"4478","-2,42857416163962","-8,96634514666803","NaN","-4,06781770984875","-0,300832164183106","-1,30714253008661"
"4494","-2,8497627529223","-8,99307027711518","NaN","3,23521716262912","-0,054443869992714","4,0527627620564"
"4511","-4,69758371797986","-7,20447873469186","NaN","4,23223087999187","-0,00985311855809201","0,87437736369701"
"4518","-4,18340622765019","-9,63029211033375","NaN","0,60768571252665","3,63626169366443","0,96401895656075"
"4524","-4,04822051242578","-9,12978067733705","NaN","-2,69774200111035","0,477104199633645","-2,43746243932439"
"4525","-4,01267796545622","-9,02672256868509","NaN","2,30479440791367","4,54341248272673","0,301857973276873"
"4552","-4,00333324554268","-9,00550232663122","NaN","1,24531196839373","-0,358721867178032","1,80003700503702"
"4554","-4,00087636505133","-9,00113295988546","NaN","1,04612064664918","0,754101836504846","1,22914792332343"
"4566","-4,00023041077933","-9,00023328278892","NaN","-0,80332080406662","4,59354283820602","4,49278961681948"
"4574","-4,00006057878181","-9,00004803423343","NaN","-5,58700643241902","-3,98769428492159","-3,42674610546491"
"4586","-4,00001592715765","-9,00000989051782","NaN","-3,48637826490895","-1,54070561127646","-1,69507263663982"
"4595","-4,00000418751159","-9,00000203651304","NaN","-3,09144307242972","-1,09785558031869","-1,19908385517441"
"4607","-4,00000110096564","-9,00000041932945","NaN","-3,01719204187085","-1,0177096638167","-1,05702192735238"
"4630","-4,00000028946197","-9,00000008634228","NaN","6,05672706126272","2,63483983530094","2,41082437447785"
"4636","-4,00000007610431","-9,00000001777836","NaN","6,38668142719416","3,11489176216637","-0,309487691905523"
"4668","-4,00000002000907","-9,00000000366066","NaN","-0,987260049552283","-1,43627450009787","-1,80222232167649"
"4676","-4,00000000526071","-9,00000000075375","NaN","0,626378936398578","-0,259933449501707","-1,22977384533277"
"4685","-4,00000000138313","-9,0000000001552","NaN","0,929756199145599","-1,8660645640379","2,36134448416513"
"4697","-4,00000000036365","-9,00000000003196","NaN","0,986793593725924","-1,15673824857729","1,38991854065527"
"4705","-4,00000000009561","-9,00000000000658","NaN","0,997517088133692","-1,02836610523878","1,11168111386588"
"4713","-4,00000000002514","-9,00000000000135","NaN","-2,62445052966336","4,45193370206383","-0,681590455145939"
"4726","9,89666848094573","-7,20590560346457","NaN","-3,11740178197205","2,44374497011784","3,23193442286812"
"4734","5,55033108416851","-7,83649151407376","NaN","-2,21008062953038","3,89933032389693","-1,07430399262161"
"4746","4,40760752928637","-7,96633268653382","NaN","-2,03949686819542","-0,475286282473107","-2,02128227256575"
"4767","4,10716672046865","-7,99306771150373","NaN","-2,00742573268527","0,733006293449021","-1,29251735908721"
"4775","4,02817589261933","-7,99857260295379","NaN","-2,00139609818278","0,95168013138553","-1,08378330620818"
"4802","4,00740790537794","-7,99970609094982","NaN","-0,188270616809137","6,44832251872497","2,40315933604654"
"4816","4,00194766010894","-7,99993948247966","NaN","-0,847388269304451","4,44309142698107","1,40189521974933"
"4824","4,00051207186194","-7,99998753910345","NaN","-0,9713077525242","0,442144716779394","-0,598466850533074"
"4843","4,00013463211091","-7,99999743423158","NaN","-0,994605623948693","1,71806315745047","-0,171413866001388"
"4858","4,00003539699529","-7,9999994716939","NaN","9,87296535267472","1,94897575914595","-0,0490966432499471"
"4865","4,00000930645199","-7,99999989121881","NaN","5,91615714730912","1,99076575756759","-0,0140623418317458"
"4872","-8,15958247401407","-6,20590558106564","NaN","5,1722450002861","1,99832880936838","-0,00402775922553686"
"4877","-4,35653905533997","-6,83649150946169","NaN","5,03238346195377","1,99969755200303","-0,00115363746472684"
"4885","-3,35665641898946","-6,96633268558417","NaN","-2,24187908963229","3,81896770719306","-0,000330426752320074"
"4894","-3,0937708359414","-6,99306771130819","NaN","2,20249220654634","-2,30885255597125","-9,46413773712213E-05"
"4906","-3,02465389435037","-6,99857260291352","NaN","-5,20989726113587","-0,417850493915714","-5,14076214129196"
"4914","-3,0064819141318","-6,99970609094153","NaN","4,64448063363954","-0,0756215613743073","1,52757439773395"
"4927","-3,00170420178715","-6,99993948247795","NaN","0,685192021508188","-1,83270824888933","2,15110873231889"
"4936","-3,00044806266672","-6,9999875391031","NaN","0,940813537825197","0,668320939324917","-2,09745422070347"
"4947","-3,00011780304118","-6,99999743423151","NaN","0,988872463393235","0,120951090561804","-1,31433465456401"
"4967","-3,00003097235619","-6,99999947169389","NaN","0,997907932551042","0,0218894328267895","-1,09003225209388"
"4977","-1,26292458302258","-8,79409428775452","NaN","2,81159853530434","-7,27212827790377","-1,02578718667956"
"4999","-3,54329431556357","-8,16350846352764","NaN","-6,90737217483235","-0,954136893328986","-1,00738600869556"
"4999","-3,14284100725553","-8,03366730885418","NaN","3,51334967312469","3,64634507996421","-1,00211551283701"
"5006","-4,77463880921568","-11,595121080618","NaN","-2,15145352735396","-0,340093377245024","0,712972415961973"
"5013","-4,20366527791261","-10,3284443687033","NaN","-1,21648263480893","-0,0615492683981793","0,204210739598245"
"5025","-4,05354694979615","-10,0676285359423","NaN","-1,04070049729363","-0,0111390361995252","0,058490378075842"
"5031","4,67133942718832","-10,0139250945046","NaN","-1,00765202475206","-0,00201591555323838","0,0167529109104913"
"5045","1,96525549179095","-10,0028672549873","NaN","-1,00143864293312","-0,000364835470950497","0,00479839647490291"
"5054","1,25378153747722","-10,0005903838684","NaN","0,811721384431527","-3,63811091401711","0,00137436466136412"
"5076","1,06672333834103","-10,0001215633467","NaN","1,96460208787574","3,16060601997053","1,71397199245202"
"5082","-12,8791258183787","-4,61774184096715","NaN","-0,630638817606644","-2,24702368891544","-3,93623799400081"
"5092","-8,54571882978036","-6,5094796961566","NaN","-0,118565230471785","-1,22568330012685","-2,55458049139199"
"5100","-7,40639489178281","-6,89899912082564","NaN","-0,0222912283296775","-1,0408436122015","-2,15884386236894"
"5107","-7,10684789813334","-6,97920335302318","NaN","-0,00419093235401809","-1,00739177713517","-2,0454963220018"
"5119","-3,5539249487479","-10,5839066469256","NaN","-0,000787929392503322","2,63670714122088","-2,01303113186006"
"5124","-4,61980309572412","-9,32613525396633","NaN","-1,81213999815079","-4,16086007134109","3,13700263559355"
"5132","-4,90003998347403","-9,06715307627892","NaN","-1,15268892965001","-2,39106717566588","1,6120838323726"
"5135","-4,97371886832455","-9,01382719469569","NaN","-2,84069862251961","3,38629294859529","1,17531406448073"
"5156","-4,99309025842385","-9,00284709686803","NaN","6,90190112159062","-5,84422430702231","2,76379208920525"
"5164","-4,9981833153443","-9,00058623319873","NaN","1,92159730737319","3,76134900872604","-2,92196843941909"
"5176","-4,99952236373794","-9,00012070870056","NaN","1,98525965566759","1,49974219626358","-1,5504933819476"
"5184","-4,99987442157442","-9,00002485459783","NaN","-1,62675502673008","1,09044212156346","2,26948346358504"
"5204","-4,99996698336742","-9,00000511770097","NaN","8,75411611989545","1,01636799416591","1,36360755507864"
"5213","-4,99999131938451","-9,00000105376331","NaN","-5,16614678082611","1,00296223958907","1,10414507782315"
"5234","-4,99999771772348","-9,00000021697577","NaN","-1,78326950301375","1,00053609888262","1,02982940558659"
"5246","-4,99999939995198","-9,00000004467653","NaN","-1,14726104158763","1,00009702186582","1,0085437877262"
"5275","-4,99999984223751","-9,00000000919915","NaN","4,40828930866184","-2,63802732820485","-0,711131218827171"
"5292","-4,99999995852165","-9,00000000189416","NaN","-2,98319759197007","-19,4866706182762","-0,203683380867071"
"5306","-4,99999998909466","-9,00000000039002","NaN","2,25112643351243","5,65432752354584","-3,48549602041642"
"5306","-4,99999999713281","-9,00000000008031","NaN","1,2352219524033","0,204283935411762","-2,42547822918253"
"5331","-4,99999999924617","-9,00000000001654","NaN","1,04422364152046","-0,782051636027974","-2,12186617871756"
"5336","-4,99999999980181","-9,0000000000034","NaN","-2,61566931748257","-0,960556237643541","3,1058299213126"
"5344","-4,99999999994789","-9,0000000000007","NaN","-3,11575084261188","2,64518332271578","1,60315529194652"
"5356","-4,9999999999863","-9,00000000000014","NaN","-2,20977023949369","1,29774125775195","1,17275673715204"
"5372","-4,9999999999964","-9,00000000000003","NaN","-0,227446651330214","-2,58416040168564","-0,664097074022825"
"5377","-4,99999999999905","-9,00000000000001","NaN","-0,854753682647686","-1,28669747861297","-0,19021178325427"
"5392","-4,99999999999975","-9","NaN","-0,972692510179739","2,58615907784882","3,37267591547469"
"5406","-4,99999999999994","-9","NaN","0,817125891353592","-0,531963249351296","-4,46114927063422"
"5414","-4,99999999999998","-9","NaN","0,153626318152257","-3,73431829600442","-0,991348103506208"
"5426","-5","-9","NaN","0,0288829981753763","6,78123953004554","0,716056435166325"
"5442","-8,47416712023808","-5,41181120692859","NaN","1,8174220997474","-1,77274783976046","1,91867241413455"
"5446","-7,38758277104256","-6,6729830281474","NaN","1,15368200774113","-0,320827572343753","1,26312767358019"
"5462","-7,10190188232171","-6,93266537306762","NaN","-2,59509025375276","1,76095985338953","2,78894380848572"
"5467","-7,02679168011719","-6,98613542300745","NaN","-1,29988995012587","1,13771665486672","2,22597059160409"
"5482","-7,00704397315484","-6,99714520590757","NaN","2,56760197059975","-0,794098819804362","0,351144526256851"
"5491","13,843150745084","-10,587600974971","NaN","6,73069751220245","-0,143714064033663","0,814153741128008"
"5496","7,32500971122813","-9,32689593681192","NaN","-2,73457408664","-0,0260090201445711","0,946769606893403"
"5504","5,61128327596475","-9,06730970513928","NaN","-0,514122184953855","-0,00470704891291817","0,984753662691512"
"5516","5,16071642267542","-9,01385944545571","NaN","-0,096659155205592","-0,000851870210621095","0,995633118830089"
"5524","5,04225498968023","-9,00285373748024","NaN","-0,0181727078863506","-0,000154169389179714","0,9987492306666"
"5537","5,01110953145393","-9,000587600538","NaN","-0,00341661699008438","-2,79011993419945E-05","0,999641752577067"
"5545","5,00292087845861","-9,00012099024337","NaN","-0,000642351801940369","-5,04949088054213E-06","0,999897390180099"
"5557","5,00076794696566","-9,00002491256907","NaN","-0,000120767366858364","-9,13844521167292E-07","0,999970610325529"
"5565","5,00020190588223","-9,00000512963757","NaN","3,62396101677621","-1,81902260887787","-2,42716510714054"
"5580","5,00005308437575","-9,00000105622112","NaN","-3,13065769448308","-2,96724715397162","2,01838569685732"
"5594","5,00001395675509","-9,00000021748185","NaN","-3,21257284897217","3,28201730401298","-0,4218906275727"
"5597","5,00000366946036","-9,00000004478073","NaN","-4,03996542573462","1,41299391558804","-1,83441695657641"
"5613","5,00000096476145","-9,0000000092206","NaN","-3,19552196430418","1,07474262969558","-1,23899508595417"
"5615","5,00000025365165","-9,00000000189857","NaN","0,587224001384008","-4,44354059198833","2,35870332116197"
"5627","5,00000006668919","-9,00000000039093","NaN","-0,701588969342788","-2,44222600556488","1,38916205437586"
"5635","5,00000001753368","-9,00000000008049","NaN","-0,943896297472662","-2,08003298191119","1,11146443981348"
"5643","5,00000000460989","-9,00000000001657","NaN","0,82253981371455","-0,195461730013769","-2,39523085993736"
"5655","5,00000000121202","-9,00000000000341","NaN","0,154644179619966","-0,854396629781141","-1,39962433249774"
"5676","5,00000000031866","-9,0000000000007","NaN","-3,59490935760844","6,30244071613156","0,599117281818785"
"5684","5,00000000008378","-9,00000000000014","NaN","1,32412778184568","-3,67842212265382","-1,54197818104373"
"5697","5,00000000002203","-9,00000000000003","NaN","0,248946800047046","-1,48473429105345","-1,15523428777777"
"5711","-14,1079191613037","-9,00000000000001","NaN","0,0468040245838499","-1,08772602755024","-1,04446246167228"
"5717","-8,13170524073256","-9","NaN","0,00879953755915579","-1,01587644210815","-1,01273501187308"
"5725","-6,56046035276899","-9","NaN","-7,24631305936776","2,63517160728629","-2,71722592783224"
"5733","-6,14735424064445","-9","NaN","4,44962602819626","-0,523093081535453","4,64888434109347"
"5746","-6,0387418523516","-9","NaN","5,27254149178967","-1,91369055121478","1,04511949315427"
"5754","-6,01018586989468","-9","NaN","-5,63270300841599","-2,98437992685534","-4,12781183403422"
"5773","-6,0026780326498","-9","NaN","-2,68297773210821","-2,17815067383729","-2,60945138777599"
"5786","-6,00070409881017","-9","NaN","-2,12840537238387","-2,03224127364123","-2,17456007534175"
"5795","-6,00018511915249","-9","NaN","-2,02414125509795","-2,00583494692228","-2,04999778573729"
"5822","-6,00004867086853","-9","NaN","5,24342869160441","3,45601133604123","3,12641458539731"
"5824","-6,00001279637148","-9","NaN","-6,4501683128116","-2,19356195663365","3,32262953015914"
"5837","-6,00000336437643","-9","NaN","-1,83666786267485","-1,21600792645184","4,09240808409276"
"5850","-6,00000088454987","-9","NaN","-1,96929222882457","-1,0390925867155","3,31288933176285"
"5856","-6,0000002325627","-9","NaN","5,25374075495937","6,26901489314877","-2,05111675360732"
"5877","-6,00000006114456","-9","NaN","2,61172974408915","3,59161832754861","-0,58748425588297"
"5885","-6,00000001607591","-9","NaN","3,92700203176183","-4,16902013466532","1,54531013158899"
"5897","-6,00000000422662","-9","NaN","3,17428392682959","-1,57352152049472","1,15618863056848"
"5905","-6,00000000111125","-9","NaN","-0,591216925285361","2,53425036360147","-0,668842538536491"
"5914","-6,00000000029216","-9","NaN","2,51283012816303","-0,541357561617227","4,94916404689631"
"5930","-6,00000000007681","-9","NaN","-3,33955934502327","-0,0979735686983305","0,131126103558132"
"5934","-6,0000000000202","-9","NaN","3,99611938452647","-0,0177310170653411","4,17829238959262"
"5946","-6,00000000000531","-9","NaN","-3,06068889235357","7,27288085782722","-5,23040326654067"
"5955","-6,0000000000014","-9","NaN","0,424565577327522","-2,68377179358044","2,2154775829035"
"5967","-6,00000000000037","-9","NaN","0,0798217840716912","-0,485702461425871","1,34813910133523"
"5967","-6,0000000000001","-9","NaN","0,0150071450740165","-0,0879012446585202","1,09971457769627"
"5975","-6,00000000000002","-9","NaN","0,00282146541688799","-0,0159081524722647","1,02856041440623"
"5987","-6,00000000000001","-9","NaN","0,000530458462247967","-0,00287901856297881","1,00818032117169"
"5996","-6","-9","NaN","9,9730508297649E-05","9,09459117971796","-2,42481366817004"
"6008","-6","-9","NaN","1,87501472653631E-05","5,74102910660242","-1,40809748940162"
"6066","-0,788749319642874","-9","NaN","-1,81198833583176","-5,78002502394133","0,59669038619234"
"6066","-2,41862584343616","-9","NaN","-1,15266041589965","-1,86507724887749","0,170905048144246"
"6073","-2,84714717651744","-12,5881887930714","NaN","4,40727418234574","-2,97558201018458","0,0489509067970332"
"6086","-2,95981247982421","-11,3270169718526","NaN","2,45258713905656","-2,17655844837586","0,0140205997556574"
"6094","-2,98943404026774","-11,0673346269324","NaN","-1,5388936562802","-2,03195311656781","3,43117249269233"
"6118","-2,99722203548327","-11,0138645769926","NaN","-0,2893245324176","-2,00578279695924","2,40991879444738"
"6118","-2,99926962745915","-11,0028547940924","NaN","-0,0543953669033912","-2,00104655646346","2,11740961966442"
"6131","-2,99980797305177","-11,0005878181004","NaN","-5,44620235473723","5,2759003707386","0,320050312967558"
"6139","-2,99994951295841","-11,0001210350407","NaN","-3,45990595230208","2,5928644444582","0,805247685085904"
"6155","-2,99998672612677","-11,0000249217931","NaN","0,537517659822309","-5,16879461547189","-0,769359625071473"
"6168","-2,99999651008051","-11,0000051315368","NaN","1,10105769489635","1,0645641804029","1,49321708727874"
"6196","-2,99999908244279","-11,0000010566122","NaN","0,207007808135823","0,1926622241147","1,14126805458496"
"6208","-2,99999975875913","-11,0000002175624","NaN","0,0389191527635902","0,0348675385515739","1,0404622300422"
"6217","-2,99999993657381","-11,0000000447973","NaN","0,00731711748207026","0,00631024192849402","1,01158925890781"
"6236","-2,99999998332421","-11,000000009224","NaN","-1,81061618337149","0,00114201216518986","1,00331941472065"
"6237","-2,99999999561566","-11,0000000018993","NaN","-2,96439430108124","1,81922912206368","-2,42620593704225"
"6252","-2,99999999884728","-11,0000000003911","NaN","-2,18131397779687","1,14826208473085","-1,40849626535669"
"6252","-2,99999999969693","-11,0000000000805","NaN","-2,03408850353809","1,02683210981729","0,596576168123175"
"6258","-2,99999999992032","-11,0000000000166","NaN","-2,00640891611108","-2,63318887731438","3,59802902291713"
"6266","-2,99999999997905","-11,0000000000034","NaN","7,05875437666929","-1,29557053233154","0,744131773389547"
"6278","-2,99999999999449","-11,0000000000007","NaN","-1,67289672606937","4,4035756977606","2,6402921436336"
"6286","-2,99999999999855","-11,0000000000001","NaN","-2,12651006119939","-1,20305163032359","0,469815191036049"
"6305","-2,99999999999962","-11","NaN","-1,2117930601573","-0,217725344408297","0,848143589375473"
"6319","-2,9999999999999","-11","NaN","0,772173041921316","-3,67744828780581","-0,757073309157148"
"6327","-2,99999999999997","-11","NaN","-1,66681704442376","4,97250928167536","1,49673615422107"
"6336","-2,99999999999999","-11","NaN","-1,12536703156756","2,5379574664934","1,14227599156386"
"6348","-3","-11","NaN","-1,02357002229546","-1,54068665919412","-0,672827419630472"
"6364","-8,21125068035713","-5,61771681039289","NaN","0,807560504984378","1,54019273656791","1,52086600135568"
"6368","-6,58137415656384","-7,5094745422211","NaN","0,151827947662281","1,09776276150715","1,14918730232348"
"6377","-6,15285282348256","-7,89899805960144","NaN","3,65252861191045","-0,801329577797539","-0,670847870562068"
"6389","-6,04018752017579","-7,97920313451117","NaN","2,31068882894962","-0,145022668946965","-0,192145357573966"
"6397","-6,01056595973226","-7,99571780886136","NaN","-3,37756355450099","-0,0262458482642142","-1,76861293603469"
"6405","-6,00277796451673","-7,99911827284945","NaN","5,80096614484091","1,8142725340052","-4,64730407876329"
"6417","-6,00073037254085","-7,99981844743897","NaN","3,52660443225979","-2,49067983344964","5,09606816215021"
"6426","-6,00019202694823","-7,99996261731036","NaN","-7,77294524678034","2,36826529319237","-2,25395406587454"
"6453","-6,00005048704159","-7,99999230269473","NaN","-3,89735255333855","1,24762530941594","-1,35915959927982"
"6465","-6,00001327387323","-7,99999841508171","NaN","-3,16870958356926","1,0448146234275","-1,10287108696033"
"6467","-6,00000348991949","-7,99999967365644","NaN","-3,03171877483629","1,00811044104371","-1,02946450701476"
"6485","-6,00000091755721","-7,99999993280403","NaN","9,67797963925642","1,00146780780229","-1,00843927287322"
"6487","-6,00000024124087","-7,99999998616397","NaN","1,44352266316396","-0,818756803223044","-2,71599553515695"
"6499","-6,00000006342619","-7,99999999715109","NaN","1,89537773151249","-0,148176605621178","-2,20507662640239"
"6526","-6,00000001667579","-7,99999999941339","NaN","-5,26763728204324","1,79220580347563","-2,05873838680763"
"6526","-6,00000000438434","-7,99999999987921","NaN","4,63362503976362","1,14337147056406","1,41033274331933"
"6535","-6,00000000115271","-7,99999999997513","NaN","-1,12884077950608","-2,61209786856948","-1,30962850571577"
"6536","-6,00000000030307","-7,99999999999488","NaN","5,22374432886751","-1,29175353310461","0,62489403550021"
"6548","-6,00000000007968","-7,99999999999895","NaN","3,41808203285538","-1,0528008415237","0,178983184065898"
"6569","-6,00000000002095","-7,99999999999978","NaN","3,07860282494144","-1,0095557672805","0,0512646598598498"
"6577","-6,00000000000551","-7,99999999999995","NaN","3,01477797083644","-1,00172937941298","0,014683308737979"
"6596","-6,00000000000145","-7,99999999999999","NaN","3,00277837879498","-1,00031297886044","0,00420561759473733"
"6600","-6,00000000000038","-8","NaN","3,00052235782665","-1,0000566421494","0,00120457995325097"
"6600","-6,0000000000001","-8","NaN","3,00009820752287","-1,00001025095779","0,000345017784210771"
"6616","-6,00000000000003","-8","NaN","-4,2479489802346","4,45706547528428","9,88205648786096E-05"
"6620","13,1079191613095","-9,7940943965357","NaN","-1,61064084330171","0,625651262403301","1,71360664900044"
"6628","7,13170524073409","-9,1635084859263","NaN","4,32117013449697","2,75127372368062","1,204392397675"
"6641","5,56046035276939","-9,03366731346619","NaN","-4,81156856678703","-1,50208120420506","-0,655035935767769"
"6649","5,14735424064455","-9,00693228849628","NaN","-6,15258149590275","-2,09086542950536","-1,90119482168657"
"6661","5,03874185235163","-9,00142739704621","NaN","-4,40470284106457","-1,19742215991036","-1,25812171261972"
"6669","5,01018586989468","-9,00029390905018","NaN","3,17188001605652","0,783293463391521","2,35322504109118"
"6681","5,0026780326498","-9,00006051752034","NaN","0,59633925891185","0,141758537032875","1,38759295632951"
"6696","5,00070409881017","-9,00001246089655","NaN","-7,13585080977474","3,66370000063133","-0,60256332849702"
"6698","5,0001851191525","-9,00000256576842","NaN","-4,5895654748896","2,30109236087574","-0,172587186000923"
"6710","5,00004867086853","-9,0000005283061","NaN","-2,29885124673349","0,235468516261834","1,66414563714419"
"6719","5,00001279637148","-9,00000010878118","NaN","0,755805394279461","6,31870429067761","-2,23693099651744"
"6731","5,00000336437643","-9,00000002239866","NaN","-2,48188615640857","-4,6754787806724","2,07287286572589"
"6739","5,00000088454987","-9,00000000461201","NaN","1,53338520255367","-1,66517916872116","-0,406284322470064"
"6751","5,0000002325627","-9,00000000094964","NaN","0,288288898283774","-1,12038250059483","-0,11636862818436"
"6759","5,00000006114456","-9,00000000019554","NaN","5,49017624229337","-1,02178653080391","-1,74690883976596"
"6778","5,00000001607591","-9,00000000004026","NaN","-0,155810320958525","0,815079570382858","-1,21393086628082"
"6795","5,00000000422662","-9,00000000000829","NaN","-6,46526919151468","0,147511109007052","2,36588225645085"
"6806","5,00000000111125","-9,00000000000171","NaN","-3,65149881178895","0,026696200065804","1,39121825690494"
"6809","5,00000000029217","-9,00000000000035","NaN","2,31348850387886","-1,81419103043658","2,82563172539626"
"6821","5,00000000007682","-9,00000000000007","NaN","0,434954668184276","2,49069458376633","-1,1906778838044"
"6837","5,0000000000202","-9,00000000000001","NaN","0,0817750177094463","1,26978226326896","-0,341035930467102"
"6837","5,00000000000531","-9","NaN","0,0153743688952595","1,04882453479547","-0,0976800757379892"
"6850","5,0000000000014","-9","NaN","-7,24507693756409","2,82785858849742","3,3991790003138"
"6858","5,00000000000037","-9","NaN","-4,61010087590414","2,14982382447999","2,40075516539991"
"6872","5,0000000000001","-9","NaN","-4,11470393027365","2,02711474966099","2,11478495786364"
"6878","5,00000000000003","-9","NaN","-4,02156527246535","-1,63313772584609","-1,39427979166082"
"6888","5,00000000000001","-9","NaN","3,24391299730523","-0,2955612750638","-0,399351925947621"
"6901","5","-9","NaN","-1,20210981534988","1,76553248613325","1,5991953049538"
"6907","5","-9","NaN","-1,03799829025513","1,13854419876749","1,17162251112242"
"6925","5","-9","NaN","6,24082345621262","-0,793949052931299","-2,37800028557043"
"6927","5","-9","NaN","3,60930118679102","-0,14368695959093","-1,39468912286494"
"6939","5","-9","NaN","3,11455358221173","-0,0260041148487548","-1,11304751191936"
"6956","5","-9","NaN","-0,602446716218074","-0,00470616116446739","2,39477743380426"
"6976","5","-9","NaN","0,698726975056491","-0,000851709548075681","1,39949446143412"
"6976","5","-9","NaN","0,943358219253101","-0,000154140312864822","1,11442386494685"
"6989","5","-9","NaN","0,989350884212812","1,81899454755534","-0,680804871841115"
"6997","5","-9","NaN","-0,813993981453068","1,14821963200951","3,2321594309387"
"7005","5","-9","NaN","-0,153037493600382","1,02682442682752","2,35291714386376"
"7029","5","-9","NaN","-0,0287722943671878","1,00485461922196","2,10108311254662"
"7038","5","-9","NaN","1,80658243549366","-4,45618875335301","-3,11178264152852"
"7050","5","-9","NaN","1,15164406263753","-2,44451503890297","-1,6048602799246"
"7058","5","-9","NaN","1,02851031800505","-2,08044724557148","-1,17324508263107"
"7079","5","-9","NaN","1,00536017183008","1,62348574105377","0,663957201302339"
"7080","5","-9","NaN","1,00100775593043","0,293814482440638","0,19017172067813"
"7085","5","-9","NaN","1,00018946631703","0,0531738270986149","0,0544692990372618"
"7095","5","-9","NaN","-0,811956239802385","0,00962326929845828","1,72917953144663"
"7099","5","-9","NaN","-0,152654381584899","0,00174159576324838","1,2088528084438"
"7107","5","-9","NaN","-0,0287002661901329","0,000315189745656462","1,05981996711883"
"7114","5","-9","NaN","-0,00539588363486561","1,81907948576253","1,01713373400512"
"7127","5","-9","NaN","-0,00101447004038661","1,1482350039187","1,00490747245606"
"7128","5","-9","NaN","-0,000190728624352115","1,02682720879808","1,00140560638445"
"7140","5","-9","NaN","-3,58585337161725E-05","1,00485512269619","1,0004025961074"
"7149","5","-9","NaN","3,62397698032791","-2,63716621874295","1,00011531224352"
"7157","5","-9","NaN","2,30532088983072","-1,29629034186468","1,00003302792367"
"7175","5","-9","NaN","-1,56658090973289","4,40344542839014","-0,713568884738091"
"7177","5","-9","NaN","1,51746189959913","-3,02209764964847","-0,204381581172465"
"7190","5","-9","NaN","1,0972870487408","-1,36595429165289","-0,0585393108023326"
"7198","5","-9","NaN","-2,60569296504272","2,57181537348829","-1,73034527095368"
"7206","5","-9","NaN","2,32210037588038","-2,35358158141026","3,93154833246887"
"7218","5","-9","NaN","3,06055749223659","4,21209944334042","0,839658926122326"
"7230","5","-9","NaN","2,19939344040513","2,40034035200729","0,954074844199466"
"7239","5","-9","NaN","-3,39848799337918","0,253430175185097","0,986846040853435"
"7250","5","-9","NaN","-1,45093526402016","0,864887617342785","0,996232421246843"
"7255","5","-9","NaN","4,35119608324369","-0,843474752359731","-2,42823580544446"
"7274","5","-9","NaN","0,630052138994346","-0,152649999657811","-1,4090776636246"
"7288","5","-9","NaN","2,74243865214181","3,61041866304611","2,30998798771953"
"7295","-7,15958492083329","-10,7940943965357","NaN","3,95157637031395","-1,34659525239293","4,8023656172317"
"7308","-3,35653969864896","-10,1635084859263","NaN","3,17890410248763","-0,243703518382639","3,51623654363223"
"7320","-2,35665658812597","-10,0336673134662","NaN","-0,590348294658095","-0,0441048672691644","-5,42003039787434"
"7341","-2,09377088041017","-10,0069322884963","NaN","0,701001576778675","-0,00798199110845988","-2,97957076790422"
"7349","-2,02465390604195","-10,0014273970462","NaN","0,943785862889828","-1,8204670047394","1,14658640842637"
"7369","-2,00648191720571","-10,0002939090502","NaN","-0,822560576314949","-1,14848611371274","0,328407177102534"
"7380","-3,73878776271437","-6,41187172444893","NaN","-1,96663994416988","2,61117223295003","3,52121961659563"
"7383","-3,19423944840048","-7,67299548904395","NaN","-1,18173617697479","1,29158601383199","2,43571024073521"
"7390","-3,0510687442579","-7,93266793883605","NaN","-1,03416788041982","1,05277052429507","2,12479684840404"
"7398","-3,01342681242948","-7,98613595131354","NaN","0,80556802140116","1,00955028054254","-1,39141216939906"
"7419","-3,00353012972291","-7,99714531468876","NaN","1,96344520554389","-4,45533894404103","-0,398530576832492"
"7431","-3,00092812913906","-7,99941220429829","NaN","1,18113554011117","-2,44436124249019","-0,114147787523689"
"7439","-3,00024402040899","-7,99987896957133","NaN","-2,58992876622323","-0,261396968379974","3,39446229104432"
"7448","-3,00006415697719","-7,99997507915655","NaN","-1,29891954846103","-0,866329428108395","-1,02775249157818"
"7456","-3,00001686792404","-7,99999486865869","NaN","-4,68018303003738","4,48125870395547","-0,294370569927228"
"7468","-3,00000443485454","-7,99999894342807","NaN","3,93207935941175","-4,82703763666534","-0,0843141059246848"
"7480","-3,00000116599617","-7,99999978244592","NaN","3,36324664474003","2,94543696683922","-0,0241493857882477"
"7487","-3,00000030655956","-7,9999999552044","NaN","2,25630146465914","1,35208042859787","-0,00691690705313967"
"7488","-3,00000008059955","-7,99999999077633","NaN","2,04818676139045","-2,5743262313233","-1,71555949661872"
"7514","-3,00000002119095","-7,99999999810079","NaN","-5,23890794071533","0,534104729002012","-1,20495173552247"
"7517","-3,00000000557145","-7,99999999960894","NaN","-0,796949193275125","-1,72236147471865","-2,77228096000573"
"7529","-3,00000000146482","-7,99999999991948","NaN","4,4741507873285","0,688291228882807","1,20595869834171"
"7557","-3,00000000038513","22,4996047411236","NaN","-1,15882323692291","1,94358770826126","-1,3681656579887"
"7571","-3,00000000010126","11,7796442607505","NaN","-0,217868200189866","-2,46727668919344","-1,1054506172039"
"7588","-1,26291643990758","-22,7213548087168","NaN","5,39501458817381","-1,26554414993061","-1,03020334033715"
"7588","-1,80620861448572","-11,8253038422365","NaN","3,45028223557154","-1,0480575313993","2,41850579856488"
"7591","-1,94904905884099","-9,58174589260571","NaN","3,08465672512914","-1,00869733460443","1,40629077894759"
"7616","-8,93493840041806","-9,11978473907985","NaN","-0,60806756867976","2,63647086462021","-2,31078621184198"
"7619","-6,77164355550783","-9,02466434898605","NaN","0,697670209045644","-0,522857945117884","0,338140788045793"
"7626","-4,46579421635216","-7,21098413112632","NaN","0,943159538642056","-0,0946255533079541","0,0968508442532056"
"7628","-4,85954851719949","-7,83753721137666","NaN","4,61329725266498","-0,0171251014208413","-3,39941651016834"
"7636","-4,96307299616609","-7,96654800146802","NaN","3,30331301410791","-0,00309925901008655","-2,40082319336561"
"7674","-4,99029128361652","-7,99311204605519","NaN","4,86901717632531","-3,63860578330768","-2,11480444254619"
"7695","5,42505394186161","-9,79267612822206","NaN","4,16338230206948","-2,29655087074204","-2,03288247847554"
"7709","-9,99616549215784","-7,3691220599976","NaN","0,406733480531546","3,40339827851052","-0,29583990926629"
"7720","-1,83940692401615","-9,6641930935872","NaN","-0,111538934249121","1,4349611477591","0,915265043469551"
"7724","-2,69486100031184","-9,13676107975189","NaN","0,791021633559175","-0,740304237795396","-1,45142661581673"
"7748","-2,91977394053315","-9,02815987265674","NaN","0,960710366236719","-0,133978452028339","-1,12929835857098"
"7748","-2,9789072500593","-9,00579827557286","NaN","0,992613229074647","-0,0242470928727428","-1,03703384989585"
"7760","-8,20570504963542","-5,41300510435947","NaN","6,43458680998135","1,81463426387201","-1,01060729659113"
"7760","-6,57991611907759","-6,67322885831838","NaN","4,4577221353492","1,14743051852282","-1,00303815944841"
"7762","-6,15246948145746","-6,93271599087733","NaN","4,08605548684059","1,02668161499689","-1,00087019465843"
"7776","-6,04008673325529","-6,9861458454981","NaN","4,0161791319306","1,00482877348581","-1,00024924259454"
"7783","-6,01053946119394","-6,9971473519568","NaN","4,00304180848471","1,00087389962639","-1,00007138847651"
"7791","-6,00277099761537","-6,99941262378319","NaN","-3,24739555929584","-0,818864287273508","0,713557897445046"
"7803","-6,00072854082795","-6,99987905594562","NaN","-0,610536795660938","-0,148196057821994","0,204378434173803"
"7812","-6,00019154536079","-6,9999750969415","NaN","-0,114785886735878","3,61122472655639","-1,6550399352169"
"7820","-6,00005036042433","-6,99999487232071","NaN","-0,0215806809472938","2,2915955139966","-1,18761762256475"
"7832","-6,00001324058348","-6,9999989441821","NaN","1,80793451734906","-1,58527264337341","2,37341893927362"
"7845","-6,00000348116707","-6,99999978260118","NaN","-9,72005290104139","1,53212367409666","-2,03377976322644"
"7877","-4,26291735513701","-10,5881887483078","NaN","-0,451432778813301","-0,722720001194732","-1,29609691104996"
"7897","-4,80620885511458","-9,32701696263552","NaN","-1,70885675864695","-0,130796099855302","-1,08480856740676"
"7901","-3,21196556198723","-7,27324022849882","NaN","1,67872102100981","-1,84269360204505","0,689287334386213"
"7912","-3,79281279105409","-9,64445048721118","NaN","2,12760507605205","-1,15250862898259","-1,51615152532443"
"7930","-2,20844351651603","-9,13269596647208","NaN","-0,599992929150141","2,61044424796548","-2,86141531894517"
"7930","-2,7918867873977","-9,02732284305371","NaN","-0,112803554015446","1,29145426488831","-2,24672800159555"
"7936","-6,4194507352885","-7,21153152995163","NaN","-3,64519170828577","4,69079156767822","-0,357089897987371"
"7942","-5,37319693390846","-7,83764992386212","NaN","1,31467429067089","3,30599532648185","0,897721720309931"
"7942","-5,0981196092377","-7,96657120960035","NaN","0,247169466764335","3,05537828648939","0,257126941174226"
"7947","-1,5516301381052","-9,78721122127538","NaN","0,0464698714610062","3,01002222697242","0,0736467241260337"
"7952","-2,61919975227974","-9,16209120157057","NaN","-3,61524700797171","-2,45525353232934","-1,69248432801543"
"7966","-2,8998813545636","-9,03337548667564","NaN","3,13229599906154","-2,26336822837984","0,515235837117009"
"7972","-2,97367716217616","-9,00687219972486","NaN","1,40088900255501","-1,22864129494136","0,147574701362356"
"7993","-2,99307929319179","-9,00141502443148","NaN","1,0753703953111","-1,04137894287519","0,0422685902518901"
"8001","-2,99818043240453","-9,00029136145948","NaN","-0,797821613254826","-2,82651110346494","1,72568498423989"
"8016","-2,99952160576568","-9,00005999295714","NaN","-0,149996956752402","-2,14957995993138","-0,505726450202514"
"8021","-2,99987422229105","-9,00001235288604","NaN","-0,0282006486928749","-2,02707061565087","-0,144851007020949"
"8029","-2,99996693097255","-9,00000254352845","NaN","-0,00530195147900032","-2,00489917387365","-0,0414884652099587"
"8053","-2,99999130560903","-9,00000052372676","NaN","5,43497877300558","-5,63893152750161","-1,725461539534"
"8061","-2,99999771410168","-9,00000010783827","NaN","1,64580396657589","1,16045750734727","3,93294713890638"
"8069","-2,99999939899975","-9,0000000222045","NaN","-10,7505347641653","-16,9802076708148","2,55363791922833"
"8070","-2,99999984198715","-9,00000000457203","NaN","-6,08114733919622","-11,2632609281788","2,15857388928954"
"8071","-2,99999995845582","-9,00000000094141","NaN","7,48067852787031","6,14258011541957","0,331840651214832"
"8079","-2,99999998907735","-9,00000000019384","NaN","-0,593571551608","2,11166913994004","4,23578138258514"
"8120","-2,99999999712826","-9,00000000003991","NaN","-0,111596282774009","0,382164721098588","3,35395454924993"
"8128","-2,99999999924497","-9,00000000000822","NaN","-0,0209810094423142","0,0691632374077831","3,10138024791459"
"8140","-2,99999999980149","-9,00000000000169","NaN","-5,43992018357549","1,83153943719873","-0,3981191908739"
"8152","-2,99999999994781","-9,00000000000035","NaN","-3,45872485299316","1,15048997548383","0,599548386974221"
"8161","-2,99999999998628","-9,00000000000007","NaN","5,9737152991415","-4,42983202243564","-0,828276358540818"
"8192","-2,99999999999639","-9,00000000000001","NaN","0,935098957247478","-2,43974506214402","-0,237236285699983"
"8192","-2,99999999999905","-9","NaN","-4,44817750730244","1,558460900152","1,64562873499154"
"8209","-8,21125068035688","-7,2059056034643","NaN","-2,46027729706008","0,282046445621948","1,18492205101738"
"8222","-6,58137415656378","-7,8364915140737","NaN","-2,08653587803867","0,0510440765502786","1,05296567996299"
"8251","-6,15285282348254","-7,96633268653381","NaN","10,6676735776986","-5,44782949822933","-2,41198617156962"
"8263","-6,04018752017578","-7,99306771150372","NaN","6,06556876173428","-3,44300220133646","-1,40442341659135"
"8271","-6,01056595973226","-7,99857260295379","NaN","-0,235639983178801","-1,26115101243278","2,3113210648592"
"8279","-6,00277796451673","-7,99970609094982","NaN","1,57968148731551","-1,86628491560206","1,37559075009143"
"8292","-6,00073037254085","-7,99993948247966","NaN","3,73296855966006","-1,97580057075747","-2,31957936492624"
"8300","-6,00019202694823","-7,99998753910345","NaN","1,32581219382631","-0,176598002934286","-1,377956106067"
"8312","-6,00005048704159","-7,99999743423158","NaN","1,87324720523292","-4,48902760553272","4,03248022040288"
"8320","-6,00001327387323","-7,9999994716939","NaN","3,78816130395637","-3,26948057762149","-0,845010340108742"
"8329","-6,00000348991949","-7,99999989121881","NaN","-0,475802982044952","2,40829739401342","1,47154908424941"
"8341","-6,00000091755721","-7,99999997760134","NaN","4,34652074985697","0,435847777711867","-0,578516475361482"
"8349","-6,00000024124087","-7,99999999538799","NaN","5,06514872130132","-3,55916622116554","-1,87927799117056"
"8361","-6,00000006342619","-7,99999999905036","NaN","4,20025662883725","-2,28217409289553","-1,25184425774331"
"8370","-6,00000001667579","-7,99999999980446","NaN","0,413666154083589","-2,05106717784195","2,35502304010826"
"8378","-6,00000000438434","-7,99999999995974","NaN","1,70175632581566","-2,00924201306357","1,3881079421843"
"8390","-6,00000000115271","-7,99999999999171","NaN","1,94392776185167","-2,00167259694145","1,11116251925465"
"8398","-6,00000000030307","-7,99999999999829","NaN","1,98945796285684","-2,00030270250749","1,03183935277772"
"8425","-6,00000000007968","-7,99999999999965","NaN","3,81000987222763","-0,181032338867628","-2,41803720917348"
"8434","14,8450027214076","-7,99999999999993","NaN","3,15228844863938","-0,851785233829622","0,307421779852239"
"8439","8,32549662624986","-7,99999999999998","NaN","-0,595352254206052","-0,973176453780158","1,80163059972638"
"8447","6,61141129392879","-8","NaN","2,51205265266854","4,46192179032931","4,65676105265364"
"8463","6,16075008070277","-8","NaN","-6,9636892387682","-1,19249229705874","-3,37978113538328"
"8470","-9,59148820214243","4,55866077574993","NaN","-3,74520583730737","-0,215814342075677","-1,68162085216561"
"8478","-4,73301061162462","0,144559401484098","NaN","-3,14010476263511","-0,0390575522881244","-1,1952309727979"
"8481","-3,45563698028427","-0,764328805736684","NaN","4,22162660836183","-1,82609098386879","0,657659966246426"
"8488","-3,11979445273445","-0,951473980526061","NaN","1,60569202315216","-1,14950392771343","0,188368056189291"
"8497","-3,03149593103043","-0,990008220676498","NaN","-2,51010869195142","-4,6651017425109","0,0539526904686739"
"8505","-3,00828079805726","-0,997942636648712","NaN","-6,71988830787947","3,97474372927414","-3,41170347038674"
"8517","-3,00217715794459","-0,999576377357608","NaN","2,73660630502871","5,17640673834502","1,02281424445075"
"8525","-3,00057241061585","-0,999912773724177","NaN","4,13848798057524","-3,88220900049802","2,00653449366113"
"8542","-3,00015049616127","-0,999982039621039","NaN","-4,84591429857216","0,297407301238543","-2,1388634134607"
"8556","-3,00003956791494","-0,999996301857331","NaN","-7,9710306340299","-185,486465189572","-1,32619514410021"
"8558","-3,00001040305533","-0,999999238531702","NaN","-5,55857794038015","-117,109176471455","-1,0934293531401"
"8558","-3,00000273513427","-0,999999843209411","NaN","-5,10501719905059","-104,734421838644","-1,0267601899846"
"8558","-3,00000071911176","-0,999999967715939","NaN","-5,01974408815523","-102,494868982818","-1,00766469791285"
"8569","-3,0000001890663","-0,999999993352531","NaN","-5,00371204927008","-102,089560179302","-1,00219533546395"
"8574","-3,00000004970864","-0,999999998631249","NaN","-5,0006978954751","87,1621257408122","-2,71420713626829"
"8587","-3,00000001306922","-0,999999999718167","NaN","4,05982809503078","15,593410980062","2,93617064371971"
"8595","-3,00000000343611","-0,999999999941969","NaN","8,01124816880593","-3,63500991368913","1,55456120081299"
"8615","-3,00000000090341","-0,999999999988051","NaN","-6,11780386283629","0,523122344447569","-0,554740007521288"
"8627","-3,00000000023752","-0,99999999999754","NaN","-2,77418064096924","-0,724349039839943","-0,158889551242751"
"8636","-3,00000000006245","-0,999999999999493","NaN","6,91440704351114","-4,58815824976634","-0,0455094082846624"
"8658","-3,00000000001642","-0,999999999999896","NaN","-3,51202706055636","2,16964633108767","-0,0130348800548619"
"8665","-3,00000000000432","-0,999999999999978","NaN","-3,28427339375462","0,392657291485655","-1,71731181657326"
"8677","-3,00000000000113","-0,999999999999996","NaN","1,38252987131256","-1,74796028633461","-1,20545363790455"
"8693","-3,0000000000003","-0,999999999999999","NaN","0,259926868200722","0,683658418507057","-2,77242471571683"
"8698","-3,00000000000008","-1","NaN","0,0488683667633834","0,123726830067172","-2,22123916570836"
"8717","-3,00000000000002","-15,3527551722856","NaN","0,00918765069056422","0,0223917793799723","-2,06336768807029"
"8724","-6,47416712023809","-12,1021622839461","NaN","1,81371921412006","-1,81497003397448","1,40900681118857"
"8738","-3,65049921092352","-10,4328469936558","NaN","8,40095327915365","-1,14749128537552","3,83072675256045"
"8755","-5,64519405691947","-4,70684243182929","NaN","-7,04453613028573","4,43037471804417","-0,902796902340643"
"8755","-5,16963212447762","-6,52782600708709","NaN","4,29955359413572","-1,19820160911587","1,454997761438"
"8755","-5,0445990742571","-6,90277672904912","NaN","2,4323347917365","-0,216847599421115","1,13032121201132"
"8782","-5,01172582982566","-6,97998118372409","NaN","0,269290598602071","1,77977789481478","1,03732681727141"
"8782","-5,00308291343241","-6,99587801355407","NaN","0,862620685302178","1,14112229802212","1,0106912087918"
"8788","-5,00081054862411","-10,5873400529648","NaN","-0,837820290303829","-4,43152736181281","-0,710516150930829"
"8794","-3,26312954643956","-5,73865341843735","NaN","1,65447482742569","-2,44005188052195","-0,203507212102048"
"8796","-3,80626464369642","-6,74028167094572","NaN","1,12304659431876","1,55840537291167","-1,77186721721646"
"8804","-3,94906378984159","-6,94652254072534","NaN","-6,22483368284153","0,282036396437674","0,492498858585637"
"8816","-3,98660803296412","-6,98898869147631","NaN","-1,79430311824464","1,87006470136599","1,85464068298442"
"8824","-3,99647903170392","-6,9977327098735","NaN","-1,96132731206555","-4,29960514682095","1,24478759914929"
"8845","-3,99907427955066","-6,99953315225827","NaN","-0,180737358899731","3,04089041007391","4,49726915865865"
"8857","-3,99975661287514","-6,99990387343401","NaN","-0,845971955504387","1,36935535951471","3,42885031092652"
"8865","-3,99993600952362","-6,99998020700142","NaN","4,46493410903373","-4,39022230002966","-2,01790301799933"
"8898","-3,99998317585176","-6,99999592451068","NaN","-1,16055604745676","-2,43257659136904","-0,577971122749794"
"8898","-3,99999557665484","-6,99999916083391","NaN","-0,218193982673554","1,55975823247675","-1,87912179037277"
"8908","-2,2629152769108","-10,5881886202824","NaN","-0,0410222446208234","-3,35576365332899","3,88893551549974"
"8908","-2,80620830871474","-9,32701693627438","NaN","-0,00771251586826937","-2,24536279318113","2,54103203719759"
"8920","-6,42321609868686","-7,27324022307092","NaN","-5,43742559879146","-5,68245004575282","-1,27219339761017"
"8927","-5,37418690984801","-7,85035608955784","NaN","-3,45825585075037","2,97160407574387","-0,364383738868002"
"8947","-5,0983798901873","-7,96918748031565","NaN","-3,08615582967992","0,537793644535778","-0,104367393668954"
"8955","-5,02586569048392","-7,99365552954014","NaN","2,41977758583507","1,91635102318586","1,6836852629915"
"8968","-5,0068005152571","-7,9986936379813","NaN","0,454937880677602","1,1658389690793","1,19582226476397"
"8976","-5,00178796726075","-7,9997310127402","NaN","-3,53845169772279","-0,789009312094835","-0,657490607422708"
"9025","-5,00047008598682","-7,99994461401595","NaN","-4,10123330162376","3,49525190962048","-0,188319548154654"
"9044","-5,00012359333409","-7,99998859571553","NaN","5,85291848143042","2,27060703696625","-0,0539387967170953"
"9045","-5,00003249471939","-7,99999765179392","NaN","-4,5235874106822","0,229951356831355","-0,0154492394432619"
"9073","-5,00000854339594","-7,99999951649121","NaN","1,14952874936833","0,860638478167442","3,4227316925661"
"9074","-5,00000224619924","-7,99999990044283","NaN","3,84010448290599","-2,66326619467747","-1,01965552279858"
"9101","-5,00000059056271","-7,99999997950062","NaN","-3,09002096366162","2,33703103525084","1,4215269219246"
"9117","-5,00000015526865","-7,99999999577906","NaN","0,419050909188233","1,24197260973436","1,12073443875195"
"9123","-3,26291648070364","-11,5881887922023","NaN","3,70276870360179","-2,59425327533359","-2,39257573149632"
"9127","-3,80620862521167","-10,3270169716736","NaN","2,32013437509109","-1,28852406222391","-1,39886384621449"
"9136","-3,94904906166102","-10,0673346268955","NaN","-5,18777957596126","2,58582850721016","0,599335101558904"
"9156","-3,98660416068332","-10,013864576985","NaN","-0,787336644568215","1,28699936827479","1,88524089654813"
"9164","-3,99647801361764","-10,0028547940909","NaN","0,851974302697714","-0,767081999102965","1,25355216297225"
"9183","-3,99907401187904","-10,0005878181","NaN","0,160178103115752","-0,138824625838524","1,07262283023592"
"9185","-3,99975654249987","-10,0001210350406","NaN","-1,78187707393864","-0,0251241415673204","-0,692777593398337"
"9197","-3,9999359910208","-10,0000249217931","NaN","-1,14699925358855","-0,00454690575020153","-0,198426505090082"
"9205","-3,99998317098707","-10,0000051315368","NaN","2,5963466659243","-0,000822887892341259","-0,0568336480530852"
"9217","-3,99999557537583","-10,0000010566122","NaN","3,1121180268521","3,63789596274501","-0,0162783875549064"
"9225","-3,99999883669357","-10,0000002175624","NaN","2,20908724056341","2,29642240915105","-0,00466248270989434"
"9226","-3,99999969414761","-10,0000000447973","NaN","-7,02064920207581","3,87266824679474","-3,42849212531713"
"9234","-3,99999991958638","-10,000000009224","NaN","1,6800608090305","1,33891092345405","1,0180056101145"
"9251","-3,99999997885794","-10,0000000018993","NaN","2,12785696710446","-1,75768717269212","0,291578852003907"
"9254","-3,9999999944414","-10,0000000003911","NaN","3,02403815044195","-5,77516926009593","-1,63006384719484"
"9266","-3,99999999853855","-10,0000000000805","NaN","2,19252750691725","-3,50224335158682","-1,18046393008932"
"9275","-3,99999999961576","-10,0000000000166","NaN","-7,02376256678076","4,18519499942779","0,661889567063632"
"9287","-3,99999999989898","-10,0000000000034","NaN","-3,75650011190982","1,57644880799627","0,189579505456822"
"9295","-3,99999999997344","-10,0000000000007","NaN","5,91773112687592","-4,35274303375476","3,48145636507458"
"9320","-3,99999999999302","-10,0000000000001","NaN","-2,69941024481706","1,21225120164613","2,42432118441247"
"9329","-7,47416712023625","-4,61771681039292","NaN","-1,31950295750511","0,219390260347167","-1,30562191326211"
"9336","-6,38758277104208","-6,50947454222111","NaN","0,751922704570371","1,85872715673169","-0,373958389656904"
"9336","-6,10190188232158","-6,89899805960144","NaN","0,14136758834906","1,15541034253191","-0,107109780997303"
"9344","-6,02679168011716","-6,97920313451117","NaN","-1,78541360381333","-0,79089665944511","-0,0306785607773527"
"9357","-6,00704397315483","-6,99571780886136","NaN","-1,14766414998876","-0,1431345448763","-0,00878700416158462"
"9365","-6,00185197634449","-6,99911827284945","NaN","-1,02776206203462","-0,0259041401835223","-0,00251678827752259"
"9377","-6,00048691502724","-6,99981844743898","NaN","-1,0052194936176","-0,00468806799384096","-0,000720862664611829"
"9385","-6,00012801796548","-6,99996261731036","NaN","4,43499427575465","1,81817400840226","1,71337187397298"
"9394","-6,00003365802772","-6,99999230269473","NaN","-1,16618497979317","2,96709357633109","1,204325153023"
"9406","-6,00000884924882","-6,99999841508171","NaN","-5,65522785080277","2,17502223235848","1,05852314855835"
"9426","-6,000002326613","-6,99999967365644","NaN","5,56075485824186","3,85069753943925","1,01676229708634"
"9435","-6,00000061170481","-6,99999993280403","NaN","6,29343461631445","-4,12213261195546","-0,708777259771735"
"9454","-6,00000016082725","-6,99999998616397","NaN","2,61919251309177","0,253986512288525","-0,203009156017788"
"9455","-6,00000004228413","-6,99999999715109","NaN","2,92840509307371","-3,59207902860522","3,36901047078364"
"9467","-6,00000001111719","-6,99999999941339","NaN","2,98653957478777","-2,28813057236377","2,39211424523243"
"9474","-6,00000000292289","-6,99999999987921","NaN","-2,43850625253029","1,58589972004356","2,11231001120553"
"9476","-6,00000000076848","-6,99999999997513","NaN","-5,89443460548485","2,1060346996919","0,318589674671128"
"9484","-6,00000000020204","-6,99999999999488","NaN","3,70379018044868","-2,43787742962233","0,804829326647174"
"9496","-6,00000000005312","-6,99999999999895","NaN","1,50833456004005","-1,2602235437703","0,944098892662638"
"9504","-6,00000000001397","-6,99999999999978","NaN","-0,716420826395666","6,22899515287284","-0,72958963235009"
"9516","-6,00000000000367","-6,99999999999996","NaN","-0,134692946302857","3,58437565274141","3,2181864190779"
"9525","-6,00000000000097","-6,99999999999999","NaN","-0,0253233701692038","3,1057588777156","2,34891497067637"
"9544","-6,00000000000025","-7","NaN","643,25234965958","-6,07597223419468","2,09993680347729"
"9545","-6,00000000000007","-7","NaN","409,193787818401","-2,73765949533687","2,02862406468229"
"9545","-6,00000000000002","-7","NaN","-270,820270022785","6,96161240446202","0,294620207338465"
"9553","-6","-7","NaN","-47,6684475231492","3,71696293278924","0,79796395213591"
"9561","-6","-7","NaN","-5,71408866322373","3,12975419968263","0,942132500730529"
"9561","-6","-7","NaN","2,17367226846338","3,02348259800515","0,983425495068312"
"9570","-6","-7","NaN","3,65663552201172","3,00424982320742","0,99525270286087"
"9578","-6","-7","NaN","0,311460961474751","-0,637275764365383","-2,42851641800635"
"9590","-6","-7","NaN","1,68254091775837","4,3417347198213","2,01799865216224"
"9598","-6","-7","NaN","1,94031510874293","5,06184631456702","1,2915768590957"
"9631","-6","-7","NaN","9,23674619871727","2,37314790790428","1,08351392664375"
"9639","-2,52583287976192","-8,79409439653571","NaN","-0,639432814851059","2,88655384008092","1,02392019711403"
"9639","-3,61241722895744","-8,1635084859263","NaN","3,31575700950818","4,79849123467521","-0,70672708219698"
"9647","-3,89809811767829","-8,03366731346619","NaN","3,05936488773003","-1,31255833793342","3,22473474853826"
"9660","-3,97320831988281","-8,00693228849628","NaN","4,8231529430754","0,581478842719823","2,35079055404018"
"9668","-3,99295602684516","-8,00142739704621","NaN","0,530775730905956","2,74327950710128","2,1004740111691"
"9680","-3,99814802365551","-8,00029390905018","NaN","8,97174132345991","-1,50352797798778","0,31519958794798"
"9688","-3,99951308497276","-8,00006051752034","NaN","4,74671969476523","-2,09112726308938","0,803858332396152"
"9706","-3,99987198203451","-8,00001246089655","NaN","-9,5435536469259","-1,1974695459126","0,943820778881926"
"9709","-3,99996634197227","-8,00000256576842","NaN","-4,23024134352634","-1,0357375559039","0,983909054491125"
"9721","-3,99999115075118","-8,0000005283061","NaN","-3,23129538550242","-1,00646769554304","0,995391204751212"
"9729","-3,999997673387","-8,00000010878118","NaN","9,64045761209955","4,45589682274196","-0,714898403414986"
"9738","-3,99999938829519","-8,00000002239866","NaN","-2,18751550535697","6,08250709299936","1,50881596053794"
"9750","-3,99999983917275","-8,00000000461201","NaN","1,40072114184261","-1,08018028537707","-0,567842434965221"
"9758","-3,99999995771587","-8,00000000094964","NaN","-0,736653024881098","2,44255649834996","-1,876220714851"
"9779","-3,99999998888281","-8,00000000019554","NaN","3,48548695773637","-3,3769745367897","3,88976644635298"
"9785","-5,73708355719615","-9,79409439657597","NaN","0,467291777402831","-1,43017904354869","-4,31304334481459"
"9797","-5,1937913847528","-9,16350848593459","NaN","0,899846518445929","-1,07785275216216","-2,66250570371656"
"9799","-5,05095094095881","-9,03366731346789","NaN","-4,4548052527163","2,62395528613136","1,23740070896445"
"9817","-5,01339584000548","-9,00693228849663","NaN","-2,46152336714103","1,29389945956145","0,354418359392042"
"9819","-5,00352198656346","-9,00142739704629","NaN","8,78518101671667","-0,765833237442227","-1,6120652514674"
"9846","-5,00092598816857","-9,0002939090502","NaN","-5,97229818839895","-0,138598628004503","2,25184794679422"
"9848","-5,00024345751265","-9,00006051752034","NaN","0,877159332118019","-0,0250832410315434","-0,355021983484191"
"9860","-5,00006400898249","-9,00001246089655","NaN","-1,64707876738463","-5,46160683414875","-1,81526432884561"
"9869","-5,0000168290138","-9,00000256576842","NaN","4,31431950820156","5,64961662753628","2,1936473306861"
"9881","-5,00000442462439","-9,0000005283061","NaN","0,623119042748426","0,841476255948042","-0,371691900292231"
"9889","-5,00000116330649","-9,00000010878118","NaN","-4,50683227042902","-0,847711683339465","-1,8200389540123"
"9901","-5,0000003058524","-9,00000002239866","NaN","-2,47130486991829","-0,153416789073615","-1,23487691465914"
"9910","-5,00000008041363","-9,00000000461201","NaN","3,34736643154686","5,42930233486381","-1,06727383470002"
"9922","-5,00000002114206","-9,00000000094964","NaN","1,44132399431791","3,43964920058156","-1,01926868309648"
"9938","-5,0000000055586","-9,00000000019554","NaN","6,51894808589859","-0,558478248943336","2,42163772119243"
"9951","-5,00000000146145","-9,00000000004026","NaN","-2,77438470221116","-1,10107202885634","-0,306390515239666"
"9959","-5,00000000038424","-9,00000000000829","NaN","1,2903849563127","3,4387755616639","1,62582146609238"
"9978","-5,00000000010102","-9,00000000000171","NaN","1,05459473522645","2,2603860855126","1,17924882027133"
"9999","-5,00000000002656","-9,00000000000035","NaN","1,01026425456846","2,04712403750462","1,05134074382153"
"10027","-5,00000000000698","-9,00000000000007","NaN","1,00192976339952","-5,26756138080975","1,01470510083223"
"10028","-5,00000000000184","-9,00000000000001","NaN","-0,811629049786622","2,86571205604044","1,00421185932245"
"10041","-5,00000000000048","-9","NaN","-0,152592867198939","1,33765200904874","1,00120636771923"
"10049","-5,00000000000013","-9","NaN","1,78330316002714","-4,3959598949301","1,0003455298391"
"10064","-5,00000000000003","-9","NaN","1,14726736938008","-2,43361496727435","1,00009896722849"
"10076","-5,00000000000001","-9","NaN","1,0276874640508","-2,07847457724238","1,00002834635741"
"10081","-5","-9","NaN","1,00520546858949","-2,01420213723728","1,00000811901061"
"10090","-5","-9","NaN","-0,811013190549982","-0,183547824601862","1,00000232546046"
"10099","-5","-9","NaN","-0,15247708064998","-0,852240480291233","1,00000066606223"
"10099","7,15958492083329","-9","NaN","1,78332492884073","-4,61130373015744","-2,42715649852668"
