Timer,AX,AY,AZ,GX,GY,GZ
"1010","5,99999616000246","3,99999804000096","-2,99999997","1,99999758000293","0,999999000001","-1,99999872000082"
"1018","2,51405532247329","5,7525247374655","-2,999999995","0,294403285362256","-0,728997487532997","-0,25702782573456"
"1031","5,31584466208379","-0,0107601203459256","-2,99999999914286","-0,905101307497418","3,20181348076606","0,929263526835904"
"1039","5,08736054076339","6,67341820687331","-2,99999999985294","3,05505238771965","0,648065558809398","-1,46637849166895"
"1051","3,30087189413552","5,44316401333522","-2,99999999997477","5,69234201838814","-0,809149280911222","2,31755481220371"
"1059","5,52983867290836","5,1173636398287","-2,99999999999567","-0,472103339809809","-1,94379316119204","4,81116236377106"
"1071","5,14661061267203","1,56074469220158","-2,99999999999926","-2,82810712040526","2,13302928113511","3,50116316037"
"1080","1,59398448482222","2,61883974842712","-2,99999999999987","-1,59526603903479","-3,78278926433412","-3,75449181834376"
"1088","4,33423607587613","6,36939357308035","-2,99999999999998","0,480551330945526","0,885937763338833","-0,0388982075565738"
"1100","4,09248582159154","7,09782708291529","-3","-1,51790459439072","1,96640774255365","-3,45734729555051"
"1109","0,579007726458538","1,08523401337007","-3","0,505741667442215","-0,420876908245438","-0,679967843047818"
"1121","6,77667573247299","4,22807792380969","-3","3,51344133570989","-1,82944353393637","-4,35802836480211"
"1129","3,76832860055376","5,79557065835017","-3","0,818423851115355","0,461213982909317","0,0708064308790066"
"1141","5,65918657637569","5,21069223298434","-3","-0,73350577530532","-1,56966058401646","4,46617655860018"
"1150","5,18240224949836","1,58546111287529","-3","-0,238843299389063","-1,16776968048608","-0,764172875872974"
"1161","1,60388832825974","0,890217012316324","-3","4,94537160323208","-2,75490139442113","-3,65803665379347"
"1170","4,33697654861588","3,44126284180808","-3","1,95906848361214","-0,516832750039983","0,987791714345986"
"1178","4,09324413253934","4,85202875662244","-3","1,98667192713104","-4,26868702555827","0,273329945101704"
"1190","7,47238525186411","2,49047569840396","-3","-3,0274833528451","-1,66814680193817","0,0756326033153307"
"1199","2,96083704335624","6,33539871879109","-3","0,014194383761987","-5,31325024592543","0,0209281521720048"
"1211","5,43574714092242","1,88331890647216","-3","6,70214660040065","-2,68127103319482","0,00579098872887546"
"1219","3,39728282947593","2,70426758370566","-3","4,87986984043037","2,21034384832446","3,4481862606704"
"1231","2,10993136750737","1,18651229563587","-3","-4,08540360560611","0,650964261180222","0,677432910713202"
"1240","4,47700274455156","3,51973118928935","-3","-0,330284381323099","-1,5137775820134","-0,812548842426844"
"1248","4,13199051185397","4,87280965292108","-3","1,56683434342599","0,554180176078251","1,49845309653898"
"1260","9,20639861160898","4,23114755781163","-3","-2,16419037966832","-1,54228128314576","-0,585365926170323"
"1268","0,717360620820303","0,590878328830959","-3","-1,37908232049196","-1,15970625344217","-3,60855932670495"
"1280","5,81495909572737","3,36198850585794","-3","-1,1234363453085","-4,45801850694374","2,72477441400668"
"1289","-1,66766193096337","3,09586598728017","-3","3,98295028170066","6,80355282237138","3,20055093388056"
"1301","7,15500409339474","4,76055676254819","-3","4,32006713010416","-2,70179015294541","-1,11438170785631"
"1309","5,59630703718903","5,9365878695472","-3","3,42983872708827","-1,50119105696412","3,13822542862922"
"1321","3,44171104950929","5,24803804357261","-3","-1,88317989369726","-2,85309670469616","0,591664245138207"
"1330","0,398933091148472","3,33051988467627","-3","7,75870695031019","1,15973978896716","0,887010198771171"
"1338","5,00355570287848","2,08753210267028","-3","-4,14800000651218","0,341552811097059","-2,47784903786324"
"1350","0,831108120724863","2,75834968673479","-3","2,99809537206689","1,80608194142494","2,03765108293041"
"1358","5,12314202395493","6,4063402098673","-3","0,650617496446893","-0,468094162126921","-2,15945741224887"
"1371","6,03407439256524","10,5779485627377","-3","-0,788146685788605","1,56763431521462","2,12575261717707"
"1379","7,0094286596192","5,21238534258025","-3","-3,60539773007057","1,16717292782493","3,03479676479384"
"1392","4,55602513894658","-2,88442734192931","-1,17157287525381","-2,52274774594947","1,04923378845938","4,00962854584898"
"1399","4,87714857025439","3,44161782050098","-3,68629150101524","1,17854580638019","2,71999160903412","-0,167211474578852"
"1411","3,24271409353986","8,32245960988076","-3,11774900609144","2,05813787828756","3,91753524887653","4,12360700550592"
"1420","2,06716094992413","3,14472379999409","-3,02020253553339","-5,35297501357484","-0,140762113011579","-7,02884040890117"
"1432","4,46516782457782","2,03832743234896","-3,00346620710888","-3,76617299350959","0,664036268998649","-2,39152075577012"
"1440","2,40542377025484","-0,725018107449847","-3,0005947071199","-3,24948036107345","2,60654780306055","1,33824689214261"
"1449","6,28205980254858","0,543160732258855","-3,00010203561049","1,94190797554974","-1,23235044803709","-1,3529882004662"
"1461","3,63146437805706","9,55485664498831","-3,00001750654307","7,32984646322462","-0,362937241429517","0,625617237737682"
"1469","7,34460706430836","6,9414382954055","-3,00000300364793","-1,61326390025608","-5,22336354516968","0,173113342379814"
"1481","4,64877171053897","-0,691351097874354","-3,00000051534451","-2,19969027956515","1,46167690441711","0,0479018599587825"
"1489","1,45622844834778","1,28724524138191","-3,00000008841914","-1,390641756702","2,13596760758091","0,0132548315223239"
"1502","4,29611786729278","5,28157687612886","-3,00000001517033","-1,12720031551355","1,33455171011249","-1,7196242047268"
"1510","9,25181397640729","4,33940202663161","-3,00000000260282","3,98172466209023","-0,606963654709775","-1,19912582937797"
"1518","0,729927419049944","4,08988437434171","-3,00000000044657","-4,05223775677036","-3,58973945343551","0,668192198462686"
"1530","5,81843643029125","2,28863579886292","-3,00000000007662","-2,66824727692679","2,6482843587525","-1,53839774579726"
"1539","1,77988412291371","4,54677671781564","-3,00000000001315","-0,543212742465686","-0,220058692543569","0,57431291911397"
"1551","4,38567600639858","4,14480374107729","-3,00000000000226","-4,20002378407686","1,64068278064963","0,15891702306549"
"1559","4,10671966582122","4,03834860327218","-3,00000000000039","-1,71636919164627","1,18868629569677","1,76726554740976"
"1571","4,02953019343708","4,0101559211246","-3,00000000000007","1,4411178555044","-0,649922206972517","-3,95756719731263"
"1580","4,00817124301994","4,00268960861904","-3,00000000000001","3,81801744464056","-1,89689923942536","2,62820111750315"
"1592","5,72555297259692","4,0007122932952","-3","-7,45430623176485","-1,26414412906309","-1,99604744819947"
"1600","3,47747444367082","5,73535705960291","-3","1,5727374548481","-1,07779259681746","-1,27561437333508"
"1608","5,57870488212899","6,92991419244717","-3","2,18649410543861","0,682581304250633","0,647027200602234"
"1621","1,71354846738362","6,24627064313411","-3","-0,288036326611976","-1,50446610538562","0,179037652018584"
"1629","4,36732039476407","0,859714977538045","-3","-0,093790054431781","0,556922481764353","0,0495411642825717"
"1641","2,37834859617622","0,698016517955386","-3","3,31822251212631","0,164018205652123","-1,70958348339126"
"1649","4,55127595955315","1,65519365971895","-3","2,42923808472284","0,0483046970919825","2,25023636662697"
"1661","5,87583443396024","7,11418965828197","-3","0,465386846648375","1,71971798406125","3,06924242363977"
"1670","3,5190585377543","5,55990418372088","-3","4,17468220619061","2,91745466409401","-4,59729968045129"
"1678","3,86691961314963","1,67794346489928","-3","1,70811749646151","5,68118158388962","0,727890049061802"
"1690","0,516591734836874","2,64987768139972","-3","-4,79256708373081","1,08413795068286","1,9247049789228"
"1698","5,03611279983832","8,11278181935425","-3","-1,23493129287986","0,0247793115740804","1,25587333590016"
"1711","4,28670077971497","4,82436292167043","-3","0,597883105436411","4,12377328135736","1,07080221856374"
"1719","7,52591626855935","3,21831733351809","-3","0,194682003003963","5,03645223919062","2,74288346935897"
"1731","2,97564950801052","2,05781732397409","-3","-4,95975135331588","-4,22221566340768","-2,96431391522724"
"1739","5,43984586952277","4,4856486968436","-3","-3,63813196155589","4,87299867983062","1,90304232250783"
"1751","6,84500082810149","4,1286151108138","-3","-6,55655010964417","0,140629647318936","-0,473412819744414"
"1760","1,06394278267137","7,50439818646221","-3","-0,483698559245878","-2,66407528122374","-1,85428907432594"
"1768","5,91086117902709","2,92807530220279","-3","1,84249863642596","-1,49008372014664","-2,95968061005495"
"1780","3,52875072100221","3,71612049061951","-3","2,274333428351","-1,14433364611734","4,62761631912871"
"1788","5,59289344219126","5,65998816337045","-3","1,41494697219315","-1,04250743402636","1,0037907333673"
"1801","5,16405840386361","5,17478570686873","-3","1,13511455157782","-2,71801064288388","-2,44553492078113"
"1809","5,04539628534058","1,57595193089804","-3","1,04399584349678","-2,2114599807712","-3,12328311087184"
"1821","1,56597767147048","6,09320394618263","-3","-0,660055284901536","-5,47326040104977","1,13576233852407"
"1830","7,77307021102203","3,55434650446691","-3","3,13383588487936","2,38808024556127","-1,40901731178664"
"1842","4,76733092364889","2,14680845962244","-3","-2,65394515610114","0,703309077395037","-1,11317839353442"
"1850","3,21232666379942","2,77404793789369","-3","-1,53855570247873","-1,49836160741753","0,691974548101348"
"1859","2,05875250269572","4,67532918065054","-3","3,84777959832664","3,96970402101008","-1,53181697757789"
"1870","2,73954921566068","5,91401691453095","-3","2,6016718486292","-2,53638169971901","-1,14715805283077"
"1879","8,09780693546278","6,97722896378063","-3","-2,8272277920576","0,253014936802607","5,85244787292143"
"1891","-0,312687572992695","4,52363266685094","-3","1,75378252749533","-1,63097689836728","-4,82716425452033"
"1899","4,80664451781987","4,87384288738085","-3","-3,77769768931563","0,519664023110029","-1,05900725870722"
"1911","4,2232050528165","6,70175803461508","-3","2,44429162248289","1,85853714364329","0,706964138612563"
"1920","5,78505456445388","2,71551084409889","-3","-3,55285491907795","4,66382989437767","0,195622686837159"
"1932","3,49393901469276","3,65982670972028","-3","7,54064814564188","-3,33195597805342","-3,39245346995586"
"1940","5,58326076190424","2,17474294884376","-3","5,15290174058805","0,0187118338249702","1,06128072625406"
"1948","3,43810103977182","2,78144587275911","-3","-2,32211811469728","-1,69998107002034","2,01695687187851"
"1961","7,29110186693669","6,41245680926147","-3","-0,75612540590367","2,20483359013182","-0,441891743920866"
"1969","4,63396639030004","1,90372632218101","-3","-1,92058983766434","1,35483330271886","-3,56885886173018"
"1981","4,89871554398398","2,70967211181389","-3","-2,97414255508844","6,22097686923262","2,73575985329967"
"1989","1,5253899256935","4,65828042903482","-3","2,70594431283827","2,94860391497369","3,20359069365508"
"2001","4,31525540664597","4,17433344488956","-3","4,90424992837092","-0,426120280423658","-1,11354058177657"
"2010","7,53381756444805","5,78133742318066","-3","0,271297331153924","0,57999596515092","1,41516625134915"
"2022","-0,468747986922637","1,73658597916129","-3","-4,26042279866088","0,876305391830552","-2,33170399254682"
"2030","3,04016941722886","4,40057649284411","-3","3,96148839294372","-2,44741278418409","2,0780905972866"
"2038","4,73440712582867","4,10608530477153","-3","2,63869757438383","-1,42627485058193","1,29831637529589"
"2051","5,92650830669832","2,29292631683622","-3","2,20797196302119","-1,12554141446324","-0,64074537331058"
"2059","1,80978848394081","4,54791298246161","-3","-4,62980505236468","-2,74246482623138","-0,177299419672808"
"2071","2,67065886095302","4,14510465983668","-3","3,84121057212675","-0,513170079442649","-5,21893595233262"
"2079","2,90886864695454","4,03842829606213","-3","-4,09799179169061","-0,856624624355947","1,55587827208608"
"2091","9,86795091324273","5,74534544813736","-3","0,665616668131494","5,86419264534502","0,430524083688827"
"2100","4,34700133292309","1,72705416760967","-3","0,216737327090179","0,432544341015345","0,119129491015766"
"2112","3,09601807132072","2,66288374630279","-3","-3,27818856387226","-2,57810402699839","0,0329640922943885"
"2120","2,02656897580907","4,64588939235725","-3","-2,41620227694806","1,94621922913639","1,73241335422665"
"2128","1,00735185018646","2,43588348524583","-3","-0,461142142047606","4,68965298251168","1,20266469033411"
"2141","3,44861816364176","2,8506041331346","-3","-0,824537729588423","1,79212470399985","-4,1137968143742"
"2149","3,12413626907269","2,96043525680827","-3","0,731514981291461","0,233287175247753","2,58497112069864"
"2161","3,03434950821918","2,98952200662125","-3","1,91257621976025","-0,931295027335637","-0,284717613795885"
"2169","4,73279671000213","6,46756194016848","-3","-3,72599147150578","1,43121788877165","-1,80207558687326"
"2182","4,20277076797329","3,65348832280896","-3","-2,56201534009768","2,83248903690303","0,50135113093623"
"2190","4,05610830914396","0,437895921989644","-3","4,51452185875575","0,539682942512631","-3,30785594030665"
"2198","5,7388175459495","5,0566423554697","-3","-2,20436779144634","0,86443287841253","-0,638602377713112"
"2210","1,75785293458713","4,279832262544","-3","5,30535979893842","-5,86189305094621","-2,62329028280255"
"2219","4,37957979865724","9,27961368524439","-3","-4,62123721946644","1,27362476570363","1,27411439216314"
"2231","5,8283247195637","2,39820842430972","-3","-4,52790538210629","0,375092864060758","-1,37073418116643"
"2239","3,50591221607615","3,57579500913525","-3","1,52562870369544","0,110467902680561","0,620706781555349"
"2251","3,86328191976712","2,15248870096281","-3","3,84553576896148","0,0325336968305143","3,61833842681477"
"2260","5,68546092667736","7,98105751070846","-3","-4,09658342611628","-6,81238599115178","-0,99877653436739"
"2272","1,74308872710831","4,78947816513044","-3","-2,68268706232014","1,99369685537106","-0,276369533518772"
"2280","7,8220782705262","1,47391032654463","-3","-2,22229576903727","0,587159957695161","-1,79976560563864"
"2292","-0,388983921459214","2,59584326337343","-3","1,27637863045551","0,172923388524089","-2,94459352591908"
"2301","4,7855327020039","2,89296653361739","-3","-1,25876823187868","1,75641920340268","2,90849911349798"
"2309","5,94065516653357","6,44199100187341","-3","0,590121349020186","4,63375532947575","-1,91848672892566"
"2321","3,53699495797164","1,91154790901995","-3","3,54091694970219","-3,34081318230087","-2,9774446195648"
"2329","2,14859084182485","4,44691193684555","-3","0,827370428662085","3,42708702994172","1,17611702691003"
"2341","2,76440820966272","2,38318797168549","-3","-2,40497376151402","4,12578060789792","-3,12114276725161"
"2350","4,65810177255373","6,30698554080762","-3","-1,45748592588163","-3,49041587401818","2,85964651254949"
"2362","2,45881015186002","3,61096262155185","-3","3,87417744490819","3,38302781908267","4,9611630564799"
"2370","8,02012416916489","3,89697061710446","-3","2,61026748480081","0,701821096657425","0,0960858094293728"
"2378","4,83569274915889","5,70788298777692","-3","2,19871459024167","-0,793307972416774","0,749879643150375"
"2391","4,95453485669097","5,18746976880173","-3","3,73908637469236","1,47185620001259","0,930789677202556"
"2399","3,26412750399486","3,3144794928826","-3","-0,108101873129969","6,25544106535112","-0,742442978943741"
"2411","0,349794289879459","3,81845252224278","-3","-4,38396232730199","-5,56870538586253","-0,205439968495989"
"2419","6,71325052336521","2,21675207311014","-3","2,246880434576","-1,34552093707618","-1,78013882214552"
"2431","3,75077833295008","4,5277396372809","-3","-0,268373400191027","0,603733128051422","0,507421210905174"
"2440","3,93103835192826","4,13976212099582","-3","1,58699372526023","0,177804322141976","3,58699139448303"
"2452","3,9809177550208","4,03701342306955","-3","2,86551737607495","-3,35861889423544","0,715841412276673"
"2460","5,71801171235911","5,74497074508985","-3","0,607447603236543","-2,40012432698283","-0,801920899844098"
"2468","-1,69448805492144","5,19729177810113","-3","-0,802203616321076","1,29314384255671","1,5013939340865"
"2481","5,42428916457907","5,05224909295144","-3","-0,261212610663106","0,380841391129164","-5,75442794364839"
"2489","4,39411231488321","3,27866878789804","-3","-0,0850557471709599","0,112160890709911","1,40770331327337"
"2501","2,38576213685385","2,07380029488146","-3","-1,70207691410229","-1,67245956185355","-1,33376904778562"
"2509","6,27661926979248","2,75471307040716","-3","2,12015285074124","2,21293889838237","0,63093533250482"
"2522","1,9066670150443","6,40537711902611","-3","-0,309638288983621","-2,05376333289134","-3,27199894516649"
"2530","2,69746593293336","5,372188240334","-3","-1,77520522075999","3,80613369046836","1,09461146609503"
"2542","2,91628638027454","3,36339877721279","-3","0,421959735978184","-0,879062636500171","0,302887833123345"
"2550","11,5932953836201","2,0962394716687","-3","1,81177919999167","1,44660075317787","0,0838115096504852"
"2562","0,377834235026699","2,76065567300822","-3","-0,410050559301496","6,2480031306144","0,023191321610574"
"2571","2,27442555532848","4,67178248600586","-3","-1,80790134770171","-0,454420345874433","0,00641722599065443"
"2579","6,24581153849228","5,91307763779096","-3","3,76007558187994","-1,13383049200316","-1,72151622540024"
"2591","1,8981422669798","3,50664336994839","-3","7,59625724978976","-2,03941416961721","2,2469344805402"
"2600","9,58827476093338","7,33968042876128","-3","-4,20089668948774","-1,3061159364404","1,34503684143285"
"2612","2,54632075915971","2,88445283848077","-3","-2,04227226568539","0,615338221596086","1,09547448065946"
"2620","5,32104713731061","1,96939946286358","-3","-1,33938348569157","1,88671397412996","-0,696873363776676"
"2632","3,36554441212026","0,991896011457785","-3","-1,11050965678763","-3,85533108683236","3,25375335937558"
"2641","3,82444101475436","3,46819065161589","-3","3,98715945501659","0,864573602678418","-1,09966016704094"
"2653","7,39800525822752","1,38882324729922","-3","4,32143771623493","1,96011582327176","1,41900707420945"
"2661","6,38683934571796","8,7788147834326","-3","3,43028501575374","-2,12822178713747","-2,33064120584158"
"2669","4,38374964754685","3,26558106080483","-3","1,46572774711579","2,07871321196679","2,07838467895137"
"2681","3,10618662676901","0,335165829615472","-3","0,151649728581716","1,31768982440701","1,29839775006764"
"2690","3,75267462088589","5,02943618298229","-3","2,39814232946092","-2,31742147479284","1,08256906740553"
"2702","3,93156307011517","6,00779563079405","-3","2,12964264331158","0,317500505939265","-4,14702824317167"
"2710","9,1509387197596","5,26689610736046","-3","-6,32969171496241","-3,31747723062313","-0,870808131357069"
"2722","2,42530634449217","5,07068251731558","-3","5,96207661002132","-4,09349962949466","2,48233228077013"
"2731","1,84097762409937","3,28355054076319","-3","2,29012678813039","0,0889391701197102","-3,75970245706944"
"2743","2,67928914792901","7,2805984027332","-3","7,11761422930913","2,73168516723639","2,68295188915145"
"2751","4,63454864072149","6,33914289597805","-3","0,666391606827981","1,50999538209465","-1,98089746749851"
"2759","5,89887665737804","2,61947890467091","-3","-1,78301033827072","-9,08275335197086","0,451869672340836"
"2772","5,2487264307304","1,89922599780289","-3","-0,58058175732854","5,73603889590426","-1,59825593586954"
"2780","3,34553268852287","2,70848028380662","-3","3,15971396270598","3,10029387574991","-1,16554224917371"
"2792","7,26548745653258","8,12830163903364","-3","2,37762471479515","2,3240455056129","0,677485046337632"
"2800","4,62687867607053","6,56364148185423","-3","-1,22580059938276","-3,02104153237017","1,91075750758106"
"2812","4,89675431621388","0,943764797616532","-3","-2,07352492915023","-3,30070504517092","1,25201395793537"
"2821","1,52484723812997","2,45544398629581","-3","-3,02394110211099","2,73340734546529","1,06973429751124"
"2833","2,59181331695466","2,85578437149716","-3","-0,659033353072265","-0,194989279837962","1,01929604331929"
"2842","8,05692721912542","4,69697556935447","-3","7,48293096595143","-3,46840964551133","-5,88782832361038"
"2849","3,12258452665737","5,91974956181276","-3","5,13410793951271","-2,43245859721092","3,09408227441057"
"2862","5,48050397587958","1,77324188427098","-3","-2,32823773039496","-3,83285443564094","-1,86713436946835"
"2870","1,68637548352045","4,41028413404299","-3","-2,43249922847373","1,87119315947168","3,92993268767441"
"2882","4,35980141067086","0,638319351019518","-3","-3,14082989690012","0,551081621759586","-0,912555885846196"
"2890","2,37626803255175","8,5800576521697","-3","-0,697094546792828","3,5732817397091","-0,252511583725648"
"2902","6,27399217445448","1,47777547421757","-3","0,773012882587295","-2,65313128945279","-0,0698719945864021"
"2911","5,35252392386607","4,33203529837689","-3","-4,77143592340564","5,33510680431779","-0,019334145212073"
"2923","1,65096236951785","4,08793343207217","-3","-6,92557523060689","-3,13425946216619","1,71794200953024"
"2931","4,35000231601798","2,28811912774279","-3","2,74490222990156","1,78242692495267","-0,524631571278456"
"2943","5,82014039123959","2,81147146514207","-3","-0,780589281513352","1,23043110035365","-1,86846171653548"
"2952","1,78035562266989","4,68524011243184","-3","0,745825423955542","1,0678638353523","0,482981552701709"
"2960","9,55568224516779","2,4463047985447","-3","-3,10590751172894","2,72547830954029","-1,58964702730355"
"2972","2,53730214681912","4,58853244782742","-3","2,66303916055808","0,508167411963458","0,560131829014535"
"2980","1,87196776711947","4,1558619769533","-3","-0,132864278750591","-0,850340559395129","3,60157684822278"
"2993","2,68786437078962","2,3061087514854","-3","3,30549920854566","-1,95592407613148","-1,00341459853601"
"3001","2,91362955048388","6,2865725292791","-3","-2,59804834384839","3,83494814824577","-2,00094484699237"
"3013","6,42268444638085","5,3407250333393","-3","-3,19473580774393","-0,870576544061387","2,16961432418498"
"3021","5,39366827639751","5,09023474829601","-3","-0,714647326928946","3,15459183394352","-0,399650193954108"
"3030","5,10893119147821","5,02389701079561","-3","-0,907083793720081","4,04552855386904","-0,110586436378125"
"3042","3,30685021678785","6,74149710492761","-3","4,05339874849168","-3,51405075738653","1,69269176358002"
"3050","5,53149178053113","0,99086658295872","-3","2,66862531770386","-0,0349165614055769","-0,531618518262464"
"3062","3,42377614452197","0,732749604596448","-3","-2,80542648115084","-0,0102832116440006","-0,147103137535362"
"3071","3,8405542054092","6,86989734340458","-3","-8,28540551739265","1,70246336788317","-3,48728847353017"
"3083","5,67917198455777","5,49520786444087","-3","0,627734709468265","1,20688118168894","2,75833103850483"
"3091","3,46464044969174","5,13114668025443","-3","-0,469978912739057","1,06092819254901","-1,96003944808476"
"3103","3,85186168868372","3,29956336045608","-3","-4,17617746942239","-0,687548008627047","0,457641254769088"
"3112","3,95900893284335","3,8145022593523","-3","-1,70860438233993","-1,90798034438281","-1,59665889239838"
"3124","0,542073593340823","3,95087434060016","-3","-0,230734936707448","3,84906796763028","0,558191589312586"
"3132","5,04316383588653","3,98698997409326","-3","-2,42389396315972","-2,57190999972518","-1,56883580275146"
"3140","6,01194378199564","5,73172295615272","-3","-0,463646699986355","5,35902713549147","2,28918238658619"
"3152","3,55672109362112","1,72344650155898","-3","-0,82535326083813","0,283768985024999","-2,08985666907488"
"3161","7,32392499385273","4,39709674425457","-3","-2,61751289186339","0,78906413413868","-1,30157214238651"
"3173","4,64304881460846","4,10516375746098","-3","-0,526692670873922","0,937877669946731","-1,08344744739764"
"3181","6,62452064780243","7,49818752754392","-3","0,828498943688337","-2,42927924692315","-4,46967442996404"
"3193","2,72622605976918","4,66159894544551","-3","3,6185371854628","1,99004933868266","1,7632049866166"
"3202","3,64753646330615","3,17521229282773","-3","0,852645039759326","1,29157759177427","-2,95869078727857"
"3214","2,17917856912174","3,78157016986708","-3","-0,722362711569555","2,79136383240836","-0,541985559893596"
"3222","4,49616400450223","2,20698446152443","-3","3,11354741290975","0,527571234924668","-0,873263705342013"
"3230","2,41400066357562","2,78998444344442","-3","-4,33493262520882","-0,844625975536336","2,48165280361645"
"3243","6,28443309820035","1,20921282687494","-3","0,588464268869295","1,45674263023416","1,40998529709313"
"3251","1,90882916447189","3,52574300680234","-3","0,191615052370671","-0,570977433787528","2,83673816654606"
"3263","2,69806421714223","3,13923335019519","-3","-3,28636884981435","1,53733435397777","-2,93834356251309"
"3271","8,08632770132576","4,77204180970937","-3","-2,41886593216405","1,15824934252155","-3,25964724212943"
"3283","4,85401180119007","5,93962947271207","-3","-2,13639063877595","1,04660571992674","1,09802928208194"
"3292","4,9596038863389","1,77850671244801","-3","1,30435095928622","-2,3972579508798","2,02712549406993"
"3304","4,98882206909721","-0,79382683873847","-3","-1,24965991462413","1,99947987110263","1,28421391962431"
"3312","3,27361505258286","3,99527485105174","-3","0,593087188715248","2,99984681780455","1,07864428696842"
"3320","3,79900341851755","6,73391705319245","-3","3,54188268298211","0,588971171708238","-2,42482233795692"
"3333","3,94438262258699","7,19436441143151","-3","-4,19545859161146","-0,826543194201148","0,32903207539661"
"3341","5,7079021461445","2,84596856828019","-3","0,633879641842506","-1,94891555831048","0,0910458326372989"
"3353","6,91917416475648","1,95920761285223","-3","0,206403153417853","-1,27946335852055","0,0251931172078807"
"3361","4,53105099129204","-0,745971534110469","-3","0,0672087553040843","-2,78779609207432","1,73026306265917"
"3374","1,42365417457954","9,21345371243575","-3","1,69626559732039","-2,23201236378972","-0,521222236368661"
"3382","2,56381237900062","6,85102401799101","-3","2,90109835625525","-2,06832953030975","1,57906552128812"
"3394","1,15601143881019","6,225378033732","-3","3,96779576153008","-2,02012360305325","-2,28635174084841"
"3402","3,48975347243939","0,854181954818316","-3","-0,0336297879840375","3,11054900737511","2,09063993161178"
"3411","4,85881066489931","4,16688804250742","-3","-1,01095049253909","-0,0839179895084008","-0,421503046203194"
"3423","4,23763984702494","7,51453406736324","-3","1,34519663414213","-1,73020638866111","-0,116633297086522"
"3431","4,06575686493211","2,93075960353779","-3","-0,561978632967356","-1,21505172720714","-3,47885722259317"
"3443","5,7414873792611","3,7168313783783","-3","-0,18299083034242","-2,7688263421772","2,76066403373275"
"3452","3,48188362268649","3,92500800705207","-3","3,28917705898357","2,89004995434909","3,21048188151555"
"3464","5,57992493757266","3,98013975215864","-3","7,44292381919858","1,55663510139349","-2,83492565809955"
"3472","3,43717799023802","3,99474037922163","-3","4,12108085881166","2,86942542723685","-1,50773874908044"
"3484","3,8442626043567","3,99860708632877","-1,17157287525381","-2,65809843288827","-6,27140641955324","-1,14049541254155"
"3492","5,68019812849683","3,99963111247422","-3,68629150101524","-0,865526927238826","-5,66894768561251","-1,03887621533903"
"3501","5,18821631566673","2,26473388508895","-3,11774900609144","-0,281831873683277","-4,49151868291295","-1,01075736276186"
"3513","3,32878905098447","8,01078357996083","-3,02020253553339","3,25699255314684","6,08819489032743","2,44360719816279"
"3521","5,53756243313883","3,06218214511745","-3,00346620710888","-0,93946186428401","-0,206977031330453","-3,77041800018384"
"3533","-0,0211279041919457","7,22197306116079","-3,0005947071199","3,04285583872642","-3,4719401359368","-5,93647280646848"
"3542","3,16402950925262","1,11811178871328","-3,00010203561049","2,33957350806801","-2,43349835538844","2,35733002947477"
"3554","3,04538828996836","2,50161657509446","-3,00001750654307","0,436190371245508","2,98880677688531","0,652292257755518"
"3562","6,45914315372465","2,86801233105619","-3,00000300364793","0,816412962934074","-0,119772067680583","0,180494535855292"
"3574","0,233880924193793","2,96504549733667","-3,00000051534451","-4,08292287919708","-0,0352738491827056","0,0499442958064786"
"3583","6,68117635892419","1,25557452205063","-3,00000008841914","0,670523389931554","-5,12686400813546","3,46040383733591"
"3595","5,46519507626694","5,27318946954707","-3,00000001517033","1,89271620855675","3,19558866127053","-1,0424783108097"
"3603","-0,0411525363018095","4,33718077650992","-3,00000000260282","1,29068521591537","1,6466187384479","-0,288462168010785"
"3611","8,32836430280075","7,55963296085737","-3,00000000044657","2,7690337431008","-2,22054923128568","1,6434721120523"
"3624","4,92098528358819","1,20753479282943","-3,00000000007662","0,576030714627861","-3,06495354444811","-5,71511376433352"
"3632","4,9781359898191","4,2604670322433","-3,00000000001315","2,53632877368224","1,09734622460402","-0,304710059455064"
"3644","6,71724197546131","4,06897989520623","-3,00000000000226","5,52340107374197","-3,08780631653889","2,63897618926617"
"3652","2,7518827999814","5,75343647635384","-3,00000000000039","-0,527095391358195","-0,61487596030065","1,45351794849963"
"3664","3,65463589053544","-0,00597149446430034","-3,00000000000007","-2,84601335009627","-2,59206969185842","-0,597799844544364"
"3673","0,457851114313913","3,20392382523338","-3,00000000000001","-3,27547788533783","-0,468877487769","-0,165416045020486"
"3685","5,01985879573037","4,78917389030531","-3","2,60782385227434","4,27289547687871","-0,0457719556134623"
"3693","6,00549508916499","2,4738297449625","-3","3,19791889745401","-5,85807306210018","1,71062645387142"
"3701","5,2782286118926","2,86065350098043","-3","2,3900649613145","-3,8417257888086","1,19663607904739"
"3714","3,35369618032011","2,96309664675433","-3","0,452631339660952","-3,24789509860354","-2,39217305614679"
"3722","5,54445443698446","4,72539524856619","-3","-2,52699586882439","3,74896030473734","-1,38522552829937"
"3734","5,15065493991299","-1,01339769707269","-3","0,177162537539212","0,104099335864544","0,616696908766611"
"3742","8,48827128593362","5,67229397596777","-3","-1,61669370051512","-3,38032561284112","0,170645015309905"
"3754","2,24194091362473","4,44287625279392","-3","2,14795523367015","-0,701025274916423","1,77051077758305"
"3763","3,51353085211627","5,85245603880003","-3","1,37379585109142","2,49903420584348","1,21320655506458"
"3775","3,86539005789012","1,75542043437193","-3","-0,552666189131083","3,14696963703489","-2,38758787160403"
"3783","3,96275234186248","4,40556445134123","-3","3,16880379762899","2,33779189737133","3,7859190002738"
"3792","0,543109424849461","5,84257469553752","-3","4,0549656967027","-4,7224849655105","-0,952405636253512"
"3804","1,59686661151158","5,2231403863323","-3","3,34351670596987","-2,80179399032926","-0,263538331503503"
"3812","7,05832550654144","5,0590946206624","-3","-1,91128797004508","-2,23613485880447","-1,79621510841186"
"3824","3,84626336773799","3,28048169980504","-3","-3,97111369174821","-0,364051781215286","-1,22031915100184"
"3833","3,95745983222372","7,27978567673915","-3","4,05569288862007","-2,51819992876784","4,108911682524"
"3845","5,71152071566699","6,33892766047044","-3","-0,679389987865346","2,96386147383777","-0,863030952476021"
"3853","5,19688352850858","6,08975874720262","-3","-0,221222179479247","1,57837319489734","-0,238807634681898"
"3865","3,33118733877717","0,818265685138545","-3","-1,74641526978192","1,17033561533342","-5,23595577218692"
"3873","3,8149341350809","5,89254470197214","-3","-1,24304687400026","-5,77180220409283","1,55116875047453"
"3882","7,39537462784107","5,23637402199678","-3","-2,7535218014863","3,00564911111568","0,429220921023213"
"3894","6,38611142904416","-0,142905960256154","-3","1,10340142620831","-1,82030372055404","0,118768895381405"
"3902","6,10684015078387","1,43249083270854","-3","0,359288292006287","-1,24158612507219","0,0328643125700677"
"3914","2,58297968528021","8,79037933899076","-3","-1,5573901236857","4,04532649136954","0,00909382071151441"
"3923","5,33119095823812","3,26864372030395","-3","2,167265595541","-4,21960212388189","0,00251633363566801"
"3935","3,36835128929586","2,07114534040941","-3","-1,96867865209976","-4,35918275616187","3,44728013715888"
"3943","5,5485096239977","6,22434679831527","-3","0,358961141773414","0,0106933259764668","-2,76940166829972"
"3951","1,7051931955915","0,118740429270021","-3","0,116884510442937","-0,702342585872878","-1,48960773190878"
"3964","2,64171649991961","1,5017830589652","-3","-1,63632136175111","0,793154389596568","0,587813510001674"
"3972","4,62415198556779","5,33839326493328","-3","0,467182936986736","0,23359042604026","-3,28393110171963"
"3984","2,44941597161097","6,08961722238916","-3","-3,1966387549968","1,77428613993595","-0,631982181650943"
"3992","4,57094087630026","3,55339662674428","-1,17157287525381","-0,71526696240523","-0,477458284564526","-0,898166497425627"
"4000","4,15798395158517","3,88172532385154","-1,85786437626905","-0,907285558704839","-0,140615352535095","-0,971821847395636"
"4013","4,04371543533579","5,70384555270532","-3,80404050710668","-0,969810431212034","1,66407949115398","0,73108904606154"
"4025","2,28880449035859","1,71606368480915","-3,13795154162482","-0,990169707643475","1,19557681744932","0,202298243569257"
"4033","6,24979030594429","4,39514154124348","-3,02366874264227","4,0263444096135","-2,35338474965388","3,50256140514422"
"4045","7,06911899504633","4,10464595796194","-3,00406091422878","2,65981591527241","-1,39858282878425","2,41577087600085"
"4054","6,2958338604983","4,02771355419456","-3,00069674273039","-1,13391382814023","-1,11738588855998","-1,33153668802254"
"4062","2,63527577113573","0,537002580602748","-3,00011954215357","-2,04360486532437","5,78739632977372","4,80142881545924"
"4074","3,62236978389578","5,08288892827584","-3,000020510191","-1,33981740523966","-1,29556465668266","0,0518860548708462"
"4082","3,89550666933378","4,2867831838414","-3,00000351899244","2,23811137164832","-5,49802991293273","0,737649214091766"
"4095","2,24779392782138","2,34078082131947","-3,00000060376365","3,07753354852982","-2,03019829226331","-4,24247035227375"
"4103","2,79185850475586","2,82541794456028","-3,00000010358947","2,35086522369391","-2,00889364296283","-2,62050965742814"
"4115","1,21911364358481","4,68893358058586","-3,00000001777314","-1,23451399382322","4,81934817950627","1,27488381366151"
"4123","6,95379820945453","2,4472829455448","-3,00000000304939","-0,401981014129003","1,12482913812121","-1,37052127602372"
"4135","5,54063174409556","2,85362307019569","-3,00000000052319","1,54348856904907","-0,668728659839003","0,620765694127831"
"4144","1,70301332259814","6,43157161036537","-3,00000000008977","-3,84617336403815","-0,196946035483179","1,89506280473981"
"4152","2,64111331145695","5,37912536881433","-3,0000000000154","-0,926767668076224","1,64748964635002","-2,19891274041569"
"4164","4,62398507844862","3,3652359478961","-3,00000000000264","-2,65053533346619","4,60167468795872","2,11483500921865"
"4172","7,61924555804178","5,56706285617097","-3,00000000000045","4,48569808123439","5,17719809477371","1,30848385083787"
"4185","3,00147447616942","3,41500772926716","-3,00000000000008","2,80939012478801","-2,47527300546349","1,08535997294744"
"4193","7,17028377044313","3,8450755737336","-3,00000000000001","3,93793383361866","-0,728988055158176","2,74691171757032"
"4201","6,32382697089176","3,95897111969718","-3","-0,0433533942985362","4,90178265426168","-1,2399073427541"
"4213","0,919729767203932","2,25396583503406","-3","-4,36287900275955","-1,55638509527994","-0,343092375653875"
"4226","4,14766434927428","8,00793186027115","-3","5,60250788306394","-3,86935179840072","-0,0949364312742556"
"4234","5,76415184169131","3,06142691969157","-3","0,498663276097061","2,56593624640106","-0,0262696772725257"
"4246","3,48815506248685","5,48660463177396","-3","-0,837625842690049","-0,244310882155189","1,71602289179539"
"4250","3,85836837195614","5,12886827257002","-3","-1,94712791531698","3,33903217077815","-2,2484545303147"
"4263","5,68410130831458","3,29895996615334","-3","0,365978467676978","2,39435587743866","3,82441831949679"
"4275","5,18929635704571","7,28467930517773","-3","-1,55521167644714","0,410649159526568","0,781539359968657"
"4283","6,77567175447593","4,60505522596729","-3","-2,85516854222058","4,23741509354623","2,66284210020039"
"4295","6,21463463905265","3,16023773036359","-3","-2,27845898837358","5,06992067821507","-2,98646200851477"
"4303","6,05939113808828","3,77760443285753","-3","1,25809082814746","-0,801375220708434","0,173621842560069"
"4316","2,56985016025296","5,67627105282451","-3","-2,93910424525275","0,46948032970267","3,4946264133846"
"4324","3,60426598896501","6,9142663520252","-3","-3,98017119500311","-0,861734220132666","2,41357519969526"
"4336","7,33708105038314","-0,698547086521284","-1,17157287525381","5,05274359492061","-1,95927960199221","2,11443959792979"
"4344","4,64668920170321","3,0205079381976","-3,68629150101524","1,31964966654262","2,12846806111328","2,03166636100033"
"4353","4,90223604865299","3,00543114963757","-3,11774900609144","2,77846511390347","1,33234303261229","-1,43782150948202"
"4365","1,52636407776821","4,73660676177514","-3,02020253553339","0,579101746644391","-0,607614128217863","-0,397856824009678"
"4373","0,868941115073511","4,19507673120024","-3,00346620710888","0,862947599155978","-3,58993102318016","-1,83338212009019"
"4385","6,85690264270291","4,05166247858499","-3,0005947071199","2,62975431668169","-0,762755774985071","-4,67718741062579"
"4394","5,5138199582138","5,74885027758047","-3,00010203561049","-1,14370245098963","2,4808540709292","-0,0175074547375496"
"4402","5,14217813222267","5,19831920081312","-3,00001750654307","-0,372411064929955","-3,68035199050594","2,71844746953751"
"4414","6,76263376112457","1,58218434323882","-3,00000300364793","-5,14440754003729","-7,61135291589612","-3,69436747739085"
"4426","2,76444307367394","2,62451764208769","-3,00000051534451","-2,02387833439179","-4,06357283937493","-2,46884516528263"
"4435","3,65811141970721","4,63572883643032","-3,00000008841914","1,34098708527963","1,09775285349054","-2,12973324378687"
"4447","3,90539666862442","4,16836107103021","-3,00000001517033","-1,23773050179101","4,734280868755","1,41068561099345"
"4451","3,97382249415967","4,04458732814072","-3,00000000260282","8,96887743231817","-0,605715735004336","-6,5028195928991"
"4463","3,99275647271553","2,27663971063177","-3,00000000044657","1,26919778277145","-0,178388216033098","0,477325376000403"
"4475","3,9979956574992","1,07326293114683","-3,00000000007662","-6,60986877198452","3,35844693273011","1,13207978658155"
"4484","5,72273730590183","3,48973918136671","-3,00000000001315","2,52208336101776","-4,42189374685651","-3,13332822731024"
"4496","6,92327917327513","4,86486682213091","-3,00000000000226","6,51876249900065","-1,00777557141086","1,13298277367778"
"4500","6,25547880396215","4,22904404539845","-3,00000000000039","-1,8773681194985","-1,00228996909352","-1,40978643982832"
"4516","0,900817277411446","4,06065809600978","-3,00000000000007","-2,28568758896626","0,704817442899708","-2,83668314113485"
"4525","4,14243111060499","4,01606417929412","-3,00000000000001","0,255737059610598","0,207574475949496","-2,2315169824899"
"4533","2,31611991496698","4,00425430195422","-3","-1,59110835581672","-3,34985134153398","4,82910507577331"
"4545","6,25734870454209","4,00112667350048","-3","-2,86685717730211","-5,80852592620987","-5,83362339501559"
"4553","5,34791854132299","4,0002983787212","-3","1,06649729265042","2,28934181848329","1,38578929227065"
"4566","1,64968802297354","4,00007902010762","-3","-4,6758718703625","2,37972166408135","0,383459089277391"
"4574","6,07294161769667","5,73518934886524","-3","4,8262103483066","1,40633926453294","0,106106226949204"
"4586","7,02018353471801","3,45953293365698","-3","4,5946484944668","-2,29131349284272","-3,41722339737226"
"4594","1,11241725242733","3,85686725387981","-3","-4,85265820971352","2,03068137665324","2,77771861094714"
"4603","2,47769060898576","3,96209392895939","-3","-1,25449809559214","-7,22391522941451","-3,6779666738689"
"4615","8,02534854413658","2,25479285353924","-3","-1,08286937456513","0,16700628635884","-0,74101500683007"
"4623","1,39055452858827","4,53781403719617","-3","-2,70136498999146","2,75467656863468","-4,37492060805802"
"4635","6,00123728694994","2,40726171837891","-3","-0,553996493763752","-3,59970903531664","1,78942413440211"
"4644","-3,33940917466556","8,04852945098196","-3","-0,854772855845317","0,939856378266676","0,495148109987567"
"4652","-0,924041488835325","6,54251528739966","-3","-0,952711305843068","-1,42869650121118","0,137011481018265"
"4664","8,36076987546342","-0,796998507646706","-1,17157287525381","0,689779250125046","-4,53723832517989","-5,13196358762956"
"4676","2,48336831994327","4,72960331481482","-3,68629150101524","-4,79853836222304","3,36923822596112","3,3032361514774"
"4685","2,85704384163497","4,19322199728921","-3,11774900609144","1,43750550675446","-1,71322376568731","1,63732404483307"
"4697","2,96044287641779","5,78633970832171","-3,02020253553339","-2,88068344579894","0,495441650984553","-0,546939213208292"
"4701","2,98905422442801","5,20824758592044","-3,00346620710888","-0,612385961261243","-1,55958025706759","-1,87463442122158"
"4713","8,1668469864761","5,05515053682619","-3,0005947071199","0,800595593911583","2,24618277276789","0,481273515462201"
"4725","4,87629213769232","3,27943718185832","-3,00010203561049","3,60945132908776","1,36701097369322","-3,31341157866197"
"4734","3,24247711173309","3,80917221171204","-3,00001750654307","-2,49907580706589","-2,30289599472783","-0,640139667715256"
"4746","3,79038729880381","5,68463119751739","-3,00000300364793","-1,48812732475748","-3,08920533679496","-0,900423739702257"
"4754","3,94199847267548","5,18131196049238","-3,00000051534451","-1,15894345306076","2,79569573173024","0,750845479095723"
"4766","7,43053435626834","1,57768028894463","-3,00000008841914","0,622626177661422","-0,176644842896258","-3,23881883916962"
"4775","1,22596463888325","2,62332482628086","-3,00000001517033","0,202738813469816","-3,46300705946139","1,10379266939819"
"4787","5,95569393518458","4,63541294113775","-3,00000000260282","1,74039673759017","-2,43086749162836","-6,58773934841038"
"4795","3,54115630671559","5,90344583382678","-3,00000000044657","-3,78205635469158","2,98958158768461","0,453827393809576"
"4803","3,87303424429033","5,23926098594951","-3,00000000007662","-4,25465228271035","1,5859479778527","-0,597714218527916"
"4816","3,96486754997647","1,59302702080896","-3,00000000001315","-3,4085384203878","1,17256645059187","-0,888684275269749"
"4824","2,2669866436773","6,09772596919087","-3,00000000000226","3,56449683525586","1,0508222248313","-0,96919803994345"
"4836","4,52046120789966","3,55554407895664","-3,00000000000039","5,18381080444946","-4,10150801329623","-0,991476848885237"
"4844","7,59059966696685","5,61746245885538","-3,00000000000007","0,362327619217987","4,20305620821329","-0,997641575250675"
"4852","6,44013177407414","5,16352355742987","-3,00000000000001","0,792361859329789","-0,762165723060442","-0,999347404824421"
"4865","4,3984960928808","5,0433062017796","-3","-0,741992050827946","3,18651970346949","0,723472502015223"
"4877","4,83355901094979","1,5411320060703","-3","3,10715573023847","2,34943971397495","3,64677453163696"
"4885","4,95394443409572","2,61364568684841","-3","2,36051076412806","2,10291284109808","2,45567581281569"
"4897","3,2639641292943","6,36801802121211","-3","-1,23137322413981","-3,0861669026549","-1,32049466972002"
"4902","3,79633293009946","5,36229437150149","-3","-0,400958320349265","-1,6143931395628","-0,365391539876033"
"4914","3,94364367687393","3,36077856831582","-3","4,89258389822656","-4,59192749721972","-1,82439871376973"
"4926","5,70769767389772","3,83071397945686","-3","-3,08126366886","1,64763996204178","5,66504991241348"
"4934","3,47253373831528","0,484830872329185","-3","-3,35207982114736","-1,22024847262191","2,01414891095564"
"4947","2,13075390173518","5,06907221243873","-3","-2,44026266239798","-1,06486496857269","-1,44266872938627"
"4955","2,75947258428271","4,28312408118134","-3","-2,14335781724579","-1,0191032614113","-0,399198088904983"
"4967","6,38002796880885","2,33981177538738","-3","2,97646347512547","-4,41660978092291","-3,5570451825788"
"4975","7,10515680820466","2,82516131059678","-3","-0,030807417141187","-1,71171125786238","-0,70755505358697"
"4987","4,58251389079329","8,15920245949917","-3","-0,010031475420345","-1,91509661803323","-0,919078121442567"
"4996","3,161186298163","4,83665657305895","-3","5,01987704383774","-7,0914708350121","-0,977608262650518"
"5004","3,76789347415668","4,95674150246203","-3","-3,03981462249805","-0,499479618497698","0,729487898227455"
"5016","3,93577424972783","3,25337536198299","-3","-1,66420207036094","3,55839104275559","-1,52143673062741"
"5024","2,25893629253111","3,80227021882487","-3","-1,21627670740564","1,75346699393398","-1,14428575466516"
"5037","2,79494168706057","2,2124664881578","-3","3,95271971072727","2,92739402230474","2,40665881370239"
"5045","4,66655063234847","2,79143625720922","-3","5,98460464707143","-1,13785862396136","1,38923385440692"
"5053","4,18443994326065","2,9447657348509","-3","-0,376918818994898","1,37038322760971","-0,615587772560046"
"5066","4,05103602189999","4,72054064423779","-3","2,22603045235411","-0,596410981046703","3,27624573895533"
"5077","4,01412207944402","4,190821915938","-3","2,07359977360804","-0,175647890228094","2,35314750336401"
"5086","0,557323846117762","2,3153672472989","-3","2,02396547287649","-3,46271344878287","-1,34886508099883"
"5098","3,32409178033658","4,5538560494913","-3","3,68218476987616","-2,43078102089279","-3,8198257091251"
"5102","3,08967881309468","4,14667857165723","-3","1,54775105274668","2,98960705402033","0,943023376072234"
"5115","3,02481485185992","2,30367669576801","-3","1,8527392225886","-3,53052009443593","-1,46234973932254"
"5127","4,73015839358239","2,81559160043444","-3","1,95204911654186","-2,45075063015703","-1,12793590696445"
"5135","5,92533264817157","2,9511628325181","-3","0,310005128563104","2,98372584148835","5,85776679592724"
"5147","3,532755093391","8,19257164139947","-3","0,775324670638174","-3,5322521594147","-4,82569246556719"
"5151","3,87070956071235","6,58066220800877","-3","2,60122264037605","0,959722977491193","2,3879838445019"
"5168","7,41080813857462","0,948272423385375","-3","0,521388258087949","0,28264623146929","1,38406633960373"
"5176","2,9437981587913","2,45663774794191","-3","0,844154999983414","0,083241616630487","1,10627425801886"
"5184","3,70774042029191","4,59126893912327","-3","2,6236350923462","-3,3864683809907","-2,41717690181821"
"5197","3,91912941390691","4,15658668626179","-3","2,20306733509872","-2,40832622759826","-1,39214429433622"
"5204","3,97762245568966","4,0414690992407","-3","-1,28263977080176","-2,12025539884688","-2,83180141699322"
"5217","0,547224105441543","0,540645483305696","-3","-0,417651673783226","-2,03541619414673","-0,506874246333886"
"5225","5,04458902418209","6,81902210579316","-3","-0,135995253371019","-2,01043035755456","-0,86354812130912"
"5237","6,01233814310732","5,48173449497524","-3","3,30447970422296","-2,00307182522959","-0,962242663134407"
"5246","5,28012214018528","3,39241008471035","-3","2,42476316756061","3,11557089478924","4,18032353103049"
"5254","5,07751205855104","3,83909100386304","-3","-2,88483259150093","-1,78793086021789","2,60331313007125"
"5266","1,57486436529573","3,95738621661378","-3","1,73502531954565","-1,23205205410536","-3,00293415532573"
"5275","4,32894538365633","5,72388294634013","-3","-3,7838053896022","4,04813435290097","0,16906386650281"
"5287","4,09102184433261","5,19170706307843","-3","0,76792167979516","-2,51328332835376","0,0467813372786697"
"5295","2,30189455579068","3,315601662213","-3","1,9244309266804","-1,4456742621945","-3,4336390734721"
"5303","2,80682858545005","3,81874970811751","-3","2,97539328603662","-2,83674655658789","1,04988433713216"
"5315","6,39313175679504","2,21683077731435","-1,17157287525381","-1,03115589087044","-0,540936816726915","0,290511475307799"
"5327","1,93890696119242","2,79259205879407","-3,68629150101524","-0,335763784623857","-0,864802154578378","0,0803868714872445"
"5336","6,15297083373244","1,20990340576321","-3,11774900609144","4,91381246729722","5,86178429610851","1,74553562023182"
"5348","3,59574441781918","3,52592589389916","-3,02020253553339","1,9487922343905","0,431835062555076","2,92958765097718"
"5352","3,88813921550486","3,13928178447366","-3,00346620710888","-1,36543653403155","-4,28380477272424","-2,91265136028695"
"5364","2,24575529384486","4,77205463663578","-3,0005947071199","7,92729394229109","0,738384613312257","1,91733776870419"
"5377","2,79129439826985","4,2044644478418","-3,00010203561049","4,27880089622616","1,92295213840251","1,25383476933257"
"5385","6,38883332174289","2,31898022055301","-3,00001750654307","0,742020503490741","2,97730877739301","-4,09963764024834"
"5397","7,10759332047654","8,02514972259088","-3,00000300364793","-3,43276530510759","-2,82865017959812","-4,30427861610466"
"5405","6,30648001707658","6,53632359703303","-3,00000051534451","-1,79215421564921","1,87243134710968","3,53226326776394"
"5418","4,36151357230249","4,40686700275836","-3,00000008841914","-4,60670265729341","-2,15404557934296","-3,46917807336816"
"5426","4,82332564882234","4,84291965228495","-3,00000001517033","3,17435198679382","0,36561603744664","-0,683241514823699"
"5438","4,95111278014693","1,48806331992669","-3,00000000260282","0,0336288103968816","1,81316875752107","0,810941554757206"
"5446","3,26318058777727","-0,870745420744459","-3,00000000044657","3,35971249503397","1,23948482036214","0,224394077641393"
"5455","3,79611611783355","0,504567537898817","-3,00000000007662","0,768366844404089","7,89249765939103","-1,66120027009322"
"5467","2,22029175950934","4,33913068288361","-3,00000000001315","4,27333820147946","-4,38108703164875","2,26362439250584"
"5475","7,95412420364572","8,56014935763957","-3,00000000000226","3,41462290757411","-1,99575766151121","1,34965507486715"
"5487","1,37084617834242","4,94283997284965","-3,00000000000039","-1,8881344511909","0,412233118116333","-2,34983146416996"
"5496","2,54919997994645","3,24969379795698","-3,00000000000007","-0,614812148990766","-1,58408584752742","0,34978265582529"
"5504","2,87525999363675","3,80129522441379","-3,00000000000001","1,4741867418863","2,23896567683933","-1,62650423782889"
"5516","6,41206728011565","2,21220827884922","-3","-2,19435818417267","-7,16257380704312","0,549933141190792"
"5524","3,66743849708452","2,79136787523054","-3","1,95985679482797","-1,52042002272077","7,045338636253"
"5536","7,35456139358249","4,679916046989","-3","-2,03621486510914","1,55222392320348","-5,49708174611457"
"5545","1,20494230652456","5,91523166158214","-3","-1,33741108194499","0,457142584453718","2,20220500820605"
"5553","2,5032930387183","5,24238224531382","-3","2,23889491584721","1,84012407087469","1,33265983518754"
"5565","4,58584909589839","5,06419047254311","-3","-0,270973635533038","-2,16356033525798","-0,631242260589088"
"5573","9,33198494733051","1,54666282045521","-3","1,5861470396455","-1,34267799308872","-0,174669831632398"
"5586","2,47540329785201","4,35027884299588","-3","-0,483520641528088","4,01555411309247","3,39825129421341"
"5598","5,30142370301321","4,09276489878475","-3","1,5169377301946","0,888105240624109","0,663615502202765"
"5602","5,0834063730242","4,02456707454251","-3","1,16832466384737","-0,738445775189503","-0,816372230955777"
"5618","1,57649536971494","2,2713377152763","-3","-0,619571478691115","3,19350542125849","-1,94918871326509"
"5622","2,60610477209211","2,80702721719491","-3","1,47263701447204","4,05698892218936","0,460643740727919"
"5635","1,16771408554637","4,68406313523428","-3","1,15389951620069","-0,0996918707115995","-3,31912000394403"
"5643","3,49299168930585","7,65149836335232","-3","-2,29864973893661","-1,02936006767121","-2,36501115875355"
"5651","8,30629055297833","-0,503304769495458","-3","0,251516339378633","-2,00864677899517","-3,82429345924105"
"5663","4,9148772987372","3,0722142691381","-3","-3,26686386224874","3,81942088295485","0,21849518987252"
"5676","1,52986201376155","4,75429304070656","-3","-2,41251474074668","2,53583426476672","1,06045938367926"
"5684","-0,853382901446169","2,46459219451589","-3","1,21443974961908","3,86329941147828","-1,4298542475645"
"5692","3,93373782993768","2,85820710591737","-3","-2,95331785879011","1,54875684870024","-1,11894414195034"
"5700","8,42824856970703","2,96244876408899","-3","2,71272522628179","-3,24937035466229","2,41367104260808"
"5713","1,50204021962138","4,72522366877747","-3","6,58083908194561","0,0430339723717266","-2,05540965254085"
"5725","7,75537820171476","2,45689370687195","-3","-1,85715481459411","1,71816571271396","-1,29204037470571"
"5733","4,76243540178687","6,32650514697609","-3","-3,95348691648681","-2,19947806478908","2,36577391702056"
"5745","4,93426395702186","3,6161320296584","-3","4,06143249872644","2,05772765799015","1,37792067329471"
"5749","-0,188065464977393","2,16317121776601","-3","-0,677521062682797","-0,393982449559116","-0,618718221142897"
"5762","1,39454461427915","6,24871815664668","-3","1,45376753817782","-1,82152289686329","-1,89449625242879"
"5774","5,27904945222634","3,59553157824957","-3","-3,87538822199746","2,16903853246544","-1,2475143373033"
"5782","4,35392331346985","5,62805241139958","-3","4,08686290499973","3,0497832242168","-1,06848921614188"
"5790","4,09793343924228","3,4311596894293","-3","2,67952187751394","0,603677850006633","2,42763232807044"
"5803","4,02709897358213","3,84935312283363","-3","0,54688396482574","0,883279899751634","-3,77483837575688"
"5811","5,73079042851027","0,489767106085104","-3","-0,821924277981881","-0,739866877367055","0,955471734548239"
"5823","6,92550753734064","5,07037948301445","-3","-1,94201519003692","-1,92338867723607","0,264386745664507"
"5831","4,53280348663655","4,28347028771099","-3","-2,98111905346585","-1,27194548419008","-1,65013397585682"
"5840","4,87072295151424","5,81024030549986","-3","1,02929147312436","2,33089355546258","-1,1798973218229"
"5852","1,51764414927942","6,9497456406354","-3","3,68391901589654","1,3919589889591","0,673512881799146"
"5860","6,03640401141423","4,51635421500946","-3","-0,800446564892267","2,82092697124044","1,90965837757271"
"5872","7,01007328396951","3,13674690164772","-3","-1,93502164202359","-1,16921403741372","2,97500174344467"
"5881","1,1096196643914","5,50655174146198","-3","-1,30446066206928","-2,04983491185312","0,546498933197591"
"5893","2,47691649378195","3,39898247526289","-3","-2,7735192878923","2,10179878500755","0,874512592186768"
"5901","4,57855049288855","3,84083158042532","-3","-2,25187245292565","1,32448871364308","2,68856854443861"
"5913","4,160089593953","3,95784717625167","-3","-2,08201441584688","-2,31541914655248","0,467240553700586"
"5921","4,04429808358486","3,98883660116306","-3","-3,70108659932573","-1,38740164953383","2,57587308212185"
"5930","2,28896571383478","5,73221200131388","-3","3,46923763670529","-1,11409294022736","0,436056809110618"
"5942","1,07995914680356","1,7235760161608","-3","1,80403029394127","-1,03360129990512","4,29053621180283"
"5950","5,19200111267651","6,13229946565639","-3","1,2618074113101","-1,00989585642252","-5,25935782568216"
"5962","2,60654441122482","1,82953181074249","-3","-0,589131734940413","-1,002914410294","3,99127706058857"
"5971","2,89112766090463","2,69002306225922","-3","-0,191832391898215","4,11561725476953","4,27429436855587"
"5983","6,41645799180135","8,12341358392289","-3","1,61191691956175","-2,49340906427016","1,62931561975499"
"5995","3,66865344246884","3,09201012681427","-3","-2,14951064354117","1,97116258529334","0,174136714553396"
"5999","5,63160565512308","7,22987245262673","-3","-4,72306464266439","-0,419476568329284","2,49476888262343"
"6012","5,17477038583485","4,59054064071253","-3","-1,88668114907883","-0,123539264984442","2,13690654574384"
"6020","3,32506845360608","3,15639380984431","-3","3,06004223396438","-3,44736703435121","-3,13199262406749"
"6032","3,81324099013586","5,51175486316554","-3","6,69393204295784","6,10119791033614","0,133352345881837"
"6040","3,94832227364125","5,1355288480404","-3","-1,82032961586327","0,502344321383883","3,48348351842357"
"6052","3,98570035574962","3,30072389686658","-3","-3,94149593800832","0,853436350458298","0,687199947006174"
"6061","7,44262702026624","0,344472762350533","-3","-0,95780649399933","-4,15963976052462","-0,809846224602669"
"6073","6,39918654765461","6,76706937451172","-3","4,03688248168577","-0,930539637018339","-1,94738291460093"
"6081","4,38716621804293","1,99763892746967","-3","-0,685515010743547","-0,979543357517002","0,461143419802535"
"6090","3,10713201941866","2,73454313528109","-3","-0,223216602321323","-0,993975352219399","-3,31898173870851"
"6102","3,75293621866736","4,66486706142996","-3","6,62484111060577","4,11824988015928","4,52819479499204"
"6110","5,65492737999361","4,17607779314149","-3","-0,168445764674255","-2,49263373465658","2,69957191833616"
"6122","3,45793177180116","0,576294116144765","-3","2,29391320638823","-3,14508464615416","-1,25300664753453"
"6130","0,403421496010709","6,82846298948698","-3","-2,92743980401856","-2,33723675220831","-0,346717059081064"
"6143","1,55821383343462","3,74906631725762","-3","-3,30199187277611","1,3116647453934","3,35064443686638"
"6151","3,60104612335544","3,9335448367872","-3","2,59919039845173","0,386295947822061","-1,0728496233739"
"6163","3,16631431658556","2,2472321524044","-3","3,19510768223862","-6,70820012770581","3,14971769183276"
"6171","4,76931243826983","6,27098014662811","-3","-0,959612744137456","-1,38660327439278","0,594844247182055"
"6180","2,48958304123886","0,131090412498342","-3","3,03629433261178","3,2971259026404","2,61118205467904"
"6192","4,58205542886923","4,97539056820461","-3","-1,01132536275469","1,67652228280401","3,8924109343036"
"6200","7,60764328536503","2,52314580164927","-3","1,34507456933753","-2,21174239398152","-3,64623038170191"
"6212","4,72155595727543","4,60888237194658","-3","-3,91078070038306","-3,06235985915187","-3,45552524213393"
"6221","6,64624420822879","2,42608285762767","-3","0,726576126441842","-0,607381771400967","1,04382825750329"
"6233","1,00894522072646","6,31834546114645","-3","1,9109680355752","0,8211211226823","2,01212763282309"
"6241","2,44905906213878","-1,59153417835341","-3","2,97100951505739","-4,87464871567716","1,28006389028948"
"6253","4,57084211656678","5,51918517924147","-3","0,641797831118098","3,26986811857665","2,80078786399398"
"6261","2,43466470030974","6,13749663037298","-3","-5,81416201620207","-0,0369972139947541","0,498292545742986"
"6270","6,29015100405448","1,83090818407631","-3","-0,567581849324385","1,69459587667061","4,307757342766"
"6282","3,63370327886104","4,42555599122678","-3","5,83832813807293","-3,91191143086651","-0,0847168286822524"
"6290","3,89864273892383","5,84786908659515","-3","-2,77331152693026","0,847910230651737","-1,02344183069833"
"6302","2,24866170360492","1,7542056645806","-3","3,44571983958907","-3,16126724780439","1,44009730344069"
"6311","6,23868247264273","0,934905898249427","-3","-0,878008704273312","-0,636510802718091","1,12177847823769"
"6323","5,34275344420159","5,18826629184114","-1,17157287525381","-0,285896175437294","-4,30393318655722","-0,689594835206743"
"6331","5,09484264620408","4,31469043733616","-3,68629150101524","-0,0930931808897292","0,0269647740977514","3,25576738701476"
"6343","1,57965987886705","5,81850838699532","-3,11774900609144","1,64406826687258","-0,697550511909981","0,624189054332356"
"6352","6,05356426465127","3,48159844601529","-3,02020253553339","2,88410192208502","-4,32190987793349","-0,827281847502935"
"6360","7,01482166463224","2,12754247649501","-3,00346620710888","-2,73526323927299","-1,68382136533273","1,49437635504566"
"6372","4,55751742698943","2,76894569717735","-3,0005947071199","0,10934675804883","3,20959275474362","2,86008985385244"
"6380","4,87756149840808","8,14431478988038","-3,00010203561049","-1,63877579593881","1,65074305800484","-2,93188196203924"
"6392","1,51953643043537","1,36237700432789","-3,00001750654307","-1,20799743343316","2,8971409867382","0,188724582226885"
"6401","0,867051849914111","6,03664256132482","-3,00000300364793","-2,74210904332049","2,26421532561517","0,0522216161061548"
"6413","5,13308794411539","3,53936726365241","-3,00000051534451","-0,567263525129031","3,78330542222572","-1,70884178072344"
"6421","4,31353458534072","3,87800990548341","-3,00000008841914","-5,88223633242682","4,93618168239773","0,527149678085845"
"6429","4,08675755197583","5,70286159259538","-3,00000001517033","5,43339535204399","-0,840762443953909","1,86915849702618"
"6442","7,47059036263436","1,7158031011004","-3,00000000260282","3,11797821039369","-2,9531032431437","-3,92937259523162"
"6450","2,96034038301022","2,65990410860322","-3,00000000044657","-2,65910871366579","1,83577890652946","-2,5338729793705"
"6462","0,265733940014802","4,64510029020294","-3,00000000007662","-3,21461821450894","-0,459348164094437","1,29885688218737"
"6470","6,68999034565766","2,43567450607698","-3,00000000001315","-2,39550257355591","1,57021008284997","0,359404189311609"
"6483","7,19092590124041","2,85054878885151","-3,00000000000226","-0,454401928649151","1,16793151236687","0,0994500418531108"
"6491","1,15966304421756","6,4307574435853","-3,00000000000039","-0,822342989123014","4,4604409126717","0,0275186297731506"
"6503","4,21405582480678","1,90857290805022","-3,00000000000007","2,40661079054285","1,72461988305985","1,73090655076761"
"6511","0,612647128192631","6,18129248448916","-3,00000000000001","-3,56512450784913","0,213406455819136","-3,96762802533115"
"6520","5,06269210295592","5,31284355292939","-3","-2,50963402606309","0,768341796356716","-0,821166642183362"
"6532","6,01734741121067","3,34768242999234","-3","-0,491565279775508","4,34275848762505","2,49606848174606"
"6540","0,111632474147353","7,29758255216779","-3","-0,834444076392135","1,68996145064787","-3,75590153932116"
"6552","3,20076537815712","1,13813556954012","-3","2,40267044854848","0,203199265265579","-0,762580213529218"
"6560","1,33226147792606","4,24208792641689","-3","-1,8920263970291","-0,940156161817881","-0,934304027600512"
"6573","5,26181520537763","2,32894410575972","-3","-1,29046060028619","-1,98237550237356","-0,981821393854023"
"6581","4,34915445817716","6,29262005218929","-3","3,92856403761108","0,416174272947353","0,728322090796763"
"6593","4,09661385846789","5,34232660837553","-3","-0,720785536809579","0,122566712105338","0,20153260470062"
"6601","2,30344191126492","3,35549047409496","-3","-1,90908251049859","0,0360968947213449","-1,66752622429297"
"6610","6,25384059852586","2,09414510327348","-3","3,72712908906143","1,71612268686038","0,538582026228653"
"6622","1,90036397273652","4,49526943996631","-3","0,888004609398215","-2,20007975253841","-1,57426192723029"
"6630","4,41901375388084","5,86633140924344","-3","2,63791335128041","-1,35343325883921","2,28768093411967"
"6642","2,39265256613699","3,49426349246938","-3","2,20771660520428","-1,10408897257827","-2,0902721330986"
"6651","9,7251097545437","3,86606500258029","-3","0,393255279542802","-2,73614690741855","3,86818866634137"
"6663","6,0307679543368","2,22936136141778","-3","-0,871948672211781","1,19418245653569","4,24023481576389"
"6671","0,838637970478788","6,26624739684825","-3","-3,6326852356452","-1,35379540029661","-1,82669278089821"
"6683","4,12522559419547","3,600173874596","-3","-0,857251911442211","-1,10419562618623","1,21783127819225"
"6692","7,48123478059754","7,3644502599127","-3","-0,953518533049813","2,38029725455734","2,78356759761492"
"6700","2,96328577942858","6,36134951564609","-3","0,689516401738698","-3,70996679171697","0,493527558959164"
"6712","1,98984087865134","4,36052834064851","-3","0,224519530613919","2,61287642867077","0,859854985120143"
"6720","7,89035658371254","1,36031086757796","-3","0,0731077890242813","1,47500524118026","0,961220742523892"
"6732","1,35320116289791","2,56575853937778","-3","-1,6505758869806","1,13989291128439","0,989269466261876"
"6741","5,99090130898492","8,09050441421958","-3","-1,21183976538527","-2,36978411342878","0,997030774651217"
"6753","1,82760654773332","4,81846316131142","-3","0,605402141823611","0,302079282495261","0,999178391365517"
"6761","2,67558926310916","6,68709173436235","-3","0,197130342907214","-1,61652704905161","-2,44681119306387"
"6773","2,91023292905075","2,71162674465727","-3","-3,28457296730982","0,523919621392203","2,0462395052586"
"6782","4,69845265013848","1,92362965569002","-3","-2,41828115898689","1,85979045198884","-2,15708092642764"
"6790","2,46997556557514","0,979774721192179","-3","2,88694325561094","2,95870714644661","0,403118286337553"
"6802","8,02321372931555","8,67048581672188","-3","3,28880543367613","-4,53962036882061","-1,61174583810944"
"6810","3,11325573174535","6,70722897328184","-3","-0,929102991041979","0,663044837269045","2,27730883324658"
"6823","7,20121454664446","0,981791299574561","-3","-3,65129575862037","1,90076396089944","-2,0931421771788"
"6831","1,16250999549547","0,730346182975621","-3","-0,863311848337589","-2,14570139388199","-1,30248126901375"
"6843","5,93813552287788","5,13409241961833","-3","-2,62987292307753","7,19004089778371","4,08617676090087"
"6851","3,53629775222261","7,77068032895152","-3","1,14366383051265","-1,88247441029171","-2,59261381256367"
"6863","9,04156561400146","6,46893206592348","-3","-4,65074499184846","1,15108781545965","3,72918666655097"
"6872","2,39504192279446","0,918682753529493","-3","1,48562981251524","-0,66099526555008","-2,69139585484382"
"6880","5,27918706150896","5,91913831266777","-3","-1,1906321047931","3,21631522699241","0,255269030335531"
"6892","1,63066946741017","6,97858527173156","-3","3,96107007647177","-2,75826083406769","1,79392692599299"
"6900","2,62109518245284","6,25916028187148","-3","0,964180202251815","-1,51782213237032","-0,503605931213159"
"6913","6,34173782413952","0,863128560906706","-3","-4,0348070822007","0,552989023065159","-5,30922759943831"
"6921","3,64797776861129","2,4340889644715","-3","2,3605719603234","3,57384348492471","-1,91569000321327"
"6933","5,62588452918292","4,58529730921134","-3","4,79179018371782","-0,947473993468795","-3,69996266663243"
"6941","3,44989538042189","2,41983678824263","-3","-3,11408400121652","1,4264530515073","0,252898524325132"
"6950","-1,32209416204813","2,84635446104307","-1,17157287525381","1,66037674153919","1,12559389608677","-2,37660478314378"
"6962","7,25062548597653","-0,51102703424924","-3,68629150101524","-2,13373121254203","-2,37399528983501","1,3423742622348"
"6970","7,3460581724469","7,5405060132673","-3,11774900609144","3,65397923938616","-3,11014465813402","-1,35184612382765"
"6982","6,37246516754011","7,40797463865018","-3,02020253553339","-0,810195520177224","1,08403707365234","0,62593325956737"
"6991","2,65648027269473","1,16737088001903","-3,00346620710888","1,41056623528496","-4,79721782730862","-4,99667498280629"
"7003","0,181653393412805","4,24983035982886","-3,0005947071199","1,13368810110921","-0,118311569201369","-1,82920416990985"
"7011","4,94343265569021","7,53649981215527","-3,00010203561049","-0,630849796057376","4,37613999439952","1,49384443291033"
"7023","5,98434735897235","2,93657682639641","-3,00001750654307","-0,205416578549155","-4,12217485357207","-1,30993310427706"
"7032","5,27237686415203","3,71837196268842","-3,00000300364793","-5,09003098916368","2,4914777980272","-2,80905291673829"
"7040","5,07536887811915","2,19024758058077","-3,00000051534451","-3,68055346540314","1,43925235596057","-3,94716339990783"
"7052","5,02085517728029","4,52072041069616","-3,00000008841914","0,127161291130679","-3,98711217686454","-1,53879583870901"
"7060","3,28247887232741","9,34340847367826","-3,00000001517033","1,04140611205901","0,825762998629027","1,57420276359016"
"7072","7,24803995634721","4,15027172065413","-3,00000000260282","0,339101449752842","3,65417764180565","-1,28769730517672"
"7081","2,89875888819773","-0,430540146758033","-3,00000000044657","-1,5639633398353","0,781676927301971","-4,5261920152029"
"7093","1,97198576670663","4,82665306085691","-3,00000000007662","-2,85801824869753","0,935702077382575","-1,69901773299337"
"7101","0,992248235395238","5,95409225653847","-3,00000000001315","2,74375657473372","2,68655559568368","-1,91671577588401"
"7113","8,61431464242577","6,98784217984957","-3,00000000000226","-0,106581168011838","-1,20878750164164","1,46962926476376"
"7122","3,27681812833516","1,05610653792091","-3,00000000000039","-5,0578483174739","-2,0614896192974","0,406658286786396"
"7134","3,79988973544734","2,48519562667325","-3,00000000000007","3,02745046043881","0,392874521322151","-1,610766291395"
"7142","0,498044026320539","4,59883196721644","-3,00000000000001","-1,68858625455699","6,93767217530799","-2,89229588924505"
"7150","6,7542724227538","5,89375803677277","-3","2,12454566364771","3,15967651834459","-2,24690547903948"
"7163","5,48542134747729","3,50152692952142","-3","-1,98258906675031","-2,06944953750438","-2,06832074014293"
"7171","6,85761193093458","0,397651746386738","-3","0,354431648696656","1,09602211804007","-2,01890490057911"
"7183","6,23730814765552","5,04598442693326","-3","1,78979078257118","1,02827929562828","-2,00523113867265"
"7191","4,34237315737811","7,7473465502007","-3","4,60593307895709","-4,10814708950358","1,44513634899994"
"7203","3,0947374177687","2,99241570078172","-3","1,84854090522484","0,79011723132327","0,399880899181421"
"7212","-1,42036923869088","5,46832828175969","-3","-1,39808025550204","3,64367967308645","-1,61264164928178"
"7220","3,77684813124739","-0,0814771475834659","-3","-2,12962243086113","0,778585190033867","-2,89281481591836"
"7232","4,93825207566569","6,65426438764911","-3","1,9809359757014","4,34577525047038","2,92282670073766"
"7240","4,25962192697988","7,17326987031144","-3","-2,02935108669358","3,39634176931393","-0,191230246162404"
"7253","0,625255636671282","2,84038206766491","-3","0,339205054025742","3,11672587829802","-3,49949880087283"
"7261","5,06618097908257","0,222559709232497","-3","5,13359503729917","-0,376606993282133","-0,691631505004758"
"7273","4,2950208877527","4,9996145264114","-3","0,345976419389279","-2,81640568350909","-0,91467194694587"
"7282","5,80492658598986","4,26472949257576","-3","-5,91048704101572","3,58152930835335","2,4701948087376"
"7293","5,22272968720453","0,599771885612028","-3","-2,27332825253573","-2,65070231333076","1,40681477737148"
"7302","1,61504725597116","5,09951222238111","-3","4,60852381321291","3,63033030011985","-4,05730683650535"
"7311","7,78664816135604","6,02635397889886","-3","-0,499377823708762","2,48014554844114","2,60060235380725"
"7322","6,49437997582602","1,80147410028613","-3","-3,51136914828978","-6,38605251359181","-5,45026809633025"
"7331","4,41350700843249","2,68259249451966","-3","-2,49213026826151","-2,29172817893121","3,21515872318434"
"7343","1,39112880519709","1,1807720475601","-3","2,86289659434402","3,03055924822357","-0,110339614578474"
"7351","2,55481234660654","5,25337941217788","-3","1,60659422733049","-1,81296748234358","-3,47711570981327"
"7363","6,3233968281381","2,59676602590808","-3","-2,15124381240902","0,46606631426048","-2,40872984659468"
"7371","1,91961074323002","4,62837933212113","-3","3,64827680693923","0,137260324520797","-0,389806925934577"
"7384","2,7010475670603","5,90158311205079","-3","-2,48643350002128","0,0404242832212601","-0,831154648279097"
"7392","4,64056937102352","0,033262412865612","-3","0,190370408999989","-1,6935865768783","-2,67657105118584"
"7404","4,17725071841852","4,94948262467416","-3","3,41075051248694","-2,90975875190219","-0,463920750421705"
"7412","2,32575478166399","5,98662140376823","-3","0,784985784422208","-0,562439502752867","-0,851662542083163"
"7421","4,53672282631206","-1,67938518398072","-3","-7,44191848141145","2,53984884418806","-0,958953827370601"
"7433","7,59509938811593","5,49591945877873","-3","-0,0976100206645025","1,4534980229189","0,734649731128978"
"7441","4,71808495959781","2,66099828921506","-3","-0,706164822069179","-3,98291671194917","-4,96659225709396"
"7453","-0,247883939499804","4,64539006378116","-3","-2,57870289073865","-4,28947697512345","5,07228765789132"
"7462","4,82457620658356","2,43575124727101","-3","-2,18843656375095","3,44220596096342","4,57341873143915"
"7474","4,22816689591983","6,3209059560339","-3","-3,73573965563316","-1,69173417358527","-1,73449810052414"
"7482","4,06313562285455","3,61464918708479","-3","-1,56518953250137","-2,90921320404909","1,24334229084738"
"7490","4,01747013674864","5,63311535791795","-3","-1,85841752013057","-2,26777069191193","1,06733477719265"
"7503","4,00483412793312","3,43250051754587","-3","1,39486424361734","1,33212306578198","-2,42795177065133"
"7511","4,00133764224116","0,379371372768905","-3","-4,56894940482823","-1,31317076768444","-1,39512578756385"
"7523","4,00037013641138","6,77631162858422","-3","6,53540747786804","-4,5032150559815","2,33724935072982"
"7531","5,72339434339394","5,47042341189227","-3","-0,871948200794665","3,37925835577642","-0,353264228231607"
"7543","5,20016905719609","5,12458297457228","-3","1,3904583990806","-1,71027275586724","-0,0977510650338583"
"7552","3,33209647110005","1,5626566620763","-3","-0,547240549590197","-2,91467296748258","3,41953533815337"
"7564","3,8151856993371","4,35451451731315","-3","3,17057048808034","1,14160507818838","-4,50037080192054"
"7572","3,94886039038337","5,82905506094418","-3","0,706778643581714","0,336211991109812","-4,4151647183968"
"7580","2,26255733333862","3,48439153832144","-3","0,904521602179438","1,80450902645077","1,77828826404624"
"7593","2,79594365829677","2,12828217553839","-3","-2,37985188592012","2,94242631649354","5,66194249570169"
"7601","6,39011980954135","2,76914159284237","-3","-3,12368693031021","-1,13343149092146","-3,15658670732375"
"7613","7,10794930204049","1,20369298185676","-3","0,982868686503185","-2,03929666054976","-1,59674495924492"
"7621","4,5832865963908","5,25944959938044","-3","0,320040561170641","-3,01157318650717","-1,16512414973852"
"7634","3,16140011204246","4,33354202501006","-3","0,104211236150809","-2,29791654021773","-1,0456911858315"
"7642","3,76795263818396","5,82350088270972","-3","-3,31482917902778","-0,382246989452293","-1,01264312013715"
"7654","2,21249869723245","1,74775219468882","-3","-4,10251431194478","0,887425149138764","0,719793470207468"
"7662","4,50538395305516","7,87387050301515","-3","1,6641440503343","-3,14962978255753","0,199172666503519"
"7674","5,86313574512278","4,76109166072536","-3","3,89063897539973","-0,633083474444176","1,77840460906734"
"7683","3,51554470799404","-0,268775738060692","-3","-5,75627813278181","2,51904361930247","-3,95448492898912"
"7691","3,86594730807608","8,33983022819233","-3","-3,89749608718967","1,44737071478239","0,905762082382156"
"7703","5,68619846114904","6,61966093194593","-3","0,0565206863664682","2,83724617568848","3,6972155307572"
"7712","6,91316857983188","4,42893736068254","-3","1,0184042003076","0,541083958620216","2,46963324465094"
"7724","2,80609727378069","3,11359615815901","-3","3,68037391475562","0,864845489064066","0,406659388053323"
"7732","8,83951324426893","5,50042069352841","-3","-5,82474439783552","-2,45078781886172","-2,61076598666554"
"7744","4,0624243239053","1,66219035831746","-3","1,10335348825585","-1,4272688257759","2,00087188971428"
"7752","1,29398139092513","6,11604260501369","-3","2,03365384291367","-1,12583414825136","1,27694933526606"
"7764","-2,64194489849678","3,56039490252807","-3","1,33657716486953","2,37392453361627","1,07663411780524"
"7773","9,60870405129687","0,41324184458085","-3","1,10959586585804","-0,300859895036441","1,02120527931993"
"7781","3,55197370879719","6,78528159908702","-3","2,71006763907263","-1,79409754630074","-0,717424251610679"
"7793","3,87602750681133","3,73763052149109","-3","-1,1175509201489","3,88260737896251","-5,36839285556185"
"7802","7,41227965720975","-1,27498898858941","-3","-0,363895633804038","2,55444320234056","-1,9320615074214"
"7814","4,66749726354169","2,13267949771304","-3","1,55588988639591","-2,95318753465772","-0,257908946749548"
"7822","4,90799380741669","7,2406429863044","-3","1,18100821974926","-1,57522963289567","0,928634511473943"
"7836","1,52795729611975","5,59339301814395","-3","1,0589396864714","-4,58039352561521","3,70354451661242"
"7843","4,31596581877787","5,15714920946096","-3","4,36795419313042","-6,87642247662444","-0,97519932116699"
"7855","4,08743029390336","3,30644965130185","-3","-1,57771182424115","1,26934573153473","-1,99313745186818"
"7863","5,74748459209944","5,55149438847006","-3","2,83502962739544","1,37383265365574","3,89506661713059"
"7871","3,4835430999144","3,41088470739648","-3","-2,75124210292593","-1,30088695443296","-0,922203609155928"
"7884","5,58038412832412","3,84398366734482","-3","3,45290605982383","-1,0886136580694","-0,255181186683748"
"7892","1,71401312836797","3,95868194840504","-3","-2,55004989598725","2,38488627104479","-1,79390261894509"
"7904","6,09074089387076","2,2538892533444","-3","0,169655711966515","-0,297631574107182","-2,94297119014949"
"7912","8,74840066184795","2,80240631348512","-3","0,0552430960607187","1,61783693538761","-0,537635820411163"
"7924","2,31392081283362","6,41800779585775","-3","1,69236935324261","-2,22902570664438","-0,872060097297247"
"7933","6,98003211888066","3,64036482056705","-3","-3,79769497585148","-1,36195807801747","-2,6878899192955"
"7945","1,10130703138863","0,434420404180003","-3","-2,58536335197742","0,598892256203872","1,25623915101688"
"7953","7,64449209207311","8,52605877229414","-3","4,50691930622068","0,176378645965802","0,347611518901429"
"7961","6,45504424335462","4,93381170933241","-3","1,14191899503493","-1,65354691003401","1,81947883836855"
"7974","2,67933056990933","3,24730282868171","-3","-5,65131314315199","-1,19247488654736","1,22675641296666"
"7982","5,35785202617754","2,06549359840187","-3","1,15982597215491","-1,05668542132575","-2,38383851648926"
"7994","3,37572862211856","4,48768161671466","-3","5,40080466840545","-1,01669431814465","-1,38291929386355"
"8002","2,10396714425247","5,86432191403695","-3","3,78174723021363","-2,71040847007197","0,617335062460936"
"8014","4,47535239580783","5,22889973652798","-3","-3,4429730156748","1,20176263591093","-1,55247032606849"
"8023","0,684949999708685","5,06061987846387","-3","-3,46985919892683","0,353928881695386","2,29371084615753"
"8035","-0,087176879531665","3,28088563623569","-3","0,870148474097253","-3,30674877734286","-0,365311684078545"
"8043","5,86904514800167","2,07438738632525","-3","-3,06542558440724","-2,38484815520263","-0,101084693366061"
"8051","6,24047181115653","6,22520539445161","-3","1,00183967834919","-0,407849057910895","3,41861289627033"
"8064","1,89666472130055","5,32447307817611","-3","-3,02254444729423","0,879885131511429","-4,50062604903953"
"8072","4,41799014113209","1,61559387367118","-3","-4,00734089676719","-3,15185037914379","0,754640423642593"
"8084","0,669077400562811","6,10370238444836","-3","1,69513430734445","-2,33922931566412","-1,51447682370468"
"8092","5,07830681507084","3,55712682244098","-3","0,551967666110364","-2,0999057956568","-2,86565181586862"
"8105","4,29837620450304","2,14754477561928","-3","-1,49465008947659","-0,323931212865514","1,2070509985695"
"8113","4,0825631055738","4,50941135946658","-3","-2,83544854854736","2,610091477627","0,334000759858975"
"8125","4,02284587812002","2,39973979241196","-3","-0,597656626509112","-3,64229052191061","3,53900455507594"
"8134","0,55973779166778","6,31136898561194","-3","4,15415406361721","-0,778176073701341","2,42585498991424"
"8142","6,77134358588523","3,61212349615713","-3","1,02705198608994","-4,3456547623792","2,11783751505915"
"8154","3,76685315252872","5,63244647520365","-3","2,68318979672711","-3,39630628459","-1,41397725520636"
"8162","5,65877830799094","1,69715495443561","-3","-1,12630285198419","1,99976014457397","-2,11455084993685"
"8174","1,73570543101987","2,65496549049232","-3","-5,38988890891595","0,588945645736092","-1,30840522166963"
"8183","0,926867558230281","2,9086239663293","-3","-0,429430532459716","-1,53204256925174","-1,08533821562155"
"8195","3,42634751003894","4,71096916264292","-3","-4,16297415288849","2,25429284605683","2,42297007383615"
"8203","-0,328610047963707","4,18828708536195","-3","-0,0299239733235543","1,36939945631353","-0,329544611838342"
"8215","7,52553056405962","4,04986436596253","-3","0,990256190530397","-2,30219256714779","-1,8144795792697"
"8224","7,42212662777948","5,74837408057697","-3","3,67120839247514","-1,38350631420099","-2,94866500125785"
"8235","4,67022199982582","1,7278562451183","-3","-0,804585383341236","-1,11294573225385","-0,539211343930002"
"8244","3,18545584029285","6,13343300544607","-3","-5,2851316400999","2,37772027707219","-0,872496057379374"
"8252","3,77460905247309","3,56500042971932","-3","-0,395319592148991","-0,29974201768162","2,48186521800749"
"8264","3,93763250448528","0,414461533615142","-3","2,54565765354424","-3,49926017976132","3,13333599753022"
"8273","3,98274241028995","1,58009934572253","-3","-5,19422939007753","0,969439384138155","-1,13298062359516"
"8285","0,548640838229941","5,35913389075043","-3","-0,36572010698039","-3,1254759225447","1,40978703477355"
"8293","6,76827296924621","2,62477315136536","-3","-0,793466517258314","-2,33146182344019","-2,33319246521768"
"8306","5,48929541176492","2,90062808151012","-3","-0,932748807012724","-2,09761820594961","3,80097064853672"
"8314","1,68880814483256","4,70885159984751","-3","0,696279415829542","-3,73424121395783","-2,67153264727648"
"8322","7,80705839502204","4,18772628786501","-3","1,90110285582216","1,90023555622104","5,43064111127012"
"8334","6,50002765232139","2,31454742723095","-3","-2,05534625454968","2,26512670152557","-1,49729774480513"
"8342","2,69177784247176","4,5536389352489","-3","-4,69240294359008","-0,3329017424796","-5,58419014965259"
"8355","3,63800436336442","5,88178949479521","-3","-0,202315961798487","3,31294144105657","1,4548094857704"
"8363","3,89983288374294","5,23352570350673","-3","4,28288443210388","-2,72980362724143","0,402557534249352"
"8375","3,97228294994794","3,32667655875391","-3","2,74335017970468","0,196050604198367","3,55797476823761"
"8383","3,99233046839826","3,82168269044633","-3","-1,10671349788961","-5,05873707304241","-1,01547964621315"
"8395","7,44446162598317","7,42311278918949","-3","-0,360366764943799","-0,195331116505086","-2,00428334312607"
"8404","4,67640227421383","4,64171678400757","-3","-1,79172336823642","0,942473395694688","0,445398611682398"
"8416","3,18716597213001","3,169946868637","-3","2,09096227637253","5,39404166150639","-1,60004653061622"
"8424","5,4983741834236","7,25051256295987","-3","1,35523787047125","1,99957290548809","0,55725420245799"
"8432","6,86119608525244","2,8608383718599","-3","-2,23309017765364","-1,41110949769931","1,87748866205434"
"8445","-0,654867782536115","1,9631456064011","-3","1,9472449280556","-0,415583237110619","-3,92706757129108"
"8453","4,71196049027534","4,46057663647214","-3","2,98282195469086","-0,122392647238878","0,91334868668912"
"8465","0,750421370375367","4,12197523749804","-3","0,645644184004303","-3,44702934608875","-1,47056096553774"
"8473","3,37752342482","4,03230289464238","-3","4,23337739120842","-0,720670067496734","0,59308390408471"
"8485","6,55104762797452","4,0085548265671","-3","1,72722975449666","-2,62322691786211","3,61069495352688"
"8494","3,70589548178967","2,26709716637517","-3","-4,78634377244742","2,93293017036136","-1,00089154515744"
"8506","3,91861890452299","4,54107260778262","-3","0,441476294926497","-0,136228183280286","-0,276954774085927"
"8514","3,97748119362008","4,14329311261528","-3","0,143752998861413","1,66537154822229","-1,79992754643018"
"8522","3,99376886440513","7,50828538484345","-3","3,39557100549282","-0,509534518667365","0,501945511075136"
"8535","3,99827579445613","1,19393633323926","-3","0,780043050969203","-0,150062064660915","3,58547622411644"
"8543","3,99952289840074","4,25686573072956","-3","2,6027590339042","1,66129735751254","-1,00786977126035"
"8555","3,99986798213425","5,80319457868837","-3","-2,82687378404993","1,19475745643824","-0,278885705607132"
"8563","3,99996346959033","3,4775428659938","-3","-1,59486452164368","-0,648134200699387","-0,077169927117396"
"8576","5,72328181540017","0,391300008992158","-3","-4,54246141606784","-0,190880799575024","-0,0213535420839867"
"8584","6,92342984345096","6,77947070814046","-3","-1,82787333600786","1,6492759077115","-3,45249254487223"
"8596","1,08564472463799","2,00092319222579","-3","-0,269571155000171","2,89670889903046","-2,40191641799043"
"8604","2,4702824343224","4,47058133414497","-3","5,93536603454484","3,96957992971089","4,78195417576647"
"8613","4,57671479505717","2,38945637552626","-3","3,95581048194674","3,28554918415878","2,7697891884436"
"8625","2,43628971787778","2,83830876839841","-3","-5,06067590203766","-0,326887155052911","-4,68016080911634"
"8633","4,56730873588019","4,69234747780663","-3","-1,32223257518136","-1,09627092886006","-1,01833021811406"
"8645","5,88027083265609","2,44818705333343","-3","2,24383732360632","1,38263114244718","2,44151172792588"
"8654","3,52028612510331","2,85386250648817","-3","1,40501686595411","4,52367170193412","-0,324413986403005"
"8666","2,14396737282396","4,69646659881114","-3","-2,21688119890844","1,74324186535788","3,35681587720361"
"8674","6,20971270576858","4,1844463484951","-3","-1,39623944391009","-1,48660107620751","0,652149987669619"
"8686","3,61144535207825","4,0488472175568","-3","-1,12902302792665","-0,437816121675695","-4,26612867874562"
"8695","2,16919186716088","5,74810470755946","-3","2,30674999218153","-1,83443227021975","0,819527739883515"
"8703","4,49340060341365","1,72778490663696","-3","-5,27202222554013","2,16523661689666","0,226769944410796"
"8715","0,689944084516686","7,86858253460891","-3","-3,73981324060798","1,34317167168053","0,0627490750897401"
"8723","5,08408079504732","3,02452281786167","-3","3,45662751270966","1,10106685160449","0,0173631758602239"
"8736","6,02326583505472","3,74166283840054","-3","3,47430536040654","-2,38121870414788","-3,44177931632768"
"8744","1,83656207348377","2,19641573995221","-3","-5,8918442013791","3,7096954173096","1,04763186619065"
"8756","4,40135925307174","6,25752235592224","-3","2,75588568849696","0,798027364244482","2,01318012206612"
"8765","4,11105934683892","3,5978632082381","-3","3,2461306207527","0,940517414196493","-3,88952064841539"
"8776","7,47731486554254","2,15833305695825","-3","0,73138244630192","-2,42850182074733","-0,799553700169005"
"8785","1,23890918361474","4,51226843703916","-3","-2,43622925694493","0,284786439577727","-0,944534889964206"
"8793","4,23598387159678","4,13566485861985","-3","-1,46766330403472","0,0838719253451862","4,18522341488069"
"8805","5,78859056681647","4,03592833860841","-3","7,21962581965956","0,0247009649460102","2,60466896750573"
"8813","5,218209378764","4,00951495861414","-3","5,04837082331851","0,00727463530559149","2,16731678682127"
"8826","6,78367222109679","4,00251986150586","-3","-0,681774190272257","1,70763429677558","-1,40028594109834"
"8834","2,77026458546201","0,530330495208459","-3","-2,89637968110818","1,20840406235233","1,33582149457167"
"8846","1,93643035537592","5,08112194937129","-3","1,73126536962707","1,06137669330452","-2,35365932756242"
"8854","0,982409765922426","0,81597838833867","-3","1,2381137810919","2,7235677933853","-1,37456846855009"
"8863","1,71842456382558","1,68643368801462","-3","1,07753433309005","2,21309660684328","-1,10364612039028"
"8875","3,64537772637101","7,12246300427711","-3","2,69962779997717","-3,05371688646545","-1,02867971859334"
"8887","8,34845700015577","2,09175838330652","-3","2,22781199237498","-3,31032820301288","2,43864793755717"
"8895","4,92654509522179","4,49463736115085","-3","0,399798716194484","1,02508138967978","-0,325206420326973"
"8903","3,25638251094149","4,13099559296779","-3","2,47894431485336","-1,40359704140059","-1,8132791666418"
"8916","3,79423503506951","4,03469176961695","-3","2,15595329203181","-1,118862615004","-1,22504091372921"
"8924","3,94306317237583","4,00918747609663","-3","-1,2979809908337","2,37597770692372","0,661021285323655"
"8936","3,98424511995519","2,26726471194849","-3","-0,422647064047954","3,11072849610859","1,90620185194155"
"8944","3,99564049744983","2,80594855729578","-3","-0,137621846552329","-1,0838651286149","-0,472538552432667"
"8957","3,99879369043554","6,41894589387634","-3","-0,0448122659769002","-2,0246989632536","3,31582861347878"
"8965","5,72295812806051","5,37578168039121","-3","-0,0145917180468936","-1,30178218834692","2,36410040442942"
"8977","5,20004835289031","5,09951885545958","-3","3,34401098251759","0,616614545697402","-3,06912624847424"
"8985","5,05535499490335","5,0263557355475","-3","7,46077877775001","3,59258171941429","1,8740399033983"
"8994","1,56873332683642","1,5366429873476","-3","-0,896248711527369","-2,64744728827844","-2,20472994700499"
"9006","7,7738327231174","2,61245685293571","-3","-1,29183546543351","5,33678078894593","3,83651726483321"
"9014","6,49083384056354","2,89736633675998","-3","-0,420645965198462","3,68820096971312","2,508179159518"
"9026","-0,757350006813109","4,70798778683779","-3","-3,48573257188272","-3,61928664048033","-1,30596656965259"
"9035","2,960310907477","5,92266594474785","-3","4,21374212563062","-0,0659093858657773","1,36192042640607"
"9047","9,8821854021945","3,50918265641161","-3","1,04645498169629","3,39157286407957","-0,623145618680425"
"9055","2,62764820731906","3,87001606831186","-3","-0,659254543174615","-1,00115417545644","-1,89572134908459"
"9063","1,89696725172534","2,23040772839086","-3","-0,21466569934438","-0,294848056625905","-1,24785333144226"
"9076","2,69478193008441","2,79618766417419","-3","-0,069899195920757","-1,79232701093711","0,654708905101601"
"9084","2,91554369500932","6,41636090114675","-3","-0,0227604950641422","-1,23334675628807","0,18116324169362"
"9096","8,14650602928988","5,37509709268712","-3","-0,00741124599132912","2,34226119512203","-1,67316259154692"
"9104","3,14737170689884","1,62900071132665","-3","1,67196791908821","-2,01567686348746","-1,18626952577129"
"9112","3,76407086518255","2,63691609473185","-3","-0,455575746351174","0,40636675094111","-2,77483420581658"
"9125","5,65800842661156","6,37418076005618","-3","1,52603711453463","0,119678317016202","-2,21440288257428"
"9137","3,45878432228392","5,36392645935532","-3","2,84566875522501","1,74073809629263","3,1105487617797"
"9145","5,57353317459346","3,36121079671784","-3","-1,07339664205996","1,21815340085964","1,58400588789476"
"9157","3,43540933779962","2,09566002534125","-3","-0,349518169009687","1,06424795287946","1,16159914581085"
"9166","3,84377320394276","2,76050221732286","-3","1,56057145979853","4,42990526015346","2,76800771243514"
"9174","3,95677078379017","4,67174184609453","-3","-0,491848532159756","-3,40084868757689","-2,95736183425613"
"9186","3,98803812674087","5,91306687505911","-3","-0,160155148296969","-1,70706948753639","-1,54161782785921"
"9194","9,16656582403972","1,77147209779169","-3","1,62223162686467","0,497254136011554","-1,14987002725861"
"9206","4,15292241411585","4,40981543869669","-3","6,22575382152073","1,85193724941903","0,68182167671574"
"9215","4,76560679069889","4,10853206938215","-3","-1,97277726504995","-0,454589400543248","-1,53462635908833"
"9227","1,48855765862791","5,76391114106029","-3","-2,3167546042272","-0,133880279979659","0,575356492275333"
"9235","2,58177169721944","1,73197094936598","-3","1,92000221455957","3,37155488230621","1,88249771184705"
"9247","2,88427285086646","6,13452270906563","-3","4,64833237434278","-2,71254149153018","1,24419424422004"
"9256","4,69126928684245","1,83012059580318","-3","0,187965754180017","1,90662630116719","1,06757051957153"
"9264","4,1912797945954","2,69017899113603","-3","4,08434867198267","1,26700882794921","1,01869730848796"
"9276","4,05292866400529","8,12345487881342","-3","5,02746551669214","2,78412813140934","-2,44141015105467"
"9284","7,46122963611929","1,35685264115987","-3","-0,688581351957255","0,525440262063356","3,77102594086276"
"9297","6,40433404170221","2,56484269181786","-3","2,12454726002655","0,860238293048395","-0,956526666073966"
"9305","4,38859057121882","6,3550934470195","-3","-2,98258854693928","-0,746652818158733","-3,71126250105678"
"9313","4,83081807310555","5,35887153612108","-3","-1,64556818204308","-0,219895334610166","-4,19681207844051"
"9325","3,22989407079791","5,0950405152657","-3","2,13855315850118","-0,0647609665527805","1,8387082030124"
"9337","0,340321622433003","5,02516972964644","-3","-0,30364680212269","-0,0190726319695936","2,23207733346651"
"9346","8,43392128343785","5,00666573922399","-3","3,24988920146261","-1,71110890285897","3,06421767250574"
"9358","6,67348567630414","5,00176529823826","-3","2,40698747139903","0,496064495307889","-2,87539814601211"
"9362","6,18635892593296","5,00046750671835","-3","-2,89062069305801","0,146095033101129","-3,242229737015"
"9375","4,32827509624422","1,52978696685115","-3","5,08190292544887","-6,77894125294053","-0,620443077242753"
"9387","1,36754444673265","6,08097800589865","-3","0,329144493912516","0,298054745655969","0,828318389617414"
"9395","4,27157828780368","3,55110868940708","-3","-2,56720551224189","2,79327140696711","-1,49408953547111"
"9407","7,52173175291311","3,88111940579581","-3","-3,18469280070648","1,52813303116475","0,586573358759406"
"9415","6,42107546605475","3,96851666462495","-3","7,66052866740779","-2,25544423685708","3,60889343305398"
"9428","2,66993113488705","5,72683064045249","-3","1,8431747761595","0,335753307164481","-2,72468196408154"
"9436","5,35525112659384","3,45731928371669","-3","0,274553592186437","5,21535765518192","0,246058495079503"
"9444","3,375008932198","5,59144943131808","-3","-2,58498133831423","1,94694901068099","1,79137829650023"
"9456","3,82705992389855","1,68629764260372","-3","0,158281376250724","-1,42660766321301","-2,22760308123696"
"9464","3,9521460842198","2,65209013146537","-3","0,0515393980638114","-0,420147573049085","0,383604236540881"
"9477","5,71005035867866","2,90786248046043","-3","1,69116335939865","-0,123736881338117","0,106146390369271"
"9485","0,0266008978761345","8,18110434082939","-3","2,89943697146385","-0,0364415190885668","1,75266348714912"
"9497","6,62382030157803","4,84245688285619","-3","-2,73026985828916","-5,12720789643055","-2,2383157816584"
"9506","5,44932419197221","3,22310918581398","-3","-1,56340846343741","-5,33197190385227","-1,3426519778447"
"9514","5,12433163281385","3,79425477962533","-3","-2,85783757048873","2,42969085843544","4,07506120133502"
"9526","-0,135472204034491","5,68068059043585","-3","-2,2793280742611","-0,989928115740725","-0,872397654009021"
"9534","8,30226528898137","3,44509729313887","-3","1,25780783740926","0,708458109369192","-0,24139947664475"
"9547","6,6370553993394","3,85304424041973","-3","3,75832824926281","1,91413853931304","-0,0667971848119578"
"9555","2,72969452675438","3,96108147427145","-3","2,57254480414707","1,26922124325198","-0,0184833205142737"
"9563","3,64849621613347","3,98969314541186","-3","3,86081253514873","-0,626204009157182","1,71817743959567"
"9575","2,17944414048035","3,99727041943361","-3","1,60591561839368","3,22656153528987","1,19872549778162"
"9587","4,496237490242","0,528940277180036","-3","-3,15146478026356","-1,04975135539899","1,05498895021095"
"9596","5,86060484499243","5,08075377573684","-3","-5,0493197859885","-0,30916032182425","-2,43136796068627"
"9608","1,791552463828","4,28621772802489","-3","3,03022751096451","-0,0910502321324895","-1,39607107493684"
"9612","2,6656128069075","4,07579949260865","-3","-1,68768199458732","3,38416868014327","-1,10959606523986"
"9628","8,07734813402517","4,02007409925086","-3","-1,22392221308595","-4,41431848280256","2,41625773093211"
"9637","4,85152708239595","0,534979411693769","-3","0,601467869223882","-1,00554459446496","-0,331401971331056"
"9645","3,23562442092157","8,55268997295167","-3","3,54461159044433","2,4093507866708","-1,81499352564201"
"9657","0,341907256592479","3,20569607038526","-3","4,17733579410892","1,41506528239232","-2,94880721436987"
"9665","1,54119234657766","3,78964323678575","-3","0,0346003942723909","4,53322382024477","1,1840412282129"
"9678","1,87304421681123","3,94429088642249","-3","-4,33749578058327","-1,66492867290889","0,327633770566564"
"9686","0,241578385793983","7,45558331122454","-3","-2,7611326636251","-2,19582690839065","0,0906589103976392"
"9698","4,23672246139716","2,91514758175618","-3","-2,2478391347053","-1,35218076160867","3,47166990001837"
"9706","1,61891916960066","1,97752840016626","-3","1,26806122936741","0,60177175549861","-2,76265282393647"
"9714","1,89455185648998","2,72921723259781","-3","-1,26147653436941","3,58821039684249","1,95884357515161"
"9727","1,97082164705567","4,66345659421725","-3","3,93800179552156","0,762249036518331","-2,18126408612752"
"9739","5,43850996140511","5,91087267872904","-3","-2,39209358543825","-2,4810033095338","-1,3268653129224"
"9747","-0,771828446761708","0,0357225834693873","-3","-1,4532918978941","1,97481618107775","0,632845651698387"
"9755","5,67959652986997","4,95013415553769","-3","0,526780778619032","-3,82938426950907","1,89840542656143"
"9764","4,4647579248084","4,2516255278696","-3","0,171529745853385","0,872215151653539","-0,474695886301932"
"9776","4,12860227133771","4,06663838564968","-3","1,73023447720816","0,256874464222724","-1,85464410920489"
"9788","5,75887721077443","4,01764794883728","-3","1,23777810309871","1,78114347877227","-1,23648692741377"
"9796","3,48669552951243","0,534336890450899","-3","-2,27133729080425","-0,475438742440964","0,657854080895232"
"9809","3,85796450739444","3,34701454750062","-3","1,93479094745375","-3,55100429582338","-3,26455031008189"
"9813","3,96069763206905","3,09190041025718","-3","-7,06752025846804","2,65969217807247","-2,34991128373847"
"9825","2,26583279371464","6,49467497437233","-3","-3,32446122657998","-1,92219085430898","1,34976056910603"
"9837","4,5201419282961","1,92550028860029","-3","0,243111632724052","3,84488285674715","-1,34980227306205"
"9846","5,86721939606238","2,71543854570339","-3","6,10230520896247","-2,57314254895776","2,34979073324061"
"9858","0,0700908398708622","6,39497598466754","-3","2,33578786179525","0,242188567374517","-0,349793926402398"
"9866","1,46597854878887","5,36943369150722","-3","-2,91380462731661","-3,33965720976213","-0,0967908044903774"
"9878","7,02210772248952","3,36266928569989","-3","-6,64631432317646","1,01644375837905","3,41980105000114"
"9887","3,83624161438366","5,56638312297096","-3","3,51021600293035","2,00484282073685","0,669578493672395"
"9899","2,23139480847193","6,88516455814194","-3","-1,53138869881582","6,41240996502785","-0,814722223056982"
"9907","2,78732073598699","2,76408268316835","-3","3,85011330974272","-0,40600119444781","-0,225440219093905"
"9915","2,94114992997746","3,67269006651492","-3","-2,42071173219107","-1,11957065765236","-3,50896497667436"
"9928","1,260423786672","3,91331799376948","-3","-1,46261050563103","-0,329722674845449","1,02904105135846"
"9936","5,24193713602198","5,7122122893378","-3","3,87250878519679","1,60838584491661","3,73132781711586"
"9948","2,62036211218484","1,71827946087554","-3","-4,08780050386944","-2,23180912974412","0,755780466129265"
"9956","8,0648269013354","2,66055992687055","-3","-1,00544601696206","0,342714038659431","-5,96074521206037"
"9964","6,57135427984451","2,91010554974423","-3","0,672607834684251","-1,60455978249048","3,07390558247484"
"9977","6,15809834368465","8,18169837640773","-1,17157287525381","3,56777610344616","2,23293593628255","-1,8727174230808"
"9989","0,873871317574912","3,10744578039044","-3,68629150101524","-2,51264604567905","-0,34238218495878","2,20509588798964"
"9997","4,13497494589348","2,02845503558685","-3,11774900609144","0,181835110300151","3,31014937355141","-0,38983215868817"
"10009","2,31405673397278","2,74270421382634","-3,02020253553339","-1,61517222279479","2,3858496584756","1,61542221693331"
"10013","2,81019395837893","2,93185995089511","-3,00346620710888","0,474069495072066","-1,29734784866437","2,89358422144435"
"10026","6,39406298266436","6,45229120695089","-3,0005947071199","6,85189060050276","-2,08757136260318","-2,92261380001464"
"10038","-3,23071113206732","1,91427572858594","-3,00010203561049","4,9286293079795","5,5016688078784","0,191289157511923"
"10046","4,27591190841268","6,18280277145156","-3,00001750654307","-5,74390776477146","0,325778119010761","0,0529312547999077"
"10059","5,07634705341629","5,31324352460911","-3,00000300364793","1,80405657931854","4,21241988104712","0,0146465056939682"
"10066","4,29783392262552","5,08295677696893","-3,00000051534451","-0,412565190083691","-1,75940804516665","-3,44253104090343"
"10079","5,8057049754582","-0,183535691373004","-3,00000008841914","-0,134338998451171","-0,518159995380195","2,77071578158892"
"10087","1,77636122653784","4,89206764058773","-3,00000001517033","-5,06688679001116","1,55288951965768","-0,23332056599043"
"10099","2,66140926885971","0,765910837386602","-3,00000000260282","-0,324254957316129","1,16283046547309","-3,51114553230499"
"10108","2,90630921011947","5,14351106317251","-3,00000000044657","-4,1287270041568","2,75344675538197","1,02843767400455"
"10116","2,97407500176134","4,30283783949718","-3,00000000007662","-0,0187724564942","-1,18908751044548","-1,43871491324972"
"10128","4,71611826726781","-1,12530424257734","-3,00000000001315","0,993887334500064","-0,350195954037893","-1,12139595970719"
"10136","2,47486378450837","7,37782601076138","-3,00000000000226","-3,02513388027042","1,60235629748961","-1,03359124248608"
"10149","2,85469056799461","3,89455499316148","-3,00000000000039","1,01495941629541","-2,2335848805573","-1,00929496809021"
"10157","2,95979170659567","5,70724325427587","-3,00000000000007","3,67925222818293","-4,77428450674606","2,44401185457923"
"10165","2,98887404047916","5,18730034716905","-3,00000000000001","-2,47634731930003","1,59393433788411","1,39956974249341"
"10177","8,16679712812222","3,31443462468424","-3","-3,15510766135331","2,1749184986505","-0,612727748850362"
"10189","1,42969449416401","3,818440639727","-3","-2,37612481629388","-0,359468792751654","-0,169546716704792"
"10198","4,28877570787288","0,4815805043993","-3","-0,448092165815593","3,30511722842775","-1,77020686948878"
"10206","2,3566146469598","-0,137293853166027","-3","2,52847390934462","-1,02661606412575","0,510169462419126"
"10214","2,82197007661463","0,698808674040554","-3","-0,176681259700143","-5,41882236249573","1,86445993421319"
"10227","4,67402960602856","7,86090871320143","-3","1,61685041364659","-5,4178547385956","1,23920304546952"
"10239","5,90980135934023","5,75765896947328","-3","1,20085811589355","5,81538137918564","-0,657102509092914"
"10247","6,97504130765451","3,46548359874314","-3","1,06540318661993","-0,287322831761015","-0,181825571249577"
"10259","2,82321795727443","3,85844317790565","-3","4,37005883054848","1,62087294394807","1,67297931960959"
"10263","3,67437490468543","3,96251128340621","-3","-3,25140767505516","4,59383585237336","-0,537073110713492"
"10280","5,63318882992689","0,519734960330609","-3","1,61566156621533","0,0584139215338046","-1,87190439097927"
"10288","6,89850038674888","5,07831591714819","-3","-0,473910155635309","-2,68828848191362","2,20532086053846"
"10296","6,24862231360843","4,28557210608754","-3","-0,154314074948911","3,61926086742471","-2,11306183062652"
"10308","2,62221195481478","5,81079693337752","-3","1,62413359039023","-0,934098204508961","0,415298725658927"
"10316","3,61875492041194","5,21472463142925","-3","-0,471151504954479","1,43039233026908","1,83820843514328"
"10329","5,61779833107249","1,5865290193192","-3","-1,82779696672322","1,12675404575792","-3,93793672731785"
"10337","1,72436594043829","4,36083667135606","-3","0,404834872685511","4,44831381346553","4,35692495075263"
"10349","6,09360560058345","5,8307293669767","-3","-1,54255929893754","3,426540211042","-0,794403678117572"
"10358","5,30260950201258","3,48483494743035","-3","-4,52542985014565","-0,285364149608463","-1,94310983726924"
"10366","5,08373449318424","3,8635680261179","-3","-0,147946376868","0,621449791790679","2,1856177384706"
"10378","3,29987808687279","2,22870008320063","-3","0,951825872442377","-0,816977976127885","1,3280700036873"
"10386","3,80627061221478","2,79573542580354","-3","1,98431359648632","-5,35708223859048","1,09077961962532"
"10399","7,39297736109446","4,68107271229991","-3","-3,70263243014085","-1,98868805449518","-2,42146439340168"
"10407","4,66215616231467","7,65070640492727","-3","-2,55440919615445","4,82529888983513","0,329961245774949"
"10415","4,90651588157062","6,43715918228674","-3","-2,18052607911104","-0,5789101866769","-3,35528090573384"
"10427","6,69742411308058","4,38060513430432","-3","-0,384401531988421","-1,87598562122894","-0,651725248666981"
"10439","6,19298288472397","4,83596468021698","-3","-0,799549541191356","0,447506959230013","0,819662360138864"
"10448","2,60681607547948","6,69172668923421","-3","-0,934729554207013","3,54277815823164","1,95009911858225"
"10460","1,89120283259794","0,977685805225227","-3","4,04439676804229","-0,956622985131067","-2,18368374788348"
"10464","2,69318686875645","2,46442734027342","-3","-4,03183053835545","1,42375859896658","-3,05082677653184"
"10476","4,63839425231717","1,12299502546274","-3","-0,987221141739385","2,83029221531775","-0,567480332241592"
"10489","4,17664884550548","1,76774138854389","-3","0,678542197405971","0,539035960668024","2,56626553256395"
"10497","9,21875593320626","5,40882742907896","-3","-3,12781619788203","-0,841249520452746","3,15669024621367"
"10509","2,44407191516777","4,37310199139042","-3","-2,36723820162759","-0,247754833694703","-2,84981023802714"
"10513","3,56946213272201","4,09880918919254","-3","-0,445198516660052","3,3380178990072","0,211434491100216"
"10529","3,88086669495379","5,76133621535547","-3","-2,49372734519867","-1,01692654874455","1,78179755496392"
"10538","3,96703485233258","5,20162587141881","-3","4,53675771641284","4,81698242334517","-2,23025414979739"
"10546","5,71417020106223","3,3182284758792","-3","2,82601610394481","-1,58135945377549","0,382870664459279"
"10558","0,0277408915369177","3,81944537132624","-3","5,61772872606662","-3,87670695033277","-1,61734851860985"
"10566","1,45425997605227","3,95218343274522","-3","-5,5195240118903","-0,847213620620574","-1,17082532101615"
"10579","3,572281251451","2,25216824118655","-3","3,55150131696287","5,86696426257471","4,12260702501006"
"10587","6,60493869153382","6,2722873788102","-3","2,50519805845516","2,13885246230149","4,3106344303768"
"10599","3,72080757431911","5,33694187439644","-3","-9,55616611729648","2,04089318076175","-3,53050456262312"
"10607","5,64603712462058","3,35406442649733","-3","3,56271343834381","-3,10443219762251","-3,42350297335371"
"10616","5,17876368999827","3,82893586268311","-3","0,160086615592917","-1,61977241765694","2,77598100155707"
"10628","3,32617343311938","7,42503365823959","-3","1,72650837841144","2,22845569135629","-0,231863637101532"
"10636","0,366962899572262","4,64222549078953","-3","-0,43781634527552","3,0672820613177","-0,0641585409956629"
"10648","6,71800121632675","3,17008159025688","-3","1,53181991010474","-1,09666045742584","-1,74104511011928"
"10657","5,47538481172031","5,51537981965364","-3","1,17317058200031","3,08800828055676","2,24153068041652"
"10665","3,40825089311303","1,66615200729702","-3","1,05638760396244","0,614935440348416","-0,379750357363865"
"10677","3,83625824295713","4,3819233529196","-3","-2,33040145464604","-0,818896505671104","-1,82837191453531"
"10685","2,2313994097325","4,10114536428778","-3","0,241177382554268","3,16981202605707","2,21736664835361"
"10697","6,23390585651207","7,49712333013822","-3","1,75291305985103","4,05001102437775","-0,386436740192624"
"10706","3,6181397922811","2,92614869052166","-3","1,24516267686248","-0,101746918435044","3,33965368031315"
"10714","5,6176281201507","1,98044184116207","-3","-3,94331389487224","-1,02996529595911","-1,07589085447728"
"10726","5,17090268902066","2,72998880377459","-3","-0,958398455003789","-0,303333166210105","-2,02099961235424"
"10734","3,32399823066076","2,92849250878422","-3","5,71107088843826","3,32164962753172","-1,28251883867888"
"10747","3,8129448508034","4,71623098009688","-3","2,20839459633752","2,38923657691426","0,645116679278792"
"10755","5,6715322531558","4,18968058078225","-3","-1,28090511417897","-1,29635037360601","0,178508995338368"
"10763","5,1858183979713","4,05023340755384","-3","-2,09146799731446","1,32370611681141","-5,12048089026913"
"10776","1,60483360413218","2,27813497075313","-3","-3,02978370314535","2,80082594464011","1,58312158291564"
"10784","6,06053003774371","6,27916418878083","-3","-2,33531697444911","-1,17513395342126","-1,28522939583794"
"10796","3,57016530298576","1,86842622714276","-3","-0,434804363707837","1,35940533956732","2,36765856988106"
"10804","3,88106126784481","4,43549195378134","-3","2,53280066804768","-0,599644058463258","-0,344849751697254"
"10812","2,24379676856341","2,38016359954809","-3","1,49910877485578","1,52889179959117","-0,0954227114186258"
"10824","6,23733630582587","4,57101616971611","-3","-3,86062426112471","1,15576294151072","3,42017961240328"
"10833","5,34238094897127","2,41605469153226","-3","0,742908007991222","4,4568571694713","0,669683244946466"
"10845","6,81803149742501","4,58052126424797","-3","-3,10685747732985","0,0180725840625442","-0,814693237533439"
"10853","6,22635592203837","0,683403518872205","-3","-5,70917596817773","-0,994677476836552","-3,67201604588456"
"10861","4,33934258809594","6,85682894164648","-3","3,81536590662234","-0,292940616145468","0,983923503652052"
"10874","6,54048268209153","3,75657851713388","-3","1,9167361795417","-3,49725711162813","1,99555150362126"
"10882","0,979680152278192","5,67070272638127","-3","4,6472688918102","0,970029304013474","-2,17110670585425"
"10894","2,44096118134449","5,17762326150012","-3","0,18761946423183","0,285681528549943","0,399237239893241"
"10902","8,01518521486888","5,04704024866004","-3","0,735473592635909","0,084135536335816","1,83376409231388"
"10914","3,11103417695695","5,01245774328942","-3","-2,43489710262305","6,84674603030503","2,95400118176547"
"10923","7,20059982449248","6,73846762566102","-3","8,57905743295675","-0,278085686617925","0,540687908173271"
"10939","2,88563182057087","4,46040112487443","-3","-5,55525959470178","-2,78739035648122","-2,5736792126884"
"10943","1,96835340107561","3,12192875648463","-3","-1,48327834326786","-1,52640101390987","-1,43544974771995"
"10952","6,16111890146759","3,76745900684768","-3","-1,1573645333349","0,550462472597736","-1,12049246203452"
"10964","5,32129097762762","2,20324737995241","-3","-2,72562201714531","-1,54337617709239","0,689950686276465"
"10972","1,64231996104576","2,78899474623401","-3","-0,561895038797543","-2,86552056606864","1,91420685082889"
"10984","4,34761089179472","2,94411914564625","-3","5,84017987071766","4,56706457551888","1,25296841907011"
"10993","4,0961867411835","4,7203694069983","-3","-2,77270856789524","-2,36045415237437","1,06999840461577"
"11005","5,7499075717819","2,4556081450642","-3","0,0971538535947029","-1,40066482544844","-4,15050664709055"
"11013","5,2075054816209","4,59099626776829","-3","1,70601628547725","-1,11799905353036","-2,59506255747376"
"11021","1,6108345953303","5,89168289612197","-3","-3,79325127761324","-2,74024353952255","1,28192523173833"
"11033","6,06219056047428","1,76580894490255","-3","-0,909535239705749","1,19297596502401","0,354719064886588"
"11042","3,57062478303625","4,40831565697973","-3","0,703838190678834","2,05683299301718","0,0981536300860476"
"11054","5,60448033334526","7,57847172351403","-3","-3,11957934590618","4,72222963665334","1,7504518258265"
"11062","5,1672645902256","2,94769231391971","-3","0,98420619337035","-3,31475677843006","-0,515635842548937"
"11074","1,59969961568208","0,250978851100309","-3","0,320476078604673","-3,38720657672841","-0,142680602083899"
"11083","4,33581749801617","5,00714081260205","-3","-4,91879043239121","1,00244008263409","-1,76277279859329"
"11095","5,81621533753707","4,26672269082527","-3","1,39834916720774","-3,11575694812761","2,23551845353555"
"11103","5,22585337592945","2,33546816929546","-3","3,80409115398653","1,08238420855084","1,34187793456094"
"11111","1,61591160586931","6,29434783023144","-3","-2,43569741314393","2,02426282023626","-2,35198346170352"
"11124","4,34030348663453","3,6076157567157","-3","1,88127219514228","-3,81482183165486","2,07247910438705"
"11132","2,37087279949903","5,63125268345347","-3","-2,06180349126861","2,58199576562102","3,02005555354982"
"11144","2,82591542257593","1,69683880068242","-3","-3,02012438110963","-1,94507308042333","-1,16432623733597"
"11152","6,39841323877956","4,39005018484036","-3","-4,00655287762443","-1,2783317174952","1,40111345029362"
"11164","5,3869522372317","2,36812918416532","-3","0,0210097408154557","2,32901275775396","1,11099133122502"
"11173","-0,0628029617786647","4,56782907649812","-3","2,6812223278323","-3,72507049361245","-0,692579725905818"
"11185","3,15249768423642","5,88554749229648","-3","-0,12694349692265","2,60842826547981","-5,36151817464647"
"11193","3,04219734085143","3,49935251807026","-3","1,63304596624611","-3,64278035143076","-1,93015922768985"
"11201","1,28838442135412","0,39707589357057","-3","-5,49139294869379","0,927171524960465","-0,257382570584369"
"11214","6,97296599311769","5,04583192292317","-1,17157287525381","-0,462482160106095","-3,13792415124094","-0,794511759649518"
"11222","5,5459356246407","2,54180089678673","-3,68629150101524","2,52378825610201","-0,629636070707683","-2,6664316679616"
"11234","5,15106479650005","6,34899125207789","-3,11774900609144","-1,85258815707957","-2,59641666455831","2,98546874612467"
"11242","3,31850892558273","5,35725548220449","-3,02020253553339","-2,95199992676611","-2,17564956406854","-0,173896686285334"
"11254","5,53471783941438","3,35944411131115","-3,00346620710888","1,03877320937027","-3,75722208429856","-3,49470246486311"
"11263","3,42466882106971","2,0951921512569","-3,0005947071199","0,338244127034574","3,59895936022663","2,75627952722509"
"11275","5,56409313987908","6,23071515318159","-3,00010203561049","-1,56424250026397","0,0599228363150424","-0,237315194165006"
"11283","3,43279720395322","3,59076381443039","-3,00001750654307","2,16503433263114","0,0176477632198332","1,6576248927958"
"11291","5,56634232907053","2,15645291329221","-3,00000300364793","-0,295024032931456","0,00519740996614198","-2,26461372828"
"11304","3,43341957276771","6,24693893747036","-3,00000051534451","1,5783157771529","-3,40945303533268","2,09665501525305"
"11312","7,28980646720753","3,59506038482722","-3,00000008841914","-2,16045180854131","0,995888319432098","1,30345329967977"
"11324","8,08019179005202","2,15759078081106","-3,00000001517033","-6,40100845252336","0,29329721914921","1,08396797881355"
"11332","2,12902202132535","6,2472402807211","-3,00000000260282","3,59009221587755","-1,61911343821547","-2,42334922942743"
"11345","3,48228528264561","3,59514019003588","-3,00000000044657","5,19214514258642","-1,18233394872032","-1,39385222723551"
"11353","2,13345223280817","2,15761191575041","-3,00000000007662","0,365041436730912","-1,05369883256253","-1,10898209216074"
"11365","6,20680308160236","4,51207745607501","-3,00000000001315","-5,90427911219214","-2,72130660087937","-1,03015622507735"
"11374","3,61064023557235","2,40044585898429","-3,00000000000226","-5,6200691547716","4,60953676253741","0,714947452628715"
"11382","2,1689690849213","2,8412191306457","-3,00000000000039","3,8443807638034","-2,34794574746525","1,92112365796095"
"11394","4,4933389577687","6,42828665547902","-3,00000000000007","3,60056512407577","-3,10247285579627","-3,91499341551263"
"11402","0,689927026668855","3,64308698718218","-3,00000000000001","0,846792997985402","1,08629648190889","-0,806602220551552"
"11414","3,3607841513435","3,90547816355156","-3","0,950112913786612","2,02541501659611","0,776806651179252"
"11423","3,09983188849238","7,44530447657416","-3","-4,03938765634695","3,00748492933075","0,214948674136271"
"11435","4,75091621348172","2,91242542175412","-3","4,03346159949307","0,591220657746456","-1,66381388952738"
"11443","7,65436842824449","3,71197590808236","-3","0,987752245974321","2,58510301264158","3,98619310655949"
"11451","3,01119325801877","7,39405896888178","-3","2,67039306095439","-1,23866611343089","0,826303750097161"
"11464","5,44968111221348","2,89885399307862","-1,17157287525381","2,21829261057861","-3,77578097120155","-0,771355078837722"
"11472","3,40113847186766","7,17871860889928","-3,68629150101524","8,7686048281795","2,59349361691692","1,50985174361894"
"11484","2,11099825489664","2,84182506570408","-3,11774900609144","-3,14477707100595","4,88028056018102","1,14108009519562"
"11492","2,75400603724916","3,69327870437135","-3,02020253553339","-4,37276098145267","-1,5627176370687","-0,684253921908054"
"11504","6,37851533109497","3,91877051522505","-3,00346620710888","-4,44699683781802","1,24525878881127","-1,91263051011914"
"11513","3,65815440181354","5,7136562891998","-3,0005947071199","-0,122407110408158","-0,633261147105599","-1,25253223286466"
"11525","0,458824714801258","3,45383029948328","-3,00010203561049","-4,06300154247245","-1,89199242163093","-1,06987770836994"
"11533","6,7434201225079","5,59052543811738","-3,00001750654307","3,35139131288679","2,14828468361931","0,703956197397436"
"11541","3,75912650469282","3,42122136187161","-3,00000300364793","0,0912761503214525","1,33817918929828","3,64137421252889"
"11554","5,65664028213171","3,84672113986231","-3,00000051534451","1,70410239455795","1,09959652489135","-2,715694270075"
"11562","0,0118218983376317","3,959406917572","-3,00000008841914","1,22926900467002","-2,38165172733712","1,97183738625835"
"11574","3,17314698572638","0,518912826227567","-3,00000001517033","1,0746543072551","-1,40690768387741","2,99220717732683"
