Timer,AX,AY,AZ,GX,GY,GZ
"1001","-1,99999902000048","0","-2,99999997","2,999997000003","0","0"
"1010","-1,99999975747484","1,76470584692043","-2,999999995","-2,24242480869257","-1,72899721653048","1,76470584692043"
"1022","-1,99999993606556","-0,560439565385821","-2,99999999914286","-0,604838872817645","7,32436329903066","1,19047618333159"
"1030","-5,47050674800922","5,11009384125942","-2,99999999985294","-1,89291823309744","-5,25553560066962","-5,95262073822101"
"1042","0,816095280932995","1,77751233776862","-2,99999999997477","-4,69989793227393","0,452281972170859","5,01187325619166"
"1050","-0,519041379642019","1,94437813417191","-2,99999999999567","1,72594379348981","-1,57229305132699","-0,747032806190432"
"1063","-2,60779543479688","1,98609453432","-2,99999999999926","0,467872596165063","-1,1685448980082","3,31324183682791"
"1071","-2,16096342294294","3,74652363446525","-2,99999999999987","3,58466751600203","0,655854024200739","-1,17168954368586"
"1079","-2,04262819729993","-0,313369091533563","-2,99999999999998","-7,9439315404658","3,60413806650114","-0,292922385857526"
"1091","-5,48162613647549","0,671657727121089","-3","5,30437702431799","4,17792357976751","-0,0732305964633824"
"1100","-0,922044544264518","4,41791443178077","-3","2,89575783896918","-0,0640756293582034","-0,01830764911583"
"1112","0,0206450663681822","-1,89552139205487","-3","-2,94392934059445","2,39211292030367","-0,00457691227895725"
"1120","-2,46486937818348","-0,473880348013715","-3","-1,52696466911382","0,409988590386841","1,74885577193026"
"1132","-2,12311209106006","-0,118470087003429","-3","4,04390260951183","-5,99573059410787","-2,31278605701743"
"1141","-3,76777239121078","5,22038247824914","-3","0,825147857969789","1,23420851946283","2,17180348574564"
"1153","0,267006469663013","-1,69490438043771","-3","4,41043626665669","-1,34200739885011","-2,20704912856359"
"1161","-5,8699619426434","-0,423726095109429","-3","-1,80440917302289","4,01575160855609","-1,3017622821409"
"1170","0,710280293177072","-0,105931523777357","-3","1,23977455298355","-0,817328452797689","4,17455942946478"
"1181","-2,2822321927167","1,72351711905566","-3","1,06499861663503","4,8757656878402","-0,956360142633806"
"1190","-5,54508084069405","4,68087927976392","-3","2,7465377550939","-1,56404730373568","1,51090996434155"
"1202","-0,938849353726522","-0,0797801800590212","-3","3,93129089353683","-0,460624666292987","1,12772749108539"
"1210","-1,71897379968766","0,730054954985245","-3","-5,39213253390438","-1,8411495723294","-2,46806812722865"
"1222","-1,9255753878685","-0,817486261253689","-3","-2,91954679678458","2,16325831672936","2,13298296819284"
"1231","-3,71545843436111","-3,70437156531342","-3","-0,520354995159845","-2,06839466871507","-2,21675425795179"
"1243","-1,45430756443041","2,82390710867164","-3","0,858941015951595","2,09633278548785","0,445811435512052"
"1251","-1,8554834111011","3,20597677716791","-3","1,96176141832816","4,73386264716523","-1,63854714112199"
"1259","-0,226559021846955","2,30149419429198","-3","-0,468201371777507","0,0996529527760357","2,3403632147195"
"1272","-2,53033682699175","0,325373548572995","-3","-0,126921064364371","-0,970651393977704","-2,16490919632012"
"1280","-0,405281517000277","-0,918656612856751","-3","-1,76332382930812","-0,285864739109811","-1,29122729908003"
"1292","0,89266865625594","-0,229664153214188","-3","2,25091205891237","3,32679422155041","4,17719317522999"
"1300","-3,23392999468549","1,69258396169645","-3","1,33910001019568","2,39075170174291","-0,955701706192502"
"1312","-0,59161520597938","-0,576854009575887","-3","2,82084176766524","-3,00139601445094","-0,238925426548125"
"1321","-0,891846810505192","-0,144213502393972","-3","0,49359781735325","-5,00041113762293","-0,0597313566370314"
"1333","-4,44169446383451","-0,0360533755984929","-3","2,59164116145906","-0,17815365360185","-3,51493283915926"
"1341","-1,64663779822856","-0,00901334389962324","-3","-1,29745217658352","4,35851601327605","2,87126679021019"
"1350","-1,9064185304447","1,74774666402509","-3","-0,351716208324362","-4,12736525951719","1,46781669755255"
"1362","-1,97521667173165","2,93693666600627","-3","1,63357377782176","-2,62652639111867","4,61695417438814"
"1370","-3,7286050139082","-1,26576583349843","-3","-5,74392056251504","-0,47902526626675","1,65423854359703"
"1382","-1,4577891938392","1,43355854162539","-3","3,17184308424041","4,26990687348227","1,91355963589926"
"1390","-0,121237034666543","4,60838963540635","-3","1,58874803129621","2,66850605708447","0,228389908974815"
"1403","-5,97278108260326","1,65209740885159","-3","2,88851690589529","-2,91959509517245","2,5570974772437"
"1411","-1,05211788376843","1,9130243522129","-3","-1,21697444255903","3,55113918639292","2,13927436931093"
"1423","-3,48413930509934","1,97825608805322","-3","-3,78773569842905","-2,65965245170138","-3,21518140767227"
"1431","-1,39304695437068","-1,50543597798669","-3","-2,48462335081458","-3,19427301828312","-1,55379535191807"
"1443","-5,30959651075113","-2,12635899449667","-3","-0,402454984593954","-0,646231270875411","-1,13844883797952"
"1452","-4,34682251068794","0,468410251375831","-3","-0,838016174380198","-0,895812228691104","-1,03461220949488"
"1460","1,11365571269129","3,61710256284396","-3","2,50174650645381","4,1471597193371","0,74134694762628"
"1472","-2,17540564377799","4,15427564071099","-3","-0,321821018670887","6,04333973560104","-5,06466326309343"
"1481","-0,311284531613508","-0,211431089822252","-3","-1,81615774039052","-2,22018723963299","1,73383418422664"
"1493","-0,817606395607744","-2,80285777245556","-3","-2,95016363327557","-2,3593550775149","-3,06654145394334"
"1501","-2,68686483574893","3,79928555688611","-3","4,65809868363286","-1,40034113895304","2,98336463651416"
"1513","-2,18190349843027","0,699821389221527","-3","4,44948106185355","-2,82339558266579","-0,254158840871459"
"1522","-3,78334221240656","0,924955347305382","-3","1,66401074890178","-0,537004846195801","-0,0635397102178647"
"1530","-1,47228533250128","-0,768761163173655","-3","3,63783707620292","-2,56913601468463","-0,0158849275544662"
"1542","-1,860244491791","-0,192190290793414","-3","-7,20060043055724","1,24336852434139","-0,00397123188861654"
"1550","-5,43332517189609","-0,0480475726983534","-3","1,04804529461489","-1,33930970282752","-0,000992807972154136"
"1562","-2,64442134543647","1,73798810682541","-3","3,74194201102946","0,605562387112977","1,74975179800696"
"1571","-2,90583154375386","1,18449702670635","-3","0,743291710453638","-3,23264066105746","-0,56256205049826"
"1583","0,495275624570912","1,04612425667659","-3","4,38824652097509","4,45894471824872","-0,140640512624565"
"1591","-2,33917221841427","-0,738468935830853","-3","-1,81042441840585","-4,09778818815638","-1,78516012815614"
"1603","-5,5601603575597","-0,184617233957713","-3","2,96706171315132","2,49865986956191","4,05370996796096"
"1612","2,52749395771501","-0,0461543084894283","-3","-1,19568234232578","6,55784310683982","-0,986572508009759"
"1624","-4,53614505193851","3,48846142287764","-3","-2,05304600255871","-5,47964552231853","-0,24664312700244"
"1632","-3,4068197183792","0,622115355719411","-3","-4,74329761400943","0,386199775356409","-3,56166078175061"
"1640","-1,37257028619733","-0,844471161070147","-3","-0,0147414041077583","0,113738978495779","1,10958480456235"
"1652","-3,569005220558","-0,211117790267537","-3","2,72492165374271","1,73898891273697","0,277396201140587"
"1661","-1,41552212869313","-0,0527794475668842","-3","-5,44807556428743","1,21763825205968","3,56934905028515"
"1673","-3,58038022479081","1,73680513810828","-3","3,25204140130081","-0,641395620080713","4,14233726257129"
"1681","0,316633832829815","-0,56579871547293","-3","1,61048836862776","-0,188896232713555","-1,96441568435718"
"1693","-2,38648220604542","1,60855032113177","-3","-2,29234303394033","-0,0556314786323038","-2,24110392108929"
"1702","-2,10235269255567","-0,597862419717058","-3","5,56533993418483","-5,13285949577151","-1,31027598027232"
"1714","-0,291937803252452","-0,149465604929265","-3","-1,49133533010676","3,19382294134312","-1,07756899506808"
"1722","-6,01798803654006","-0,0373664012323161","-3","-2,13319226900216","1,64609871955181","2,48060775123298"
"1730","-1,06409011272307","-0,00934160030807904","-3","0,421729517263649","2,895773191247","-0,379848062191755"
"1743","-5,22247835123286","-0,00233540007701976","-3","8,75891230217708","-2,8526630736262","-0,0949620155479387"
"1751","2,61692281636495","-0,00058385001925494","-3","2,56113869593856","-3,25111621803978","1,72625949611302"
"1763","-1,04212462247881","-0,000145962504813735","-3","-0,576803066260373","4,45350351627917","1,18156487402825"
"1771","-1,01115593025023","3,4999635093738","-3","-1,15636105212692","-0,688406951553799","2,79539121850706"
"1784","-1,00295444261395","2,37499087734345","-3","-0,31346891395952","3,20824226226313","-3,05115219537323"
"1792","-2,73595085154545","-1,40625228066414","-3","3,37285972525266","2,35583718441683","0,237211951156691"
"1804","-2,19490302545898","-2,10156307016603","-3","-1,08567771885082","-1,30618676665293","0,0593029877891728"
"1813","-2,0516164758194","0,474609232458491","-3","3,16352765290897","-2,0901744959222","1,76482574694729"
"1821","-3,74883809459546","0,118652308114623","-3","2,31541165196492","-1,32106526585602","-0,558793563263177"
"1833","0,272020869316894","1,77966307702866","-3","-4,83016865593877","-1,09455633508652","1,61030160918421"
"1841","-0,663128705733264","1,19491576925716","-3","-2,76720838467156","2,38313610427467","-0,597424597703949"
"1853","0,824382578341065","1,04872894231429","-3","-0,479058761157884","-2,00363886991577","-0,149356149425987"
"1862","-8,45751957000198","-0,737817764421427","-3","0,870135690486338","-4,70656353426385","-1,7873390373565"
"1874","-0,710155098687618","1,56554555889464","-3","0,235878309281063","5,02486243058984","2,30316524066088"
"1882","1,81192850448005","2,89138638972366","-3","1,79286020046939","1,18535475847663","1,32579131016522"
"1894","-2,99048095834617","5,72284659743092","-3","2,94384808457772","1,05458848563288","1,0814478275413"
"1903","-3,9974790571763","-2,56928835064227","-3","0,526942642052933","2,72156861095264","-2,47963804311467"
"1911","-3,26416395288813","-0,642322087660568","-3","-0,857155222048102","2,21250783133841","0,380090489221331"
"1923","-1,33479053468948","-0,160580521915142","-3","-5,41911289376885","2,06258528668609","1,84502262230533"
"1931","-1,82383152749846","1,70985486952121","-3","4,98881045234518","-1,39255183835465","4,71125565557633"
"1943","-1,95334502540634","2,9274637173803","-3","-0,64762221836325","1,29537400211712","-1,82218608610592"
"1952","-3,72281271129503","0,481865929345076","-3","1,5533589215445","-0,618501808721095","3,04445347847352"
"1964","-1,45625520919701","-0,879533517663731","-3","1,15000576147676","-0,182153818854005","2,26111336961838"
"1972","-0,120830787092886","-0,219883379415933","-3","1,04066389390347","-0,0536457828501837","-1,4347216575954"
"1984","-2,50233665172634","1,69502915514602","-3","1,01102325838097","-6,83776654963899","-0,358680414398851"
"1993","-3,868203030087","-0,576242711213496","-3","1,00298820928517","7,10269764656581","1,66032989640029"
"2005","-4,96509600046195","-0,144060677803374","-3","-2,45702552201712","0,797294148471256","-2,33491752589993"
"2013","2,68508579050874","3,46398483054916","-3","0,333944082135177","-2,47068223870688","0,416270618525018"
"2021","-2,75924133631004","-1,13400379236271","-3","1,81944408727242","1,97785582047617","0,104067654631254"
"2033","1,2692657623957","-0,283500948090678","-3","-0,506781068941817","2,99347835882001","3,52601691365781"
"2042","-1,39902676689262","-1,82087523702267","-3","1,59153845212342","0,587095608681758","2,38150422841445"
"2054","-6,31118015393839","2,29478119074433","-3","2,88927333935055","-0,827095562784324","-1,40462394289639"
"2062","-1,14173664387615","-2,17630470231392","-3","-4,67460495930882","1,46190547953199","-2,1011559857241"
"2074","1,69763208276538","0,455923824421521","-3","-2,72503783340262","-0,569456932630526","-1,27528899643102"
"2083","-1,28558183824086","1,86398095610538","-3","2,99020849764259","-1,87320156093863","0,681177750892244"
"2095","-2,81079951075904","4,71599523902634","-3","-3,64724323314904","-4,66814868467698","-3,32970556227694"
"2103","-2,21472531400127","-0,0710011902434136","-3","1,0112972301008","3,33068405914428","-0,582426390569235"
"2111","-3,79203446562212","0,732249702439147","-3","2,0030624781455","-3,43007013918829","-2,64560659764231"
"2124","-3,20975573748352","-0,816937574390213","-3","4,72974796955811","4,4008001293586","3,08859835058942"
"2132","-3,05554994298473","-0,204234393597553","-3","0,0110683364937274","1,00156332930177","-0,227850412352644"
"2144","-1,27954295722161","1,69894140160061","-3","-0,996999570840227","-4,11601515912299","-3,55696260308816"
"2152","-1,80920022436843","-0,575264649599847","-3","-3,72810442322375","-0,917691836689797","1,11075934922796"
"2164","-1,94947019430795","1,60618383760004","-3","-4,19737615892309","-0,975759575706312","0,27768983730699"
"2173","-1,98661811181473","1,15154595940001","-3","1,8621659786992","0,712630859777458","-3,43057754067325"
"2185","-1,99645605343321","1,03788648985","-3","0,504800075963761","0,209875590841178","-0,607644385168313"
"2193","-1,99906145103782","2,7594716224625","-3","-1,59207546408543","0,0618100704264881","-0,901911096292078"
"2202","-0,264583020751737","-1,31013209438437","-3","-1,16050112753933","0,0182035690325635","-0,97547777407302"
"2214","-2,54040678262945","-0,327533023596094","-3","5,87216214384055","0,00536109930367104","0,756130556481745"
"2222","-2,14311678108919","1,66811674410098","-3","-1,40816128627111","0,00157888739798267","-1,56096736087956"
"2234","-3,77307026484169","1,16702918602524","-3","1,34719030733672","-3,41051871969302","-1,14024184021989"
"2242","-1,46956499641696","-0,708242703493689","-3","1,0941171171218","-0,709917390733372","-6,28506046005497"
"2255","-1,85952406089268","5,07293932412658","-3","2,75443126266831","5,90739912021874","-1,07126511501374"
"2263","-0,22762911350803","-1,73176516896836","-3","2,204512896842","2,15076085712075","3,48218372124656"
"2275","-2,53062022105512","1,31705870775791","-3","-3,13131354978213","-4,77756712977502","-5,37945406968836"
"2283","-0,405356568697319","1,07926467693948","-3","-1,57776119537108","2,29845943611709","-3,59486351742209"
"2295","-0,842519641648865","-0,73018383076513","-3","2,30121478851808","-3,73406869561664","2,10128412064448"
"2304","-4,42863107186039","-0,182545957691283","-3","1,35273618549724","-2,51069735061064","0,525321030161119"
"2312","1,82715864417487","1,70436351057718","-3","-4,09113285255715","4,67156290163918","-1,61866974245972"
"2324","-1,25127911456985","-0,573909122355705","-3","2,61988443559274","1,08130517043944","-1,15466743561493"
"2333","-4,53688348815968","-0,143477280588926","-3","-2,0187137135092","-2,38703868016158","4,21133314109627"
"2345","0,0633215640818452","1,71413067985277","-3","3,91059818992443","-1,40849418534778","-2,69716671472593"
"2353","-4,18873571578929","1,17853266996319","-3","7,70468254560995","-2,82579672121567","0,325708321318517"
"2365","1,89069050991513","4,5446331674908","-3","-6,36923317133622","6,28425542872566","-5,16857291967037"
"2374","-2,96962229214818","-0,1138417081273","-3","-3,18442140068234","2,26174810854966","1,70785677008241"
"2386","-2,25678660184345","0,721539572968175","-3","2,86567778324231","3,78257880671047","0,426964192520602"
"2394","-2,06800520101515","-0,819615106757956","-3","1,50575206371373","1,52498397332407","-5,14325895186985"
"2402","-2,01800992470756","-0,204903776689489","-3","1,13710038906406","1,86010391229932","-3,53581473796746"
"2414","-0,269601174937314","1,69877405582763","-3","-4,1495878816282","0,253307605616461","0,366046315508134"
"2423","-2,54173574832184","1,17469351395691","-3","-0,853797255500863","5,89656858220124","-0,658488421122966"
"2435","-2,14346873317082","1,04367337848923","-3","-2,68928482256065","1,14757117548633","-4,41462210528074"
"2443","-0,30282662917603","1,01091834462231","-3","4,72881828917427","-1,66203094465666","-1,60365552632019"
"2455","-2,55053489780278","-0,747270413844423","-3","2,73973410287987","-0,489481646381505","-1,90091388158005"
"2464","-0,41063060396884","1,56318239653889","-3","0,471610972027303","-1,84964818793505","1,52477152960499"
"2476","0,89125204911237","-2,35920440086528","-3","0,856763132550967","-4,66121202454277","-1,36880711759875"
"2484","-1,49913673514551","0,410198899783681","-3","-0,76774675332819","-1,78374861029591","0,657798220600312"
"2492","-2,86735559112894","0,10254972494592","-3","4,97863086908027","-1,93631220489308","1,91444955515008"
"2504","-2,22970315001986","0,0256374312364801","-3","3,53637163627792","-1,98124342575957","1,22861238878752"
"2513","-2,06083264772684","0,00640935780912001","-3","-2,04135254802787","-0,288984178715784","-4,19284690280312"
"2525","-3,75127882794625","0,00160233945228","-3","1,1755434183426","4,32587552118624","-2,54821172570078"
"2533","-1,46379393579368","1,75040058486307","-3","2,77650448466457","-2,43148629277072","-2,1370529314252"
"2545","-5,32833254549106","-0,562399853784233","-3","3,93941434092911","-4,83256808406625","-0,284263232856299"
"2553","-4,35178440433647","-0,140599963446058","-3","3,25465851921198","-3,53970622254585","-0,821065808214075"
"2566","-0,622826775279723","3,46485000913849","-3","-2,11771996345784","7,0740032675358","-2,70526645205352"
"2574","-1,63528104150512","2,36621250228462","-3","-0,574076215896848","-2,62214029468658","-0,42631661301338"
"2582","-0,168242480793476","-1,40844687442884","-3","1,57329593470903","0,227758332290491","0,893420846746655"
"2595","-0,77972434354661","-0,352111718607211","-3","-0,573507455060811","6,88904411317035","1,97335521168666"
"2603","-0,941664050272416","-0,0880279296518028","-3","-0,15546767054713","4,85084701553228","1,24333880292167"
"2615","-4,45488764206137","5,22799301758705","-3","-3,49998009271126","-4,276877913076","-4,18916529926958"
"2623","0,0850366534061808","-1,69300174560324","-3","-2,40661792418402","-1,96506722756295","-2,5472913248174"
"2636","-2,44781645256833","1,32674956359919","-3","-0,381309100854741","-1,28422015663128","3,11317716879565"
"2644","-2,11859593785725","-0,668312609100202","-3","-0,832283901403472","-1,08370515040647","1,52829429219891"
"2656","-2,03140794938546","1,58292184772495","-3","0,774382637499708","-1,02465184836858","-0,617926426950272"
"2664","-0,273149394956915","-0,604269538068763","-3","-1,51899642650312","2,4037235448143","1,59551839326243"
"2673","-2,54267542902927","5,09893261548281","-3","0,588227085953375","3,1188998712894","-0,601120401684392"
"2685","-2,14371759029553","0,0247331538707027","-3","0,159457900675765","-1,08145859208826","3,3497198995789"
"2693","1,43227588744433","0,756183288467676","-3","-1,68569158548007","1,38699349623676","-1,16257002510527"
"2701","0,379311883624614","0,939045822116919","-3","-1,1858787929741","1,11397273575796","-0,290642506276319"
"2714","-5,10505150078321","-0,76523854447077","-3","-2,77930622090011","-0,671925958733846","3,42733937343092"
"2726","-3,55748411104906","-0,191309636117693","-3","-0,482338269384875","1,50760419140206","-1,14316515664227"
"2734","0,322697446765651","1,70217259097058","-3","-4,31750668447216","4,56047728245139","-2,03579128916057"
"2746","-2,38487636959747","-0,574456852257356","-3","-6,81498820112487","0,0485895510677601","5,74105217770986"
"2754","-2,1019274163549","-0,143614213064339","-3","1,423660125234","0,719801875876551","-1,56473695557254"
"2766","-3,76216202037592","5,21409644673392","-3","-2,07190663396209","0,917479370916714","-3,89118423889313"
"2775","-3,20184457066563","-1,69647588831652","-3","-0,290574823318436","-2,43528671208178","1,02720394027672"
"2783","-1,31828639434587","-0,42411897207913","-3","0,921230333621085","-3,12819548105453","2,00680098506918"
"2795","-0,0842922881197445","-0,106029743019783","-3","-1,47918862794751","2,78421281676636","-2,24829975373271"
"2803","-0,757491681534445","-0,0265074357549457","-3","-8,04557065890137","-1,88551851229735","-1,31207493843318"
"2816","-0,935776139305157","3,49337314106126","-3","2,81898889452256","7,26666687496408","4,17198126539171"
"2824","-2,71815991546244","-1,12665671473468","-3","-6,15149339461374","-0,154415578636823","-0,957004683652073"
"2836","-2,19019142377927","-0,281664178683671","-3","-1,12539601997669","-1,04547664524605","1,51074882908698"
"2845","-0,315200273065493","3,42958395532908","-3","-0,033992630696648","-3,71888509976505","-0,622312792728255"
"2853","-0,818643407596119","2,35739598883227","-3","-2,46705036998748","0,904758056888837","5,09442180181794"
"2865","0,783197374420488","-1,41065100279193","-3","3,06014431035711","0,26645861479695","-1,72639454954552"
"2873","-1,52775302517114","3,14733724930202","-3","3,2873862665962","0,0784742317119068","3,06840136261362"
"2885","-1,13976566653192","-1,2131656876745","-3","-1,10884805324432","-3,38787241466792","0,517100340653405"
"2894","-6,24251962757578","3,19670857808138","-3","-0,300588985038277","-0,703247869504671","-0,870724914836649"
"2902","-4,59389001201348","2,29917714452034","-3","-0,081484327507254","-2,61809593869222","-1,96768122870916"
"2914","-0,686943985440897","0,324794286130086","-3","5,16466440671771","4,63993314295013","-1,24192030717729"
"2926","1,8180755402319","0,831198571532522","-3","1,8578842332985","-0,633501908485517","2,43951992320568"
"2935","-2,98885302916704","-0,79220035711687","-3","-8,41203177386925","4,92990410195808","-2,14012001919858"
"2947","-2,26187950827723","-0,198050089279217","-3","-1,73818776819899","-6,66457867228475","2,21496999520036"
"2951","-2,0693539634634","-0,0495125223198044","-3","-0,200109574401456","1,03722731430677","-2,19625750119991"
"2963","-3,75353554144072","1,73762186942005","-3","2,67467163977194","2,01096374718884","3,95093562470002"
"2976","-1,46439158478987","1,18440546735501","-3","-3,73277966311525","-0,407754802067868","-1,01226609382499"
"2984","-5,3284908218179","-0,703898633161247","-3","4,44594539771068","-0,120087109375316","-0,253066523456249"
"2996","0,85367894463041","-0,175974658290312","-3","0,934134507035966","3,37561708336086","3,43673336913594"
"3004","-0,509087279701638","-0,0439936645725779","-3","-0,746772749848258","-4,41683699768684","-1,14081665771602"
"3016","-0,869990809547234","-0,0109984161431445","-3","-3,66027238263779","5,81568111217028","1,464795835571"
"3025","-0,965569460917797","-1,75274960403579","-3","-0,72115252678922","2,12374915693146","1,11619895889275"
"3037","-4,46121854968902","5,81181259899105","-3","-6,1111627682584","3,74193699179471","-0,720950260276813"
"3045","0,0833600291480001","0,202953149747763","-3","4,07229025410771","-0,192477229540824","1,5697624349308"
"3053","-0,713092053771158","0,800738287436941","-3","-5,08282790129954","0,648805746087551","-2,3575593912673"
"3066","0,811150706030303","-0,799815428140765","-3","-3,56461759844303","-0,808921424840065","-4,83938984781683"
"3074","-3,25551852209167","-0,199953857035191","-3","3,76261335627603","-0,238233946303438","3,54015253804579"
"3086","-0,597332529762392","-0,0499884642587978","-3","0,0199775582825268","1,63533002042433","-1,86496186548855"
"3094","-6,09886620392177","3,4875028839353","-3","3,46325113313093","1,18710986422526","-1,21624046637214"
"3103","-4,55584604911988","2,37187572098383","-3","-1,06117421589492","2,76059723601085","0,695939883406965"
"3115","1,0582996791369","0,342968930245956","-3","3,17017011673605","-2,89247349312104","0,173984970851741"
"3127","1,2802711741863","-0,914257767438511","-3","-1,14062326664121","0,148143004148322","-1,70650375728706"
"3135","0,339056235525556","1,52143555814037","-3","-7,22487382504066","0,043629320984395","4,07337406067823"
"3147","-1,64537562390805","1,13035888953509","-3","0,312547422899226","1,71834104772805","-0,981656484830441"
"3152","-1,17091584498206","1,03258972238377","-3","4,54256161972159","-0,493934569755801","1,50458587879239"
"3164","-4,51560075664909","-0,741852569404057","-3","-0,768592339815305","-1,85095961012695","1,1261464696981"
"3176","-3,40137894023563","-0,185463142351014","-3","-1,93726949918748","0,454877323275246","2,78153661742452"
"3185","-3,10629781818061","-0,0463657855877535","-3","2,20375848164102","3,54494879045657","-3,05461584564387"
"3197","0,44218582474771","-0,0115914463969384","-3","-2,13151805832493","2,45499999862157","1,98634603858903"
"3205","-0,61806365203992","-0,0028978615992346","-3","5,60893672460855","0,428509347013091","-0,503413490352742"
"3217","-2,63401961606057","-0,000724465399808649","-3","1,9783185567612","-0,87380050814327","-3,62585337258819"
"3226","-3,90307683734771","1,74981888365005","-3","0,265204760165786","3,1536423502701","-0,656463343147047"
"3238","-1,50399484218419","-0,562545279087488","-3","-0,928107706504682","0,634265208308087","-2,66411583578676"
"3246","-3,60381059312827","3,35936368022813","-3","1,47732429448111","-0,813203731613261","1,33397104105331"
"3254","-3,1599081122846","2,33984092005703","-3","-0,599523659755553","3,17148859437084","5,58349276026333"
"3266","2,16315654780025","-1,41503976998574","-3","5,02423315769777","-1,06597078493416","-3,35412680993417"
"3275","-2,89746468134154","-0,353759942496436","-3","-3,3669375391803","-0,31393707588997","-5,08853170248354"
"3287","-2,23767698789767","-0,0884399856241089","-3","1,81620090436455","3,31852668978807","3,47786707437911"
"3295","-0,327775949950529","-0,0221099964060272","-3","-3,96549581054967","-1,02266686856785","-0,130533231405221"
"3303","-0,821973843951945","-0,00552749910150681","-3","-0,803893169330368","-2,00667557735948","-0,0326333078513053"
"3316","-2,68802147398644","3,49861812522462","-3","0,782078860001411","2,11450956044323","-1,75815832696283"
"3328","-2,18220981276006","-1,12534546869384","-3","3,66984324113867","3,03372399795105","2,31046041825929"
"3336","-0,31308649042306","1,46866363282654","-3","2,4526648025023","0,59894827710822","1,32761510456482"
"3348","-0,818083611203048","1,11716590820663","-3","-6,52187955424316","-0,823604855421714","-2,41809622385879"
"3352","-0,951822795662723","1,02929147705166","-3","2,96095223851925","-0,24255833617039","3,8954759440353"
"3365","-2,72240957678972","-0,742677130737085","-3","-3,65517408463962","-0,0714354050470268","-1,02613101399117"
"3377","-2,19131686829519","-0,185669282684271","-3","-0,719770468881279","-0,0210383084531387","-0,256532753497794"
"3385","-0,315498326312771","-0,0464173206710678","-3","-0,924034758332963","1,6992959042989","1,68586681162555"
"3397","-2,5538907633534","3,48839566983223","-3","-2,70832496031997","4,61693205276003","2,92146670290639"
"3402","-2,14668776498412","2,37209891745806","-3","2,99473906027675","-1,64027591683417","0,480366675726597"
"3418","-2,03884755229671","0,343024729364515","-3","1,54073828040773","-2,1885664709902","-0,879908331068351"
"3426","-3,74545648042761","-0,914243817658871","-3","-0,582333256064856","7,17741678354405","-0,219977082767088"
"3434","-1,46225199431176","-0,228560954414718","-3","6,75781095658903","-3,5916841721718","1,69500572930823"
"3447","-1,85758734700411","1,69285976139632","-3","-2,16807764546432","-0,0577802341942695","-2,32624856767294"
"3455","-1,96228463235792","1,17321494034908","-3","-2,31664507401958","-0,0170167494490077","0,418437858081764"
"3467","-5,46034862335754","-0,70669626491273","-3","2,10091651095492","1,70048028617138","0,104609464520441"
"3475","-0,916409586888756","1,57332593377182","-3","-5,61723225981523","4,61728086286537","1,77615236613011"
"3488","-1,71303104082259","-0,606668516557046","-3","-3,70948511501238","-3,34566504686189","-2,30596190846747"
"3496","-0,188833135814239","3,34833287086074","-3","-1,46341100943106","-3,39630931345389","0,423509522883132"
"3504","-0,785177399210995","2,33708321771518","-3","3,33221309007083","6,11623482488075","1,85587738072078"
"3516","-2,67827661345521","-1,4157291955712","-3","5,09005705990884","-1,19871904228776","-4,0360306548198"
"3528","-3,91479748781211","-0,353932298892801","-3","0,108741722357288","3,05795119629717","-2,50900766370495"
"3537","-3,24226726238911","5,1615169252768","-3","5,94514909163962","0,606083384292475","-0,377251915926238"
"3545","-4,79932844327913","1,7903792313192","-3","1,069459749522","-0,82150350825794","4,40568702101844"
"3553","-4,21168741309744","1,9475948078298","-3","-1,71008848353249","-0,241939472320322","0,85142175525461"
"3566","1,14944375385025","-1,51310129804255","-3","4,72317878670293","-0,0712531446040481","0,962855438813653"
"3578","1,30440900333207","4,87172467548936","-3","0,00928754786250741","-5,13746020360048","-0,759286140296587"
"3586","-3,12488814877941","-1,78206883112766","-3","-0,997482310964683","-1,92400757690589","-0,189821535074147"
"3598","-5,76824274737949","1,30448279221809","-3","-1,99931749928265","1,43336410226169","1,70254461623146"
"3602","-4,46828651734887","1,07612069805452","-3","-2,99981498619462","0,422137399363605","-2,32436384594213"
"3618","1,08148820811829","-0,73096982548637","-3","2,91572129876282","0,124322901390015","0,418909038514466"
"3627","-0,448756192933913","3,31725754362841","-3","-1,93851760171821","-3,37436960812235","0,104727259628617"
"3635","-2,58918165447219","-4,6706856140929","-3","2,20342014324395","-2,4047630404736","3,52618181490715"
"3648","-5,62637075106446","0,832328596476775","-3","-0,402691989643907","-0,413714153781263","2,38154545372679"
"3655","-4,43071433266883","0,208082149119194","-3","-3,56699820843654","2,58364967046469","2,0953863634317"
"3668","-0,643729912763608","7,0520205372798","-3","2,7619680152488","3,171889580352","2,02384659085792"
"3676","-1,64081685239336","1,26300513431995","-3","3,20655597641637","-2,77134454874161","0,255961647714481"
"3688","-1,90487696017281","-1,68424871642001","-3","2,32707586515729","-1,52167539287667","0,81399041192862"
"3697","-0,239639993398271","-2,171062179105","-3","-1,36917112279894","-1,1536376509733","-0,796502397017845"
"3705","-0,798632659486048","-1,29276554477625","-3","-2,10007572523836","-2,75073939665878","-3,69912559925446"
"3717","-0,946671569422902","2,42680861380594","-3","-3,02712874914498","1,18988484963428","1,07521860018638"
"3725","-0,985876947569761","1,35670215345148","-3","6,36615259584054","-3,06055293796653","-1,4811953499534"
"3737","-2,73142819158197","-0,660824461637129","-3","2,1835863114572","-0,606849618398929","-4,62029883748835"
"3746","-0,45853686043796","-0,165206115409282","-3","-1,40806858867274","0,821277846074486","-1,65507470937209"
"3754","-0,856603462237259","-0,0413015288523206","-3","1,3472154360069","-1,46361884447413","3,33623132265698"
"3766","-4,43236091229326","5,23967461778692","-3","-2,3637116433481","0,568952332703898","-0,165942169335755"
"3778","-5,11450282273497","1,80991865444673","-3","0,359239814942787","0,167561094707555","-1,79148554233394"
"3787","-0,824818697711752","-1,54752033638832","-3","-1,6315342618839","0,0493481067669798","4,05212861441652"
"3799","-3,4239433029427","-0,386880084097079","-3","-1,17119770580032","-1,69095843818135","-0,986967846395871"
"3803","-3,11227357396637","-0,0967200210242699","-3","-2,77532643928808","-1,20349288621222","3,25325803840103"
"3815","-1,29456516593313","3,47581999474393","-3","4,7054939372331","-2,76542216938568","2,31331450960026"
"3828","-1,81317857960887","2,36895499868598","-3","-2,45334207268788","2,89105251095486","3,82832862740006"
"3836","-1,95052378840474","-1,4077612503285","-3","-1,39397518646896","-3,55954520985459","-3,79291784314998"
"3848","-3,72206555864755","-0,351940312582126","-3","-4,56463523813464","0,95168495190145","-1,6982294607875"
"3852","-3,19122576142769","-0,0879850781455315","-3","0,0336907882666615","-3,13070474740487","2,32544263480313"
"3868","-3,0506426201827","3,47800373046362","-3","2,73805075967062","-0,627509897493559","-2,16863934129922"
"3877","0,456925078666001","2,3695009326159","-3","6,65790800623171","-2,59579048923427","2,2078401646752"
"3885","-4,08449707585479","0,342375233153976","-3","-3,92407734461478","4,64650227943887","-0,448039958831201"
"3897","-1,5520406502572","-0,914406191711506","-3","-3,52158314609537","-0,631567244300021","-0,1120099897078"
"3901","-3,61653464030396","3,27139845207212","-3","-0,683556341517447","-0,18600169601804","1,72199750257305"
"3914","-1,42810941993322","0,567849613018031","-3","4,27253560609172","-1,7602708714505","-2,31950062435674"
"3926","-3,58371373699462","-0,858037596745492","-3","-2,57070937557567","-1,22390596219035","-1,32987515608918"
"3934","0,315751013532084","-0,214509399186373","-3","0,303126411439521","-4,47692584391981","-1,0824687890223"
"3946","-2,38671600447326","-0,0536273497965933","-3","0,082172178673451","-1,72947482954189","2,47938280274443"
"3951","-3,83758303160772","-1,76340683744915","-3","3,48011098851278","-1,92032813453372","3,11984570068611"
"3963","1,98368682944014","4,05914829063771","-3","4,13014954963445","-0,271044129443599","-1,22003857482847"
"3975","-1,20982550824037","-0,985212927340571","-3","5,03528122803962","2,6256671543308","3,19499035629288"
"3983","-4,52590526417525","1,50369676816486","-3","-2,63502481761112","-1,93221150085157","0,548747589073221"
"3995","-1,66893947738046","1,12592419204121","-3","-0,714308360968802","2,13643983730273","0,887186897268305"
"4004","-3,64749314117543","2,7814810480103","-3","-1,92255407802805","-0,370801071833231","4,47179672431708"
"4012","-1,43630820857631","0,445370262002576","-3","3,9366653567886","-0,109203934923396","1,61794918107927"
"4024","-0,115548191439056","0,861342565500644","-3","-2,6617578263054","-1,73765330547805","-1,59551270473018"
"4033","0,969399190108289","0,965335641375161","-3","3,73628036825833","-2,92273676229062","-3,89887817618255"
"4041","-4,94877774815817","2,74133391034379","-3","0,741756939797509","2,84472208240147","2,77528045595436"
"4053","-3,51609788651723","-1,31466652241405","-3","2,65891268574524","-1,86769804086773","1,44382011398859"
"4061","-1,40151059592316","-0,328666630603513","-3","-3,00813384905722","-2,96103599575943","1,11095502849715"
"4073","-1,84150110660954","-0,0821666576508783","-3","-3,27328715560641","1,1279507888473","-4,22226124287571"
"4082","-1,95802448792765","1,72945833558728","-3","6,29942343007216","-1,37330116572591","-0,805565310718928"
"4094","-1,98888355889403","2,93236458389682","-3","-3,02125613713229","0,595551624512009","2,54860867232027"
"4102","-3,73222443720388","0,483091145974205","-3","1,90990898410027","1,88088666017522","-0,362847831919933"
"4110","0,276420690422826","-0,879227213506449","-3","4,70449571416937","-0,446063563353349","-0,0907119579799832"
"4122","-0,661963494166182","1,53019319662339","-3","-1,72469488700314","3,27961436338278","-0,0226779894949958"
"4131","-4,38081410237704","2,88254829915585","-3","1,26138367810905","-1,03412686554001","-0,00566949737374895"
"4143","-5,10085159971603","-1,27936292521104","-3","1,07085646611228","4,81191678999437","3,49858262565656"
"4151","0,913964999069528","-0,31984073130276","-3","-2,43862764470987","3,53362424828735","0,624645656414141"
"4163","-0,493121628763815","-0,0799601828256899","-3","-3,11890415296064","-1,95931888614588","-2,59383858589647"
"4176","-2,60093102285854","1,73000995429358","-3","2,88343834379661","-2,28252722327776","-1,39845964647412"
"4184","-3,8943139329911","-0,567497511426606","-3","-1,94726893661837","5,44425271947071","-1,09961491161853"
"4192","-3,23684257023965","1,60812562214335","-3","-2,98570554660262","-1,39662324398297","-1,02490372790463"
"4200","3,87795029573099","-2,34796859446416","-3","1,19062833068014","1,29417494000793","-1,00622593197616"
"4213","-3,44333314686747","0,413007851383959","-3","-3,1350774087149","-4,02983865716359","-1,00155648299404"
"4221","-5,85257703877858","3,60325196284599","-3","-2,30769929678572","2,51867155972215","0,74961087925149"
"4233","2,45005278654909","-1,0991870092885","-3","1,3744237658489","-1,96372257468144","-3,31259728018713"
"4241","-1,08631707582165","-0,274796752322126","-3","0,372581837141916","2,12715956947914","-0,578149320046782"
"4253","-2,75802790925697","3,43130081191947","-3","1,82991809543581","1,33195767117158","-0,894537330011696"
"4262","-2,20074972749373","-1,14217479702013","-3","6,41172939318932","-0,607727620299981","0,776365667497076"
"4274","-0,317996445300829","1,46445630074497","-3","-3,99081198802786","1,5265111248094","-1,55590858312573"
"4282","-0,819383922301995","1,11611407518624","-3","1,6470796376394","1,15506181340271","-2,88897714578143"
"4290","0,783001262742284","1,02902851879656","-3","1,17541178067443","6,16214253897846","4,77775571355464"
"4303","-3,26297338358181","1,00725712969914","-1,17157287525381","-0,681366772371371","1,22578486820806","-0,805561071611339"
"4311","-2,33447523434118","1,00181428242479","-3,68629150101524","-1,91362419926506","-3,34448823273469","-3,70139026790284"
"4323","-0,35341118231876","2,7504535706062","-3,11774900609144","-2,97658505671826","-3,39596273211116","-2,42534756697571"
"4331","-2,56393128484182","2,18761339265155","-3,02020253553339","2,92201851947163","-4,11661424875547","1,39366310825607"
"4344","-0,414178390289956","-1,45309665183711","-3,00346620710888","-3,66572832339041","1,78762358397927","0,348415777064018"
"4352","-2,58002436042888","1,38672583704072","-3,0005947071199","-0,722631535286789","2,23196155875107","-3,412896055734"
"4364","-2,15360876674047","-0,653318540739819","-3,00010203561049","4,26194301606017","-5,45914471940758","-4,1032240139335"
"4372","-2,04068045211426","3,33667036481505","-3,00001750654307","-2,57358083833127","1,39223742874262","-3,27580600348337"
"4381","-3,74594189017889","2,33416759120376","-3,00000300364793","0,302348008958897","-4,70645031319586","-1,31895150087084"
"4393","-3,19754896798768","-1,41645810219906","-3,00000051534451","0,081961167605778","-1,79707165465954","1,67026212478229"
"4401","-3,05231720495498","1,39588547445024","-3,00000008841914","1,7511360009627","1,4707477649461","-3,08243446880443"
"4413","-1,27868682610743","-0,651028631387441","-3,00000001517033","-3,98313374860435","2,13863904986669","2,97939138279889"
"4422","-0,0738050719689178","-0,16275715784686","-3,00000000260282","0,920243285577668","-0,370153385825934","-3,75515215430028"
"4434","-4,22505117922164","3,45931071053829","-3,00000000044657","0,249461587086478","-1,81450504356438","-0,688788038575069"
"4442","-5,05960065895881","0,614827677634571","-3,00000000007662","0,0676245992847859","0,465613489961276","-0,922197009643767"
"4450","-2,54544729288025","2,65370691940864","-3,00000000001315","1,74724961228399","5,25360253640939","-0,980549252410942"
"4463","-2,87962008921905","-1,33657327014784","-3,00000000000226","2,93148386535982","5,36919615450148","0,754862686897265"
"4471","-1,23295117640434","-0,33414331753696","-3,00000000000039","0,523590922135472","-0,713236156074747","-1,56128432827568"
"4483","-1,79686124952556","-0,08353582938424","-3,00000000000007","-4,31589938610879","-2,91554571297334","-1,14032108206892"
"4491","1,52413439956336","-0,02088395734606","-3,00000000000001","0,8300364398873","-1,56414380990898","-2,78508027051723"
"4503","-3,06669792533484","1,74477901066349","-3","-8,41958081535653","0,539346911853169","-0,446270067629308"
"4512","-0,547326873135193","2,93619475266587","-3","2,71760139332803","5,27531762953508","-2,61156751690733"
"4524","-0,880117861424231","0,484048688166468","-3","4,19452897432738","-3,15186786097641","1,34710812077317"
"4532","-4,4385882677393","-0,878987827958383","-3","-0,862937799802494","-3,33923446420617","-1,41322296980671"
"4540","-1,64581517941461","-0,219746956989596","-3","-5,42068044774797","1,0165682603875","0,646694257548323"
"4553","-0,171032253160545","1,6950632607526","-3","3,25946773013956","3,71037134503606","-1,58832643561292"
"4561","-4,25080000705614","2,92376581518815","-3","1,61250151428975","-4,31824914186815","-1,14708160890323"
"4573","-1,59608291797899","0,480941453797038","-3","-0,562879519754866","-7,7992188210856","0,713229597774192"
"4581","-3,62819842357022","-0,879764636550741","-3","-0,1525866263163","0,997574694169966","0,178307399443548"
"4593","-1,43119835806288","1,53005884086231","-3","-5,22811687906584","-0,41169798720304","0,044576849860887"
"4602","-5,31970020719975","4,63251471021558","-3","3,31166828863462","-2,53223212439314","-3,48885578753478"
"4614","0,856006976972684","-0,091871322446105","-3","3,35556994345076","-0,451254836919728","-0,622213946883695"
"4622","1,226697678623","4,22703216938847","-3","2,36747090122769","-2,54388193872857","-2,65555348672092"
"4630","-6,61580540523347","-0,193241957652881","-3","-4,81605631939999","1,25080605534317","-0,413888371680231"
"4643","-1,22241102992235","-1,04831048941322","-3","-1,03446499503806","2,07386442550093","0,896527907079942"
"4651","-0,0589014640533196","1,48792237764669","-3","-4,46717841955886","-0,389230040132659","0,224131976769986"
"4663","-2,48593581137172","-0,628019405588326","-3","1,78902738459854","5,00184415618537","-3,4439670058075"
"4671","-3,86385956965283","3,34299514860292","-3","2,21389129016365","0,178575689236925","-0,610991751451876"
"4684","-1,49360887128965","-1,16425121284927","-3","4,78689991065224","-4,35839172034507","0,847252062137031"
"4692","-3,6010600600656","-0,291062803212318","-3","-1,70235657499438","0,716418149909519","1,96181301553426"
"4704","0,311157159418017","-0,0727657008030794","-3","2,9963569833836","-3,19999273626461","1,24045325388356"
"4713","-2,3879326021081","-0,0181914252007699","-3","3,99901244299073","1,05757608304987","1,06011331347089"
"4721","-5,57307364692476","-0,00454785630019247","-3","3,27081450465696","2,01695662527467","2,76502832836772"
"4733","-2,68143115462301","1,74886303592495","-3","-0,384422576954615","1,29950200676971","-1,30874291790807"
"4741","2,28987235560837","1,18721575898124","-3","-4,56204569559995","1,08820577970556","-0,327185729477017"
"4753","-4,59907475582802","-0,70319606025469","-3","2,49222833959512","1,02597732034379","1,66820356763075"
"4762","-5,1586539130185","-0,175799015063673","-3","1,40451656178849","4,41863424725094","-2,33294910809231"
"4774","-0,836511300628783","-0,0439497537659182","-3","1,10965724508729","0,00681562223636334","-1,33323727702308"
"4782","0,0432969702649167","-0,0109874384414795","-3","-0,699191657445545","-6,11446831608666","2,41669068074423"
"4794","-4,19403886057173","1,74725314038963","-3","-1,91845620857165","1,19923929351152","4,85417267018606"
"4802","-3,31621919582309","-0,563186714902592","-3","3,9377762163127","0,353185736812303","-1,78645683245349"
"4811","-1,34857640682716","5,10920332127435","-3","0,796378880359047","-3,30696763956203","-0,446614208113371"
"4823","-1,82748246177292","-1,72269916968141","-3","0,944801936111849","-0,67942075446432","-1,86165355202834"
"4831","-1,95431190809198","-0,430674792420353","-3","-4,20171657196428","2,50539691303264","0,534586611992914"
"4843","-0,252731928671695","-0,107668698105088","-3","-0,86792841627952","4,85433536355476","0,133646652998229"
"4852","-4,27243666105647","-0,0269171745262721","-3","2,4936378297001","0,135133148708596","0,0334116632495572"
"4864","-1,60181298720388","3,49327070636843","-3","-0,324019136716249","-0,960202187376081","-1,74164708418761"
"4872","1,57578933869032","0,623317676592108","-3","-5,27458918350188","1,42270449476157","0,564588228953097"
"4880","-6,52335490997724","-0,844170580851973","-3","5,02798825967055","2,82998177304628","1,89114705723827"
"4893","-2,93309564120791","1,53895735478701","-3","2,82083376078367","0,53894453289128","2,97278676430957"
"4901","0,488055230615196","1,13473933869675","-3","0,493595646830068","-0,841276446677453","-6,50680330892261"
"4913","-0,605915984895021","1,03368483467419","-3","-0,866194999336604","-1,95325462113108","1,37329917276935"
"4921","-0,895634108354261","1,00842120866855","-3","3,22302551440514","2,13024246703562","0,343324793192337"
"4934","-0,97236061620995","1,00210530216714","-3","0,602622677772785","1,33286560960463","-3,41416880170192"
"4942","-0,992680218371661","-0,749473674458216","-3","-2,56555749662763","-0,607460225038509","-2,35354220042548"
"4954","-2,73322991252505","1,56263158138545","-3","0,304522994189971","-1,88439383999672","4,91161444989363"
"4962","-3,92935085672958","4,64065789534636","-3","1,81146855361991","-2,9659530445494","2,72790361247341"
"4970","-1,51095303220156","-1,83983552616341","-3","1,21997469194216","1,12650267794131","-3,06802409688165"
"4983","-0,135316497880799","1,29004111845915","-3","-4,1271221321371","-1,37372764617905","1,98299397577959"
"4991","-0,771004503529555","1,07251027961479","-3","-0,8477071903942","4,00640973743382","-2,2542515060551"
"5003","-2,67452318312488","-0,731872430096303","-3","5,95695501678422","-0,820079709909905","3,93643712348622"
"5011","-0,443466617243368","3,31703189247592","-3","2,07266012584613","-0,241520152113468","0,734109280871556"
"5024","0,882556035896572","0,579257973118981","-3","-1,43813870463628","-0,0711296513887913","-2,56647267978211"
"5032","-1,50143971404911","-0,855185506720255","-3","3,06798174860508","-0,0209482615111721","-1,39161816994553"
"5044","-1,132797070821","3,28620362331994","-3","2,28951085670696","-1,71166129103139","-1,09790454248638"
"5052","-1,03516885783983","0,571550905829984","-3","0,349563457751751","0,495901812493261","-1,0244761356216"
"5061","-6,21481908965992","0,892887726457496","-3","-0,905239564010023","1,85153897913152","0,743880966094601"
"5073","-2,85138561299606","2,72322193161437","-3","-0,245394345028723","2,95627702050205","1,93597024152365"
"5081","-2,96064221735327","-3,06919451709641","-3","-3,52435761470916","2,28163136907709","-2,26600743961909"
"5093","-1,25440839446357","1,9827013707259","-3","2,77352712179405","3,78843458883636","0,433498140095228"
"5102","-0,0673753766015563","-0,504324657318525","-3","-0,248146127797265","1,52670854884118","0,108374535023807"
"5114","-0,753011549159582","-0,126081164329631","-3","3,39056757073693","0,155119956387608","1,77709363375595"
"5122","-0,934589658777981","-1,78152029108241","-3","0,648040349307357","-4,36529962465882","1,19427340843899"
"5134","-6,18818254164285","0,554619927229398","-3","2,63350778492564","-0,991108141602829","-2,45143164789025"
"5143","-1,10916299210268","1,88865498180735","-3","7,35848605140361","-2,70287313274353","2,13714208802744"
"5151","-0,0289098074746259","-0,527836254548163","-3","-4,73416309719181","2,90947371155501","-2,21571447799314"
"5163","-4,21316149547395","3,36804093636296","-3","-3,74118298526959","-1,84862815883824","0,446071380501715"
"5171","0,149053370288148","2,34201023409074","-3","2,71474962033512","0,455563954663746","-3,38848215487457"
"5183","-2,4308628044082","-3,16449744147732","-3","-1,99299744921695","3,54515100899141","2,90287946128136"
"5192","-2,11410607645953","0,208875639630671","-3","0,459733839373935","-0,955924161261244","-0,274280134679661"
"5204","-3,76538731415124","1,80221890990767","-3","3,58246123934045","-0,281527449157496","1,68142996633008"
"5212","0,267638113384712","1,20055472747692","-3","-1,02885847639664","-0,082912126129916","-0,579642508417479"
"5224","-4,13462624159432","-0,699861318130771","-3","4,90784812514246","1,68107356118206","3,35508937289563"
"5233","1,90502040735929","1,57503467046731","-3","3,51718369335261","-2,21040200544015","0,588772343223908"
"5241","-2,96582728279325","-0,606241332383173","-3","-2,04655405807428","3,76000232596357","0,897193085805977"
"5253","-3,99094998537231","-0,151560333095793","-3","4,63196895388957","0,812843158469899","2,72429827145149"
"5261","-1,52726642665296","1,71210991672605","-3","1,7134799706661","2,65037264367827","-4,81892543213713"
"5273","-0,139636799878422","1,17802747918151","-3","-3,26442384245725","-2,92493553307291","0,795268641965718"
"5282","0,963019765919744","1,04450686979538","-3","0,11507275801406","1,84407452650247","5,44881716049143"
"5294","-1,48013037744287","-0,738873282551155","-3","1,76011196419293","-2,16239689390879","0,112204290122858"
"5302","-2,86232210742358","1,56528167936221","-3","2,93497062018994","0,363156507305958","0,778051072530714"
"5314","-2,22837012458656","-0,608679580159447","-3","0,524536119353787","-1,59853930902013","-2,55548723186732"
"5323","-0,325311198652179","1,59783010496014","-3","-0,85780758754894","-1,1762747001463","-3,13887180796683"
"5331","-0,821321099975844","1,14945752624003","-3","-0,232536379844872","2,3590693803682","-0,534717951991708"
"5343","-2,68784860676911","-0,712635618439991","-3","1,66588130956597","-0,305234858626918","-2,63367948799793"
"5351","-0,44699561021665","1,57184109539","-3","-5,7351625652875","1,61559770618638","1,34158012800052"
"5364","-2,58871539657271","4,6429602738475","-3","1,44529943531457","2,88679039445467","0,33539503200013"
"5372","-0,420742005712807","-1,83925993153812","-3","2,12071275672775","-1,14981672298052","-1,66615124199997"
"5384","-2,58176261305971","1,29018501711547","-3","-5,61186584968626","3,07235332752303","-1,16653781049999"
"5392","-5,6244059546188","-0,677453745721133","-3","4,93655855433912","0,610324929208651","2,458365547375"
"5404","0,775311273010932","-0,169363436430283","-3","-2,39070456475256","0,885237518700844","-0,385408613156249"
"5413","-4,00017835754379","1,70765914089243","-3","-1,37699527215111","-2,44478220009044","-0,0963521532890624"
"5421","-1,52971039101893","2,92691478522311","-3","-1,10219671296583","-4,83648383703458","1,72591196167773"
"5433","-7,08095772620015","-1,26827130369422","-3","5,88796743361729","1,5756161286526","1,18147799041943"
"5441","3,12473879052465","-0,317067825923556","-3","0,325041032873993","0,464031779430828","-2,45463050239514"
"5454","-2,64280733847544","1,67073304351911","-3","4,27486620137459","-3,27432257744076","3,88634237440121"
"5462","-5,64057252558865","-0,582316739120222","-3","-0,112242020241482","-0,669806517855358","-1,0284144063997"
"5474","-0,964138567337797","3,35442081521994","-3","-2,75934460153086","-6,01923090322133","-2,00710360159992"
"5483","-3,46083960388405","-1,16139479619501","-3","1,98090854299016","-1,18369622781158","3,99822409960002"
"5495","-1,3868764577273","1,45965130095125","-3","1,26590685936644","1,65139182259661","0,749556024900005"
"5503","1,63271131899466","1,11491282523781","-3","-2,3857529523045","-1,21914351913878","-0,812610993774999"
"5511","-3,03794332841069","6,27872820630945","-3","0,353264808115896","-1,06453955077476","-1,95315274844375"
"5523","-5,74521701338887","-2,43031794842264","-3","-1,63315397996199","-1,01900742322008","4,01171181288906"
"5532","0,743316689658329","-0,607579487105659","-3","4,0151165760455","-1,00559784090732","0,752927953222266"
"5544","1,19685373199084","1,59810512822359","-3","2,54626226249401","-2,70714046717189","0,938231988305566"
"5552","-1,41820375918212","4,6495262820559","-3","0,41916419722807","1,2027250893749","2,73455799707639"
"5564","-1,11075356153437","-0,0876184294860256","-3","-2,61528982767357","-1,3512795253666","0,433639499269098"
"5573","-1,02933104048739","-1,02190460737151","-3","0,291041443792737","5,71851274924213","0,858409874817274"
"5585","-2,74293620758662","-0,255476151842877","-3","0,0788961588900922","-1,31585143203763","-0,785397531295681"
"5593","-0,4615845464779","1,68613096203928","-3","3,47922291781746","1,31796289631484","1,55365061717608"
"5605","-0,857410585740936","2,92153274050982","-3","4,12990880946435","4,50462637688333","-2,36158734570598"
"5614","-0,962237820393637","0,480383185127455","-3","6,76413375386408","1,73763286205279","-3,0903968364265"
"5622","-0,989999382380291","-0,879904203718136","-3","-4,89528143378433","3,62822259897937","1,22740079089338"
"5634","-2,73251994249869","-3,71997605092953","-3","-8,97161265924458","-1,93145890159471","3,80685019772334"
"5642","-3,92916283424705","-4,17999401273238","-3","0,839037592797545","2,84215334135591","-6,29828745056916"
"5654","-3,24607165975622","7,2050014968169","-3","9,87203709912829","-1,16296269857781","1,42542813735771"
"5663","-1,32999912414692","7,55125037420423","-3","-0,59494854227669","-0,342501984220119","-1,39364296566057"
"5675","-0,0873941888374528","-1,36218740644894","-3","-9,80586889894942","-0,100869623194428","0,651589258584857"
"5683","-4,22865000648766","-6,59054685161224","-3","-4,57386779414399","3,38127678952059","1,91289731464621"
"5695","0,144951523473123","1,35236328709694","-3","4,48902357895008","2,40679726163749","1,22822432866155"
"5704","-4,16711752481901","2,08809082177424","-3","3,67473002197542","3,8252969633657","1,05705608216539"
"5712","-6,77942641968054","1,27202270544356","-3","4,18290730807258","3,24305667573798","2,76426402054135"
"5724","1,46942538044781","1,06800567636089","-3","1,59174734558658","-0,339401544780468","0,441066005135337"
"5732","-0,346018179361067","-0,732998580909777","-3","-3,29742339195516","-1,09995651853395","0,860266501283834"
"5744","-0,826804962355795","-0,183249645227444","-3","5,29288052569001","-0,323946151165849","-0,784933374679041"
"5753","0,781035936993288","1,70418758869314","-3","0,163723556471286","1,61008707817592","3,30376665633024"
"5765","-1,52832544205607","1,17604689717328","-3","4,23113590274716","-0,525816245252918","0,57594166408256"
"5773","-8,08059094798065","-0,705988275706679","-3","1,6048212597993","1,55063469172872","-0,85601458397936"
"5785","-2,34550091871152","-1,92649706892667","-3","-1,56496150014466","4,57315011517585","-0,21400364599484"
"5794","2,37883729013464","0,518375732768332","-3","4,76252013064143","-3,35866191139354","1,69649908850129"
"5802","0,629991233719289","5,37959393319208","-3","6,93562343128199","3,42183043388965","1,17412477212532"
"5814","-8,50900053657775","7,09489848329802","-3","-1,39095805998106","-0,992243074773407","-0,706468806968669"
"5822","1,01137953753463","2,02372462082451","-3","-6,56381734880699","1,41326819252834","-5,42661720174217"
"5835","-3,93766002649777","-7,74406884479387","-3","-5,69500528268648","1,12171084775901","6,89334569956446"
"5843","0,222014859101012","-4,18601721119847","-3","-4,45948578442874","6,15232040803429","-3,02666357510889"
"5855","-2,41154029818138","1,95349569720038","-3","7,97786607976771","-0,482599686776208","-3,25666589377722"
"5863","1,36134797704929","5,7383739243001","-3","-0,83734240171833","3,97434603498127","2,93583352655569"
"5875","-6,58014575420225","1,93459348107502","-3","-0,226988631964138","4,99244469841314","3,23395838163892"
"5884","0,522201193582118","1,98364837026876","-3","-0,0615325808596548","-2,52968438505656","-2,94151040459027"
"5892","-4,06720989932575","-1,50408790743281","-3","-0,0166803882400955","-2,45050450694","2,01462239885243"
"5904","0,187705961830254","-0,376021976858203","-3","-5,19127511517928","3,68929018422379","-2,24634440028689"
"5913","-5,89096322128121","-0,0940054942145507","-3","3,32165543554918","4,20300157183786","-1,31158610007172"
"5925","-1,03044993043328","5,22649862644636","-3","1,62935949514316","-5,17316552880579","2,42210347498207"
"5933","-3,47840094682221","-1,69337534338841","-3","1,17060816521775","0,476460628976436","3,10552586874552"
"5945","-1,39152725589213","-0,423343835847102","-3","-2,41158673328632","0,140321534840936","-4,72361853281362"
"5954","-5,30919404660474","-1,85583595896178","-3","0,346261729576591","1,74681769203057","0,819095366796595"
"5966","-2,61154750362746","4,03604101025956","-3","-1,63505238999582","2,92543574875187","-1,54522615830085"
"5974","-2,89712551234758","2,50901025256489","-3","2,28568416464812","0,567056505975925","0,613693460424787"
"5986","-4,7079240089286","-1,37274743685878","-3","-5,56714503521395","0,872494615743244","-1,5965766348938"
"5994","1,01802463303823","-0,343186859214694","-3","4,94868157172909","0,962448626116648","2,35085584127655"
"6003","-0,465563351677696","-0,0857967148036736","-3","-0,658500444157867","0,988940814627186","3,08771396031914"
"6015","-0,858464299001167","5,22855082129908","-3","1,55041002801391","2,70223483730162","0,521928490079784"
"6023","-4,43285372063013","3,55713770532477","-3","1,14920636889023","0,501322020127895","-6,11951787748005"
"6035","-3,37946491209912","-2,11071557366881","-3","-2,41738837961402","-4,26334029791759","-0,279879469370014"
"6044","-1,36532586968006","-2,2776788934172","-3","2,07360679264913","0,744411567775946","-0,819969867342503"
"6056","-8,77259193583523","0,430580276645699","-3","-0,437882080103594","5,33571084045479","2,54500753316437"
"6064","1,9415722112813","0,107645069161425","-3","3,3391335287488","1,98239400372641","3,13625188329109"
"6076","-3,69131563272162","1,77691126729036","-3","2,36301528154339","3,70030674818357","-4,71593702917723"
"6085","0,287254633674278","2,94422781682259","-3","-1,35942858624241","-1,91022953270485","4,32101574270569"
"6093","-2,3942627457227","-1,26394304579435","-3","-0,368516910657902","2,8484055633553","2,58025393567642"
"6105","-3,83958164700273","-0,315985761448588","-3","-0,099898379962879","0,544370489154031","-4,85493651608089"
"6113","0,247989111125526","-0,0789964403621471","-3","-1,75599846019782","-0,83967845837692","-2,71373412902022"
"6125","-4,13982991787178","-0,0197491100905368","-3","-2,93385552242048","-3,65827585800882","1,32156646774494"
"6134","-3,30186295597777","-0,00493727752263419","-3","2,93360173622359","-2,48837574278771","0,330391616936236"
"6147","-1,34477442117256","-0,00123431938065855","-3","1,52416503925776","-0,438338775433885","3,58259790423406"
"6154","1,64386126777898","-0,000308579845164637","-3","1,14209181923713","4,28188937632458","2,39564947605852"
"6166","-3,0349904698778","1,74992285503871","-3","1,03851856492128","-0,738948713148178","-3,15108763098537"
"6175","-0,538929737667238","1,18748071375968","-3","4,46827727025659","-1,9231182703974","1,96222809225366"
"6183","-4,34823087847714","-0,703129821560081","-3","1,66910606668667","2,13911786771362","-2,25944297693659"
"6195","0,11328273242705","-3,67578245539002","-3","1,91030054002533","3,04097134481669","2,18513925576585"
"6203","-2,44033599888455","1,08105438615249","-3","-4,93998707299723","-1,10440917767187","-0,453715186058537"
"6216","-2,11661487750286","2,02026359653812","-3","-2,79697820428348","-0,325257495537994","-0,113428796514634"
"6224","-0,295714880199951","3,00506589913453","-3","4,69962452884553","5,02068459146853","-0,0283571991286585"
"6236","-2,54865148209801","-1,24873352521637","-3","-0,726015378704548","-1,52136750660684","1,74291070021784"
"6244","-2,14530023786086","1,43781661869591","-3","-3,65464542851554","-2,15354697595986","-2,31427232494554"
"6256","-2,03848009129892","-0,640545845326023","-3","-4,17746273201426","0,365762880202871","5,67143191876361"
"6265","-2,01019074330623","-0,160136461331506","-3","-3,31918920405822","1,81321200390845","0,167857979690904"
"6273","-3,73786725247779","-0,0400341153328764","-3","5,5580624149573","8,06146498655117","-0,958035505077274"
"6285","-1,46024212709683","1,73999147116678","-3","-2,22222592233263","-4,33132477797416","3,26049112373068"
"6293","-1,8570550706977","-0,565002132208305","-3","2,12651186361908","3,13537329971975","-1,18487721906733"
"6306","1,50819317490719","-0,141250533052076","-3","-0,423540456343956","-1,07660703327971","3,20378069523317"
"6314","-3,07091966501825","-0,0353126332630191","-3","-0,11481428453843","-0,317069537633984","2,30094517380829"
"6326","-2,28361334496354","-0,00882815831575477","-3","-0,0311241104282287","3,31760415429822","-4,92476370654793"
"6335","-0,339941347886956","-0,00220703957893869","-3","-5,19519055136551","4,09353700955045","0,768809073363018"
"6347","-0,825195625486327","1,74944824010527","-3","-1,86615932816832","5,02754741094295","-1,55779773165925"
"6355","-0,953706281629222","1,18736206002632","-3","-1,96371817438375","0,891637364497177","0,610550567085189"
"6363","-2,72290838335066","1,04684051500658","-3","1,4676709300141","-5,14838925083627","0,152637641771297"
"6375","-2,19144896802392","-0,738289871248355","-3","2,12677727103685","0,483757444580692","0,0381594104428243"
"6384","-3,78587015418327","1,56542753218791","-3","4,76328484949457","0,142470506451119","0,00953985261070608"
"6396","1,99738203237937","-0,608643116953022","-3","1,74907737435348","1,74745058166789","3,50238496315268"
"6404","-6,41170385156913","-0,152160779238256","-3","-3,25477401946024","2,9256221399034","-1,12440375921183"
"6416","-4,6386953370525","-0,0380401948095639","-3","-1,61122913280788","2,2726032571317","-0,281100939802958"
"6425","-0,698809850380707","1,74048995129761","-3","2,29214222594648","0,374792021468633","-0,0702752349507395"
"6437","0,0797646626482872","-0,564877512175598","-3","1,35027677515052","0,815871159531506","-3,51756880873768"
"6445","-4,18438106404619","-0,141219378043899","-3","-0,633963982553143","-2,46521115768528","1,12060779781558"
"6457","-3,31366150632774","-0,0353048445109749","-3","8,47273257115534","-3,13700847394624","2,0301519494539"
"6466","-3,08306747172711","3,49117378887226","-3","5,94139603331472","-2,33485825373239","1,25753798736347"
"6474","0,448337954060067","-1,12720655278194","-3","-3,38939321024266","4,72334894744952","1,06438449684087"
"6486","-0,616434373925117","-0,281801638195484","-3","-4,37663978726749","1,09655658260137","2,76609612421022"
"6494","-2,63358813176618","-0,070450409548871","-3","-4,37318256113389","1,02843669979349","-4,80847596894745"
"6506","-2,16779414483564","1,73238739761278","-3","-5,10116315482272","-4,10810073269526","0,797881007763138"
"6515","-2,04443718818192","1,1830968494032","-3","-4,29850574576134","-2,62085283110712","0,199470251940785"
"6527","-0,276599948829535","1,0457742123508","-3","-0,623084025986756","6,34461307312974","7,0498675629852"
"6535","-4,2787576665023","-0,7385564469123","-3","0,102175216651069","0,574032068848206","1,2624668907463"
"6547","0,131681432793814","-0,184639111728075","-3","4,48553345633043","-4,24192659652382","-1,68438327731343"
"6556","-0,700295020184994","-0,0461597779320188","-3","-2,51296944679889","0,750718077198677","-0,421095819328356"
"6564","-0,92062865721481","-0,0115399444830047","-3","-1,41013910704589","0,221092586499029","-0,105273954832089"
"6576","-4,44931680572082","3,49711501387925","-3","-6,297934775711","-1,64037829046121","1,72368151129198"
"6584","-1,64865643505954","-1,12572124653019","-3","5,75057747105481","-2,8940884783009","1,18092037782299"
"6597","-0,171784707376934","-0,281430311632547","-3","-2,17003851473641","-0,557824479581207","-0,704769905544251"
"6605","-4,25099928069376","1,67964242209186","-3","-1,31717663080283","-0,869775708797708","3,32380752361394"
"6613","-3,33130411377635","1,16991060552297","-3","-1,08598094324279","-0,961647885882335","2,33095188090348"
"6625","-1,35257136945506","-0,707522348619258","-3","-2,75222569064135","0,716786867335844","-1,41726202977413"
"6637","-1,82854045403033","-0,176880587154815","-3","-2,20391500549425","-3,19988414598026","3,14568449255647"
"6646","-1,95459209785119","6,9557798532113","-3","3,13147562749229","1,05760806377281","-2,96357887686088"
"6658","-0,252806131767808","1,23894496330282","-3","-1,88003044064988","0,311474186414028","2,00910528078478"
"6666","-0,802119468688654","1,80973624082571","-3","-1,23856060006037","0,0917316840949512","1,25227632019619"
"6674","-0,947594986606752","1,95243406020643","-3","2,39316603681627","-3,38396798699156","-2,43693091995095"
"6687","-2,72128991944529","0,238108515051607","-3","-0,35125525275538","-0,702097983761963","0,390767270012262"
"6695","-3,92618876951911","0,809527128762902","-3","-0,0952190515248521","0,793226426909919","0,0976918175030655"
"6707","-3,24528403350078","0,952381782190725","-3","-5,21256554989119","-3,1773720732723","0,0244229543757664"
"6715","-3,06495895768813","0,988095445547681","-3","-3,5997871674361","-2,34674566239679","0,0061057385939416"
"6728","-3,01720318327982","-0,75297613861308","-3","-3,16259163315578","-0,39662756352789","-3,49847356535151"
"6736","0,46578089751359","1,56175596534673","-3","0,413759872544653","0,883189952978871","-0,624618391337879"
"6748","-2,34698335352809","-0,609561008663317","-3","4,56999851463532","-1,44538522486798","4,34384540216553"
"6756","-3,82706057095364","1,59760974783417","-3","-0,761154685602368","-2,83666143274173","0,835961350541383"
"6764","-3,21903175623507","1,14940243695854","-3","-3,6641710696207","1,16458011038286","-2,54100966236465"
"6777","2,1474987398666","-0,712649390760364","-3","-5,90896275009561","0,342978325166572","0,364747584408836"
"6785","-2,90161136332705","3,32183765230991","-3","-2,78856806214974","-3,30997380540612","1,84118689610221"
"6797","-3,97394358207743","2,33045941307748","-3","3,97298658259077","-4,09128980967118","1,21029672402555"
"6806","-3,25793101587508","2,08261485326937","-3","5,26375935680376","0,089589980051304","-2,44742581899361"
"6814","-3,06830827798921","2,02065371331734","-3","-3,3020062468642","2,7318768360605","2,1381435452516"
"6826","-4,75325861090634","-3,24483657167066","-3","1,83380262283032","1,51005183012402","-0,465464113687101"
"6838","-0,729149822993973","-3,31120914291767","-3","-2,23180651153861","-3,96626115523472","-1,86636602842178"
"6846","1,80689810166538","1,17219771427058","-3","-1,33392083611779","-2,57907992060828","-1,21659150710544"
"6855","-2,99181316786234","2,04304942856765","-3","2,36731557291759","-0,465051894365896","0,695852123223639"
"6863","-2,26266344647946","1,26076235714191","-3","1,370654932466","-0,842453427045824","-1,57603696919409"
"6875","-0,334393153209239","-0,684809410714522","-3","-4,08627539896039","-0,953601251433195","2,35599075770148"
"6887","-2,55889471017935","-0,171202352678631","-3","4,35011899106988","4,13014038158919","3,08899768942537"
"6896","1,32232387557183","1,70719941183034","-3","-4,27859568602462","-0,783640027722444","-2,97775057764366"
"6908","-4,85531214673715","-0,573200147042414","-3","2,56906659569167","1,47470348844685","2,00556235558909"
"6912","-3,49134524378974","-0,143300036760604","-3","-5,49032509845541","1,13980404264736","3,00139058889727"
"6928","0,340213107359292","-0,0358250091901509","-3","-0,21724726835879","-0,664318428522054","0,500347647224318"
"6937","-5,85057451325091","-0,00895625229753773","-3","0,941108129551887","-0,195647186449782","0,875086911806079"
"6945","-1,01975372514599","3,49776093692562","-3","5,4418710337897","-1,7631115469216","0,96877172795152"
"6957","-3,47556825389571","0,624440234231404","-3","3,66194780564717","3,89173300808491","-0,75780706801212"
"6965","-3,12594549119941","0,906110058557851","-3","-0,27839329583235","-0,853852940464857","-0,18945176700303"
"6977","0,436982500495076","-0,773472485360537","-3","4,1112858876676","3,15951707137558","3,45263705824924"
"6986","-0,619441656613395","-0,193368121340134","-3","3,30124983859061","-1,06949649593506","0,613159264562311"
"6998","-4,36955297703191","1,70165796966497","-3","-5,56292545786238","-0,314975426488034","0,903289816140578"
"7006","-1,62753245442821","2,92541449241624","-3","9,136578782707","1,61272902963816","4,47582245403514"
"7014","-1,90135883209486","2,23135362310406","-3","-0,794318210847795","1,1804536884089","-1,88104438649121"
"7027","-3,70904512567811","-1,44216159422398","-3","-2,94424332525883","1,05314508059069","-0,470261096622803"
"7035","2,01772772592017","1,389459601444","-3","-3,25596757097447","1,01565165897076","-0,117565274155701"
"7047","-4,67114724759464","-0,652635099638999","-3","-5,79830604200279","2,71010139845535","1,72060868146107"
"7055","-3,44257256290915","-0,16315877490975","-3","0,699264575657012","-4,61283678589028","-2,31984782963473"
"7064","-3,11720719028314","-0,0407896937274375","-3","1,18955818919912","0,64148200627325","-1,32996195740868"
"7076","-1,29587174332831","-0,0101974234318594","-3","-4,86428529123937","0,188921674150661","0,667509510647829"
"7088","-1,81352460256241","-0,00254935585796484","-3","3,41029656091199","-6,76632845843312","-3,33312262233804"
"7096","-1,9506154262096","5,24936266103551","-3","-1,80444704476544","0,301769316338788","-4,08328065558451"
"7108","-1,9869214053866","1,81234066525888","-3","2,23976428662774","2,7943653782793","0,229179836103872"
"7113","-1,99653637514849","1,95308516631472","-3","-0,392839738796863","-0,177036642820039","-0,692705040974032"
"7125","-0,263914300919005","0,23827129157868","-3","-0,106491866060599","-0,052138732841288","-2,67317626024351"
"7137","-0,805061262655373","-0,94043217710533","-3","-0,0288680508031109","-3,42633899625222","3,08170593493912"
"7145","-2,683542488391","1,51489195572367","-3","-0,00782561511971969","0,990915266446409","1,52042648373478"
"7158","-0,445855214090853","-0,621277011069083","-3","3,45571418733446","-1,41365924289239","-2,3698933790663"
"7166","-0,853244961821557","-0,155319252767271","-3","0,665700438356017","-1,12182601527538","-1,34247334476658"
"7178","-4,43147147532794","1,71117018680818","-3","6,09613069336624","0,669613103970197","-1,08561833619164"
"7186","-3,37909884989434","-0,572207453297954","-3","-2,34744739604472","-3,21377720340645","0,728595415952089"
"7199","-1,36522892484867","-0,143051863324489","-3","-7,55202238170334","4,4645001601237","3,68214885398802"
"7207","1,63844426929007","3,46423703416888","-3","5,41061662652668","-0,685168350400794","-4,57946278650299"
"7215","0,433911781554393","2,36605925854222","-3","1,19563971932995","-3,61277137310264","-0,894865696625749"
"7227","-1,62025487995652","2,09151481463556","-3","-4,13371891038551","0,936009413427884","0,776283575843563"
"7236","-2,89943150056239","0,272878703658889","-3","0,879422326557008","0,275662393763621","0,194070893960891"
"7248","-0,503029441890434","-0,931780324085278","-3","3,69623132355127","1,78667667700383","3,54851772349022"
"7256","-2,60355492464492","1,51705491897868","-3","-2,72693521630758","-2,17930102795134","-1,11287056912744"
"7264","-2,15984040319667","1,12926372974467","-3","-3,19705920772387","3,76916181707547","-2,02821764228186"
"7277","-5,51266762992231","1,03231593243617","-3","-0,595583673873487","-2,59544301170388","3,99294558942953"
"7289","-2,66543373381022","1,00807898310904","-3","2,56746564538758","0,235620899513018","-1,00176360264262"
"7297","-2,91139628772768","-0,747980254222739","-3","-7,21967687381074","0,0693922734629638","-2,00044090066065"
"7309","0,4938019046423","3,31300493644432","-3","-3,14387934846181","-3,39054712532259","0,499889774834836"
"7313","-0,604394084143283","2,32825123411108","-3","3,87666801251014","-0,704035593571452","0,124972443708709"
"7326","-4,36556790466725","-1,41793719147223","-3","-1,67802203921436","2,49814764248788","-1,71875688907282"
"7338","-1,62647708142482","-0,354484297868058","-3","5,7318714294173","-0,264275177980127","0,570310777731794"
"7346","-3,63624775784227","-0,0886210744670144","-3","-3,17510938991489","-1,78332304923455","0,142577694432949"
"7358","-4,90366691965211","1,72784473138325","-3","-5,04746904107482","-1,23069501625141","0,0356444236082372"
"7367","-4,23931953645754","1,18196118284581","-3","-1,82611465413324","-1,06794156073314","-1,74108889409794"
"7379","-2,32821094867784","4,54549029571145","-3","-0,223944989292814","2,39097437203403","2,31472777647551"
"7387","-1,08692062350596","1,63637257392786","-3","2,66821028273641","-0,295838578793147","-2,17131805588112"
"7399","-0,0230193258972617","-1,59090685651803","-3","-0,276695649679142","1,61836498710716","0,45717048602972"
"7408","-5,94676993178716","1,35227328587049","-3","-6,99067841407397","4,59309723866253","0,11429262150743"
"7416","-4,51556615333905","1,08806832146762","-3","2,10495141956796","-1,64729546366219","-3,47142684462314"
"7428","1,06896706750444","-0,727982919633094","-3","-2,88722068165322","2,92584178764375","1,13214328884421"
"7436","-0,452072186362974","-0,181995729908274","-3","2,94624361209887","0,567176087735778","3,78303582221105"
"7449","-4,32522825609059","-0,0454989324770684","-3","1,52759202695658","-4,24394573878664","-2,80424104444724"
"7457","-5,08613071232093","1,73862526688073","-3","-2,31481475775625","-0,955368434082655","2,04893973888819"
"7465","-4,28764171062609","1,18465631672018","-3","3,83033046334225","0,718636217021638","3,01223493472205"
"7477","-4,07617660816819","-0,703835920819954","-3","0,767252247780704","-1,49384763999541","-4,74694126631949"
"7489","-0,549837127668775","1,57404101979501","-3","2,66582401027477","0,560049706283219","0,813264683420128"
"7498","-1,61595107793936","-0,606489745051247","-3","-1,27734252570077","-3,24604451615138","0,203316170855032"
"7510","-0,163123296036688","1,59837756373719","-3","-2,07518262584709","1,04401345889402","0,050829042713758"
"7514","-0,778368621768604","1,1495943909343","-3","0,437454899751714","3,7184541794703","-3,48729273932156"
"7526","-7,88197869971614","-0,712601402266426","-3","-1,61033154354156","-0,904884966424434","-2,37182318483039"
"7539","-2,2929021235628","5,07184964943339","-3","4,0213033326346","-0,266495990688551","-0,342955796207598"
"7547","-1,07756973162796","-1,73203758764165","-3","-0,909896190239027","1,62700661822763","-4,3357389490519"
"7559","-5,22604817998036","-0,433009396910413","-3","-7,16232781838658","-0,520833302939384","5,41606526273702"
"7567","-4,32469627439773","-0,108252349227603","-3","3,78733810525263","-0,153389648630009","2,85401631568426"
"7580","-4,08598982676966","1,7229369126931","-3","1,7555977841734","-1,7506663579493","0,463504078921064"
"7588","-0,552435977837779","-0,569265771826725","-3","1,20482912007405","-2,92656921220291","-0,884123980269734"
"7600","-3,35180775737644","-0,142316442956681","-3","2,78444331752254","1,13810153725241","1,52896900493257"
"7608","-4,82833822543846","-0,0355791107391703","-3","-1,24518694129294","-1,37031168766757","-2,36775774876686"
"7616","-4,21937011948862","-0,00889477768479259","-3","1,39136975356556","-1,10905980730177","-1,34193943719171"
"7629","-2,32292771309869","-0,00222369442119815","-3","-0,622824406992869","0,673372856167989","0,664515140702071"
"7637","-2,82068987773521","1,7494440763947","-3","5,01791673955355","-4,91816178321417","1,91612878517552"
"7649","2,25299224819478","1,18736101909868","-3","1,81810355081405","-1,85942240645244","2,97903219629388"
"7658","-2,87367335103144","-0,703159745225331","-3","3,67960889407553","-5,36958246892722","0,49475804907347"
"7666","-2,23137629234524","-0,175789936306333","-3","-2,00252347508584","0,713122383330781","-4,37631048773163"
"7678","-2,06127574864934","1,70605251592342","-3","-0,542848496807295","4,6210040634178","2,65592237806709"
"7690","-0,281059331371974","-0,573486871019146","-3","-7,06282771708192","-0,63907667653888","1,41398059451677"
"7699","-2,54477022997318","3,35662828224521","-3","0,356475240581914","-1,89370514240231","2,85349514862919"
"7707","-3,87944078158086","0,589157070561303","-3","2,82555188358358","-2,96869529892564","0,463373787157298"
"7715","-3,23290369007954","0,897289267640326","-3","4,95271021840907","2,83118691914249","-2,63415655321068"
"7727","0,408656591889081","0,974322316910081","-3","-1,65740834969725","-1,87168425665832","-1,40853913830267"
"7739","-0,626943251692182","0,99358057922752","-3","-3,90712949700747","-1,25671811132379","2,39786521542433"
"7748","-0,90120279260443","-0,75160485519312","-3","2,66976447256128","-1,07560557412647","-3,90053369614392"
"7760","0,761333042197267","-0,18790121379828","-3","-0,276274336460758","4,09420911512899","2,77486657596402"
"7764","0,201625031066319","-0,04697530344957","-3","-0,0748930587431572","-0,794222078267325","1,44371664399101"
"7780","-3,41694016851811","1,73825617413761","-3","3,43753339624329","1,47158698839644","-2,38907083900225"
"7789","-0,640082079133814","1,1845640435344","-3","2,38968973546116","-0,566605649437718","2,15273229024944"
"7797","-2,63985079085633","1,0461410108836","-3","-1,35219761622255","3,24411373751024","-2,21181692743764"
"7809","-2,16945269472593","-0,7384647472791","-3","3,09127884910842","-4,45556580381321","0,44704576814059"
"7817","-5,51521326825768","-0,184616186819775","-3","-1,16200928611898","-2,72318412380517","0,111761442035147"
"7829","0,804228944462883","1,70384595329506","-3","4,87175330887402","-5,62396732791579","1,77794036050879"
"7838","-2,25735162313118","4,67596148832376","-3","1,77848124444924","-1,06728788642828","1,1944850901272"
"7850","-0,332986414649036","-0,0810096279190586","-3","-1,51788536705776","5,09665874188334","2,7986212725318"
"7858","-0,823353739540969","2,47974759302024","-3","3,04636384681292","-0,498992500685898","-4,80034468186705"
"7866","-0,953218492067532","2,11993689825506","-3","-1,17418494437395","-1,85244921197035","-0,950086170466762"
"7879","-0,987610779425794","-1,47001577543624","-3","1,41061713207439","3,86542233829111","2,51247845738331"
"7887","-2,73188736500866","-0,367503943859059","-3","4,56914657359125","-0,861601646955235","-2,12188038565417"
"7899","-3,92899530775207","1,65812401403524","-3","-1,76138563166662","3,15723501421989","-1,28047009641354"
"7907","-1,51085887160473","4,66453100350881","-3","-0,47748031638291","-1,07016858034919","-2,82011752410339"
"7916","-0,135291561181342","3,4161327508772","-3","-1,85835420741242","-0,31517336082048","-0,455029381025847"
"7928","-0,770997899504084","-0,395966812280699","-3","2,22515101363787","-3,50380483596629","0,886242654743538"
"7936","-4,40968985601582","-1,09899170307017","-3","3,06103443521565","-0,73739091156328","1,97156066368588"
"7948","-3,37333038927715","1,47525207423246","-3","-1,17020800879203","-6,03913505747802","-2,25710983407853"
"7957","0,371467167525541","1,11881301855811","-3","1,41169520857607","2,22142555157704","0,435722541480368"
"7965","-2,37196060748247","1,02970325463953","-3","1,11160324855053","2,35971977046545","1,85893063537009"
"7981","-2,09850691469091","-0,742574186340118","-3","-4,15649970292411","-2,01053517089139","-2,28526734115748"
"7985","-2,02608774167673","-0,185643546585029","-3","0,87324685888359","2,11337287872112","0,428683164710631"
"7997","-3,74207727964417","-0,0464108866462574","-3","-3,22111388070775","1,32789737848444","3,60717079117766"
"8006","-1,46135707523538","1,73839727833844","-3","-4,05994004028357","-4,01990712444541","2,40179269779441"
"8014","-0,12218192232736","1,18459931958461","-3","5,35725803840114","-0,88938723791219","-1,3995518255514"
"8026","-4,23786289684822","-0,703850170103848","-3","-0,547742631066936","-0,967423640894525","1,40011204361215"
"8034","1,87768008102501","-0,175962542525962","-3","-1,87740107122349","-2,69589785443256","-2,39997198909696"
"8046","-1,23789944271819","-0,0439906356314905","-3","2,21998774763007","-3,91043944196162","0,400007002725759"
"8055","-4,53334012854802","3,48900234109213","-3","3,05963476563584","3,55383560081393","0,10000175068144"
"8063","-1,67090846424566","-1,12774941472697","-3","-1,17058743432031","0,0466335217452636","-1,72499956232964"
"8075","-3,6480145910743","-0,281937353681742","-3","4,86942792546933","1,719225809314","5,81875010941759"
"8084","-1,43644630497596","-0,0704843384204355","-3","-1,67998469803747","-0,493674000264518","1,9546875273544"
"8092","-0,115584763726512","1,73237891539489","-3","-2,18433175729227","-1,85088287029007","-1,5113281181614"
"8104","-2,50094733907918","-0,566905271151277","-3","-8,23672241944809","-2,95608379110584","-0,37783202954035"
"8112","-3,8678350962261","-0,141726317787819","-3","2,76717105210231","-2,28157446144652","5,15554199261491"
"8124","-1,49466171626604","-0,0354315794469548","-3","-0,978786931443071","-0,377434114187882","-1,71111450184627"
"8133","-3,60133888666225","-0,00885789486173871","-3","-0,994249514414154","-2,52214113479467","-2,17777862546157"
"8145","-1,42408510451504","3,49778552628457","-3","-2,7273589318397","1,25720889912742","0,455555343634608"
"8153","-0,112311127500562","-1,12555361842886","-3","-5,65500964187377","0,37025825768695","0,113888835908652"
"8165","-4,2352487986766","3,21861159539279","-1,17157287525381","4,19594525343861","-1,59644778570653","-3,47152779102284"
"8174","-1,59196446692162","-1,1953471011518","-3,68629150101524","0,137446128274333","-1,1756587295001","1,13211805224429"
"8182","1,57839753785915","-0,298836775287951","-3,11774900609144","3,49509477313591","-1,05173292614883","0,283029513061073"
"8194","-3,05232733278435","-0,0747091938219877","-3,02020253553339","2,40529360093843","4,10123980434278","0,0707573782652682"
"8202","-2,27868950827646","-0,0186772984554969","-3,00346620710888","-6,53472104443333","-0,792151483046083","0,0176893445663171"
"8214","-3,80897420413741","-0,00466932461387424","-3,0005947071199","1,22855335272733","-3,64427877678283","1,75442233614158"
"8223","-1,47907349332261","-0,00116733115346856","-3,00010203561049","3,79087453503083","-2,48425348839464","-2,3113944159646"
"8235","-1,86204221113408","1,74970816721163","-3,00001750654307","-0,972361338816101","1,26836711949452","0,422151396008849"
"8243","-1,96346442105592","-0,562572958197092","-3,00000300364793","3,19424570806828","3,7845281593294","0,105537849002212"
"8255","-1,99032422496945","1,60935676045073","-3,00000051534451","-1,13409680204439","-4,29640935623275","1,77638446225055"
"8264","-0,262269127383357","1,15233919011268","-3,00000008841914","3,15040210064683","-2,67631125405243","1,19409611556264"
"8272","0,930542853093845","1,03808479752817","-3,00000001517033","4,0407713344031","1,21180454366717","-2,45147597110934"
"8284","-3,22389971136557","2,75952119938204","-3,00000000260282","3,28213459738674","0,356886305296397","0,387131007222665"
"8292","-4,0592957139093","-1,31011970015449","-3,00000000044657","-2,11027168735975","-3,30587779201137","-1,65321724819433"
"8305","-3,28053495564697","3,17247007496138","-3,00000000007662","-0,572057120723206","-0,679099785486508","2,33669568795142"
"8313","-3,07429451503151","0,543117518740345","-3,00000000001315","1,57384327549857","-0,905492273877794","-5,66582607801215"
"8325","-4,75484395550946","0,885779379685086","-3,00000000000226","2,88447649169755","4,14430886720931","-0,166456519503037"
"8333","1,0055987495383","0,971444844921271","-3,00000000000039","0,510848059218308","-2,48495915078359","-0,791614129875759"
"8345","-5,67435938355125","2,74286121123032","-3,00000000000007","2,59631739521238","-1,43733256126888","-4,44790353246894"
"8354","-4,44342323794378","0,43571530280758","-3,00000000000001","2,16165103962","2,28218571458933","0,138024116882765"
"8362","-0,647095632204192","0,858928825701895","-3","-3,14293263692533","-2,03336958167231","-0,715493970779309"
"8374","-1,64170820118443","0,964732206425474","-3","3,60584243537199","-1,30433575607223","4,32112650730517"
"8383","-1,90511301747983","0,991183051606368","-3","-1,02252025001518","-2,79512121567818","-2,66971837317371"
"8395","-0,239702508827426","0,997795762901592","-3","3,18064851937877","-3,93966152978024","-1,41742959329343"
"8403","-0,79864921554581","-0,750551059274602","-3","-4,59561833046119","3,54522945800886","2,39564260167664"
"8415","-0,946675953990337","1,56236223518135","-3","-0,974708176991506","0,0440989426131702","-0,401089349580839"
"8423","-6,19138337427798","2,89059055879534","-3","5,92252730818299","1,71847935512164","3,39972766260479"
"8432","-1,11001067366085","0,472647639698834","-3","2,06332738638254","2,91708987778569","2,3499319156512"
"8444","-1,76430272216488","2,61816190992471","-3","-1,44066864431086","-1,14089327842429","0,3374829789128"
"8452","-3,67274833978962","0,404540477481177","-3","3,06729592695732","-3,74698607517132","-2,6656292552718"
"8464","-4,91333342637278","0,851135119370294","-3","-1,16851062974902","0,896482090817922","0,33359268618205"
"8473","-4,24187953268762","0,962783779842574","-3","1,4121553378447","-1,44147058204241","0,0833981715455125"
"8485","-0,593720494674084","0,990695944960643","-1,17157287525381","-0,617189804791411","-4,54100039599835","-3,47915045711362"
"8493","-1,62757277927812","-0,752326013759839","-3,68629150101524","-1,89622696481869","-5,15932902174756","2,88021238572159"
"8505","-0,16620108954307","3,31191849656004","-3,11774900609144","0,485966596514851","0,775043735525667","-2,0299469035696"
"8514","-4,249520562371","0,57797962414001","-3,02020253553339","0,131736900814776","-0,477235166494589","3,9925132741076"
"8522","1,87459276306701","0,894494906035003","-3,00346620710888","5,22246488931982","-0,8460414998907","-1,0018716814731"
"8534","-1,23871706200527","-0,776376273491249","-3,0005947071199","1,87355291608083","-0,954657968102095","-7,25046792036827"
"8542","-4,53355665995415","1,55590593162719","-3,00010203561049","-1,49211312784246","-4,39763011729394","0,437383019907931"
"8554","0,0642026132457669","1,1389764829068","-3,00001750654307","-0,404485329931519","-0,000629734936720805","1,10934575497698"
"8563","-4,18850238614878","-0,715255879273301","-3,00000300364793","-0,10964877868636","-2,41116917695442","-1,47266356125575"
"8575","1,89075230297205","3,32118603018167","-1,17157339059832","-3,4875594060719","-5,53207638546905","2,38183410968606"
"8583","0,500730916295469","0,580296507545419","-3,68629158943438","-0,674333110750222","0,665266601793387","-0,404541472578485"
"8595","-5,07289590674299","0,895074126886355","-3,11774902126176","2,54611807370374","-0,50956542624521","3,39886463185538"
"8604","-5,28413671617832","0,973768531721589","-3,0202025381362","-3,76762824839656","-0,85556302463821","-1,15028384203616"
"8612","-2,60491153126629","2,7434421329304","-3,00346620755545","2,70758077986221","-0,957462134669786","-2,03757096050904"
"8624","0,574968746376287","-1,3141394667674","-3,00059470719652","-0,266023008159983","-0,987472252293299","2,24060725987274"
"8632","-2,31806696319848","1,42146513330815","-3,00010203562364","-5,25886746458118","5,82565695348332","-2,18984818503181"
"8645","-0,349065753977251","4,60536628332704","-3,00001750654533","-0,154503220567881","0,421195265983045","-4,79746204625795"
"8653","-6,03311732188724","-0,0986584291682406","-3,00000300364832","4,41595249733509","-7,69792199433775","1,80063448843551"
"8665","-2,80326524708335","2,47533539270794","-3,00000051534458","-4,26074939340421","3,4383911493502","-1,29984137789112"
"8673","-1,2127300030618","-3,13116615182301","-3,00000008841915","-0,883931164202156","1,71812604822023","5,92503965552722"
"8685","-1,79150604427712","0,217208462044246","-3,00000001517033","-4,42637137544448","-2,19948974630545","-6,76874008611819"
"8694","-3,67995263851565","0,0543021155110615","-3,00000000260282","0,0711716622528726","2,05772421768846","1,30781497847045"
"8702","-1,44490450848303","0,0135755288777654","-3,00000000044657","2,74821115796586","1,31150839468798","0,326953744617613"
"8714","-0,117824763109642","3,50339388221944","-3,00000000007662","-1,98392662151894","1,09174175871017","0,0817384361544032"
"8723","-2,50154056165088","-1,12415152944514","-3,00000000001315","3,92002835183272","-0,678473162491395","0,0204346090386008"
"8735","-0,397655356605096","-0,281037882361285","-3,00000000000226","0,791567749965642","-0,199815870859468","1,75510865225965"
"8743","-0,840480117496779","1,67974052940968","-3,00000000000039","-0,785420061968781","-0,0588474009800408","1,18877716306491"
"8755","-2,69292251961507","2,91993513235242","-3,00000000000007","-3,67074898156473","-1,72282289620084","-2,45280570923377"
"8764","-0,448339342563064","-1,2700162169119","-3,00000000000001","1,00492523978332","3,90359834377477","-3,11320142730844"
"8775","-2,58907125933063","-0,317504054227974","-3","-1,45650042750149","2,56062521239787","2,97169964317289"
"8784","-2,15600467125403","-1,82937601355699","-3","-1,12374914648651","-2,95136688235847","3,24292491079322"
"8792","-2,04131496328769","-1,20734400338925","-3","0,695371593617631","-1,57469343596878","-1,18926877230169"
"8804","-0,275773085083442","0,698163999152688","-3","1,91742065721233","3,94722367596554","1,45268280692458"
"8813","-2,54337026502607","0,174540999788172","-3","6,43544978134863","-2,54300234438209","-0,636829298268856"
"8825","-2,14390160480912","-1,70636475005296","-3","-7,44221738509894","-1,45442675440359","-3,65920732456721"
"8833","-0,30294126725514","4,07340881248676","-3","-2,47528833671867","-1,13383237936718","1,0851981688582"
"8845","-4,28573367943163","2,51835220312169","-3","-0,399924428307007","4,07706084687058","-1,47870045778545"
"8854","0,129833964280514","2,12958805078042","-3","2,62050538682564","-2,50476424034412","2,38032488555364"
"8862","-4,17112113187783","0,282397012695106","-3","4,89712576013655","-4,85414903629641","1,34508122138841"
"8874","-5,0453182794108","0,820599253173776","-3","-3,40139409390121","1,57041358363012","-0,663729694652898"
"8882","2,66384039777156","0,955149813293444","-3","0,0779425590282623","-1,24299226988426","-0,165932423663224"
"8894","-4,50003620904257","-0,761212546676639","-3","-1,70778894475231","0,633928655384862","-1,79148310591581"
"8903","-1,6620885346843","-0,19030313666916","-3","-4,64970456645013","0,186697150810448","0,552129223521048"
"8915","-1,91051037336392","3,45242421583271","-3","-1,71828777978207","0,0549838311056912","1,88803230588026"
"8923","-0,241131899104071","-1,13689394604182","-3","1,53420274471586","0,0161931859695525","-2,27799192352993"
"8935","-4,26936460691944","1,46577651348954","-3","-4,77085828215671","3,41575274000986","3,93050201911752"
"8944","0,134169011586842","-2,38355587162761","-3","1,70670517515986","-4,40501671999687","2,48262550477938"
"8952","-5,90514149630375","2,1541110320931","-3","-6,45301372762926","0,702686707865391","-4,87934362380516"
"8964","0,700963636462428","3,03852775802327","-3","-1,20713281935542","-4,9095286151996","-2,71983590595129"
"8972","-0,549531115772126","2,25963193950582","-3","1,67276776298178","3,25959570415576","4,82004102351218"
"8985","-0,880701614480406","0,314907984876455","-3","-3,00437798404761","-0,0400225236854183","-0,794989744121955"
"8993","-4,43874286398242","2,57872699621911","-3","1,18556656500056","-0,0117869591109979","-0,198747436030489"
"9005","-1,64585612138165","0,394681749054779","-3","-1,40753177715833","3,40751235945374","-1,79968685900762"
"9013","-3,64137993957716","-0,901329562736305","-3","-2,83939240254754","0,709031993163447","0,550078285248094"
"9025","0,300479182095969","1,52466760931592","-3","2,95920900788095","0,914307552763332","-1,61248042868798"
"9034","-4,12592888953923","-0,618833097671019","-3","-3,65564664346021","-2,43622083835466","-4,65312010717199"
"9042","-1,56301310286106","1,59529172558225","-3","2,73793700123292","-1,42297873140412","5,336719973207"
"9054","-1,88427207039783","-0,601177068604439","-3","-5,44454733507644","-2,83006253797049","-5,91582000669825"
"9062","-5,43968843345776","-0,15029426715111","-3","1,52408005528339","4,57750725351276","-0,228955001674563"
"9075","-0,910938116192627","-0,0375735667877774","-3","2,14206878159322","1,05360501621283","-0,807238750418641"
"9083","-1,71158202260331","-0,00939339169694436","-3","-5,60607661118782","-0,689704743687426","0,79819031239534"
"9095","-0,188449390032452","3,49765165207576","-3","4,93812791392748","1,50236819446847","-3,30045242190117"
"9103","-2,52024419305543","-1,12558708698106","-3","4,52539200552977","-0,557540333611808","-0,575113105475291"
"9116","-3,87294551251805","1,46860322825474","-3","1,68458885556497","3,24678354683581","0,856221723631177"
"9124","1,9743217278132","4,61715080706368","-3","-1,54333792369522","-1,04379580833985","1,96405543090779"
"9132","-1,21230568288382","-0,0957122982340788","-3","-0,4183714609926","-2,01289822216591","-0,508986142273051"
"9144","-1,0562252490493","0,72607192544148","-3","-0,113413061835477","-1,2983067740084","-0,127246535568263"
"9153","0,720278200407573","-0,81848201863963","-3","-1,75966205007861","4,02862179840676","-1,78181163389207"
"9165","-3,2795844311666","5,04537949534009","-3","0,522986915929628","2,59744563779748","2,30454709152698"
"9173","-5,80921120797873","1,76134487383502","-3","0,141772450957216","0,470460747621996","-0,423863227118254"
"9185","-1,00879941573307","-1,55966378154124","-3","0,0384319898609488","-2,56693733651627","-0,105965806779564"
"9194","1,73283805869001","1,36008405461469","-3","3,46825380129758","-1,46147580447913","-1,77649145169489"
"9206","-3,0114266059217","-0,659978986346328","-3","-1,05981808153342","2,2750753328762","4,05587713707628"
"9214","-2,26785770423376","1,58500525341342","-3","-0,287297831764466","1,3755200679044","0,763969284269069"
"9222","1,39939966515778","-0,603748686646645","-3","-1,80679911845659","-5,71137371208477","-0,809007678932733"
"9234","-1,36456320005273","1,59906282833834","-3","-1,21870889112091","1,31795393661048","-0,202251919733183"
"9243","-1,09654784760704","1,14976570708458","-3","4,12746526822595","3,79913188073349","-5,3005629799333"
"9255","-2,76073734069463","-0,712558573228854","-3","-0,881117577717919","2,52985898840819","1,67485925501668"
"9263","-3,9366356923427","1,57186035669279","-3","-1,96777308978619","-2,96042778583914","3,91871481375417"
"9275","0,222286135131856","1,1429650891732","-3","0,466571714570043","-1,57736194582275","2,47967870343854"
"9284","-4,14663687756745","1,0357412722933","-3","-1,60243849292188","3,94643777808506","-3,13008032414036"
"9296","0,166671189834455","-0,741064681926675","-3","9,21019635687835","-0,837741940263157","-1,53252008103509"
"9304","-4,16136547129954","1,56473382951833","-3","0,954555990335678","3,16426189211971","-1,13313002025877"
"9312","-1,57239782873305","-0,608816542620417","-3","1,71659872345909","2,34288460729696","0,716717494935307"
"9325","-5,35709428585192","1,5977958643449","-3","3,65209274076503","0,395490451362135","0,179179373733827"
"9333","2,58127226595503","1,14944896608622","-3","-0,281064828637715","-0,883524841770685","0,0447948434334567"
"9345","-4,52190285769682","1,03736224152156","-3","0,652726110235053","1,44528659739194","1,76119871085836"
"9353","-3,40304793560179","1,00934056038039","-3","4,36369579757396","-0,57435132874095","-0,559700322285409"
"9365","-3,10673982085736","2,7523351400951","-3","1,64075588954968","1,53634071444186","-3,63992508057135"
"9374","-1,29309965336416","-1,31191621497623","-3","3,63153309744821","-0,547535149856498","1,09001872985716"
"9386","1,65754637808845","-0,327979053744056","-3","-0,286638182262922","-1,86674541741234","0,272504682464291"
"9394","-3,03136622051732","1,66800523656399","-3","2,38013305939878","-2,96075544039503","0,0681261706160727"
"9403","-2,27313834383491","1,167001309141","-3","-1,35478826112608","1,12803341468655","3,51703154265402"
"9415","-0,33716723680689","1,04175032728525","-3","1,36165878515009","2,03770688314444","0,629257885663504"
"9423","-2,55962937511645","1,01043758182131","-3","4,55587483652316","-0,399878730771458","-4,34268552858412"
"9435","1,32212931309712","-0,747390604544672","-3","-0,0360655773292555","1,58772431519678","4,41432861785397"
"9443","-4,85536367302438","-0,186847651136168","-3","2,44805883586115","-3,94338597592823","-0,896417845536508"
"9456","-3,4913588895777","1,70328808721596","-3","-3,06529257747148","0,838640720847813","-0,224104461384127"
"9464","-3,13012735016714","1,17582202180399","-3","0,169053702162655","-1,4585053364752","-1,80602611534603"
"9476","-3,03446183150583","2,793955505451","-3","-1,68309033436984","2,27595015989056","0,548493471163492"
"9484","-3,00912658122379","0,448488876362749","-3","-1,1851736400645","-2,03520600330445","0,137123367790873"
"9493","-3,00241700690865","-0,887877780909313","-3","4,13655607832257","-1,30487659719606","1,78428084194772"
"9505","0,46969674393684","-0,221969445227328","-3","4,30810013781644","0,615703217094933","-0,55392978951307"
"9513","-0,61077789189458","-0,0554923613068321","-3","-3,56106846358306","-1,52416224661154","-1,88848244737827"
"9525","-0,896921694857794","1,73612690967329","-3","-1,6942601087945","-1,15437004964757","-1,22212061184457"
"9534","-2,70787003162113","2,93403172741832","-3","2,26963400516228","0,660028620855963","2,44446984703886"
"9546","-3,92263475944798","2,23350793185458","-3","1,3441751968317","-1,51110805428183","1,36111746175971"
"9554","-1,50917439755943","0,308376982963645","-3","-5,82237137051962","2,26045823117593","1,09027936543993"
"9566","-1,870013881107","2,57709424574091","-3","-0,30725910687309","-0,33427664501085","-4,22743015864002"
"9574","1,50476127269549","-1,35572643856477","-3","0,916707521099467","-3,50943090870992","0,943142460339995"
"9583","-1,33666011925161","-0,338931609641193","-3","-4,93825025438389","-2,44453969324084","0,235785615084999"
"9595","-4,55949507437398","-0,0847329024102983","-3","-3,52542516985153","2,98555501298306","-1,69105359622875"
"9603","0,0573333020201354","-0,0211832256025746","-3","0,315402154177272","3,29025397626044","5,82723660094281"
"9615","-2,45515317483606","3,49470419359936","-3","-0,643417872011912","-2,73648527035784","-3,2931908497643"
"9624","-0,385370511748462","-1,12632395160016","-3","-2,63225471354716","3,60506652078284","1,92670228755893"
"9636","-2,57239512449145","1,46841901209996","-3","-0,442475221229412","-4,34926227006116","-2,26832442811027"
"9644","-2,15158830414705","-0,63289524697501","-3","0,880052837478689","0,719106847355191","2,18291889297243"
"9656","-2,04014536981704","1,59177618825625","-3","5,42532003005046","-3,19920089297399","-3,95427027675689"
"9665","-5,48096860533511","-0,602055952935938","-3","-1,52929223569519","2,76330114479054","-0,738567569189223"
"9673","-2,65703883110283","-0,150513988233985","-3","3,04327164761019","-1,89167716996869","0,815358107702694"
"9685","0,56116379129564","-0,0376284970584961","-3","-6,36177654318748","3,85386938524475","0,203839526925674"
"9693","-2,32172295123884","-0,00940712426462404","-3","-3,91131782761904","-4,27598780058586","-1,69904011826858"
"9706","-2,08520239690513","1,74764821893384","-3","1,93971130442426","-6,08128065451867","-4,67476002956715"
"9714","-0,287395863389503","2,93691205473346","-3","-2,9320143378745","2,20901333007569","1,83130999260821"
"9726","-2,5464483437474","2,23422801368337","-3","-0,523734723799108","0,650572412722138","0,457827498152053"
"9734","-2,14471677725457","-1,44144299657916","-3","-2,59981074077541","0,191598872869003","-1,63554312546199"
"9746","-5,50866241619664","1,38963925085521","-3","-2,16259802346878","-1,64906442927947","0,591114218634503"
"9755","-0,929204604892969","-2,4025901872862","-3","-0,315159645958262","3,92532081286556","0,147778554658626"
"9767","-3,4515879874786","2,14935245317845","-3","0,914565825474067","-0,843961058466372","-1,71305536133534"
"9775","-1,38442633755417","-0,462661886705387","-3","-3,20991304377259","4,86792216861329","-1,17826384033384"
"9783","-5,30731349919495","-0,115665471676347","-3","-5,78582147881352","-1,5663572840143","0,705434039916541"
"9796","-2,61104947528913","-0,0289163679190867","-3","-1,02626886751807","-3,87228868918209","0,176358509979135"
"9804","-2,89699361871677","1,74277090802023","-3","-3,46495659516618","5,97605502304005","-1,70591037250522"
"9816","-4,70788907933021","-0,564307272994943","-3","-1,39712367693458","3,87647243698012","2,3235224068737"
"9824","1,0180338834989","1,60892318175126","-3","1,62126462070798","1,55263641197263","-0,419119398281576"
"9837","-3,93589774555447","1,15223079543782","-3","3,89733157493817","-3,24822779168901","-5,35477984957039"
"9845","-1,51268685510106","-0,711942301140546","-3","2,51433284364172","0,0433704664707407","1,6613050376074"
"9857","-3,60611251262638","1,57201442471486","-3","-3,04732687272511","0,0127729555220872","0,41532625940185"
"9865","-1,42534931141264","1,14300360617872","-3","-3,28391168722771","5,12023731173762","-1,64616843514954"
"9874","-5,31815119494467","1,03575090154468","-3","2,83870773611427","0,213443437569966","0,588457891212616"
"9886","-0,878751217512656","-0,74106227461383","-3","-0,230476822570675","2,47384454522741","0,147114472803154"
"9894","1,76727892826088","3,31473443134654","-3","-0,062478167291422","3,84504293431919","0,0367786182007885"
"9906","-3,00230557608023","0,578683607836636","-3","-1,74585450610607","-0,162111689921449","-5,2408053454498"
"9914","-4,00061058935188","4,39467090195916","-3","-4,66002346309135","2,36324050220252","-0,060201336362451"
"9927","-3,26499328149623","1,59866772548979","-3","0,00783273707520404","-1,30400642928312","0,984949665909387"
"9935","-1,33501016709357","0,149666931372448","-3","2,73104110190916","-5,50051608370117","-1,50376258352265"
"9947","-1,82388969309465","4,28741673284311","-3","1,46925445407962","1,38005322508951","-1,12594064588066"
"9955","-3,6885288513384","-1,92814581678922","-3","1,12720653624614","2,11192876939355","2,46851483852983"
"9968","-3,1823441823049","4,76796354580269","-3","-0,694434356747631","-0,378019780915229","-2,13287129036754"
"9976","-1,31312207572168","-0,0580091135493264","-3","1,54066898343868","1,59416195391717","3,96678217740811"
"9984","-3,55326145715927","-1,01450227838733","-3","-2,31126982744335","4,58596924831352","0,741695544352029"
"9996","-3,14652110483159","1,49637443040317","-3","0,373455858493795","0,0560971425839183","-2,56457611391199"
"10005","-4,77397183727093","2,87409360760079","-3","0,101237240876062","0,722012922709045","3,858855971522"
"10017","-2,46980376126622","2,2185234019002","-3","6,94311476018629","-4,1983450301194","-2,7852860071195"
"10025","-2,85958729336452","-1,44536914952495","-3","-3,84676286636284","4,17453691825803","-1,44632150177987"
"10037","-1,22764585946334","3,13865771261876","-3","-1,77170677996953","-2,47605674361614","-1,11158037544497"
"10046","-3,5306246559129","-1,21533557184531","-3","-1,20919598231651","0,270781127574238","0,722104906138758"
"10058","-1,4053577431877","1,44616610703867","-3","-6,24346266861201","0,0797472469211207","3,68052622653469"
"10066","1,62781689099986","-0,638458473240332","-3","-2,87924504057618","-3,38749750132321","-1,07986844336633"
"10074","-3,03923952750072","1,59038538168992","-3","-6,42510105067783","1,00235440297205","1,48003288915842"
"10086","-2,27522344414862","-0,602403654577521","-3","4,98718716951373","-1,41029032404178","2,8700082222896"
"10095","-3,80805628090445","1,59939908635562","-3","-1,37698004766954","-1,12083384124226","-3,0324979444276"
"10107","1,99150644542667","-0,600150228411095","-3","0,626725200323056","0,669905307301782","-1,5081244861069"
"10115","-2,94292304884353","1,59996244289723","-3","-1,5590237314566","1,90278442518584","-1,12703112152673"
"10127","-0,514547377258114","2,89999061072431","-3","-1,15154139068847","-3,85059820814185","0,718242219618319"
"10136","-0,871436815799993","2,22499765268108","-3","-2,76999796187247","0,865967473990502","-1,57043944509542"
"10148","-4,4362892527266","0,306249413170269","-3","-0,479814965921065","1,96052632972285","2,35739013872614"
"10156","-3,38037474948603","-2,67343764670743","-3","0,86993069682505","2,98837468268681","4,83934753468154"
"10164","0,369601598494335","0,331640588323142","-3","-6,67984840566533","0,58559253450356","1,70983688367038"
"10177","-2,37245466907316","1,83291014708079","-3","-2,99754145224615","-0,827538230368669","0,177459220917596"
"10185","-0,363469335956248","-0,541772463229804","-3","-1,27041574522944","-1,94920860456395","-0,955635194770601"
"10197","-4,30176342338839","3,36455688419255","-3","-3,53114047126788","0,425942194415608","5,01109120130735"
"10205","0,125588781891031","-1,15886077895186","-3","0,313852837616809","1,83093530195754","0,00277280032683791"
"10217","-4,17224539022959","3,21028480526203","-3","-4,10167343658043","2,95020906980772","-2,74930679991829"
"10226","-5,04561601852435","-1,19742879868449","-3","0,159191498335554","-4,54212312158683","0,312673300020427"
"10238","-2,54174371848406","1,45064280032888","-3","-2,41468158861893","0,662307756200589","0,0781683250051068"
"10246","-2,87863926576689","1,11266070008222","-3","4,80325834174708","3,606038741967","0,0195420812512767"
"10254","-2,96785984522705","-0,721834824979445","-3","-4,15575766768438","2,47299148676975","1,75488552031282"
"10267","-1,25631985024391","3,31954129375514","-3","-2,58438756096635","-2,97717572811848","1,1887213800782"
"10275","-3,53821843414331","0,579885323438785","-3","-2,15841707374235","-3,28778620863902","1,04718034501955"
"10287","-1,40736881546062","2,6449713308597","-3","4,87272709375751","2,73721204801629","-0,738204913745112"
"10295","1,62728429555604","0,411242832714924","-3","1,0498274340085","-3,6048524788446","-3,68455122843628"
"10308","-3,03938057559262","4,35281070817873","-3","-0,715410455083857","-0,767150265177036","1,07886219289093"
"10316","-0,540092376291961","-1,91179732295532","-3","3,26390052246758","4,18505171522924","2,01971554822273"
"10324","-4,34853878189895","-0,477949330738829","-3","2,34262095165005","2,64351552204107","1,25492888705568"
"10336","-3,35713565381294","-0,119487332684707","-3","-6,55171048494696","2,1895205611023","2,81373222176392"
"10345","2,11092446672176","-0,0298718331711768","-3","-2,23388775482372","-1,35516836646149","-3,04656694455902"
"10357","-4,64646580764929","-0,00746795829279421","-3","-0,334485024154972","-3,81009183334519","0,238358263860245"
"10365","-3,4360361382173","1,7481330104268","-3","-2,5485085132354","-0,827594926250408","1,80958956596506"
"10377","-1,38030771677107","2,9370332526067","-3","-5,60652647445995","-2,65471715940672","-2,29760260850873"
"10386","-3,57105433650771","-1,26574168684832","-3","-2,70658296701783","2,92365603781541","-1,32440065212718"
"10398","-1,41606479930391","-0,316435421712081","-3","0,537375711272075","-3,54994320571812","4,1688998369682"
"10406","-1,84535551925965","1,67089114457198","-3","2,87459078365524","-2,45647089458341","-0,957775040757949"
"10418","-5,42938210180351","-0,582277213857005","-3","3,23708600579996","-2,13443439529466","-3,73944376018949"
"10426","-4,37854551780651","-0,145569303464251","-3","2,33535201310989","-2,03959202405387","-2,43486094004737"
"10435","-0,629913963193169","1,71360767413394","-3","-8,28259875110111","3,10481539886772","1,39128476498816"
"10447","1,83317889102596","-0,571598081466516","-3","1,75473479455691","-3,49659029878796","0,347821191247039"
"10455","-2,98485318494083","-0,142899520366629","-3","-2,98215817966983","-0,735266171619489","-3,41304470218824"
"10467","-3,99598864506386","-0,0357248800916572","-3","4,64942553116687","2,488949982956","-2,35326117554706"
"10476","-3,26376924469629","-0,00893122002291431","-3","-5,92637679273384","-1,97247582104868","-0,338315293886765"
"10488","0,400482418349312","-0,00223280500572858","-3","1,39346465922888","2,12458166715019","-2,58457882347169"
"10496","-0,629108030970829","3,49944179874857","-3","2,10666127087476","-0,374293399498967","-0,396144705867923"
"10508","-2,63694451636258","-1,12513955031286","-3","-3,88675717137571","-0,110232453857429","0,900963823533019"
"10517","-2,1686830214652","-0,281284887578215","-3","-0,782548524711707","-0,0324643552349466","0,225240955883255"
"10525","-2,04467259078251","-0,0703212218945536","-3","-0,941052772685364","-0,0095610169595238","0,0563102389708137"
"10537","-3,74699913456262","-0,0175803054736384","-3","0,744897331080381","5,11365977498616","0,0140775597427034"
"10545","0,272507884004555","3,49560492363159","-3","0,201928417560956","1,91699815688265","-1,74648061006432"
"10557","-2,39816815071038","0,623901230907898","-3","0,0547392024610059","-1,43542843353312","0,563379847483919"
"10566","-2,10544749972352","-0,844024692273026","-3","-3,44299674822081","1,28274649571198","-1,60915503812902"
"10574","-2,02792582776423","-0,211006173068256","-3","-2,39117075300998","1,08327114526637","-1,15228875953226"
"10586","-0,27222721919264","-0,0527515432670641","-3","3,08071392490946","-0,680967827123041","2,46192781011694"
"10598","-4,27759962961172","-0,013187885816766","-3","-0,164873249159431","-3,61153428479434","-0,384518047470766"
"10607","0,131988117531108","1,74670302854581","-3","6,87097693943278","2,64186560345169","-1,84612951186769"
"10619","-2,43538222222745","4,68667575713645","-3","-3,86631814651121","-3,63293278313264","-1,21153237796692"
"10623","-2,11530296101294","3,42166893928411","-3","-1,77700786860358","-2,48091200087927","-1,05288309449173"
"10635","-2,03053586513095","-2,14458276517897","-3","3,97612034544919","6,3858267871079","-1,01322077362293"
"10648","-0,272918439507511","2,96385430870526","-3","-2,65106228063394","-2,82481387168816","-2,75330519340573"
"10656","-4,27778268657856","3,99096357717631","-3","0,281344168051281","1,87356117102652","4,81167370164857"
"10668","-1,60322878357975","-0,252259105705921","-3","-3,38156817249114","1,25727087788811","0,952918425412142"
"10676","-1,89492245258912","0,68693522357352","-3","-2,37451855871076","1,07576836838059","0,988229606353035"
"10688","-1,97217214729056","0,92173380589338","-3","3,08522803860467","-2,38866931345164","2,74705740158826"
"10697","-3,72779872769574","0,980433451473345","-3","3,29418601917984","0,296517437314731","0,436764350397065"
"10709","-1,45757566378911","-0,754891637131664","-3","-2,83592254746339","-1,61816505774491","-0,890808912400734"
"10717","-3,59151732885726","1,56127709071708","-3","-1,49768594852672","-1,18205464294951","-0,222702228100183"
"10725","-3,15665246770704","1,14031927267927","-3","-1,13491380870242","4,0628589975931","-0,0556755570250459"
"10738","-1,30631809839923","2,78507981816982","-3","5,879098410876","-2,50894680059569","1,73608111074374"
"10746","-1,81629112726181","-1,30373004545755","-3","-1,40628098764765","0,261094737984628","1,18402027768593"
"10758","-3,68651651115718","3,17406748863561","-3","-2,11013554955527","1,78238638375896","-0,703994930578516"
"10766","-1,44664282923349","-1,2064831278411","-3","-1,30093800238851","1,23041916064199","-0,175998732644629"
"10775","-1,85345354718276","-0,301620781960274","-3","2,37625663250223","1,06786031901","1,70600031683884"
"10787","-0,226021449782022","1,67459480450993","-3","-0,355839091510822","-2,39099829838301","1,17650007920971"
"10799","-6,00053130462429","-0,581351298872517","-3","-3,5542972210878","0,295831532288551","-2,45587498019757"
"10807","-1,0594670188604","1,60466217528187","-3","4,49432881321943","-3,3238589198041","2,13603125495061"
"10819","-3,48608558814381","-0,598834456179532","-3","-0,781667395779568","2,7265883408541","-2,21599218626235"
"10824","-3,12873081342632","-0,149708614044883","-3","-7,12756727291196","1,50849432522387","0,446001953434413"
"10836","-1,29892356263138","-0,0374271535112208","-3","2,06784328466997","-0,555736138221982","1,8615004883586"
"10848","-5,28466966437556","1,74064321162219","-3","0,560555535394179","1,54182303962493","-0,534624877910349"
"10857","-4,34022109462387","-0,564839197094451","-3","-1,57696115071174","1,15957129699401","3,36634378052241"
"10869","-0,619764445719846","3,35879020072639","-3","2,30143166639547","4,45797876117087","0,591585945130603"
"10877","-1,63447003993494","2,3396975501816","-3","-0,376122808970349","0,0184029019506928","-0,852103513717349"
"10889","-3,63836454565863","2,0849243875454","-3","-1,83087798991805","-2,70007205297281","-0,213025878429337"
"10898","-1,43389066821926","0,27123109688635","-3","-4,68307181730786","0,204806794911485","-3,55325646960733"
"10910","-1,85007637225648","0,817807774221588","-3","-1,72733304801291","-3,35066644613567","-4,13831411740183"
"10918","-3,69546391090746","-0,795548056444603","-3","6,71850409198761","-4,10327412370814","-1,53457852935046"
"10926","-3,18418080507517","-0,198887014111151","-3","-1,1787330373379","3,49704421687238","-0,133644632337615"
"10938","2,15672837226247","1,70027824647221","-3","-5,50628691984571","3,44089171163536","4,4665888419156"
"10947","-2,89916706521387","1,17506956161805","-3","1,50734355196521","2,42435434161813","0,866647210478899"
"10959","-5,70846467659607","-0,706232609595487","-3","-1,32030375918293","5,53595952382346","-0,783338197380275"
"10967","-0,982118552833399","-0,176558152398872","-3","-2,81574643832962","-0,664122985929343","-1,94583454934507"
"10975","-1,73043284997262","-0,0441395380997179","-3","-0,492216564196922","-2,90108148445878","-2,98645863733627"
"10988","-1,92861010623962","-0,0110348845249295","-3","-0,862348942092912","-1,55988397683565","-0,496614659334067"
"11000","-0,245925279925717","1,74724127886877","-3","0,76623253971171","3,9515851822671","2,62584633516648"
"11008","-4,27063404552713","2,93681031971719","-3","3,665547585554","0,869265869625435","3,15646158379162"
"11016","-3,33650401953387","0,484202579929298","-3","-1,00633524572874","2,66698959153866","-1,21088460405209"
"11025","-3,08911689054851","0,871050644982324","-3","-3,73063515863982","-2,92004170662359","1,44727884898698"
"11037","-4,75876938860962","0,967762661245581","-3","2,71760894852866","0,140023940796097","2,86181971224674"
"11049","2,73972759274087","2,7419406653114","-3","1,46561323620517","0,0412381907172364","-1,28454507193831"
"11057","-2,74477046159169","-1,31451483367215","-3","1,12621946684381","0,0121449829505053","1,42886373201542"
"11069","-2,19723873670623","1,42137129158196","-3","1,03421585249633","1,70906865381408","2,85721593300386"
"11074","-2,05223504591512","1,10534282289549","-3","2,73819309524439","-5,61314093759631","-3,03569601674904"
"11090","-2,01383348964468","2,77633570572387","-3","2,20011101846872","3,05237614600716","1,99107599581274"
"11098","-2,00366354489399","2,19408392643097","-3","-3,13250682071643","1,60444148658691","-4,00223100104681"
"11106","1,46936662131495","-1,45147901839226","-3","3,60866868871054","-0,527478917945428","0,999442249738296"
"11119","-3,08120216248039","-0,362869754598065","-3","0,707163683199306","-0,155346836361581","1,99986056243457"
"11127","-2,28633647499381","-0,0907174386495161","-3","-4,26613607564673","-3,45673462311671","-4,00003485939136"
"11139","-2,07583094055583","1,72732064033762","-3","-0,885391397949481","-2,42902020805119","2,74999128515216"
"11147","-5,49041927135121","2,93183016008441","-3","4,21782171217222","1,28463377029574","-0,31250217871196"
"11160","-0,924373244053052","-1,2670424599789","-3","2,60121201954332","0,378335105554571","-3,57812554467799"
"11168","-1,71514006871729","1,43323938500528","-3","0,43406009901662","0,111422769200622","2,8554686138305"
"11176","-1,9245600948454","1,10830984625132","-3","-2,61125181364023","-1,67267694464823","1,46386715345763"
"11188","-1,98002113086208","1,02707746156283","-3","2,02105386377896","3,91836673482323","-2,38403321163559"
"11200","-0,259540542711026","-0,743230634609293","-3","-0,45212824440325","-2,55150094851776","-3,0960083029089"
"11209","-4,27423979705756","3,31419234134768","-3","1,60635386078961","0,248562194922043","-0,524002075727225"
"11217","-1,60229051455667","-1,17145191466308","-3","-4,02238161168078","1,7786954477801","2,61899948106819"
"11225","-1,894673969323","-0,29286297866577","-3","0,909603887968097","-2,18165156494534","-2,09525012973295"
"11238","-3,70727476292049","-0,0732157446664426","-3","3,70441300803444","3,76846956479136","-3,02381253243324"
"11250","-4,92247711349856","3,48169606383339","-3","-2,72471730716529","-2,59564688563826","-2,25595313310831"
"11258","-0,773964226088425","-1,12957598404165","-3","3,7192131728073","1,94105271442324","1,43601171672292"
"11270","0,0598614107243911","1,46760600398959","-3","0,737130326671333","1,27714768697212","-1,39099707081927"
"11274","-0,719315229972735","1,1169015009974","-3","-5,98693043779698","1,08162225050386","0,652250732295183"
"11290","-6,13117107492603","1,02922537524935","-3","4,8348852154771","-2,38694529750077","0,163062683073796"
"11299","-1,09406455539916","1,00730634381234","-3","4,49740474627544","2,00251703149411","1,79076567076845"
"11307","-1,7600796865002","-0,748173414046916","-3","-5,23866913744269","3,00074128627009","-2,30230858230789"
"11319","-5,40679836843538","-0,187043353511729","-3","-1,14902781333218","0,589234599954599","-3,07557714557697"
"11327","-4,37256463205801","-0,0467608383779322","-3","-2,76931657575817","0,879026245006337","1,23110571360576"
"11340","-0,62833003578163","-0,0116902095944831","-3","-3,93746582667019","0,964372244118786","0,307776428401439"
"11348","-3,37190690051427","3,49707744760138","-3","1,9326230469551","-0,71598452165197","0,0769441071003598"
"11360","-1,36332426954433","-1,12573063809966","-3","0,523899734004237","1,49462858587335","-1,73076397322491"
"11369","-1,83138816153071","1,46856734047509","-3","1,87093768590439","-0,559819711363268","2,31730900669377"
"11377","-1,95534626072264","1,11714183511877","-3","-2,22173985643099","1,54062039408409","-0,420672748326557"
"11389","-3,72334270160211","1,02928545877969","-3","-1,33119194496569","1,15921710808962","1,64483181291836"
"11397","2,01394127632443","-0,742678635305077","-3","2,36805532677231","-0,658601122677333","-2,33879204677041"
"11410","-4,67215001901668","-1,93566965882627","-3","-0,358062319624117","-3,60494710821293","0,415301988307398"
"11418","1,76266713708893","2,26608258529343","-3","-7,01273547109197","4,34929743803532","0,103825497076849"
"11426","0,466809919676451","1,31652064632336","-3","-3,08778121488649","0,986395367343509","0,0259563742692124"
"11438","-5,08187925781018","-0,67086983841916","-3","2,16295743254691","2,70148518235013","1,7564890935673"
"11450","-0,0810105256822586","1,58228254039521","-3","-4,60041406944405","-2,90988247424733","-0,560877726608174"
"11459","-2,49179098905443","-0,604429364901197","-3","-1,70492600273449","0,143015917453024","-1,89021943165204"
"11471","-0,395073361908046","-0,151107341225299","-3","-1,92001068758725","-1,66337250523891","-2,97255485791301"
"11475","-0,839796323766372","-0,0377768353063249","-3","1,47951925229441","-1,19536860434066","3,00686128552175"
"11487","-4,42790985128775","5,24055579117342","-3","3,8589069266731","4,05893792755372","-1,99828467861956"
"11500","0,0921812243118811","1,81013894779335","-3","-4,41175453988523","2,60637398468204","-1,24957116965489"
"11508","1,02441249911074","0,202534736948339","-3","0,804051812597705","2,17858207592302","2,43760720758628"
"11520","0,271296778820759","0,800633684237085","-3","1,94688193156942","2,05259387547389","1,35940180189657"
"11528","0,0718479540833518","0,950158421059271","-3","-0,472234935988234","-3,10098624775622","-2,41014954952586"
"11540","-3,4513092366238","0,987539605264818","-3","-1,85693227808283","-3,32424941480644","2,14746261261854"
"11549","-0,649184093679945","-0,753115098683796","-3","2,2255364733884","-2,39000223543558","-0,463134346845366"
"11561","0,828075551957899","-0,188278774670949","-3","-0,396696645907279","-2,11485883395084","-3,61578358671134"
"11569","-3,25103628843464","1,70293030633226","-3","-0,107537404978501","1,37715685304489","4,59605410332216"
"11578","-2,33131391459478","1,17573257658307","-3","1,69976630839513","-6,41638352297723","-2,60098647416946"
"11590","-2,0877423868667","-0,706066855854234","-3","-0,539223586182215","2,11032280672075","2,09975338145764"
