Timer,AX,AY,AZ,GX,GY,GZ
"1002","3,99999856000052","2,99999493000857","-2,99999997","2,99999412001152","-0,999999000001","1,99999838000131"
"1010","3,99999969860474","6,39964293375445","-2,999999995","1,30246753660179","6,05882354325258","0,264705510285689"
"1022","7,56221712708605","2,12155641476016","-2,99999999914286","-1,56637218794727","-3,24175821406434","2,50604639773838"
"1031","2,78137879179482","1,0404991389887","-2,99999999985294","-8,84513852614386","0,189745943511683","-6,42374840311722"
"1039","5,51329225784091","1,67997323260759","-2,99999999997477","5,34817246840649","0,0474358072954447","1,16017584975301"
"1051","3,33197854372341","3,55967203260848","-2,99999999999567","1,4643281367232","3,51185938825436","2,04587767554367"
"1059","2,07282782205476","4,85311560615294","-2,99999999999926","-0,50685292766116","-2,87203521596612","-0,414016493504268"
"1072","4,57722643020841","2,61816234906448","-2,99999999999987","-1,83392080249731","-3,21800880323015","1,59499506453674"
"1080","5,90725401006893","1,20620664587291","-2,99999999999998","0,382382721018834","1,19549779936807","-2,2567372193918"
"1092","3,41840402016063","1,73520634448609","-3","-1,53444910386658","3,79887444984476","-3,07353509935663"
"1100","2,09178741958994","5,24450993555278","-3","-1,17998869348332","-2,80028138753983","1,11967298907914"
"1112","4,58138569338393","4,41514373256171","-3","2,26583595328649","3,79992965311511","-4,82003644297122"
"1121","0,566291718877747","0,805643856422081","-3","-1,90015056196854","-4,55001758672123","5,04659387246154"
"1133","10,5886046666282","-3,3976731652845","-3","5,34975549324628","-0,887504396680307","-2,26812457382441"
"1141","2,44537574188683","3,19944371592864","-3","0,464885622937001","0,778123900829923","0,3503600050267"
"1149","5,439579073394","12,3986300171126","-3","-4,16989000489085","-1,55546902479252","1,81392903725861"
"1162","5,09643269879932","4,46803564478686","-3","0,595688441136994","-1,13886725619813","-2,19402978711282"
"1170","6,80177984195462","-5,17597219389466","-3","-6,45229049417318","0,715283185950468","2,08516070114005"
"1182","0,834015795087558","-0,726601254747293","-3","1,82703473917018","1,92882079648762","-3,8299215096114"
"1190","9,64733665994887","11,4225596812296","-3","3,94174975484241","-2,2677948008781","2,61660588600973"
"1202","2,23888498818302","8,47527784322583","-3","-7,32542322093827","2,18305129978048","-1,96412575538293"
"1211","5,3942801457107","-0,839976253709644","-3","-11,7728199144184","1,29576282494512","2,15101019447961"
"1219","5,08649524246072","1,05264047421052","-3","0,708765950083236","2,82394070623628","1,32967424522681"
"1231","1,45772508165349","6,68323946596814","-3","8,89159713714256","-1,29401482344093","-0,619152501606754"
"1239","8,00353803086522","10,5607549064999","-3","7,31058968838928","1,42649629413977","1,53623966022677"
"1252","-0,682973304004853","-4,47714245950749","-3","-2,5379816759031","-4,14337592646506","-2,27356603815521"
"1260","10,3145470397671","-9,82558513615407","-3","-4,18117837282065","7,96415601838374","-1,36477689284511"
"1272","2,38525432532188","1,72238045545899","-3","7,24478982884518","-2,00896099540407","-1,10448000148189"
"1280","1,86514011227444","10,5730713001805","-3","5,09276164536328","1,24775975114898","2,39723135432598"
"1293","4,53166491993746","4,19264569616929","-3","-8,9377920603198","2,81193993778725","-2,02695937188928"
"1301","7,67788385962305","-2,60141688391302","-3","0,989981825348015","0,452984984446811","0,419434941377618"
"1309","2,80683610280972","0,798639042542186","-3","8,64952915609055","-0,886753753888297","0,12013525022073"
"1321","1,95762465266412","10,9313494722948","-3","2,90261591714077","-1,97168843847207","0,0344093372340284"
"1330","4,55195372431145","3,31216015999327","-3","-5,34892522511831","-4,74292210961802","-1,70372276532062"
"1342","4,12108489796097","2,10413041332839","-3","-3,12783176483924","3,5642694725955","0,512016905300517"
"1350","5,80718792036504","-2,29810399366325","-3","-0,716598936464712","-1,85893263185113","0,146652729583019"
"1362","1,61582710274978","9,23191774786144","-3","5,74834519855111","0,535266842037218","0,0420045175686672"
"1371","8,03822167597649","7,07810340350742","-3","-4,39055689439683","-1,6161832894907","-6,84228237514848"
"1383","4,66651015368607","3,02679400113601","-3","-2,80507799366017","2,34595417762733","5,4673788450437"
"1391","6,70746554491622","-2,99032179377095","-3","-2,27112953362251","-0,413511455593169","-2,14760264543129"
"1399","2,5939504976581","2,3353280218775","-3","2,89836782044219","-1,85337786389829","2,09845843991361"
"1412","5,4721726738169","7,11111848971229","-3","-1,68713011985316","2,28665553402543","-0,398956059958154"
"1420","5,10358292282637","0,704967350463887","-3","-4,55785923709957","-0,428336116493643","-0,114269655104864"
"1432","3,24209860304611","-0,098417016900002","-3","-3,52464686866427","-0,107084029123411","-3,45988599307266"
"1440","2,05311040283839","2,30000986894089","-3","0,149763956470276","-0,0267710072808527","2,7225920711948"
"1452","2,79227600937806","3,76649723118239","-3","2,71366239821906","3,49330724817979","-0,220190672127402"
"1461","4,73505544083084","4,92210812606316","-3","-3,41255990382647","0,623326812044947","-1,77664572145388"
"1473","5,94187776348038","0,974757082914611","-3","-5,80216530502519","0,905831703011237","-1,2224481531588"
"1481","5,20662451915693","1,65799937852285","-3","3,70920591383949","-0,773542074247191","0,649864376393515"
"1489","3,26470336251755","5,21875522893435","-3","1,91239077665896","-1,9433855185618","3,61329191974052"
"1502","2,05806932398245","4,40655247529923","-3","-0,355956039709617","0,514153620359551","-0,965074947087533"
"1510","1,0127389631764","2,46919789707993","-3","-5,10955409106171","0,128538405089888","1,43715998076968"
"1522","5,34466934111587","-0,509904837672334","-3","-0,383991977026211","0,0321346012724719","1,12521208534454"
"1530","4,2949869577624","5,495585551889","-3","2,53390714660771","3,50803365031812","-2,3912932365472"
"1543","4,0647127904156","6,16531747151492","-3","3,17980617629275","-2,87299158742047","2,02866017741314"
"1551","4,01419637422325","3,72230679052987","-3","0,734102579650421","-1,46824789685512","-0,418947793844048"
"1563","5,78373924084734","-2,75831257697556","-3","-0,752773157856661","-1,11706197421378","-1,83357406526843"
"1571","1,6106830465696","2,41272167660083","-3","-0,25351461202574","-1,02926549355344","-2,95233200828112"
"1583","6,2564682882148","8,80335538478845","-3","-0,0853771921059911","0,742683626611639","-5,69992519955536"
"1592","1,71438802389371","1,93588379414778","-3","1,63447291539753","1,93567090665291","-1,05973870032538"
"1600","4,49859366697734","-2,35422771552692","-3","-3,7760031273053","2,98391772666323","5,12362457651637"
"1612","4,10937903057951","-0,785323486162521","-3","2,39156515184475","0,495979431665807","-2,24606131205629"
"1621","4,02399503468033","4,73729146216398","-3","1,46864330362539","0,873994857916452","0,356679400984731"
"1633","5,78588882286724","5,24594575009278","-3","-2,1686245148134","-4,28150128552089","0,102160704459057"
"1641","3,3917795212928","2,74920277871251","-3","-1,39356263887016","-2,57037532138022","0,0292610380828176"
"1653","7,42782139767614","-0,416500784897005","-3","0,530683994189381","-2,14259383034506","-3,4187756943364"
"1661","2,75197862770801","5,52674328393991","-3","5,16839796604274","3,21435154241374","-0,692789738290577"
"1673","5,50684010907323","4,50929115748285","-3","-4,5858681858666","-0,196412114396566","0,801570016349778"
"1682","6,89181300453076","5,83630930162162","-3","-2,8708538064192","-3,54910302859914","3,65674370026262"
"1690","0,853766828233018","-1,38670352240771","-3","2,69639613115751","2,86272424285021","2,47452727311881"
"1702","7,87104463464919","6,86952288335409","-3","1,57130252658963","1,46568106071255","-3,00482014687689"
"1711","1,06858585524649","3,95721569307682","-3","-3,79727728731354","1,11642026517814","0,13935443950448"
"1723","2,57629584811734","2,31930809417402","-3","-0,942050946982279","-2,47089493370547","3,46707081854448"
"1731","2,90704986353638","1,10651482183427","-3","4,00919301306145","-1,36772373342637","-4,43411252624043"
"1743","4,76023396541944","1,70195113653455","-3","-2,3130328040866","2,40806906664341","-0,983604194421681"
"1752","5,94740130457873","3,56699674719536","-3","-1,44219563148726","1,35201726666085","-0,995303886225472"
"1764","5,20783624648264","4,85555873725829","-3","3,84075716445862","-4,16199568333479","0,714923413331671"
"1772","6,82621900525685","0,952557532007308","-3","-2,36975765986036","2,7095010791663","-3,22238714180687"
"1780","4,40062695868528","3,31701396340016","-3","0,201926652851084","-0,322624730208424","1,07703854066725"
"1793","6,64913739507654","1,43932963249082","-3","-1,59522205872946","3,41934381744789","-1,40509118295771"
"1801","4,36177966451004","3,47939144302847","-3","2,12599605010794","-1,14516404563803","-1,11602688719017"
"1813","6,64061526641958","-1,83934429972863","-3","1,37920646984597","3,21370898859049","-1,03323261309404"
"1821","2,57928521179464","1,05285128147449","-3","1,12770697264814","2,30342724714762","-4,4366752293553"
"1833","3,68833056543628","6,01688987407327","-3","-0,620217335506997","0,325856811786906","1,72924013656065"
"1842","3,93162748973425","3,00637438666181","-3","-0,208873225010282","0,831464202946727","3,92244851171154"
"1854","5,76562568437922","3,00212636845722","-3","-0,0703431226902617","0,957866050736682","2,55063088504829"
"1862","3,38733429346278","3,00070931417495","-3","-1,68691550687157","-2,51053348731583","-2,98302242436998"
"1870","2,08497149549853","3,00023661308419","-3","0,431890303498064","3,87236662817104","1,85917612391842"
"1883","2,7992655394487","4,66649884241353","-3","0,145449530959285","-2,78190834295724","-0,467491697001321"
"1891","2,95596385964525","2,55591082883717","-3","3,37543516564849","-1,44547708573931","-0,13389974571719"
"1903","4,77096447771935","1,18544078264757","-3","0,799985384875194","-1,11136927143483","-1,75193013146983"
"1911","5,94975531168055","3,39469917840951","-3","-0,730585525857027","2,47215768214129","-1,21536907296264"
"1923","1,64710283705438","1,46524387327222","-3","-1,90926814383108","3,11803942053532","0,651891978261651"
"1932","6,26445788303112","5,15445583072318","-3","2,02023341684744","-1,22049014486617","1,90029432417332"
"1944","5,27739056192395","-0,614156262551044","-3","1,34358833886187","-0,305122536216542","1,25786379063134"
"1952","6,84147748946848","0,461549613507149","-3","-0,547514051352858","-0,0762806340541356","-2,35329891553404"
"1960","0,842724470084729","4,15322349922935","-3","3,14206287828103","-0,0190701585135339","-1,38761411556972"
"1973","6,08799730636224","5,05111230820332","-3","4,04784311860059","-3,50476753962838","0,602557268032412"
"1981","3,45805459705712","2,68421022221657","-3","-1,63679068914344","1,1238081150929","0,172585450152618"
"1993","5,66173558841434","2,8946588184534","-3","-0,551228948846974","3,78095202877323","1,76301055497259"
"2001","1,58391848433362","4,63128019249536","-3","1,47758604165729","0,695238007193306","-2,20861394309706"
"2014","2,68934699001663","0,877742675533129","-3","-2,1656128309629","-0,826190498201673","2,08098348304117"
"2022","4,71247537794214","4,95847713006896","-3","-1,3925483813147","-0,206547624550418","-2,11753961068338"
"2034","2,37567444020325","4,3197288844356","-3","-2,79542593963647","6,9483630938624","0,393490799440274"
"2042","6,42428834406224","-0,892604549914629","-3","-2,26787897041428","4,7370907734656","0,112704286140418"
"2054","-0,0294213462206763","2,03508472258382","-3","1,23623677158878","-1,0657273066336","1,74585929285197"
"2063","3,33542041944637","0,345283651811546","-3","0,416332705610314","-1,2664318266584","-2,21352643598498"
"2071","3,07358288471258","4,11443948961183","-3","0,14021013267389","1,4333920433354","-1,347580250605"
"2083","4,79676716193226","1,70533490890027","-3","0,0472191615972406","-0,64165198916615","-1,09955451074502"
"2091","5,95541577785266","1,90170559327518","-3","-1,64732355731951","1,58958700270846","0,685063776885579"
"2104","6,99021933225269","1,96721094325315","-3","3,771675362072","-2,35260324932288","-1,51736124365522"
"2112","2,65597963521021","6,98832196259872","-3","2,59665463275827","-1,33815081233072","-1,14818346382132"
"2124","0,143905591529416","0,664004874266082","-3","-7,77841661536774","0,66546229691732","-2,75602129765376"
"2133","5,15406894199328","3,22075854272686","-3","1,38042961569704","-1,58363442577067","-0,502962526902684"
"2144","6,03379888801998","1,40722074088842","-3","0,464893141844617","-1,14590860644267","-0,857637704184815"
"2153","1,66553990417995","1,80226064317396","-3","-1,50666171789215","2,46352284838933","4,1815106783787"
"2161","6,26850251629161","3,60045800114703","-3","0,492595137221677","-0,384119287902667","0,911253555012824"
"2173","5,27827785370959","1,53388091926196","-3","0,165893355515074","-0,0960298219756667","-4,16615393763158"
"2182","3,28042231923569","1,84451195649519","-3","0,0558686095832608","5,22599254450608","4,23387998204472"
"2194","7,40339240144982","5,2809721109209","-3","5,00849237329418","-5,19350186387348","-0,787325086992325"
"2202","2,74661951446162","-0,571952950795813","-3","3,67640850295739","-4,54837546596837","-3,65266364401573"
"2214","3,72503954314827","2,14204771091446","-3","3,22779696301393","-3,38709386649209","-2,47335865665465"
"2223","2,15905561505051","5,38022411376559","-3","-5,23941262384892","-1,34677346662302","-0,422001825362303"
"2235","4,59614265981898","2,79399536694866","-3","-1,42772498638525","-0,0866933666557559","0,879129538619287"
"2243","5,91140375964016","1,26486104358407","-3","-1,1440467594327","-0,771673341663939","0,251801737717836"
"2251","3,41931437184696","3,42119219596225","-3","0,614714516146293","2,55708166458402","1,78569981518764"
"2264","3,87261203804716","4,80692124237299","-3","0,207020017173742","-5,610729583854","-2,20211524762761"
"2272","5,75267916435245","5,93559277123299","-3","0,0697190100199573","-0,152682395963499","0,369266505504483"
"2284","5,16511905944046","5,31209511802417","-3","-8,29264920714739","0,961829401009125","1,81934426842232"
"2292","6,81684791850382","-3,22799084837894","-3","0,544023567931427","1,99045735025228","-0,478900402988148"
"2304","0,837321355737057","5,58888618396488","-3","-0,48001262837633","1,24761433756307","-0,137167446171331"
"2313","4,30618708769173","1,19718096547895","-3","0,838344109403735","1,06190358439077","6,81502565161021"
"2325","9,40904454984936","3,39861546961979","-3","3,60878421429048","1,01547589609769","-3,76160741626826"
"2333","2,18660963507747","4,79939009603551","-3","2,54179708941833","-4,24613102597558","1,63617252170876"
"2341","3,60218732544297","-0,732599121218762","-3","2,18246330582728","-2,56153275649389","1,18221358675559"
"2354","2,13210489873152","5,42129917340925","-3","-2,92822832238051","3,10961681087653","-4,08854511680631"
"2362","2,80960543402617","2,8076971889181","-3","-1,64937763779619","-0,222595797280869","-2,59820454962744"
"2374","1,17760726497497","1,2694316985487","-3","-1,21869366380282","1,69435105067978","-2,1713387373418"
"2382","7,16146224963943","-1,57654286355798","-3","2,25280111609659","1,17358776266995","-0,335496780124241"
"2394","5,4741709756023","6,1397763464169","-3","1,42191115022876","1,04339694066749","-0,80967188777822"
"2403","3,32339639048637","3,04736686679728","-3","-0,52113694567473","1,01084923516687","0,768092437612739"
"2415","3,85157002225108","1,34938073054682","-3","-0,175505501512802","-2,49728769120828","1,93357665209301"
"2423","5,74806307024285","3,44938628049246","-3","-0,0591057327961646","3,87567807719793","1,26739657008797"
"2431","5,1641064033796","3,14990631454314","-3","-0,0199052885479877","0,718919519299482","-0,636990176411329"
"2444","5,03600085701523","1,38358584844678","-3","-0,00670358852575401","0,929729879824871","-0,182447780769"
"2452","3,22727278127466","5,12721633969769","-3","-0,00225759596572961","-0,767567530043782","-0,05225699538267"
"2464","3,83048289682664","-0,623242814337155","-3","3,32569120947124","1,55810811748905","-0,0149675351210871"
"2472","0,401562350282268","3,79135834677246","-3","-0,879992853242707","4,63952702937226","-1,71786537083654"
"2485","8,77184223658862","3,26398138616428","-3","-0,296358928910865","3,40988175734307","-1,20561218783297"
"2493","1,26619841026709","8,08731867276394","-3","-1,7630318094093","1,35247043933577","2,36826490610221"
"2505","4,40027203013931","3,363448118456","-3","-1,2569694616589","1,83811760983394","1,3919006993622"
"2513","5,86843462262074","3,78765896797474","-3","2,23991081316511","-3,29047059754151","6,25298388099587"
"2525","3,40988801354499","0,596327434062769","-3","1,41757002818893","1,92738235061462","1,21814668336889"
"2534","3,87054412984605","4,86460260933624","-3","-0,522598923772912","4,73184558765366","-3,36467475514184"
"2542","5,75222551680466","2,62199430064221","-3","-0,17599785808328","3,43296139691341","-1,67729405773052"
"2554","3,38439463049475","2,87390482592185","-3","1,60395420901571","-0,391759650771647","0,519586659477217"
"2563","3,86495151664434","4,62435707386109","-3","-3,78628104161078","-1,09793991269291","-1,56475747354576"
"2575","3,97037372680599","2,54185317401713","-3","2,38810381501254","-0,274484978173228","-1,16175877044389"
"2583","2,21287582367686","4,51359125493033","-3","1,46747761452642","-0,068621244543307","-1,04633121479781"
"2595","4,6079494729316","4,17132381550193","-3","-8,82192010817682","1,73284468886417","4,12746477071525"
"2604","2,35274406038151","0,724310387279607","-3","5,35545602421651","-2,31678882778396","-5,95853974192765"
"2616","4,63863307995045","1,57445534800415","-3","1,46680541495168","2,17080279305401","-0,420233160998396"
"2624","5,92072509938174","1,85804677796498","-3","-0,506017713559951","1,2927006982635","-0,833942222256508"
"2632","-0,139890578356211","3,61906714484399","-3","1,49281202129454","1,07317517456588","0,761140888235585"
"2644","5,09181113167561","3,2065084720357","-3","1,165966396485","1,01829379364147","0,218007233162502"
"2653","6,02014107527672","4,73530702706816","-3","-0,607332546923477","1,00457344841037","1,77602033725119"
"2665","5,22379354022798","4,24528378206087","-3","-1,86775971488507","1,00114336210259","2,9358473742309"
"2673","5,04909472803473","4,08182178535947","-3","2,03421238667416","-0,749714159474352","0,554468609430884"
"2681","5,01077016038242","4,02729411827868","-3","1,3482960958736","-0,187428539868588","0,872390161603101"
"2694","3,22173779492942","2,34268486134966","-3","2,78052290960974","1,70314286503285","0,963449778847499"
"2706","2,04864374872479","1,11431284586249","-3","-2,72681725074656","-0,574214283741787","0,989531225154116"
"2714","4,57192104670384","5,03739222806896","-3","-1,58154757617663","-0,143553570935447","2,71057986082982"
"2722","7,68671505105652","1,01321356369139","-3","7,12027852812059","-3,53588839273386","-6,36436626325653"
"2734","6,37002326617362","1,67082769472607","-3","5,0508294460459","-2,38397209818347","-3,9636273543234"
"2743","4,30054897735445","5,22303449976948","-3","-7,28868799026921","3,15400697545413","0,151152947336112"
"2755","4,8465578689384","2,74156004183639","-3","-1,1178681510687","-1,96149825613647","2,7568718220376"
"2763","1,40508879873645","1,24736966327127","-3","2,28675655204208","-2,99037456403412","-1,92395055379671"
"2775","2,65011621163945","1,74893750679543","-3","3,09657222136317","-0,497593641008529","-2,97821779173005"
"2784","2,92324421242979","1,91625055167446","-3","2,36929728213027","-0,874398410252132","-2,2801827591995"
"2796","4,76378660216584","3,63848276474172","-3","0,461144058610625","0,781400397436967","1,34690627961106"
"2804","5,9481806645848","3,21298513621034","-3","-7,49760157704114","-3,30464990064076","0,385783126206618"
"2812","6,98863212862821","3,07104760026668","-3","-3,51467637620928","-2,32616247516019","3,53765333091527"
"2825","0,875006532298127","4,6901199776784","-3","3,47957327118934","-0,331540618790047","-2,70031782155781"
"2833","6,09507918666653","2,56379036919385","-3","1,83505641676275","-0,832885154697512","-1,48700784507057"
"2845","1,67898327521235","2,85448915340559","-3","-0,382000260389814","-0,958221288674378","-1,13948959315323"
"2853","6,27145165702209","2,95146047913364","-3","-0,128647849349718","0,760444677831406","0,673625504475709"
"2866","3,49829991174877","4,6502280954068","-3","-1,70655103718249","-1,55988883054215","-1,5206374125732"
"2874","7,45118931792201","2,55048323163511","-3","-1,23794819222527","-2,88997220763554","-1,14912182954601"
"2882","6,31835478726381","2,85005015730103","-3","-1,0801348228276","-2,22249305190888","-1,04271172126729"
"2894","4,28921420014211","1,28355980542657","-3","-6,01666460894282","3,19437673702278","-1,0122335619082"
"2903","3,06344639119295","3,42742973056445","-3","-4,67916070144936","1,54859418425569","-1,00350395705256"
"2915","3,79454346775385","1,47616213370762","-3","5,75063069636188","-4,11285145393608","2,42615308012206"
"2923","5,73555286471615","3,49167803198878","-3","-1,7265614427725","-0,778212863484019","-3,73225390796187"
"2935","3,38073706594187","3,16401400068665","-3","-1,24468718146351","-0,944553215871005","-2,4961550318038"
"2943","3,86414913809128","-0,278128021382428","-3","-2,74563009566581","4,26386169603225","1,28504714378218"
"2956","2,1895727949646","3,90648176943117","-3","-2,25110901264817","2,56596542400806","0,36806533012403"
"2964","2,8222124589359","1,63596435451015","-3","1,24188446145709","-3,10850864399798","3,53257857043215"
"2976","2,96099784217357","3,54498487070683","-3","0,418234702102701","-3,2771271609995","-2,70177134285589"
"2980","2,99144389811562","3,18179610058389","-3","0,14085067610694","-2,31928179024987","-1,48742416504685"
"2993","6,55937282432699","1,39422364604865","-3","0,0474348801284085","1,42017955243753","4,001126197742"
"3005","3,56146264374665","1,79792507114656","-3","0,0159748459502468","0,355044888109383","2,57316587812019"
"3013","5,68442073796626","1,93259182765262","-3","-3,32107159296181","-1,66123877797265","-1,26298956970038"
"3025","3,36951995103289","6,97677371500484","-3","-0,781677133718583","-2,91530969449316","1,35183078140813"
"3034","3,86168838249829","5,65941234782999","-3","-2,58970023632772","-0,478827423623291","-0,612806389836894"
"3046","3,96965787645893","0,220707089356821","-3","1,12785565767928","2,63029314409418","-5,31625605453772"
"3054","5,77396860389067","3,07288322907006","-3","2,04305849260639","-0,342426713976456","-0,236269204052297"
"3066","3,38916452218169","4,69073230689433","-3","-0,311950518302584","1,66439332150589","2,64590572811793"
"3075","7,42724773201072","2,56399463002698","-3","-0,105056900333536","1,16609833037647","1,4714230431965"
"3083","6,31310259969916","2,85455729075207","-3","-5,02505772278309","1,04152458259412","-4,00570926554982"
"3095","-1,05381272889993","4,61790312139593","-3","-0,355535776379086","1,01038114564853","2,5662564659637"
"3103","6,67194428759746","0,873280350991982","-3","5,86994197174972","-2,49740471358787","3,16218811433359"
"3115","0,024908198687819","-0,0422711515406634","-3","3,96652254123421","-1,37435117839697","2,33287584353475"
"3124","6,90858878819988","7,3179987505931","-3","1,66227414444524","4,15641220540076","-1,33181383917029"
"3132","5,41869683723383","5,77323822488799","-3","-3,10341463455355","2,53910305135019","1,33211802021835"
"3144","6,87247656633581","0,258677135328644","-3","-0,0451501210191372","0,384775762837547","-0,618452551528377"
"3156","6,19139962528543","3,08554928030872","-3","-0,0152053979258136","-2,65380605929061","-1,89071654821444"
"3165","2,48073849007978","-0,304302289632501","-3","-0,00512078640906273","-1,41345151482265","2,1720361811147"
"3177","1,88608695951425","3,89775055475116","-3","-0,00172454897761832","-1,10336287870566","-3,8050384908278"
"3181","2,75563522646238","3,2994717081579","-3","1,66264497114405","-4,52584071967642","2,62373292143982"
"3193","4,72701736578009","3,09989779846125","-3","-2,10328974967197","1,8685398200809","1,46507227120401"
"3206","5,94011441004249","3,03332391630178","-3","-6,36123683712867","2,21713495502022","1,13320676977533"
"3214","5,20623768333774","3,01111619489912","-3","-1,46875224385667","-0,445716261244944","-2,38900338579854"
"3226","5,04524341034896","4,67012805426188","-3","-0,157863683099268","1,63857093468876","-3,11141899369691"
"3230","5,00992527721838","4,2235413746416","-3","2,61006133210783","-0,590357266327809","2,82240056599062"
"3246","3,22155244860924","2,40814903820065","-3","-1,78422431984123","-3,64758931658195","1,5219749868206"
"3255","7,39047781828133","2,80257030467213","-3","-2,92733230818725","2,83810267085451","1,14950493977611"
"3267","6,30503619656452","2,93414138505621","-3","2,67737562635592","-5,54047433228637","1,04282145233358"
"3275","0,725042613160298","1,31161096449705","-3","-5,0880061088548","-3,63511858307159","-2,41489169803948"
"3283","2,50093101845689","1,7703671256473","-3","2,94971633806509","5,5912203542321","-1,4052556222925"
"3296","4,6711416072189","1,92339904579544","-3","-0,00661150676556177","1,14780508855803","-1,11607398617664"
"3304","4,14723175050379","1,97444744703218","-3","3,32422492444806","-0,713048727860494","0,680332241386951"
"3316","5,81292388849552","1,99147617715793","-3","0,782739094549653","-1,92826218196512","5,33559692071756"
"3324","5,17833525122293","1,99715662243477","-3","2,59005787738501","-1,23206554549128","-1,47176949769125"
"3333","5,03912231179183","1,99905150586442","-3","3,86194205109059","-2,80801638637282","-0,42154665582139"
"3345","5,00858246067135","5,33252342724438","-3","-3,36262313565574","1,29799590340679","-0,12074009096734"
"3357","5,00188277808242","-0,55475645821168","-3","3,19400664132754","0,324498975851699","-1,74816092137256"
"3365","1,43916321466319","2,14778411840676","-3","0,738884930543658","1,83112474396292","2,21286719973411"
"3374","6,2188411096491","0,382877926074975","-3","-2,41438834006868","-4,04221881400927","-0,366186913583902"
"3382","5,26738337815657","0,794140364890669","-3","5,176573453685","-2,51055470350232","-5,24561889590795"
"3394","5,05865725265454","5,93058906401148","-3","2,06978812711008","-3,87763867587558","1,49754115250228"
"3406","1,45161812013362","6,3104259809339","-3","5,34995435347823","2,03059033103111","0,428928215853458"
"3415","4,44094849568387","3,77071209972624","-3","1,12817834876584","0,507647582757776","-1,59072401503988"
"3427","5,87735802591152","3,92351412227871","-3","1,70639292147774","-1,62308810431056","0,544382194408333"
"3435","5,19247049591931","3,97448583425548","-3","-4,7517823215446","-2,90577202607764","-3,27123384003618"
"3447","5,04222323236963","2,3250690693709","-3","3,72617360507086","-3,97644300651941","1,06304778850206"
"3456","3,2286378154282","6,10769630744262","-3","-0,745120696758468","-4,99411075162985","-1,40909843735245"
"3464","0,269532531368823","2,03666560460528","-3","3,07551404943285","-2,49852768790746","2,30998203767401"
"3476","6,96225327320431","1,01223091557413","-3","-0,964246077474848","-2,87463192197687","-5,47910615489416"
"3484","5,43046948846287","1,67049990288163","-3","1,33849250991899","0,531342019505784","3,14424368993113"
"3496","5,09443428278496","3,55650524193717","-3","-0,549230195298642","1,13283550487645","-0,0994205175082148"
"3505","1,45946670933934","3,18563906702118","-3","1,47825917037482","-1,46679112378089","1,68510215545027"
"3517","4,44267028064745","4,72834540912779","-3","-0,502160383722893","4,13330221905478","-0,517350251203196"
"3525","4,09711083266884","4,24296152494266","-3","-5,1587919486582","-0,966674445236305","-0,148180315345015"
"3533","4,02130369765922","4,08104712662795","-3","-0,400574019352339","1,50833138869092","-0,0424420512113062"
"3546","5,78529841056595","0,694195881550979","-3","-2,46135452265291","2,87708284717273","3,41500036673696"
"3558","5,17227490951512","-0,102010164437084","-3","-0,492146566300596","-3,03072928820682","-1,0218699419406"
"3566","5,03779282378409","2,29881126647287","-3","-2,49219379803022","-3,2576823220517","-3,71984236962368"
"3574","1,44704098417183","2,0996774882665","-3","1,16069331483669","2,93557941948707","-0,779021753796882"
"3582","2,65931947609612","2,03325042520785","-3","-4,5987856494881","-2,01610514512823","2,49044964437501"
"3595","4,70588808937258","2,01109167973361","-3","1,45124743416859","-3,00402628628206","-0,286681290293938"
"3607","5,93547917312841","3,67011987649083","-3","0,488742759205366","1,24899342842949","1,63146661492699"
"3615","3,42459591784836","1,5571187336997","-3","0,164595973816499","2,06224835710737","-0,532712631505431"
"3627","5,65439558765077","5,18510345465766","-3","-4,93424557963174","-0,484437910723157","-0,152580433741287"
"3632","5,14355809095346","4,39532691350832","-3","-0,324952585416499","-0,121109477680789","-0,0437023404060995"
"3648","3,25086815915279","2,4654532732011","-3","0,890564338328451","1,7197226305798","-1,72609564133242"
"3656","5,61628404494692","2,82168585636903","-3","1,96314488764526","4,67993065764495","-1,20796951553237"
"3664","3,3545724578677","-0,392321873546338","-3","-3,66531487194115","-5,33001733558876","0,65401137174968"
"3677","7,41965909478766","2,20196906129118","-3","-0,897609404153673","-2,83250433389719","-1,52625532493683"
"3685","6,31143784172517","2,06737285703676","-3","-0,965517484370758","1,2918739165257","0,562847423345852"
"3697","4,28769679459187","5,35531406951238","-3","2,3380643328213","2,07296847913143","0,161211690703829"
"3705","3,06311351021376","1,11926595921918","-3","-0,212600149141769","-2,23175788021714","0,0461745193130561"
"3717","3,79447044195907","3,37262457505308","-3","1,59162750007278","2,19206052994571","-3,41393130704472"
"3726","5,73553684467585","3,12430013816442","-3","-2,12720660488628","3,04801513248643","2,73575448843798"
"3734","5,16135846151815","3,04146405090296","-3","-1,37961415351769","-1,23799621687839","-0,216420670792211"
"3746","6,81602293699606","1,34741166870725","-3","7,18828450411231","-3,8094990542196","-0,0619875667801192"
"3755","2,61776528531859","3,44872944067271","-3","5,07373210727796","-0,7023747635549","-1,7313329261389"
"3767","7,25802195497794","4,81610711885924","-3","2,69837956512524","0,824406309111275","3,93126544663581"
"3775","2,71472885967974","4,27223708371012","-3","1,23519625089122","3,70610157727782","-0,874000443156917"
"3783","3,71804352788451","4,09081287006856","-3","-1,5840177149622","-2,82347460568055","-1,96391099835572"
"3795","7,49939559349441","4,03029336509816","-3","4,45622089417135","0,294131348579864","0,437493360892183"
"3808","2,76768022335918","0,677265437364312","-3","0,163966182795203","0,0735328371449659","-3,30184911667024"
"3816","5,51028464803276","4,89160191551915","-3","4,04489685191796","-5,23161679071376","2,76785725494022"
"3828","1,55069392065289","-0,70183909445301","-3","3,35189434859119","1,69209580232156","1,50635260138132"
"3832","2,6820583483681","0,432300366812913","-3","3,11850895362841","-3,07697604941961","-0,568547994372582"
"3845","2,93025152155026","2,47704661997209","-3","1,37668500858052","-2,2692440123549","-1,8764228023444"
"3857","4,76532383123499","3,82555316599351","-3","1,79008356425798","-0,317311003088726","3,8897085641186"
"3865","2,38726807440209","3,27538809693498","-3","-1,39714595884551","2,67067224922782","-2,59948157888932"
"3878","2,8655818786602","3,09186398533424","-3","-3,79697428533905","3,16766806230695","5,3961872170764"
"3885","2,97051201252996","3,03064399621993","-3","2,38450260592747","-1,20808298442326","0,259163219940621"
"3898","6,55478089004222","3,01022222692506","-3","-1,86018668959343","1,44797925389418","-0,925770041538943"
"3906","3,56045528774954","1,33699001834667","-3","0,373537031726202","-0,638005186526454","-1,97873893242107"
"3918","2,12294992920556","5,11167289863907","-3","1,78902340672903","-5,40950129663161","-2,99391036982955"
"3927","2,80759706176222","1,03799211624256","-3","1,26572276222717","-3,6023753241579","2,85605758055653"
"3935","2,95779158810283","1,67909332644182","-3","-0,573737172149184","2,09940616896052","-1,89554160465463"
"3947","4,77136543581428","6,89221166291665","-3","1,47000585174444","0,524851542240131","2,17065418046194"
"3955","5,94984327189872","0,631944392136573","-3","1,15828586594942","-1,61878711443997","3,04887905286019"
"3967","5,2083719532833","1,54364389130852","-3","1,0533066030271","0,595303221390008","-1,12673501471986"
"3976","5,0457116160104","5,18060851556051","-3","2,68117804582159","-3,3511741946525","-2,03629965270679"
"3984","5,01002798987751","4,39382749133323","-3","2,22940322221186","-4,08779354866312","-1,29681866196622"
"3996","5,00219989118216","4,13137300882181","-3","5,40370860664979","1,97805161283422","2,34214139680238"
"4008","3,21985769135206","2,37740350671186","-3","1,14628139680268","0,494512903208555","1,38441836058501"
"4017","0,267606390859181","4,45873412060357","-3","3,37571531663998","-1,62637177419786","1,11010574318544"
"4029","10,5230805459047","0,820184741860015","-3","-1,86314602231036","-1,15659294354947","-2,39562002007468"
"4033","7,77287611192645","1,60643712354612","-3","2,69899191433274","2,46085176411263","0,313842548262195"
"4045","0,0470501267364734","3,53513517443299","-3","-1,09104903531515","1,36521294102816","-1,62368704245835"
"4058","5,9134461756589","4,84493035104427","-3","9,61191731362753","-0,65869676474296","3,96209755883113"
"4066","3,41976242704494","2,61543202700969","-3","-1,09972804718714","-1,91467419118574","-0,865169458544016"
"4078","3,87271033019656","2,8717157821126","-3","1,95609142665846","0,521331452203565","-1,96138161312453"
"4082","3,9720758172275","2,95720693943644","-3","-1,34123878629235","-3,36966713694911","0,438217831597117"
"4098","3,99387412989038","1,3193051741339","-3","-0,45169467985404","-2,34241678423728","0,125515076729644"
"4107","5,77928104666729","1,77293376076736","-3","-0,152119134857745","-0,335604196059319","-3,39120645325312"
"4115","5,17095484976814","6,92351496316305","-3","6,60167321247851","0,91609895098517","6,16942006797987"
"4127","1,47625341561011","-1,02403336324418","-3","1,5497250226779","-5,02097526225371","-1,23294449158378"
"4135","2,66572795587277","0,324822774598758","-3","-1,47809252525768","-1,75524381556343","-0,353142002233274"
"4148","8,26854377014865","4,1076141484111","-3","2,82866801515494","1,56118904610914","1,61243082779763"
"4156","2,93641217385598","5,03589793698937","-3","-2,71060321916767","-4,85970273847271","1,17541345148476"
"4168","7,32792514483732","6,01197483694402","-3","0,0871386468938578","8,78507431538182","-4,09049282280718"
"4177","0,94943896827417","3,67115474114895","-3","0,0293460520333149","-1,80373142115454","-2,59876241480434"
"4185","2,55015798906148","3,89030376994304","-3","0,00988299452240782","-2,20093285528864","-2,17149852200923"
"4197","6,46256568830106","0,630567696033415","-3","-1,65989741680389","2,19976678617784","1,37803579873748"
"4209","7,10147538951395","-0,123235260097665","-3","-1,22223645443756","-2,20005830345554","-1,31887905004563"
"4217","0,899761532813756","3,95815091021616","-3","2,25160799545476","-6,55001457586389","0,622244479280369"
"4226","7,88113472710731","3,31962006398873","-3","3,08473509274946","-1,13750364396597","1,89180263843813"
"4234","6,41267410011007","3,1066188887522","-3","2,36531084207634","1,71562408900851","-0,458146756704305"
"4246","0,748655687940804","3,03556593818577","-3","2,12302728309478","-1,32109397774787","1,58235519220248"
"4258","6,06736095881079","3,01186408875423","-3","5,36788393004877","0,669726505563032","4,59395582745324"
"4267","-0,107722323492932","3,00395762375881","-3","-2,1922349412668","0,167431626390758","-1,6841915672991"
"4279","6,87949295545629","6,33416001047842","-3","-2,40151402241728","-1,70814209340231","-0,482388936631206"
"4283","5,41231393630632","5,44504921236688","-3","0,191231927821449","-1,17703552335058","-0,138166637752117"
"4295","5,09045140689614","3,48203964198016","-3","0,0644019881455715","2,45574111916236","-0,0395739170990137"
"4308","5,01984278553081","3,82721873870936","-3","1,6849146857698","3,11393527979059","1,7022435178065"
"4316","5,00435301286219","0,609523785826108","-3","-0,432564128514346","-2,97151618005235","1,20113775082848"
"4328","1,43970512264038","6,53542456250586","-3","1,51754929695373","2,00712095498691","1,05761020754554"
"4336","2,65771017081224","5,51218705914215","-3","-2,15215423582568","1,25178023874673","-2,41065587829111"
"4348","1,1442852279329","0,171595664747779","-3","1,93843563655227","-0,687054940313318","0,309535952862247"
"4357","7,15415222476348","4,72292054877662","-3","-0,347184801678339","-0,17176373507833","-3,33849888929238"
"4369","3,69194242826297","4,24115189955476","-3","1,54630285530254","-1,79294093376958","-4,09695341220504"
"4377","3,93241984246702","2,41402355863329","-3","2,84720648655612","4,0517647665576","5,25370051108844"
"4385","3,98517459685724","2,80452992770913","-3","3,94854307984219","-2,7370588083606","-0,495226402904386"
"4398","3,99674767585089","2,93479507627938","-3","4,98267063455478","-3,18426470209015","1,57173477855809"
"4406","3,999286521097","2,97824893587247","-3","-2,32196485808845","1,20393382447746","-2,26339946760593"
"4418","5,78046839047549","2,992744278136","-3","0,881247792416904","2,05098345611937","2,06529172242216"
"4426","3,39059041344888","2,99757963566936","-3","-0,703218439896004","3,01274586402984","1,3051226185661"
"4434","3,86631071708768","2,99919261465601","-3","1,42639989553461","-4,74681353399254","-2,3397629638071"
"4447","3,97067190152561","2,99973067232671","-3","-0,519625251862567","0,813296616501865","0,329841218781298"
"4455","5,77419105573096","4,66633007065164","-3","1,48822935285398","1,95332415412547","1,80805201253644"
"4467","6,95046314252232","0,889434616937829","-3","1,16442307178004","-0,511668961468633","-0,482134749611609"
"4479","2,64725811750902","3,29595741589961","-3","-0,607852298936052","3,37208275963284","-3,56525052238652"
"4484","3,7032421277467","3,09872550054399","-3","1,45851675567172","-2,90697931009179","2,69241338829362"
"4496","5,7155236250326","1,36651294806023","-3","-0,508809120532477","-4,97674482752295","-1,94241284509088"
"4504","5,15696805965721","1,78868133410076","-3","-0,17135380750586","0,00581379311926322","3,87080758683858"
"4516","-0,307439847703717","3,595928214045","-3","-0,0577075491807764","1,00145344827982","-0,891316883438918"
"4525","5,05505499562872","4,86520969848702","-3","-1,68266017114055","2,00036336206995","4,8854425767566"
"4533","2,45082787467429","0,955776900493618","-3","-1,22990236384741","1,25009084051749","-3,3142817947019"
"4545","4,66015022554101","1,65166796761959","-3","0,585800559775423","2,81252271012937","1,76429626671797"
"4557","-1,19705421476352","0,217383457333445","-3","3,5237340509904","0,453130677532343","-0,494667342759982"
"4566","7,64052067374069","2,40535461861023","-3","-2,47652287960188","0,863282669383086","-3,5688401284619"
"4574","3,79863955054312","2,13521822894172","-3","-1,49725487826264","-2,53417933265423","-0,735771441921863"
"4582","2,17520162329867","2,04510610857432","-3","-4,49391414593537","-1,38354483316356","-0,924319219004691"
"4594","8,16093451178012","3,68146641262276","-3","1,48656545561801","2,40411379170911","2,44883330387213"
"4606","1,13218047313969","1,56090371220974","-3","0,500636959220094","-2,14897155207272","1,41497723322031"
"4615","2,59024692314283","5,18636604811833","-3","3,49505314369693","-3,03724288801818","-2,30829822323008"
"4623","2,91011038187606","-0,60351164945619","-3","0,84026963914191","2,99068927799545","2,05243174651317"
"4631","2,98028045693166","0,465100444469408","-3","0,946206928290367","3,24767231949886","3,01501758762916"
"4644","4,77629893343818","4,15440798573066","-3","0,981883878879303","0,561918079874716","-1,13643367164389"
"4655","4,17030064841004","1,71866760331283","-3","0,993898956984065","-2,60952048003132","1,38807913122369"
"4664","2,25673481010235","6,90541285363823","-3","-0,665280428980729","2,09761987999217","-2,3160024221297"
"4672","1,05632122207899","2,3027679594863","-3","-0,224049314300182","-2,22559503000196","-3,09050993684079"
"4680","7,13485511306023","2,76741727526648","-3","-3,40190554835409","5,69360124249951","2,82838937266714"
"4693","0,126459302697692","-0,410424791551876","-3","-0,808899928030389","3,67340031062488","3,23726865539312"
"4701","5,1502416608102","8,86160994032924","-3","4,05403484696336","-0,331649922343781","2,35438053638955"
"4713","6,03295927786588","3,62173626685352","-3","-2,29793122932199","0,667087519414055","-3,03923277409571"
"4721","3,44598062460088","-1,12544098801279","-3","1,88934169960356","0,916771879853514","-1,58408042679911"
"4733","2,09783703967164","3,62383503630666","-3","-2,0269441300612","-0,770807030036622","0,546285061949712"
"4742","2,80208791935991","6,54093877168527","-3","-1,34584833423902","3,30729824249084","0,156467871736252"
"4754","6,5178328394405","0,514766750518979","-3","0,546752943115616","-2,92317543937729","-1,66876255781898"
"4762","5,33297471579657","3,17097567642363","-3","1,84735806453963","-1,48079385984432","-2,90512642349683"
"4770","1,51179653830609","3,05703408101622","-3","2,94859412740317","2,37980153503892","4,59506557008426"
"4783","6,23477505156214","4,68544534670766","-3","2,31946207123435","-0,40504961624027","-0,683873712977717"
"4791","5,27087888809822","0,89581109238762","-3","0,444360843077976","1,64873759593993","1,51770210372969"
"4803","3,2787991704886","3,29808448113491","-3","-4,17680222213526","2,91218439898498","-0,56529725112257"
"4811","7,4030363230473","4,76585496015056","-3","2,25658633921627","-1,27195390025375","-3,58907006373228"
"4823","4,52716630970408","2,58905405123583","-3","3,08641167071197","-3,81798847506344","-4,16872242277094"
"4832","4,89627206662404","1,19649670165876","-3","-2,62380179411861","1,04550288123414","0,0924092783273822"
"4844","4,97724467527745","5,06480712583545","-3","0,116371131294933","3,76137572030854","1,02646801846817"
"4852","4,99500804859042","1,02235862767342","-3","3,3656423095506","-4,55965606992287","2,00758101366347"
"4861","4,99890489021012","3,34029821896514","-3","-5,8562156161423","-0,889914017480716","-2,13856366746927"
"4877","-0,342114969730956","4,77993662248855","-3","6,01745467076001","-2,72247850437018","-4,75326597965848"
"4881","3,26682322763827","4,26017132638396","-3","-0,973476245375523","4,81938037390746","-0,0750166548601383"
"4893","6,61978418953229","2,42036806068966","-3","1,33538402709139","2,70484509347686","-0,735064739114473"
"4901","5,35534030240122","2,80664632725707","-3","1,11294870256771","-3,07378872663078","0,789461540633903"
"4914","5,07795281082911","1,26908115202438","-3","1,03803821405082","-1,5184471816577","0,226118881303001"
"4922","3,23647599491934","3,42259994010291","-3","-0,650415463999455","-4,62961179541442","3,49192203358987"
"4934","3,83250185264847","3,14097092478559","-3","-0,21904317693905","-3,40740294885361","-2,71341625543902"
"4942","5,74387998881965","3,0470250933544","-3","1,58945765424971","-3,1018507372134","-1,49075952018531"
"4951","5,1631887395158","6,34852646073297","-3","-2,12793735307549","2,22453731569665","-2,85414249880059"
"4963","1,47454972447435","2,11700174809203","-3","5,27304276860948","0,556134328924162","-0,531066563760022"
"4971","2,66535420847648","1,03902945330765","-3","2,1022765078264","0,139033582231041","0,84789103570717"
"4983","6,48783686930587","1,67943936143024","-3","2,03444409372245","-3,46524160444224","-1,47072399064755"
"4992","3,5457694371738","1,89306735429723","-3","0,348374128839886","-0,61631040111056","-2,84840388926458"
"5004","5,68097803936154","5,29716922474401","-3","-2,54590232054544","-0,90407760027764","1,18415544293335"
"5012","3,36876470871655","2,76628990984309","-3","3,46905717735563","-0,97601940006941","0,339167762155898"
"5020","3,86152270114715","4,58845888079308","-3","0,831514867199703","-0,994004850017353","3,52430168117915"
"5033","3,96962153009761","4,19629816465069","-3","5,9329358110506","-2,74850121250434","-0,990563678526214"
"5041","3,99333572043031","0,732641332841408","-3","-3,66516577538153","-3,93712530312608","1,42985945611825"
"5053","0,4372882031213","4,91007421155009","-3","-1,89755919227235","5,51571867421848","1,12312105698896"
"5061","5,21842977882329","0,970742808664396","-3","0,36095093534618","-2,37107033144538","-0,678313807699525"
"5073","6,0479180523937","1,65666029656923","-3","3,4480104884452","-3,09276758286135","4,94645127030438"
"5082","3,44926220710959","3,55188862485944","-3","-0,838798870395811","-0,523191895715336","-1,58322923905458"
"5094","3,87918184710399","4,85051896849507","-3","-0,282485856431818","2,61920202607117","-0,453471139447487"
"5102","5,75412041680574","2,61729627850514","-3","-3,42158547072116","-2,09519949348221","-3,55704064371502"
"5110","1,60418541437901","2,87233765928864","-3","2,51092389061783","-4,77379987337055","-0,732391813968394"
"5123","6,25504286956803","2,95741438527892","-3","-1,81761125686768","0,0565500316573619","4,21738381358019"
"5131","-0,0665495874243245","-0,347045539064237","-3","-1,27535041387881","-4,23586249208566","-4,21920663617218"
"5143","3,32727540818981","5,54991217088739","-3","0,570494827031388","1,94103437697859","-2,63562883829467"
"5151","4,85242098210898","2,85059992380615","-3","-3,13432354489834","2,23525859424465","4,67225551455051"
"5163","5,96762483966422","2,9501631095855","-3","0,944440554030289","1,30881464856116","-4,08892153060869"
"5172","3,43164787633859","-2,01588433324123","-3","1,98128900952117","-5,92279633785971","0,828844326609509"
"5184","2,09469279173128","4,32680086773707","-3","-0,332752889343505","1,51930091553507","0,237398964054403"
"5192","4,582023059659","5,1090142618913","-3","3,2143889065098","0,379825228883768","0,0679962042626801"
"5200","7,688931181058","2,70352516096526","-3","4,07220066216389","-1,65504369277906","0,0194755853823886"
"5213","2,80925960994406","1,23468198440125","-3","-6,61826496026834","2,33623907680524","0,0055782294041211"
"5221","9,08065594965618","0,0782852367738269","-3","0,771138813632535","-3,91594023079869","0,00159772569984672"
"5233","2,1145693563466","2,35895422209445","-3","3,58615120153532","-7,72898505769967","1,71403596789041"
"5241","0,0251336628627481","3,78615989363549","-3","-0,792276636016843","-2,18224626442492","-0,509062980748525"
"5254","3,34738842947541","3,26224728571458","-3","-1,93004412088921","2,45443843389377","1,5677716830276"
"5262","4,8568332779642","3,0874804723841","-3","-1,3132149067926","-1,13639039152656","1,16262210531325"
"5274","4,18796787749061","3,02918174358866","-3","3,88419455065989","-2,78409759788164","-2,38057819670111"
"5282","0,479985650098344","3,00973444856511","-3","7,6242254620355","3,05397560052959","0,318150852212326"
"5291","5,22779653509776","3,00324721819924","-3","-2,43235722497328","3,2634939001324","-1,62245305090921"
"5303","0,708098155472454","6,33392303333006","-3","-4,14560677808666","-1,1841265249669","-2,89186237786932"
"5311","8,83908855644839","3,77855024850879","-3","2,26709216133866","-0,296031631241725","4,59886467998952"
"5323","1,28095057774024","2,25970885963118","-3","-1,89972750344557","-5,32400790781043","1,03079277902086"
"5332","9,74538301812903","2,75305361699068","-3","-7,95590807013375","6,91899802304739","1,00881971873996"
"5344","4,04101882680957","2,9176236040715","-3","3,98388081981732","0,479749505761848","-0,711052186209446"
"5352","3,00899850882411","2,97252087467945","-3","0,341668455964115","-2,63006262355954","-1,91723908886454"
"5360","5,56322386863153","-0,342006315015749","-3","3,44151664600618","0,342484344110116","0,450861206466963"
"5373","5,12355728688579","5,5515931556839","-3","4,14869143519126","-3,41437891397247","0,129136413089067"
"5381","3,24648048095986","4,51758057986114","-3","-3,26605332827063","1,14640527150688","1,75056580985351"
"5393","3,83469658767427","4,17265457485942","-3","-1,76314839915633","0,286601317876721","-0,498600042943804"
"5401","2,18311163906538","5,72401404110282","-3","-1,25700872608295","0,0716503294691801","-1,85638819430788"
"5413","6,38204486222697","0,2422569278191","-3","0,576671835094086","3,5179125823673","-1,24528812423529"
"5422","7,08381112604499","4,74649173905946","-3","1,85743397680218","4,12947814559182","-1,07025583058101"
"5434","4,45713625337315","5,91543469226032","-3","-2,03768982932291","-0,217630463602044","-1,02012279129295"
"5442","3,10028430673785","1,97253095828607","-3","-1,34946720899677","0,695592384099489","-1,00576360319238"
"5450","7,36387460874102","0,990836874675271","-3","2,20875995412494","-2,57610190397513","4,13908421318485"
"5463","4,51857520510257","-0,00305663614301199","-3","4,7335307307976","0,355974524006218","-0,814476648029283"
"5471","4,89438739227866","3,99824010605046","-3","1,92058274852907","0,0889936310015545","-1,94686209442259"
"5483","4,97683122467326","0,000153195422232688","-3","0,310028560257692","1,77224840775039","0,442376536178603"
"5492","6,77554225780098","2,33289092894292","-3","-2,55881612046054","1,1930621019376","1,84028456443064"
"5503","2,60888483267586","7,11030552403915","-3","0,138256632488367","2,7982655254844","-2,1864809933926"
"5512","3,69482398493183","2,37111607430423","-3","3,37301278269532","2,1995663813711","0,373744494482626"
"5524","7,49430180416881","2,79021684535371","-3","2,46239534350887","0,299891595342775","0,107048516787415"
"5532","4,54718768284137","1,2636006040217","-3","2,15572284278298","2,57497289883569","1,7442393580316"
"5540","3,12003934718441","1,75435182542305","-3","-1,27400806681365","-1,35625677529108","1,21316626890354"
"5553","3,8069585525693","1,91805666055331","-3","-2,09227885987323","-0,339064193822769","-0,652522909046668"
"5561","3,95765151509116","3,63908524669865","-3","1,95860012109327","-0,0847660484556923","3,24025999753881"
"5573","2,21008488733659","3,21318611219395","-3","-3,66684543226619","3,47880848788608","-7,92623274634534"
"5581","8,16858703096883","1,40469472885246","-3","-0,898124857451835","-2,88029787802848","1,72975529610764"
"5594","4,69510906517378","1,80141801585924","-3","0,697534679058083","0,27992553049288","-2,93171731404089"
"5602","4,93311452372441","1,93375700445376","-3","-1,42831403980056","1,81998138262322","1,16029267389609"
"5614","6,76595190259469","3,64432256878289","-3","2,1822063721965","4,70499534565581","0,332332948347029"
"5622","2,6067809476391","4,88135309155077","-3","-0,265089096185819","3,42624883641395","0,095187353192682"
"5634","7,25561226491063","4,29400184095694","-3","-0,0892751802723003","-3,89343779089651","-3,39989297003155"
"5643","4,49482514367836","0,765233333683837","-3","-0,0300655814491327","0,0266405522758721","-2,40095966178834"
"5651","4,8891772204156","1,58810642802595","-3","1,65310044132595","-1,74333986193103","1,3123131592436"
"5663","4,97568824275175","3,52902041942661","-3","-5,43295561114552","0,564165034517242","-1,33770343724339"
"5672","6,77529151603905","4,84289059053726","-3","2,83354622980738","-1,60895874137069","4,04400945643957"
"5684","2,60882982617926","0,948331690521982","-3","-5,03541187175879","5,84776031465733","-2,55528646188886"
"5692","7,25606173782483","6,64844413283049","-3","-5,34870005155757","1,96194007866433","5,40884565564602"
"5704","0,933673926891236","2,21704831124306","-3","2,19869557746522","1,99048501966608","1,97636721552053"
"5713","2,54669953168884","1,07240299454759","-3","2,40368979829636","-3,25237874508348","-3,14750397520311"
"5721","6,46180698890358","3,35699202322087","-3","-3,51695069219061","0,18690531372913","0,0984867012037038"
"5733","1,75943421984311","4,78550534316453","-3","-4,17409567915557","1,79672632843228","5,16894375794065"
"5741","4,50847568026907","2,59560902771121","-3","3,25749783318529","-0,550818417891929","-6,660237606395"
"5753","7,67279671808316","4,53152313728234","-3","-4,89263589054015","-3,63770460447298","1,09236371975643"
"5762","1,02509520070236","2,51088562137666","-3","3,01551199586782","-2,40942615111825","0,312876624856198"
"5774","4,34737999183551","-0,495998642974611","-3","-1,64767897859746","1,39764346222044","0,089614640811426"
"5782","5,85683142695619","2,16738455552545","-3","-4,54457310878186","-3,15058913444489","0,025667573764745"
"5794","6,96859238139963","3,72225606759491","-3","3,13273057646824","-0,537647283611222","3,43450843826782"
"5803","6,21248504086797","4,90735015486468","-3","-6,59788004406794","4,36558817909719","0,697295936850602"
"5811","2,48536410502143","5,96909385659925","-3","5,1044554380474","-0,908602955225702","-4,22743603280021"
"5823","5,44835152415664","0,324010673994263","-3","-0,280950872818349","-3,72715073880643","2,50274911825259"
"5831","3,31773224600106","-1,89191649118017","-3","-0,0946170181248668","2,81821231529839","-1,99673679927666"
"5843","2,06970254007062","7,70099389727761","-3","3,29458693478872","-0,295446921175402","-1,28548700399642"
"5852","4,57654082095117","4,23457786623914","-3","5,76243504742636","-1,82386173029385","-1,08176966026538"
"5864","4,12647869449979","0,745410679027606","-3","1,26709122311979","4,04403456742654","2,40373608785076"
"5872","2,24712136501818","4,91433381116181","-3","-6,56295357423778","0,761008641856634","-2,02509627534551"
"5884","8,17671191159448","2,63858363927378","-3","2,45299201873685","-4,30974783953584","-3,00718811672756"
"5893","6,47751637156655","4,54585861194616","-3","-1,83712121929202","-0,82743695988396","2,8522545463107"
"5901","2,54350537705313","4,18208756326252","-3","2,04453064290084","-4,45685923997099","-0,183052531368015"
"5913","3,68048136096875","-0,938518953806296","-3","-5,30113200047114","1,88578519000725","-5,1931652430023"
"5921","3,92990556979756","2,0197685917391","-3","-2,11173623768417","-3,02855370249819","-1,91459167470469"
"5934","5,76524793803809","3,67301432155251","-3","4,61527313219215","2,99286157437545","1,45161948321302"
"5942","5,16787633529926","6,55734400193616","-3","1,21753088019817","-0,251784606406137","-1,29780308933144"
"5954","1,47557806622136","3,85307903465397","-3","-2,25319271166735","-1,81294615160153","2,34185943548687"
"5962","8,00745453096202","0,618150265597149","-3","0,241182725292733","-2,95323653790038","1,38433760075828"
"5970","4,65976060847868","3,20546235837774","-3","0,0812241302598897","-0,488309134475096","1,11008261182218"
"5983","1,3641101329065","4,73495806438313","-3","5,01703145963109","-0,872077283618774","-4,1092049900487"
"5991","4,42175142310793","-2,42051227694325","-3","-1,31039301715976","-0,968019320904694","2,53661304923115"
"6003","7,65377157636101","2,52540513007413","-3","-2,1045323740618","-2,74200483022617","-1,98703743610914"
"6011","1,02092155852431","3,84168460200053","-3","5,28092496275017","3,06449879244346","0,430869448308515"
"6024","4,34646439870696","4,94718913576195","-3","3,76815678263271","-0,233875301889136","0,123410340623981"
"6032","2,29538074868305","5,98238334731294","-3","-1,730981843825","-1,80846882547228","3,46250408335007"
"6044","2,84542408830834","-1,3379761295376","-3","-0,582950103867087","-1,20211720636807","-1,00826384879303"
"6052","1,18546498548273","6,88577737130697","-3","3,13012892844354","0,699470698407982","-2,00236694525086"
"6064","8,94381094775729","3,96263786658228","-3","-0,945853192820656","-1,575132325398","-1,28709959972621"
"6073","4,8651738817095","0,654696910283378","-3","1,34468675976501","0,606216918650499","0,631346802046949"
"6081","-0,371452221760037","3,21765359129172","-3","-0,547144131482319","-3,34844577033738","0,180831396141798"
"6093","6,82163718528141","3,07260490391888","-3","-0,184264051882298","-0,587111442584344","1,76537237247273"
"6102","5,39962182151569","4,69063946316619","-3","3,26439612266282","-0,896777860646086","-0,494359122768373"
"6114","3,30704216309726","4,23038357220839","-3","-2,56386121465985","-0,974194465161522","-0,141595158280364"
"6122","5,62860722211936","0,744011546059925","-3","-1,5266681801267","0,75645138370962","3,38660076967721"
"6134","3,35727585596931","-1,75181256373657","-3","10,4652120049495","-3,3108871540726","2,39715248775961"
"6143","3,85900233304143","4,4148899515826","-3","-4,13881188125321","1,17227821148185","0,400174728319554"
"6151","5,74969353409159","3,47197911314389","-3","2,93260626241504","3,79306955287046","-2,5989596365364"
"6163","3,38383917655913","-0,175396992376075","-3","-1,01237373957751","2,44826738821762","-1,45797666593353"
"6171","3,86482966388721","3,94075079502468","-3","-3,66739291163047","-4,8879331529456","0,582403909882609"
"6183","3,97034699534642","1,64739581904902","-3","2,42814227524702","2,5280167117636","1,88039143660117"
"6192","5,77411977940865","5,21521809264257","-3","-0,182264218074365","-3,8679958220591","-2,17499351667464"
"6204","3,38919768632455","6,07179247006761","-3","-1,72460764928879","-0,716998955514775","-1,33654358807069"
"6212","5,64663009742347","-2,97457093959086","-3","0,419196560686447","0,820750261121306","-2,80997171624307"
"6224","1,58060471588761","2,34058219318521","-3","1,8044003601297","1,95518756528033","2,9087415941995"
"6233","4,46924494173954","2,11361143763326","-3","-3,71877594037098","-4,01120310867992","1,54670492704476"
"6245","2,32231574136425","2,03789851324986","-3","-0,915613715120419","-4,25280077716998","-2,27056855910953"
"6253","2,85133295475263","5,34548201534769","-3","4,01809639186627","0,186799805707505","-4,7910750392363"
"6261","2,96738615356497","2,78240609473586","-3","4,34286864388691","2,79669995142688","3,34131070100971"
"6274","6,55409515445036","1,26099509315107","-3","1,78901781909094","-0,300825012143281","1,67060208667032"
"6282","3,56030485444234","1,75348267888014","-3","-4,72395638401819","1,67479374696418","-0,521503384905829"
"6294","3,90354183785932","1,91776673057391","-3","0,409093154529122","2,91869843674105","1,56420848187565"
"6302","3,97883948199665","5,30540844483122","-3","-1,52545371650114","2,22967460918526","-0,551976817309701"
"6314","2,21473299948395","1,10261843659627","-3","-1,17695927874946","-1,44258134770368","-3,58525480302963"
"6323","6,38898180101554","6,69991111900884","-3","0,603630427296558","3,13935466307408","-4,1676296494849"
"6335","5,30470800764216","5,56705649897069","-3","-1,45993857330634","5,78483866576852","1,80630061691155"
"6343","1,50559552665998","0,189899017259407","-3","-4,48134697550096","-2,55379033355787","2,230941957405"
"6351","9,79466452402216","3,06260626969951","-3","3,1540235097793","-2,38844758338947","-2,07458825622243"
"6364","2,27120505162742","4,68730411789341","-3","-3,26425762287602","0,402888104152633","2,11937134213514"
"6372","7,18199527251253","2,5628510544418","-3","0,90068210299675","3,60072202603816","4,74776888206628"
"6384","2,69805049936952","4,5205957297092","-3","0,303326535380035","0,650180506509539","-3,35371452223316"
"6392","3,71438471108997","2,50724045580773","-3","0,102152564994386","-0,837454873372615","1,75300187962353"
"6405","2,15671821030851","4,50204514137874","-3","1,697628107793","1,54063628165685","2,9292543894936"
"6413","2,8150049814692","0,834632435938242","-3","2,89816893423963","1,13515907041421","-1,16099810882193"
"6425","4,74004161112953","1,61125658659368","-3","2,30248016486886","-2,46621023239645","-2,04611334483689"
"6433","4,16234669506447","1,87032293833537","-3","0,438641774380091","-1,36655255809911","-1,29962951591122"
"6442","5,81623973081925","1,95674231448805","-3","-0,852276747530594","0,658361860475222","0,627757962711851"
"6454","5,17906266443121","0,319150184503196","-3","-1,95025061315471","1,91459046511881","1,89338181948932"
"6462","1,47803206818174","4,10572188531351","-3","-1,32001993297297","2,9786476162797","2,9694622442478"
"6474","6,22736796788893","3,36884680270033","-3","0,555451283456089","-1,25533809593007","2,27767498079614"
"6483","3,48862904847651","1,45662003553401","-3","0,187061686717824","-2,06383452398252","-3,06120290630326"
"6495","2,10719304149882","6,81799900318052","-3","1,72622331316995","2,23404136900437","0,123205196216416"
"6503","6,36539021305117","2,27360843964564","-3","1,24457330812184","1,30851034225109","-3,39186805305338"
"6515","-0,0423421290135888","1,09127032710084","-3","-0,580859763591385","1,07712758556277","2,74207388216858"
"6524","1,5519610115839","1,69686587665511","-3","-3,52207011808496","2,76928189639069","-3,64176734888041"
"6532","5,46296122652923","3,56530040576236","-3","2,47708324935014","3,94232047409767","4,38407565683783"
"6544","7,88218707072244","3,18857295853516","-3","-5,15545942293538","-3,76441988147558","-2,45788413784244"
"6552","6,41290495808537","1,39648427091362","-3","2,926999799131","0,0588950296311047","2,00958710123295"
"6564","0,74870633242992","5,13151899658634","-3","-6,66716487131511","3,51472375740778","-2,13798908054684"
"6573","4,28674715897608","6,04387211832338","-3","1,7546705830006","0,628680939351944","2,10121197308163"
"6585","2,28228027384099","3,68179503904653","-3","0,590927861122114","0,907170234837986","1,31541095622055"
"6593","6,40379999040862","3,89385316144141","-3","6,85191230367973","-0,773207441290504","1,09034052819601"
"6605","1,74670892932615","2,29817161535856","-3","-1,69245240591784","-1,94330186032263","1,02587548363103"
"6614","6,28630897849037","2,76588402639247","-3","-5,55965164597162","5,76417453491934","-0,706167045796096"
"6622","5,28218414795749","2,92190357315598","-3","4,45410402313631","0,191043633729835","4,93847349974192"
"6634","3,28127926288799","6,30678841313966","-3","2,8264790299745","-2,70223909156754","-1,58551424530508"
"6642","7,40358039354069","2,10307876654465","-3","-2,71134041299951","3,82444022710811","-0,454125614720238"
"6654","2,74666075524348","2,70080493691211","-3","0,0868903789975903","-1,04388994322297","-0,130071410304706"
"6663","3,72504859034851","-0,432645341175379","-3","3,35571395144845","1,48902751419426","-3,46441195795442"
"6675","2,15905759978088","3,85493786845168","-3","0,793343787849029","2,87225687854856","6,14845242614264"
"6683","2,81551818524531","-1,71406949046354","-3","-0,732822244682275","0,468064219637141","3,90178495568441"
"6695","6,52077910522818","6,09390020224897","-3","-0,24679565830087","2,61701605490929","-0,168865949525065"
"6704","3,55299614314491","3,03206349863453","-3","-1,74634017636118","2,15425401372732","4,09236816915688"
"6712","2,12131357868641","1,3442758316637","-3","5,40155486975864","-3,21143649656817","-5,25501382399247"
"6724","1,0266131772457","5,11410330087923","-3","-6,17057270043441","-1,55285912414204","-1,21872810300224"
"6732","5,34771299807636","2,7052227630336","-3","-2,40454147313938","-1,13821478103551","-1,06264846533332"
"6745","2,51502975030805","4,56808809664755","-3","-0,473013394434545","0,715446304741122","2,40921281215546"
"6753","1,11298469783986","2,52308296370285","-3","4,16715278077979","1,92886157618528","1,40362906639706"
"6765","5,36666075818238","2,84090997354037","-3","-3,92306177736938","-2,26778460595368","-2,31154858395677"
"6773","6,08043623683524","2,94693073513281","-3","5,66849109562136","-3,06694615148842","0,337922428162684"
"6786","5,23702079672301","4,64871706300892","-3","-2,75422394481093","-2,2667365378721","-1,61679004339664"
"6794","-0,289878271303085","0,883559268316045","-3","1,73567406476559","1,43331586553197","-1,17666202523266"
"6802","3,27828265805854","4,96041742959553","-3","1,2477560778568","2,10832896638299","0,662978514946158"
"6814","6,62229810311239","4,32037612972048","-3","-0,579787888716324","1,27708224159575","0,189891403711925"
"6822","3,5752668824451","2,44045118422446","-3","1,46796812623977","-0,680729439601063","-3,37276767911355"
"6835","3,9068241340994","4,47976557035335","-3","-2,1688518971678","-1,92018235990027","4,46112298754088"
"6843","5,76018444600388","4,16004024069792","-3","-4,72009072503943","0,519954410024934","0,991340575459104"
"6855","1,60551571133027","0,720546411414816","-3","-5,24250801038321","0,129988602506233","-0,716058591362038"
"6863","6,25533470358148","1,57319976060771","-3","-2,75521894249737","0,0324971506265583","-1,91867303171569"
"6876","7,05601407358493","3,52404785201236","-3","7,06179048481929","-1,74187571234336","-1,2631278504688"
"6884","4,45103827248727","4,8412318410666","-3","-2,28499659470997","-6,43546892808584","-1,07536551449979"
"6896","6,66019638158018","0,947778364729249","-3","-4,75920526788536","7,64113276797854","0,691992029231378"
"6904","6,14483064064394","4,98183964136409","-3","4,72367374791997","-1,08971680800537","0,198201502500999"
"6913","6,03177223482978","2,66110223998564","-3","1,25403741573649","1,47757079799866","-1,6568091422116"
"6925","-2,89615451299425","1,22053054273009","-3","-0,577672495893198","-4,13060730050034","2,2390323275405"
"6933","9,04840530282731","1,73998451063031","-3","-1,85777097358747","-0,782651825125084","1,35488569028549"
"6945","3,10749436779512","1,9132640104348","-3","-2,95210092698784","4,30433704371873","-4,03908808708062"
"6954","5,58483140656048","1,97106660105484","-3","1,00580843863105","-2,67391573907032","0,843117703996577"
"6966","5,12829744246419","5,32318822026332","-3","0,338730377711368","0,331521065232421","1,95506551308369"
"6974","6,80877017296475","2,77496932863206","-3","-8,20205310684942","1,83288026630811","2,98712978987516"
"6986","2,61617420955629","2,92493424906749","-3","0,574534001225142","-4,04177993342297","-2,8579996854913"
"6995","3,69642309264121","1,30853964727291","-3","-0,469737500233854","-2,51044498335574","0,181406999093695"
"7003","2,1527778786443","1,76934259538047","-3","2,50503026275225","-3,87761124583894","0,0519588929723719"
"7015","9,93664021075192","0,256637369899575","-3","-6,80927334341622","3,78059718854027","3,44203884143659"
"7023","0,521726070711183","0,752029029178791","-3","3,37003786439992","1,69514929713507","2,41303115204231"
"7035","6,01757825360149","4,25012164798071","-3","1,79816771282122","-4,07621267571623","2,1183010662788"
"7044","7,00385623096633","3,41701568809359","-3","-0,394423425815233","0,980946831070942","2,03388398723317"
"7056","4,43959614106726","4,80552804251481","-3","-0,132831651508557","1,99523670776774","0,296126763062498"
"7064","1,31581153304761","0,935868288502125","-3","1,61849147565201","-7,50119082305807","0,798395462320264"
"7076","2,63053100344169","4,97786667710007","-3","4,53474350950885","-3,12529770576452","-2,48490059470949"
"7085","4,6995726155923","4,32619685122113","-3","-1,47281517751954","-1,28132442644113","-1,42530768636591"
"7093","9,49534353544745","0,775972948008719","-3","-2,15923197451678","1,67966889338972","0,591761013088941"
"7105","3,98616639278626","3,25810886250711","-3","-1,39039947320148","0,419917223347429","-1,54408517571053"
"7113","1,21634034119803","3,08609997681051","-3","0,531749266919816","1,85497930583686","-2,86941612132871"
"7126","4,38933441174877","3,02872123775512","-3","-1,48414629683458","-0,536255173540786","2,89171542929362"
"7134","5,86603518160165","1,34316091998877","-3","-1,1630480036711","-5,3840637933852","1,54182826470816"
"7146","1,62873672598134","1,78089156254507","-3","-1,05491036836375","1,6539840516537","-0,558386996157891"
"7154","4,47980390578698","5,25974961437206","-3","3,97118486661474","-1,33650398708657","1,55364421688557"
"7166","4,10525702502681","4,42022738596004","-3","4,32707005038029","0,665874003228356","-2,26858099622637"
"7175","4,02309076934112","2,47375957496788","-3","-1,5427542499606","1,91646850080709","-3,07692741353453"
"7187","5,78569044957705","1,15803676023471","-3","-2,18278565284641","2,97911712520177","-4,0220336771263"
"7195","3,39173600313441","1,71913782922857","-3","-1,39833174544205","-1,25522071869956","0,134424111676037"
"7203","5,64718694090215","5,23914979863979","-3","-2,79737362772504","-3,81380517967489","-0,675076368065547"
"7216","5,14197669342401","1,08051587163525","-3","2,72114236287261","-2,45345129491872","-0,906934835479215"
"7224","1,46989632995334","0,0268584914649415","-3","-3,41004084437633","-3,86336282372968","4,16739091242939"
"7236","2,66433336963451","0,675379370919878","-3","4,1780375782652","2,03415929406758","-0,806368996374186"
"7244","6,48761292269301","0,891713022309563","-3","1,07028120656042","-8,24146017648311","-0,230961542763879"
"7257","3,54572030886544","4,29671744656174","-3","2,68689465511368","1,18963495587922","-1,77973073205113"
"7265","5,68096726183448","1,76613920563774","-3","3,89455418381542","1,29740873896981","2,20382492230049"
"7273","5,14938725436965","1,92198869587082","-3","-1,68841445444952","3,82435218474245","3,05837987164676"
"7285","3,252146932402","5,30681680838228","-3","-0,568614503441056","0,706088046185613","-4,55117046377716"
"7294","5,61656457594359","1,10308823863215","-3","-0,191494720192344","0,926522011546403","-2,73071046731339"
"7306","6,91588381932849","0,0343881836115578","-3","-1,72771624467217","-6,0183694971134","-0,495712956978329"
"7314","2,63967227537034","0,677891126281227","-3","-2,90830184382585","1,49540762572165","0,858017074284152"
"7326","7,26282780289274","2,55897080688185","-3","2,68378459662657","-1,37614809356959","3,67291136003579"
"7335","4,49640805297277","3,85288144339025","-3","1,56705528656746","-4,5940370233924","4,19273638564482"
"7347","4,88952447128457","3,28450426608653","-3","-2,13548189354183","1,8514907441519","-0,0855311593295467"
"7355","3,19513951096832","-0,237934868167721","-3","5,27050196168873","-1,28712731396202","-2,73807632088978"
"7367","5,60405856773443","2,253469491977","-3","-4,55148218980349","-2,82178182849051","-3,2114010416034"
"7375","5,13251540267767","3,75097228818577","-3","0,467178021098074","-0,455445457122627","-2,34697149162796"
"7384","6,80969548836631","3,25050940122736","-3","-1,50589222940625","4,38613863571934","-2,09938014899111"
"7396","2,61637720070581","4,74998486085598","-3","-1,17037147369857","2,59653465892984","-2,0284646267829"
"7404","3,69646762384291","0,917340189132134","-3","-1,05737672445431","3,89913366473246","6,55973883773125"
"7416","3,93341255765475","3,30526615909997","-3","-1,01932300306876","-2,02521658381689","-2,83472708808833"
"7425","3,98539237384092","3,10183071191062","-3","2,3199440198755","-2,25630414595422","0,188072774966131"
"7437","2,21617054072222","3,03396869773839","-3","-3,54515411350495","-1,31407603648856","-3,37328857376938"
"7445","8,16992207172817","1,34491136814651","-3","4,13253490904118","-1,07851900912214","1,03381710272997"
"7453","-0,646472790061663","5,11431530319446","-3","2,71818283430327","4,23037024771947","2,00968595054304"
"7466","8,54192943332533","2,70529348278436","-3","2,24186548192066","-0,942407438070134","-2,13796076796382"
"7474","4,77701108830123","6,23453160034848","-3","-6,23467470901336","1,51439814048247","2,10122008241852"
"7486","3,17045687744723","2,07897533264745","-3","-0,762903623868549","-0,621400464879383","-0,398165065740414"
"7495","3,8180189028096","2,69276451133569","-3","-0,920152046894425","-0,155350116219846","-0,114043097231647"
"7506","5,74070279039491","1,23109244596165","-3","-0,973109265864041","-0,0388375290549614","-0,032664412690254"
"7515","5,16249174132534","5,07634757722982","-3","-2,65416964813339","5,24029061773626","-0,00935579515375646"
"7527","5,03564664038172","2,69262820545389","-3","1,1061440201815","0,0600726544340651","-1,71625804698571"
"7536","1,44657016499472","1,23104697703374","-3","3,6989723271008","-2,73498183639148","3,93558321847705"
"7547","8,00109092001896","0,0770726706999276","-3","2,57217012303385","-1,43374545909787","2,5543929495026"
"7556","1,09711477080702","2,35854973419802","-3","0,529466406472587","0,641563635225532","-1,26836654299079"
"7565","4,36317929151085","3,78602496452781","-3","-0,821689350614279","3,66039090880638","-2,0768659894838"
"7576","4,07967248977075","4,92862218905143","-3","-0,276723810822074","-1,0849022727984","-3,02201608394802"
"7584","7,57872797956419","2,64334995761328","-3","1,57003230231249","-0,271225568199601","2,84800749539395"
"7596","6,34633359264335","2,8810286478322","-3","1,19197219833708","-0,0678063920499003","1,52930936592872"
"7605","2,514727143117","4,62673343899372","-3","1,0646512921897","5,23304840198753","1,15160566478121"
"7617","1,89354322333415","5,87548570810545","-3","1,02177289012682","-1,69173789950312","1,04342314546697"
"7625","6,31852076495727","1,95920477267615","-3","1,00733254863775","-0,42293447487578","1,01243732920513"
"7637","7,06987552148763","0,986391524520137","-3","7,65537243282971","-3,60573361871895","-0,710016024231605"
"7646","0,892829308920675","4,99472022256646","-1,17157287525381","5,89426104672671","-2,40143340467974","-0,203363964984972"
"7654","6,09898905989261","4,33181885838406","-3,68629150101524","-6,34141619476831","3,14964164883007","-1,77182618814006"
"7666","7,02171573392553","2,44426825064757","-3,11774900609144","-0,135625652338355","5,03741041220752","-1,22106773444905"
"7675","2,66288916116268","2,81461895470253","-3,02020253553339","4,94400203778004","-5,24064739694812","-1,06331858644522"
"7687","7,26792100930356","1,27174066178126","-3,00346620710888","1,99146406406923","-4,56016184923703","-1,01813581434402"
"7695","6,27815028556174","1,75706718659866","-3,0005947071199","1,99712531662005","-3,39004046230926","-1,00519448996552"
"7707","6,06101924393584","5,25180227697115","-3,00010203561049","0,335806125850344","3,90248988442269","0,712090530236041"
"7715","4,23276119215767","2,75115639945811","-3,00001750654307","0,776316609382894","1,72562247110567","0,203958148428795"
"7728","3,05106200748413","-0,415849095918723","-3,00000300364793","-0,73855655985768","1,18140561777642","-3,36873865880636"
"7736","3,79182664246281","2,19412084840534","-3,00000051534451","6,40417619133135","-0,704648595555896","2,74869864155603"
"7744","3,95433195094928","2,0647548494995","-3,00000008841914","4,80966462210512","-0,176162148888974","1,50086515962162"
"7756","5,77060647760226","3,68802084133002","-3,00000001517033","-4,04345458216631","1,70595946277776","-0,570119716525028"
"7765","3,38842695542449","-0,103329773892186","-3,00000000260282","-3,68818287445998","-4,07351013430556","-1,87687297760506"
"7777","5,64646101826289","3,96479098403636","-3,00000000044657","-2,56853651326488","6,23162246642361","-1,25115540977674"
"7785","1,58056762413153","3,32183506039135","-3,00000000007662","-2,19146845510963","0,307905616605903","0,641641996432466"
"7793","2,68861189475814","3,10735776744489","-3,00000000001315","-2,06448164444451","0,826976404151476","0,183780162759841"
"7806","4,71231411635363","4,70223232640468","-3,00000000000226","2,96796150733727","0,956744101037869","0,0526386184380444"
"7818","5,93688888337589","4,23425072053606","-3,00000000000039","-1,66369275848007","-0,760813974740533","0,0150768402283269"
"7826","1,64428026318674","2,41172146273583","-3,00000000000007","-1,22351462776574","-0,190203493685133","0,00431833353563487"
"7838","8,04446359060887","2,80376199435938","-3,00000000000001","2,25117753959696","1,70244912657872","3,42839355354095"
"7846","6,44850438424456","2,93453890900576","-3","1,42136437147862","4,67561228164468","-4,44519053250713"
"7855","4,3177657796966","-0,354676342429598","-3","-2,18454684149984","-0,0810969295888302","4,15395785863743"
"7867","3,0697098965281","5,5473666868369","-3","1,92752664122708","-2,77027423239721","0,903361830772985"
"7875","2,01529261482655","4,51617071401545","-3","1,31236708447965","-1,4425685580993","0,972320735600069"
"7887","4,56460463870245","0,839344445687316","-3","-0,558028565730871","0,639357860475175","-2,4350846300296"
"7895","4,12386019344441","1,61282841921572","-3","-0,187929649010519","0,159839465118794","-1,41103931529947"
"7908","4,0271718410875","3,5372671833985","-3","-0,0632898656916606","0,0399598662796984","-1,11773056110173"
"7916","5,78658573505881","6,51206145978079","-3","-1,68454015156984","-1,74001003343008","0,679857762454697"
"7928","6,95318222641571","2,17155376730189","-3","-1,23053549283742","-1,18500250835752","0,194725985724371"
"7937","4,42847952675699","-2,27561290537896","-3","-2,7408641714108","7,70374937291062","6,91008711777335"
"7945","4,87462264473065","-0,759099150953902","-3","1,07694753754388","1,42593734322765","-0,307223064468558"
"7957","6,75312024137464","4,74603937818438","-3","-2,96376331559829","-3,39351566419309","0,625583005964081"
"7965","4,38459091077784","3,58244396767961","-3","-3,98779641796294","0,151621083951729","2,60633720942797"
"7978","4,86499457564911","4,86071162241132","-3","-1,66943863822252","1,78790527098793","-2,96706692672773"
"7986","1,40913335293089","0,954276431884958","-3","1,43777606274538","-0,553023682253017","3,57732446861569"
"7994","2,65100348607997","1,65116744117057","-3","-2,84224556138567","-1,88825592056325","2,45177988532392"
"8006","6,4846886782882","1,88363640467736","-3","-2,28364661318828","-4,72206398014081","-1,29775714669331"
"8018","7,10632862243402","1,96118342174868","-3","1,23092663559536","1,8194840049648","-0,371705750197332"
"8027","4,46207603117066","1,98705156244989","-3","2,0777701433936","-1,2951289987588","-1,82004292092505"
"8035","3,10136797093689","3,66210057207585","-3","1,36296522651434","0,6762177503103","0,478700293781803"
"8043","3,8028625177241","3,2208635664356","-3","-3,86743992428835","0,169054437577575","-1,57646821408946"
"8055","2,17612803710417","-0,259164138294","-3","2,3607715935595","1,79226360939439","3,97562205381621"
"8068","4,59988792394396","7,2456475692023","-3","-1,86817868337091","1,1980659023486","0,852282594348035"
"8076","2,3509755573466","0,749843572504151","-3","-1,29238022076991","-0,70048352441285","0,957690536149254"
"8088","6,41887002441202","3,24939262315305","-3","-4,42491763780261","-1,92512088110321","-2,4392750359744"
"8092","5,31126473934048","3,08319241292847","-3","-1,81664980708433","0,518719779724197","3,72849549564522"
"8109","3,28765882024064","-0,305088493658252","-3","-1,938252377178","-1,62032005506895","-2,64565649282541"
"8117","0,282480269612973","2,23106837974353","-3","1,34724651871578","2,34491998623276","1,95580503248988"
"8125","5,18446877447318","0,410659897217397","-3","-2,87273358024235","-0,413770003441809","1,27376325959698"
"8138","4,25984294403296","5,80266761624235","-3","-2,29391419272564","1,64655749913955","-0,635166618663064"
"8145","4,05700306923983","4,60133402025762","-3","-0,435756975577364","1,16163937478489","3,24523121496121"
"8158","2,23188014347217","2,53417314179308","-3","0,853248273469867","1,04040984369622","-2,78407384807013"
"8166","4,61211854729758","2,84460943611255","-3","-1,37587371157893","-0,739897539075945","0,202580959820952"
"8178","5,91490847139402","2,9481648021795","-3","-1,1265845854984","-1,93497438476899","-1,65555477079649"
"8186","5,20070812827755","1,31628889720107","-3","0,620595326592144","-1,23374359619225","0,525813262026976"
"8195","5,04403036370982","1,77192759084569","-3","3,53545203232117","5,94156410095194","0,150604304914402"
"8207","5,00965916500272","3,5903394989124","-3","0,853874944364276","0,235391025237984","1,75671467896698"
"8215","3,22149407021798","1,53050558840622","-3","-5,70211417461","-0,941152243690504","-0,496838873673796"
"8228","3,82921519156835","3,50980592633501","-3","-2,24677670670871","1,51471193907737","-3,56946210194087"
"8236","2,18190915730117","4,83648101826011","-3","-2,08310803912878","-4,12132201523066","0,977628756055367"
"8244","2,82053124773356","4,27903341084478","-3","-0,364762892321379","-0,780330503807664","1,99359239127715"
"8256","2,96062902631471","2,4266600764651","-3","0,877157252270345","4,30491737404808","1,28458637745211"
"8268","4,77198789907745","2,80874521842684","-3","0,295403971533778","-0,923770656487979","2,79509004597037"
"8277","2,38873000488497","1,2697813003234","-3","1,76271020435946","1,51905733587801","-1,19942568218271"
"8289","2,86590258979149","1,75641358263309","-3","4,5833126630095","-5,8702356660305","-2,05711983400994"
"8293","2,97058236856326","1,91874442170281","-3","0,206767417313721","3,28244108349238","-1,30278201275975"
"8305","6,55479632440336","3,63931467012274","-3","-2,59359181393149","1,57061027087309","2,34043336399667"
"8318","3,5604586736639","3,21326264327971","-3","-1,53668068025503","4,64265256771827","-0,329649201649253"
"8326","0,342325762016761","1,4047202580987","-3","7,13538854312797","1,66066314192957","-0,0944186700209668"
"8338","3,41697247478283","5,13426635790807","-3","1,7294666002961","-3,33483421451761","-3,45420024106461"
"8346","3,09147337419382","4,37836867035178","-3","-3,08078594595287","3,6662914463706","-2,41651444025513"
"8358","6,58131679964689","4,1262162539739","-3","6,61537365780069","0,666572861592649","4,73501462314787"
"8367","7,12752642525612","4,04210322898139","-3","-0,108886775014401","-0,833356784601838","-0,643789273534665"
"8379","2,68610139109903","0,681204972785933","-3","0,626555493359157","-1,95833919615046","1,52918315522872"
"8387","7,27301319433555","1,56007624008719","-3","-0,788992246663252","4,01041520096239","-2,27558717399773"
"8395","6,27926738411156","1,85325019389506","-3","4,72396499615323","-2,7473961997594","3,77537924403317"
"8408","2,50001448758264","1,95104718691233","-3","-1,40909025418385","0,313150950060149","-0,918649627352486"
"8416","0,10969072322771","5,31651014235198","-3","-0,474545306737267","-3,42171226248496","1,45045719769831"
"8428","6,92718796215344","-0,560098171179237","-3","-1,82304039230239","-2,35542806562124","-4,01171433772321"
"8436","8,98402685264244","2,14600222933032","-3","2,04927270278172","1,41114298359469","-0,862620206050018"
"8445","7,4352460694123","2,04870343636215","-3","-3,63630924200993","2,10278574589867","0,752926892645367"
"8457","-0,0270174942355279","-1,31659332946177","-3","0,775384699796513","-0,474303563525332","-1,49792377770214"
"8469","5,89719758464016","4,56007042161591","-3","-1,40209615782946","-0,118575890881333","-2,85619449729791"
"8477","5,19682280090148","1,85398851396794","-3","3,85426163443167","-5,27964397272033","1,18192404408426"
"8489","5,04317801966692","5,28413330178712","-3","5,95091907194258","-3,56991099318008","-1,37504970344686"
"8494","5,00947218195157","4,42836129852933","-3","2,99379354302818","0,357522251704979","2,31973433240179"
"8506","5,00207796076837","-0,856366939770259","-3","-3,65499319415891","4,58938056292624","-0,335577852542786"
"8518","3,21983094285656","3,71359278072876","-3","1,43231818073889","0,897345140731561","-1,80969510867454"
"8527","2,04822543287964","3,23804034187784","-3","1,14559362899409","-0,77566371481711","5,62239916524782"
"8539","2,79120436865358","1,41298560495272","-3","-2,27741932514162","5,05608407129572","-4,81677981335631"
"8547","2,95419543957636","1,80418368703007","-3","0,233023825826771","-1,73597898217607","2,33394829705587"
"8559","2,98995162043347","0,268259664283211","-3","-3,24797508659773","-0,433994745544017","-0,331506665257488"
"8567","1,21717072585391","5,75516573415139","-3","0,906165641861418","3,391501313614","-3,52210737712371"
"8580","5,38951657745741","2,91906842529675","-3","5,29485051451483","-1,1521246715965","-4,14954285922587"
"8588","4,30482532427224","4,63942275126979","-3","0,446395040168402","4,96196883210088","3,52505940996816"
"8596","4,06687108295441","4,21329869699815","-3","-5,83934291176985","-0,00950779197478147","1,7232316960585"
"8608","7,5759196697914","0,738312371900915","-3","4,35991120821487","4,24762305200631","1,20714921958619"
"8617","-0,776782120462162","1,57912613125229","-3","-0,531694193820159","-3,68809423699842","-0,654246322272463"
"8629","4,95209299228936","5,19244468424789","-3","-0,179060910788111","5,32797644075039","1,52618803001917"
"8637","4,20886548589654","4,39777580151372","-3","-0,060303103071148","-1,6680058898124","-2,27644504271823"
"8645","4,04581988477186","4,13269008647531","-3","-1,68353428684279","-0,4170014724531","3,77513353185417"
"8658","4,01005174134681","2,37784285759011","-3","-2,89342249832748","-3,60425036811328","0,794858340009128"
"8670","2,2215801916888","1,12604085330711","-3","-0,637655932673013","4,59893740797168","-4,19949204778768"
"8678","4,60985899444784","3,37488454481235","-3","-5,8676491147048","4,39973435199292","2,51075288069693"
"8690","4,13378787181012","-0,207785806927308","-3","5,35037840808766","-5,40006641200177","-1,99444434838833"
"8694","4,02934972642272","0,597106705448213","-3","3,12832115943684","-2,85001660300044","-2,99840874106884"
"8707","2,22581368890215","2,53202273275215","-3","0,716763751960913","3,03749584924989","2,8547691496198"
"8719","6,39141262825421","2,17747218947727","-3","2,56783908118448","-0,240626037687528","-0,182332294525675"
"8727","1,74399145063834","5,3920410144065","-3","2,19123357794719","-0,0601565094218819","1,66135442702898"
"8739","2,72446301141045","1,13151733669219","-3","-4,58850047543159","-0,0150391273554705","-2,23773045953907"
"8744","2,93955404832269","1,71029147761607","-3","2,11793697072222","1,74624021816113","0,359065537553184"
"8760","4,76736457388316","5,23619883189927","-3","-1,94995913017947","2,93656005454028","0,102844145644883"
"8768","4,16834067247833","4,41237131389386","-3","-1,319921769014","-3,01585998636493","-1,68412155421207"
"8780","7,5981795701281","4,13755885876488","-3","-4,43419292192348","-1,50396499659123","0,51763111663308"
"8789","2,78935096712631","4,04588689607437","-3","-0,156547729068675","-4,62599124914781","-1,56531758336429"
"8797","3,73441375942353","4,01530695478463","-3","-0,715946998115333","-3,40649781228695","2,26523749127604"
"8809","3,94173699456389","4,00510609530876","-3","7,41179050942088","2,14837554692826","-2,06476527264"
"8817","7,54846836788541","2,335283378717","-3","1,82255166385949","2,28709388673207","-1,30497183194804"
"8829","0,997820657684954","-0,55457605435836","-3","-1,38621153910992","-3,92822652831698","0,626227807709185"
"8838","6,12202154647972","5,48068412354049","-3","-0,466840344737654","1,01794336792075","0,179365205309852"
"8846","5,24614357777002","4,49392673874968","-3","-0,157219804716609","0,254485841980188","0,0513740790169216"
"8858","3,27337285955853","0,831924298482939","-3","1,61027817376414","0,0636214604950471","3,4418713380554"
"8870","7,40184592559851","3,27677311886605","-3","-8,77382855762887","-1,73409463487624","-1,01417351385473"
"8879","2,74628025618251","6,42516582707116","-3","5,37165201985163","-2,93352365871906","-2,00405960130039"
"8887","9,06683984825497","2,14256711458272","-3","4,79871131880507","-2,23338091467977","0,425993931576808"
"8895","7,45341317778011","2,71397746348612","-3","0,279308137031143","-0,308345228669941","0,122013887051002"
"8907","3,53821773674631","4,57100849038615","-3","-0,905936212979893","-2,57708630716749","1,74852576415542"
"8920","4,67932138440042","-0,8087826771004","-3","1,35812977052057","1,35572842320813","1,21439398844102"
"8928","6,71027600980752","3,72946594320998","-3","6,11028614761479","-3,16106789419797","2,77498542571689"
"8940","6,15581686359478","3,24333531279929","-3","-0,278987240004954","-0,540266973549492","-1,20518408079588"
"8944","6,03418233847866","3,08117181481368","-3","0,56927003765792","0,864933256612627","-0,345190819422227"
"8960","4,22687384360698","1,36065738804715","-3","-0,808284512766585","-1,53376668584684","-1,81244847056097"
"8969","8,39164519978802","0,120308122881844","-3","-1,93543516149847","4,11655832853829","2,19445385347721"
"8977","3,74404247103951","4,03939213309866","-3","3,67464679404826","-0,970860417865428","-2,08503923934998"
"8989","4,72447420401555","3,34672051818583","-3","-5,75215086411968","-1,99271510446636","0,402799609597053"
"8997","4,93955650370144","3,115659060621","-3","1,06282373459907","-1,24817877611659","0,115370530954855"
"9010","3,20611529258395","4,70500147250458","-3","2,02115741579872","0,687955305970853","3,46020130775595"
"9018","3,8258414708404","2,56875453953266","-3","4,67035102755974","0,171988826492713","-4,43608010289192"
"9030","2,18116904701276","2,85614510177909","-3","-1,42714605798779","-1,70700279337682","-0,984167750983228"
"9039","4,60099379594648","2,95201287053614","-3","-2,14385179125864","0,573249301655795","-2,70904364567938"
"9047","4,13184306809078","2,98399244917858","-3","1,94123168605445","1,89331232541395","1,22407123459091"
"9059","5,80954799490578","1,32824028680402","-3","2,98020834543074","1,22332808135349","0,350600509277036"
"9067","5,17759466426277","1,77591433642921","-3","-0,996342584001102","-4,19416797966163","1,81399792288411"
"9079","5,03895984546077","3,591669397851","-3","-0,335542521663424","-0,798541994915407","-2,19401005677793"
"9088","5,00854681960535","3,19736912921018","-3","1,55022367536669","-0,949635498728852","0,371588007684569"
"9096","5,00187495932036","3,06583841129298","-3","-0,477924591874812","-2,73740887468221","0,106430852268977"
"9108","-0,341463410552513","6,35480220896768","-3","3,16549881596894","-0,434352218670554","5,17121913483911"
"9120","1,48634125351762","5,45193503873479","-3","-2,59716728047159","-0,858588054667638","-3,23242919987587"
"9129","5,44856588619596","0,151496790538387","-3","-4,86433631494873","4,28535298633309","0,0741622777720161"
"9141","4,31777927169273","6,38263587756958","-3","6,35149407372493","-2,67866175341673","0,0212416823639383"
"9145","4,06971285633597","5,46121979632854","-3","-0,860980377583058","-1,41966543835418","0,00608407782508404"
"9157","4,01529326413467","0,154594000784279","-3","3,03649549287684","0,645083640411455","0,00174261164193477"
"9170","4,00335496119633","1,38440930623189","-3","0,685839232417409","0,161270910102864","0,000499121711113985"
"9178","4,00073599491448","5,12749102881729","-3","2,55742449945779","0,0403177275257159","0,000142959266718062"
"9190","0,438911639002481","-0,623151183516741","-3","-6,1284025590739","0,010079431881429","1,71361929128048"
"9194","1,65753610026774","0,458549086988856","-3","2,59933760885902","0,00251985797035724","4,6315527079991"
"9210","3,70549686113968","4,15222258333233","-3","-5,11428730329233","-1,74937003550741","-5,10057969583851"
"9219","4,9353933473996","3,38435850959099","-3","-2,04881175582669","-1,18734250887685","0,53908352027671"
"9227","7,76645181974358","3,12821434506843","-3","4,63646447707278","0,703164372780787","0,154405194249204"
"9239","1,0456407970605","4,70918966538286","-3","-0,438558175449651","0,175791093195197","3,47138168063272"
"9247","2,57126227391214","4,23657155027769","-3","-1,81092085332696","-1,7060522267012","2,42143557661751"
"9260","6,46719544269011","2,41249564532296","-3","5,37980576102055","2,3234869433247","0,407129930827229"
"9268","1,76061631237763","6,13686007225479","-3","0,475005779184085","1,33087173583118","0,830189173380458"
"9276","6,28935991189932","3,71281396880889","-3","-0,840030287261162","-0,667282066042206","0,951362501943391"
"9288","5,28285344674874","2,23778054572986","-3","-3,60935207556565","-3,66682051651055","0,986069167294576"
"9296","6,84267591031872","4,41215868113204","-3","-2,54198833047064","-2,41670512912764","-2,43114678146521"
"9309","4,40423719371478","2,47106801570938","-3","-2,18252771088831","-2,10417628228191","2,01724525910618"
"9321","4,86930448073708","4,48997873566374","-3","-2,06147063205807","-0,276044070570477","-2,13579561829186"
"9329","6,75195356866978","0,830607323270059","-3","-0,357475970887579","0,930988982357381","3,81541857282231"
"9338","2,60371006187411","3,27633380215996","-3","-0,783614455088385","1,98274724558935","-2,62075984117229"
"9346","5,4743136790954","-0,240660372235173","-3","4,06255034302731","-2,25431318860266","-1,4642207166323"
"9358","3,32342769607801","5,58540014409371","-3","-2,29506342956276","2,18642170284933","0,580615478545383"
"9366","3,85157688991806","2,86243800499576","-3","8,54321051999981","-0,453394574287667","-3,26085584281491"
"9378","3,96743966686385","4,62053197073896","-3","-3,78609248057382","-1,86334864357192","2,77959861629606"
"9387","5,77348198396105","2,54057719578486","-3","3,05139307233769","0,534162839107021","-0,203862763113754"
"9395","1,60843285991675","4,5131656140006","-3","-0,972369401328972","-1,61645929022324","1,65518763457553"
"9407","4,47534974334118","0,838342004162918","-1,17157287525381","-3,65392048081306","0,595885177444189","-3,95307510709245"
"9415","7,66552971268742","3,27891393768512","-3,68629150101524","-4,22022357633078","0,148971294361047","-0,845824660544342"
"9428","1,02350100073945","1,4266202225981","-3,11774900609144","-0,0844883642159431","0,0372428235902618","2,47131584524226"
"9440","4,34703026407513","1,80873192397042","-3,02020253553339","-2,35490501473346","1,75931070589757","-0,292161624714664"
"9448","4,0761297954232","1,93619677855779","-3,00346620710888","2,87015439602681","-2,31017232352561","-0,083681416180326"
"9456","2,23607607075055","3,64513642884077","-3,0005947071199","-1,69663167456447","0,422456919118598","-1,73754651439501"
"9464","4,61303902922201","3,21520466605937","-3,00010203561049","0,428618148457286","-1,64438577022035","0,502329051100509"
"9477","4,13448549222499","1,4053680782265","-3,00001750654307","1,80757330823958","-2,91109644255509","-1,56970042630439"
"9485","5,81012767693811","3,46806254480233","-3,00000300364793","-0,391255863517787","-0,477774110638772","0,550403805495334"
"9493","5,17772183206079","4,82255625741677","-3,00000051534451","1,53146085671747","0,880556472340307","-1,55593077557011"
"9505","1,47773792295977","0,941548561910571","-3,00000008841914","1,17898232886148","-5,02986088191492","-1,15923061299843"
"9514","6,22730343975438","-0,0194982358031279","-3,00000001517033","-3,92940062577064","-0,00746522047873066","2,38154959354402"
"9526","1,70798998263711","3,99275551580542","-3,00000000260282","-2,64977243938552","-0,751866305119683","-2,03145096777124"
"9534","6,27781500607475","4,9975833843321","-3,00000000044657","-2,21882662281006","-2,68796657627992","-3,00900823825138"
"9542","1,71907096204599","0,999934126134291","-3,00000000007662","2,91598209375154","4,82800835593002","1,13815487944025"
"9555","2,71899607698201","3,33281785179079","-3,00000000001315","1,64525342339342","-4,29299791101749","-1,38758614003746"
"9563","1,15772982911622","3,11102140795542","-3,00000000000226","2,88053048943464","0,926750522245626","0,602565280830672"
"9575","7,15710163535843","4,70345444392492","-3,00000000000039","5,62299150058209","-3,26831236943859","0,17258774519156"
"9583","3,69258945547776","2,56823848160446","-1,17157287525388","-3,76954703658608","2,93292190764035","3,4765895569721"
"9595","5,71318669409458","2,8559729551305","-3,68629150101525","-3,59593786754926","3,23323047691009","-4,43138615342315"
"9604","3,37583048524822","2,95195544584213","-3,11774900609144","0,788980738957214","-2,94169238077248","0,730755042444405"
"9612","5,64369766648396","1,31755338044383","-3,02020253553339","0,265708392820519","-4,98542309519312","0,209304068911802"
"9624","1,57996141358626","3,43876931027614","-3,00346620710888","5,07916100790175","-3,49635577379828","-1,65362912676159"
"9632","6,24972872721333","3,1463647046947","-3,0005947071199","-2,95269514026205","2,12591105655043","-1,1872135364716"
"9645","5,27415935204041","1,38240443792542","-3,00010203561049","0,00560832290415014","-1,21852223586239","2,37353467828133"
"9653","5,06014373253532","0,127562505672224","-3,00001750654307","3,32834024836125","0,695369441034402","-2,03374661306827"
"9665","1,45194421679129","5,70823196374133","-3,00000300364793","4,11057653930268","-3,3261576397414","-1,29608741612678"
"9673","4,4410200331675","4,56983216708046","-3,00000051534451","0,0475620660850469","-0,58153940993535","-2,7983841925058"
"9685","5,87737371945343","-0,809175075131052","-3,00000008841914","-2,64720807591946","0,854615147516163","-0,515096177371595"
"9694","5,19247393869148","2,06291513404046","-3,00000001517033","-4,88118876606368","0,213653786879041","0,852465300213112"
"9702","3,26159907765402","5,35382706188746","-3,00000000260282","1,35614133774857","-1,69658655328024","-3,18299216688641"
"9714","3,83801323118512","1,11876992308629","-3,00000000044657","-4,53296378910086","-1,17414663832006","4,51547880389774"
"9723","3,96446413800823","3,37245910727671","-3,00000000007662","3,13664029634082","0,706463340419985","1,0069092583579"
"9735","3,99220431707641","3,12424494140919","-3,00000000001315","3,38279117783652","-3,323384164895","2,71555730586677"
"9743","3,99828982135682","3,04144563836455","-3,00000000000226","-2,52398880932118","1,16915395877625","2,20495110804367"
"9755","5,78024973938026","1,34740552665108","-3,00000000000039","-1,51324018091543","2,04228848969406","0,345124090980888"
"9764","1,60991753687111","1,78230747880476","-3,00000000000007","-4,49929758417016","-2,23942787757648","-2,61472733121098"
"9775","4,47567544448171","1,92738210984051","-3,00000000000001","-5,16815056702698","5,69014303060588","1,96466381415806"
"9784","4,1043513434563","5,30861594388351","-3","0,596274239010627","1,92253575765147","-0,437277738143905"
"9792","4,02289208536505","-0,562731518591142","-3","1,20080980676055","-3,26936606058713","-3,55240250290792"
"9804","5,78564686326191","2,14512379707155","-3","3,73085332591992","0,182658484853217","-2,44464169465134"
"9813","6,95297626133074","2,04841040885285","-3","-2,40677044212615","1,7956646212133","3,01338002373261"
"9825","-0,913440386774278","3,68256866139715","-3","-1,47376405378258","1,19891615530333","-0,136902705405877"
"9833","4,92211357281436","1,56127140045179","-3","2,16689997804447","-0,700270961174169","1,67436644514651"
"9845","5,98291365802435","3,52006878859378","-3","1,39298185930152","-1,92506774029354","-0,520425191119751"
"9854","3,43500186224274","-0,159355234255714","-3","-0,530879585790221","0,518733064926614","-0,149061044726015"
"9862","3,87605348266502","3,94610200609409","-3","1,48443918304054","0,129683266231654","-0,0426943111785268"
"9874","5,75343413157531","1,64918087650311","-3","-0,50007911462222","0,0324208165579134","-1,72580691993242"
"9882","1,6040348604948","3,54939363926308","-3","-0,168413766355054","-1,74189479586052","2,21926986983028"
"9895","6,25500984179613","4,84968669098277","-3","4,93295984543133","0,56452630103487","-2,07793139486696"
"9903","1,71406807707931","4,2834385603005","-3","5,31419684772442","5,39113157525872","2,11841379483051"
"9915","4,49852347861613","2,42812954660378","-3","1,11613614175623","-1,65221710618532","3,03391627513155"
"9923","5,88998854297552","1,14281549140322","-3","-1,62411409334667","6,58694572345367","2,2961360110158"
"9935","1,63399149678916","1,71406031704751","-3","-2,21018555269037","-0,603263569136583","-1,34233692281763"
"9944","6,26158158158008","1,90461621568405","-3","1,91889218361861","-1,15081589228415","1,3291039811807"
"9952","5,27675957303418","1,96818186892953","-3","1,30945922153605","1,46229602692896","1,09426250707183"
"9964","3,28008924627584","3,65580601806967","-3","6,09389516021824","-2,38442599326776","-2,40015786598843"
"9972","3,84206951359113","4,88518374156291","-3","-0,284507302413112","3,90389350168306","3,73969950022518"
"9985","5,74597889530029","0,962439843520612","-3","-2,75904048684142","-4,52402662457923","0,784709266014251"
"9993","3,38302427733987","1,65389059273421","-3","1,73405197745891","0,868993343855192","-2,4888206177109"
"10005","2,08402598532355","6,88380453281384","-3","1,24720980062849","0,217248335963798","-1,42643046584298"
"10013","6,36030793801708","0,629139940945459","-3","1,08325389400671","-3,44568791600905","0,591439424732527"
"10025","3,51779276639141","1,5427083822362","-3","-2,29841374233646","4,63857802099774","1,88297940372141"
"10034","2,11359083474189","1,84745662236213","-3","3,55240495647158","0,909644505249434","-0,460673922197404"
"10042","8,14741863949391","5,28195439281698","-3","2,52281000742281","2,72741112631236","-1,84552533202271"
"10054","2,90984033741419","2,76121454488518","-3","0,512843190795889","-4,81814721842191","3,89855826871424"
"10063","3,7608461258776","2,92034592710854","-3","-0,827287621526193","-0,954536804605478","2,54378820210231"
"10075","3,94753559733435","4,63984890043531","-3","-3,60506067393123","0,761365798848631","2,15575271700558"
"10083","3,98849061694207","2,54702093887354","-3","0,785908412724041","8,94034144971216","2,0446109510299"
"10095","0,436225308107382","1,18247529238008","-3","1,92789946729666","-1,01491463757196","-8,26869252546328"
"10103","10,5600713360561","1,72729003690776","-3","1,31249264269781","0,49627134060701","1,63166739928211"
"10116","2,43911623992383","1,90902938678601","-3","-0,557986280956723","0,874067835151752","0,467344877481931"
"10124","5,43820589458735","0,303234101929341","-3","-3,51436691823613","2,71851695878794","-1,57972065122325"
"10132","3,31550654760092","2,4339926841035","-3","-2,50999977580809","-3,07037076030302","2,26111214073776"
"10144","7,41108900720594","2,14477131732047","-3","2,81792247493519","1,98240730992425","-2,06594686237007"
"10153","0,967683048068189","2,04829282862682","-3","-0,0509962855399292","1,24560182748106","2,12184642446686"
"10165","6,11541010565688","3,68252943897512","-3","-3,34362574521798","-0,688599543129735","1,32132110994353"
"10173","-0,097181537577903","3,22767822963316","-3","-2,45249854614449","1,57785011421757","-0,621545020441949"
"10185","5,10118043134127","3,07594892364896","-3","1,17406165332757","-0,605537471445609","-1,89160229827978"
"10194","2,46094664628621","3,02533504855835","-3","-2,93105778255932","3,3486156321386","2,17178248311475"
"10206","6,4429949419484","3,00845126770224","-3","-5,64000779158493","-1,16284609196535","-0,377954466127576"
"10214","1,75530732534875","1,33639926161505","-3","3,76381638802791","3,20928847700866","-0,108254343834936"
"10222","6,28819525239191","6,77789574695746","-3","1,93078217788246","-1,19767788074783","1,6825719562907"
"10235","3,50197303949038","0,593810878945459","-3","-0,34976228944485","4,95058052981304","-2,2316532996855"
"10243","5,67137020067693","3,19734322366095","-3","-3,44424244066724","-3,51235486754674","2,07438451238893"
"10255","3,36665698824016","3,06582976971762","-3","-0,823157902982234","-3,37808871688668","-0,405851354130534"
"10263","2,08043540980382","3,02195950030957","-3","2,38600737338696","-5,84452217922167","-3,54340130597716"
"10275","2,79827043524106","3,00732525202374","-3","-3,52290567749235","-2,71113054480542","-4,15564190157697"
"10284","6,51699537851826","1,33602364520705","-3","0,813576099637162","-1,17778263620135","0,0961558228605912"
"10296","5,33279099773136","8,44419036180373","-3","0,273991476848333","-3,54444565905034","1,02754110995521"
"10304","5,07300605508714","0,149653581532971","-3","1,75549902762444","2,11388858523742","-4,84642500829912"
"10312","8,57726552985532","-0,283658632252096","-3","1,25443261475923","-1,22152785369065","5,03903561589786"
"10325","2,00413803768459","3,9046368677761","-3","1,08568635178363","-1,05538196342266","-2,27028942218093"
"10333","1,78153269236366","1,63534893205555","-3","-2,29759455320471","-2,76384549085567","0,349739945576847"
"10345","6,29394844464177","3,54477957803089","-3","-1,43699642619968","3,05903862728608","5,24090812810589"
"10353","5,2838600565322","-0,151112206965454","-3","3,84250812289486","-0,235240343178479","-3,21246876306477"
"10365","1,50102200550838","5,61527162885504","-3","0,957283527493847","-1,80881008579462","3,50703606842627"
"10374","0,890536657537442","4,53882245048158","-3","-2,34083731743334","2,29779747855135","0,718069420739149"
"10382","7,09848610928902","0,846900613908378","-3","0,211666279342168","-3,92555063036216","-0,794329367856153"
"10394","5,46035557914344","1,61534900646828","-3","1,73450950627887","2,76861234240946","1,48606521221671"
"10403","6,8816154565926","1,87168808811318","-3","-2,07908762509703","1,44215308560236","-4,00151543126115"
"10415","4,41277956018418","3,62361761427002","-3","-3,02663467524479","-4,13946172859941","0,853879326272261"
"10423","3,09055355317627","3,20802641802272","-3","-2,34574411782681","-0,784865432149852","1,95814787475014"
"10435","7,36173992380242","1,40297355762193","-3","-5,44288922395359","2,55378364196254","-2,15272238894594"
"10443","2,73748199842792","1,80084386741042","-3","2,16697509002782","1,38844591049063","-1,33016465480014"
"10456","3,72303499974577","1,93356547996425","-3","0,729781400258767","-2,40288852237734","-1,0945663069657"
"10464","7,50049059808334","3,64425868002701","-3","1,9089973350397","-3,10072213059434","-1,02708583818139"
"10472","4,54854535006352","3,21491186653371","-3","-2,02032461827375","-4,02518053264858","4,13297706334355"
"10484","1,33971227557942","1,40527040613526","-3","3,64605821131939","-1,50629513316215","-2,52980421264696"
"10493","6,19702405093443","-1,53122977566333","-3","2,55435001163243","-0,126573783290536","0,27540928970393"
"10505","3,48197234896287","2,82205206421837","-3","0,523465051906424","-2,53164344582263","-8,48900853859772"
"10513","3,88635763741781","5,60706002510087","-3","2,50274105738017","-2,13291086145566","-0,85859256720115"
"10525","3,97506969647777","4,53608322298685","-3","-7,81004428882745","1,46677228463609","0,040502150980947"
"10534","5,77515582239451","2,5124067751627","-3","4,69622973948949","-3,13330692884098","2,72517903777983"
"10546","3,38942496834785","1,170928696638","-3","6,23447224498548","-2,28332673221024","3,20770698042554"
"10555","2,08543013748965","1,72343832249557","-3","-1,90039031562587","-0,320831683052561","-4,50839994609221"
"10562","4,57999106405086","6,90700427055826","-3","-2,30322826890846","0,91979207923686","4,13585331376473"
"10575","4,12723559189039","-1,02954100151971","-3","0,224332038270913","-1,52005198019079","-0,815402047589462"
"10583","5,80853722939953","1,98940544914397","-3","-1,58767650196683","-6,3800129950477","1,48002954040485"
"10595","6,95799783746291","5,32930569480437","-3","0,465311444466851","4,15499675123808","2,85106920023"
"10603","7,99078577181214","4,44342990932201","-3","-4,8329723539908","1,78874918780952","0,530186304496052"
"10615","0,0948540779914158","2,48149947472957","-3","4,698830893178","-5,80281270304762","0,865435183627969"
"10624","7,70455808174312","2,82703854967091","-3","2,90889673690701","-0,200703175761905","0,961457722542943"
"10636","4,59331267266275","2,94230350435163","-3","0,642867257690304","-0,800175793940476","-2,43819603221151"
"10644","3,13015802097892","4,64717351096236","-3","0,879726890281108","-0,950043948485119","0,301647856387792"
"10652","5,58980324751799","2,54946428309039","-3","2,62272086908373","0,76248901287872","0,0863984783591708"
"10665","5,12938814052184","1,18329034335651","-3","-1,11673515900765","5,44062225321968","-1,68883194945936"
"10673","5,02838453497527","-1,60527790431726","-3","-2,03931339506027","5,36015556330492","2,22986030207966"
"10685","3,22560194994147","4,46377099602016","-3","0,313211770701787","-9,65996110917377","3,06583696822076"
"10693","3,83011635805251","1,82186494319969","-3","0,105481657658254","-0,164990277293442","-2,83545624518168"
"10705","2,18210685077977","3,60699760525518","-3","3,36197501528625","0,958752430676639","3,61502061788577"
"10714","-0,740675203189921","3,20248231396962","-3","-2,53099915675151","-8,51031189233084","-0,964579810503171"
"10726","5,96001395051652","1,40112415490956","-3","-6,50527834985245","4,62242202691729","1,43730179860979"
"10734","6,21060314682071","3,46664685649305","-3","8,46209281336732","0,155605506729322","-2,30190398425626"
"10743","5,26557617431947","4,8220840119874","-3","-1,15018508017111","-3,46109862331767","-1,37289349427658"
"10755","1,49701097720193","0,941391030239155","-3","1,27587304263722","-2,36527465582942","-1,1068047718997"
"10763","6,23153146776383","1,64686912776854","-3","-2,23354457395002","1,40868133604265","-1,03059119956672"
"10775","1,70891750666231","3,54862248591908","-3","3,5742512216901","7,35217033401066","0,70481636263164"
"10783","4,49739357176721","1,51658962358254","-3","-4,12273575239533","-5,66195741649734","0,201874669302254"
"10796","5,88974066955882","1,83874392457812","-3","-2,71488273072051","-4,66548935412433","-3,36933541234667"
"10804","3,41456202951013","1,94620818433154","-3","-3,90397984685183","3,58362766146892","2,74852771841918"
"10812","2,09094458254512","5,31489594745009","-3","3,3484658887194","6,89590691536723","1,50081620353382"
"10824","4,58120079593135","2,7722031915456","-3","0,127677072170213","-0,526023271158193","1,14344460604193"
"10833","5,90812588690465","2,92401152081753","-3","-1,62022740521788","-2,88150581778955","2,75466398616412"
"10845","1,63797037824644","2,97465175650334","-3","-2,87210237105382","0,279623545552613","-1,21100458115167"
"10853","2,70120462910983","1,32512441772877","-3","-3,95692737255188","-3,43009411361185","-2,06043628141975"
"10865","6,49570155855978","5,10771477055265","-3","0,00418301606933569","-0,607523528402961","0,40984642953392"
"10874","3,5474947540869","2,70309167653146","-3","4,32786024172781","4,34811911789926","0,117388892786121"
"10886","5,68135653091468","2,90095729562643","-3","2,78396337578252","-0,912970220525185","0,0336227209914268"
"10894","6,93009756028323","2,96696132605838","-3","0,600792919300334","-3,7282425551313","0,0096302754037134"
"10902","0,86216550609782","4,65539886927252","-3","2,52878309155281","2,81793936121718","-1,71082002522806"
"10915","4,31163727541374","0,885788185830774","-3","-4,47482249277762","-2,04551515969571","-1,20359424828128"
"10923","4,06836545534933","3,29474103909368","-3","2,15622078752362","-1,26137878992393","2,368842887689"
"10935","5,79562258789599","-0,234520084537399","-3","4,71583689262328","-4,56534469748098","-2,03509044349627"
"10943","3,39391486687227","5,58744842179813","-3","1,91462391953365","3,60866382562975","3,8442627156895"
"10956","3,86704001935673","4,52954118265092","-3","-4,68165548435213","-5,34783404359256","-2,61249825402513"
"10964","3,97083189227654","4,17664439377861","-3","3,74979051773292","-0,0869585108981399","0,251723925484866"
"10976","2,21297633376821","5,72534496524499","-3","2,58928438082518","-0,771739627724535","0,0720991834284087"
"10984","8,16922134229008","1,90912081061056","-3","-1,12799570710225","-2,69293490693113","1,73422911211756"
"10996","4,69524821727698","2,63610442509733","-3","-2,0431056576451","1,32676627326722","-0,503279226952275"
"11005","1,37189523028143","1,21219176946485","-3","3,63838614398078","0,331691568316804","-5,28488510323859"
"11013","2,64283436957134","3,40362277491934","-3","-2,43791100752723","0,082922892079201","-0,227283884251317"
"11025","6,48289657761869","4,80106043337297","-3","1,84220011545863","0,0207307230198003","0,934900973638511"
"11033","-0,0165641597079702","4,26721780905655","-3","-2,042820201478","-1,74481731924505","0,26777588445725"
"11046","3,33824096589507","4,08913853999295","-3","0,312030768617479","2,31379567018874","0,0766968120888787"
"11054","4,85482655231776","5,6961547549262","-3","3,43153543622127","-0,421551082452816","1,73554597252918"
"11066","7,7487774718194","1,89938353771287","-3","-2,50757299849701","-0,105387770613204","-0,502902049613317"
"11074","4,60301330534163","2,63285626475698","-3","1,81873975103234","-0,026346942653301","-1,85762038217948"
"11086","6,69353591809429","4,54394807385657","-3","-3,71394680282346","3,49341326433667","2,18151563977614"
"11095","4,37151959449408","2,51503033280006","-3","-2,57721314079226","-2,87664668391583","-2,08874502393551"
"11103","6,64275196443668","2,83822377622324","-3","2,79528674467692","2,03083832902104","0,401738192641699"
"11115","0,799129040140427","1,27961476019775","-3","-1,72184517133591","-3,99229041774474","1,82864486280415"
"11123","4,29780864501942","5,09253365503413","-3","3,74657840176235","2,75192739556382","1,23734183330109"
"11136","2,28470688833757","7,69728729769701","-3","-0,738248886754728","3,18798184889095","-2,35917684852358"
"11144","2,84308250923413","-0,0994984075720762","-3","1,41460254323559","-4,70300453777726","3,75143735108537"
"11156","2,96557621133659","1,29964913854642","-3","-0,523598296278141","-0,925751134444315","-2,63908544861346"
"11164","6,55369809821107","5,09921672470666","-3","-0,176334421004378","-0,981437783611079","1,95768712185045"
"11176","5,34084266016817","2,70025689765883","-3","-5,04906215600501","4,25464055409723","1,27430233074715"
"11185","6,85539729923314","1,23359175684316","-3","-3,69007136090678","-2,68633986147569","-4,06216890631321"
"11193","6,18765285952721","6,74360121057144","-3","1,75727900278598","2,07841503463108","-0,877071487105501"
"11205","2,47991654300426","3,91521073051484","-3","2,25503206455069","-3,98039624134223","-2,67836895649779"
"11214","5,44715646474871","2,30529607510818","-3","1,42266247621042","4,50490093966444","2,94643547449429"
"11226","-0,243779740212289","4,43468051729589","-3","-5,51056118290714","0,876225234916111","1,55750127063533"
"11234","6,84964534741478","0,812160938775983","-3","2,80741067195593","0,969056308729028","-0,553897907855932"
"11246","3,62514120463109","1,60376054261528","-3","-1,71776214487796","-0,757735922817743","-0,158648355662631"
"11254","2,13714040804486","5,20066223333354","-3","0,421501950267254","-0,189433980704436","1,66813802000332"
"11267","4,59133500930918","4,40051701225263","-3","3,46840251078987","-3,54735849517611","1,19136919769118"
"11275","7,69097399085083","2,46718458679176","-3","2,49452014718543","-0,636839623794027","-2,37234440691574"
"11283","2,80970775152626","4,48868330110755","-3","-4,48636137000444","0,840790094051493","2,03408753256311"
"11295","3,73887953083391","0,830175192098101","-3","-2,83734247361738","0,210197523512873","-0,417393281797823"
"11304","9,28459140349129","6,60902947780667","-3","-3,94522113433034","1,80254938087822","-1,83312881935489"
"11316","5,7205575348393","2,20390036719115","-3","0,00812537561024285","2,95063734521955","0,474952209091795"
"11324","0,596822554126091","2,73443701522721","-3","2,66596217206216","3,98765933630489","0,136036597939897"
"11336","9,59530237135941","1,24499356343528","-3","1,56105315298758","3,24691483407622","1,7525421722207"
"11345","2,22746996143927","3,41456480020575","-3","4,51539976174937","-2,18827129148094","-3,92519065926435"
"11357","3,61115106321708","4,80471047511996","-3","0,183896101254145","2,95293217712976","0,875740393811746"
"11365","7,4759460494349","2,60201547729975","-3","0,72515722551488","0,488233044282441","1,9644093579025"
"11373","0,981911067545985","1,2008203752928","-3","-0,755785722743487","-0,87794173892939","4,70338441402615"
"11386","0,776656648788498","1,7334095912618","-3","3,07192234335696","-0,219485434732347","-5,08000553969168"
"11394","10,6347534920657","3,57749066126016","-3","-2,6286814264017","-1,80487135868309","2,25855474878836"
"11406","0,674874734647694","3,19263938502466","-3","0,114727796816061","-4,70121783967077","-0,353101010154928"
"11414","7,83180016551399","3,06426066281609","-3","1,70186312199766","0,0746955400823071","-1,81471412048476"
"11426","2,840601506271","6,35427590349349","-3","6,22604668760021","2,76867388502058","3,90738326692626"
"11435","7,30690667101042","-1,21392017829236","-3","-0,240002071530225","3,19216847125514","0,832737528047986"
"11447","4,50607785863433","3,59432014031554","-3","-1,08082651648021","-6,45195788218621","0,952092405905682"
"11455","8,45289560572025","3,19825336411212","-3","-3,69044604390206","6,63701052945345","-2,44087846170562"
"11467","0,196229464406874","3,0661333744485","-3","4,08360432885157","0,409252632363362","-1,41269879415893"
"11476","4,16554749631628","4,68848068980243","-3","1,03847852026965","2,60231315809084","2,30895081751765"
"11484","4,03631699690795","2,56324353540157","-3","-2,31349293502921","-3,09942171047729","-0,338666484726388"
"11496","4,00796704446615","2,85430674054158","-3","1,88410091791037","-1,52485542761932","-1,81057975981734"
"11504","4,001747771097","1,28497971683427","-3","-7,01838635483282","4,11878614309517","-1,23216759659955"
"11517","5,78100832741582","1,76148347173504","-3","1,63638823299942","-4,47030346422621","0,647080517314141"
"11525","1,6100839521897","5,25327546175116","-3","3,87754492163136","2,63242413394345","-3,2418188163879"
"11537","8,03696177180534","2,75164782456519","-3","-2,3573684907068","-2,09189396651414","2,78505123291821"
"11545","2,88560885212103","1,25073474671157","-3","0,206099005941127","-6,52297349162853","-1,91587936028551"
"11557","3,75553034160995","3,41647994462253","-3","-4,92026842731546","5,86925662709287","0,451250662177392"
"11566","3,94636944668208","3,13892941616081","-3","-1,98347119531973","-0,532685843226784","1,842826306289"
"11574","5,76885970251181","3,04634408672974","-3","4,65846949501687","5,1168285391933","-0,4721746388314"
"11586","1,6074188465077","1,3490395514829","-3","-0,431147452141451","1,77920713479833","-0,135241041668065"
"11595","2,69450238408421","6,78211229595129","-3","-0,145199357754384","1,94480178369958","3,38842072627559"
"11607","6,49423125295391","0,595217435725657","-3","-3,37535091375624","-1,5137995540751","-4,45663961586146"
"11615","3,54717220566225","4,86423233599438","-3","4,18972025346498","-0,378449888518776","2,43710024858018"
"11627","5,68128577182498","0,955450871828294","-3","-7,2419131434388","1,65538752787031","-2,01554005720004"
"11635","5,14945712752749","3,31797912394937","-3","-0,102115587334177","2,91384688196758","-1,2908726642568"
"11648","5,03278717080636","3,10607150383111","-3","0,965610100154854","0,478461720491894","0,630266114658358"
"11656","5,00719268854734","3,03538334147617","-3","1,98841836743798","-2,63038456987703","1,8941002085217"
"11664","6,78220280667167","4,67822309112828","-3","1,33287384961177","-1,40759614246926","-0,457488682877687"
"11676","0,82972108120992","4,22624171774376","-3","-2,21434817020676","-1,10189903561731","-0,131034665853416"
"11685","6,08514468675719","2,4090498188876","-3","-1,40896118840193","4,22452524109567","1,67604717874878"
"11697","-0,103821016573694","2,80287078717205","-3","3,85194966894252","-2,69386868972608","1,19363455203148"
"11705","6,88034880501292","2,93424162003467","-3","-0,702762557786913","5,57653282756848","-2,37169556037564"
"11717","7,19312659835393","1,31164440088989","-3","4,75300493453629","-1,60586679310788","2,03427337626319"
"11726","4,48111734495215","5,10321810536278","-3","0,263915403969314","-0,40146669827697","1,29623829251305"
"11738","3,10554516086191","1,03517176556589","-3","0,752105665786271","-0,100366674569242","1,08484906211945"
"11746","5,58440379911402","3,34457242661805","-3","-4,07316169176093","-1,77509166864231","-2,40285408047423"
"11754","3,34757872606806","3,11494250004894","-3","-2,69818746387006","4,05622708283942","-1,401807787943"
"11767","3,85687502429635","1,37192261616596","-3","-2,23513155613601","0,764056770709856","2,31207023754643"
