Timer,AX,AY,AZ,GX,GY,GZ
"1001","0","7,99999608000192","-2,99999997","1,99999712000415","0,999999190000656","0"
"1010","0","4,54748503388382","-2,999999995","-6,59649146917796","-0,735294275302674","0"
"1022","0","7,27425745608858","-2,99999999914286","-2,40060152516587","-5,35534887167139","3,58889769812773"
"1030","1,80166393117571","5,37956597326609","-2,99999999985294","-3,81601065159268","-3,67428099075101","-1,26107978287244"
"1038","1,15900780816003","5,81508223920375","-2,99999999997477","0,135010549806788","1,94765011370982","3,32852747694899"
"1051","-0,77011352078403","9,34876073890913","-2,99999999999567","-0,651337963436784","-1,15573205485362","-1,3146376311168"
"1063","-0,15275022311467","8,40201512325558","-2,99999999999926","0,799915327091862","0,668973404339695","-0,270691253266492"
"1071","1,77135467742533","6,41788843373021","-2,99999999999987","-1,44708323746662","-1,52196988576891","-0,0557368458432009"
"1083","1,15299640418772","5,12455696552907","-2,99999999999998","-2,83014925291369","0,564074866747201","1,78261786765934"
"1087","1,03034648052259","5,7390630622503","-3","-0,562204368819882","0,161563257049729","2,95523980085806"
"1104","-0,795633174722582","9,32609897169722","-3","2,52010573991754","-1,66730312912706","0,40259483111308"
"1112","-0,157811987595646","4,99138612842138","-3","1,46696196342698","-4,61828675616609","0,87699092818765"
"1120","-0,0313016402786019","9,10324434617051","-3","-3,93498240085368","-0,0363556822295887","2,7687661393726"
"1133","-0,00620860746422805","10,0307732913249","-3","-2,59440811081509","0,989586945314447","0,364198859314727"
"1141","-0,00123146283395312","9,30723509771205","-3","-5,56821559769286","1,99701747563972","0,869084982443911"
"1153","-0,000244257785686313","7,38963805752274","-3","0,59668780345352","-2,14158929351638","-4,40923932529954"
"1161","-4,84479630431557E-05","7,81807385521634","-3","-0,509512758155513","0,38660244947262","1,0921129159057"
"1173","-9,6095406598231E-06","7,94577459724714","-3","-2,54213655626638","-1,60284703111061","-1,56922222753499"
"1182","3,60330275091652","7,98383742860485","-3","-0,473729619775774","2,25448824472819","4,26507714334123"
"1190","2,3180113673967","7,9951825399012","-3","-5,91676342172019","-0,354265744979328","-1,12179671697855"
"1202","-1,54022784270437","7,9985640947077","-3","-2,89600186256704","1,61210896354012","-0,230984229973734"
"1210","-0,305500606221053","7,99957201015344","-3","-8,04648142121026","-0,538257082059334","7,12881663887934"
"1223","-0,060595333893951","4,59599788536634","-3","0,142578662692411","-0,154168484446939","-2,53213670798524"
"1231","-0,0120189433832501","12,3892683951954","-3","0,35098925140044","-0,0441571925179909","4,86090205269532"
"1239","-0,00238392943427927","10,7121518524356","-3","4,49343964918934","-1,72622592082724","1,58907576361247"
"1251","3,60283181009416","6,80839137607249","-3","1,07315129130122","2,21914985890039","3,70948279366423"
"1263","0,516265628907887","5,94288861111334","-3","-2,36314772581259","1,34919092070516","-4,03029110336585"
"1272","-0,897599914616837","3,28103995030238","-3","0,274063591142956","-0,61356250310933","0,170140478224673"
"1284","-0,178036853026843","6,18957935408839","-3","6,8554279249109","-1,88931593245152","1,82912727437826"
"1288","-0,0353131952438214","6,05650653918542","-3","-5,2796971274863","-1,2547193415013","1,17072195177956"
"1300","1,79464803842249","11,1226543133595","-3","2,07093702537375","-1,0729571354423","-2,55303618656564"
"1313","1,15761658810439","9,63268413225535","-3","-0,3638279271551","-4,44805319280425","-1,31977885319669"
"1321","2,83291521171776","5,78470501071942","-3","-5,19019311963148","0,0124028967844356","4,31643893186453"
"1333","-1,43809786412312","1,53195404166007","-3","-3,67280640588052","1,00355245822813","0,682873359618049"
"1341","-0,285243362776388","3,26436749229919","-3","-3,20667970131786","-1,42613918833506","0,93470184773755"
"1353","-3,65988201377169","7,18460991579694","-3","5,40055772935488","-2,83563383638281","-4,39572844505382"
"1362","6,67902790992562","8,05502533485863","-3","1,35180930084154","1,18781306261864","-0,699199514679679"
"1370","1,92807429094234","7,31446372793316","-3","-2,27754664699075","-1,37336296100986","-2,73215789108347"
"1382","-1,61757095386103","5,39179264275599","-3","-8,16368833451376","4,03379579661341","1,43743338067672"
"1387","-0,320841432227611","7,52065333017216","-3","-5,97185483717913","-0,844633530592785","-3,29221320538345"
"1399","-0,0636381510116484","7,15518735120109","-3","-1,91292541916922","-3,66907802329727","-4,06016833639471"
"1411","-1,8142748075467","8,74819283843834","-3","-2,66606107237891","2,66267494361198","2,16398858852802"
"1419","4,24344747336004","3,11719657722308","-3","-4,59022670306449","4,90338279895854","0,445577376210711"
"1427","0,643330254060226","7,84268102498062","-3","0,89711665024703","1,8315917073905","-3,49644191453271"
"1436","-0,872396942084453","3,84729725714127","-3","1,27558566580185","-1,47539247124509","1,28006301761029"
"1448","3,43026675483704","8,06029682432479","-3","5,47027638793975","-2,13616269855463","-1,53052224842233"
"1460","-1,31961457646251","10,7199095092697","-3","-4,70520244883725","0,388156743784473","0,68485689282307"
"1468","-2,06339480702734","9,51264091782698","-3","-1,13820280061939","-1,6024018475609","0,141015871803416"
"1477","2,39238277305904","7,45086187632437","-3","0,650354971630665","0,541037410286768","1,82313035471743"
"1485","4,87948053785673","4,43244784676777","-3","-1,49302671671405","5,29569986461224","2,96358154895358"
"1497","-0,230514068582843","7,23470840453665","-3","0,541356453843218","1,94395981075683","-3,18387634928277"
"1509","2,55758272818898","5,36802055360408","-3","5,2447281872982","-3,15678615772111","-6,83195556719758"
"1518","-1,49270942112673","7,51356775646271","-3","-1,38886959789643","-1,61775026152902","2,59326206609493"
"1526","1,50557689052676","5,45113813237525","-3","-5,50507612980424","0,536641292151034","2,32806158719605"
"1538","-2,50302465793283","5,83640473521258","-3","-0,383916355111962","-1,55987265742395","-0,520639073986353"
"1546","0,503530887325029","2,54736380250664","-3","5,96049321848557","-1,1603596533242","-1,90129689925196"
"1558","0,0998741790427088","10,3747723878528","-3","2,21662568654758","5,80838290124628","0,608512314594732"
"1567","0,0198098108587652","7,0058938595558","-3","0,373735789840176","2,09080333477908","0,125296095352084"
"1575","0,00392922985722106","7,00175673984936","-3","0,807617616641893","-1,40114864784266","5,4080823577323"
"1587","5,40573633901288","8,70246089207594","-3","-2,44471713432112","3,02583737419574","-3,68053993508222"
"1595","-1,92778478426935","4,8055028620044","-3","1,9418157998745","0,580243694185701","-1,55193819294325"
"1608","-2,18402395163776","5,64396492614092","-3","2,98212636949017","-0,833805640605316","4,26863602291414"
"1620","0,566803934634038","10,9996910353422","-3","-2,77672881610116","-1,95239833647245","-2,91515832026814"
"1628","1,91407656912012","4,49022154211907","-3","0,147015430684844","2,15436918121693","-1,39434182966448"
"1636","-0,620347369391148","7,25192858969844","-3","3,43078083979976","-0,382942012882249","-1,08119719240828"
"1648","1,6786078722168","7,07509052235237","-3","2,4395222073341","-0,109682885232541","2,57146983616898"
"1657","-0,667052037139355","7,02238168583367","-3","2,13501702382796","1,68216279109887","3,11766884147801"
"1665","-0,132308218353754","7,00667114630534","-3","-3,03695271559851","-3,94534883810772","-3,15214891232934"
"1677","-0,0262430270343176","5,30005114665075","-3","0,0670771343877176","-0,843611689792064","-3,2372339170739"
"1685","1,7964470851672","4,08943406288822","-3","1,71341500685475","0,758371343337705","-0,460658999785892"
"1698","-0,643678903636101","4,72859423404132","-3","4,60477337941619","-1,49636436912238","0,905147730657827"
"1706","-0,1276722117471","8,32297860419821","-3","5,18578060543158","2,28498718504086","0,186374989705437"
"1718","-0,0253234859187053","7,39433060999215","-3","-2,4069777319854","1,36804815664209","-3,54981313834546"
"1727","-0,00502285446691518","8,81947253020005","-3","-0,739400568094204","-4,03531807167829","1,26907358356349"
"1739","-3,60430092843447","6,54231694331336","-3","-5,30556544750173","0,844197518048807","-1,53278503447147"
"1747","1,28509530336338","1,75776991998878","-3","3,0629905245562","-1,47178189408932","-4,697892217111"
"1755","0,254895661112067","6,73554933551499","-3","-3,44469767195373","0,578449793581753","2,03267766802554"
"1767","1,85221028933711","11,3250516607072","-3","-5,82941642900752","5,30641558136615","0,418539721883196"
"1776","-0,632618401932129","6,28913669064803","-1,17157287525381","-1,17636014885019","-1,48012766521359","-1,70791472252757"
"1788","3,47782626995834","8,49005541718581","-3,68629150101524","-3,43979525692281","-2,13751896064949","0,648330788392407"
"1796","2,29312339956727","4,74219270701526","-3,11774900609144","1,94332775359806","-3,03938840835115","-1,66059945430728"
"1808","0,2564880153009","9,02896907553685","-3,02020253553339","2,28978127534819","-0,584125003820187","0,658073267248379"
"1817","-0,949126199390554","8,30669732823488","-3,00346620710888","-1,98941061582165","2,54627229412555","0,135500973216498"
"1829","3,4150476853124","4,68754049507958","-3,0005947071199","-1,30393749044513","-3,69784916384773","0,0279004096601424"
"1837","-1,32263324346553","5,60880474141989","-3,00010203561049","-4,47898579765683","0,940855921258568","1,79983924722368"
"1845","-0,262341224125237","7,58533654800369","-3,00001750654307","3,31690789759575","0,269481510412106","-2,42349741019739"
"1857","1,74961755752255","8,87640428087932","-3,00000300364793","0,018922423422453","0,0771853402982752","5,88327149286626"
"1866","-2,45461975987638","11,6650979963701","-3,00000051534451","1,69862233961443","-1,69147079171373","1,79958736015432"
"1878","0,513131886145013","5,39049182862385","-3,00000008841914","2,90741966145396","-1,19805220878836","0,164639517914999"
"1886","0,101778514802984","6,52026560596514","-3,00000001517033","0,585941100547607","-1,05672644148676","0,827994595826063"
"1898","0,0201875314226208","5,15507178506678","-3,00000000260282","2,56561461301458","2,41090900802861","-4,41770006615267"
"1907","0,00400414985154958","5,74815839248124","-3,00000000044657","-1,21186769733469","-5,4501984849758","-2,49781799111683"
"1915","0,00079421379949897","7,6268726771998","-3,00000000007662","1,32053537088211","3,15252347260144","5,07387407226652"
"1927","1,80180985893109","7,18684737939313","-3,00000000001315","-0,594344147665492","1,61652933620081","-2,74935529378382"
"1935","-0,642615209947108","8,75762951276528","-3,00000000000226","1,51023270682727","-0,536990991604597","0,433892339095686"
"1948","-0,127461230580671","3,12000929810294","-3,00000000000039","-0,536070938030057","3,27335084057825","5,47162405352715"
"1956","1,77637069017766","4,43964484542218","-3,00000000000007","-0,164675871675501","-1,06244143370243","1,71482684574267"
"1968","1,15399131863834","8,23685356157887","-3,00000000000001","1,64222269706993","-2,01788457880344","0,147186853045123"
"1976","-2,57276083745929","5,66672267155453","-3","-2,18833442566441","0,422034158635218","-0,969693402201733"
"1988","0,489698878494785","5,90066245077175","-3","0,327764567152139","-3,30627696697106","-3,7878540982271"
"1997","0,0971306322986926","7,67232845263044","-3","-1,59212340762378","-4,08772435587523","1,22005961606984"
"2005","0,0192656347503649","5,49845877835088","-3","3,89653400072352","0,115608878727749","0,251217111509278"
"2017","1,80547362226649","7,55244652938276","-3","2,58259712954978","-2,39404380288304","0,051727010945875"
"2026","1,15976381745276","10,568538265658","-3","-4,59226993423779","3,02787235565008","-1,78344351513149"
"2038","-0,769963547287291","6,06364824541518","-3","-2,79632056273655","-0,132751787708205","2,42687338330807"
"2046","-0,152720476764897","1,6150966227583","-3","-2,24462207051115","-0,0380229867859681","1,29380122505719"
"2058","1,7713605775125","6,69302374353039","-3","3,00328309219211","-0,010890606816563","4,64868411161536"
"2066","-2,45030708248942","7,90850181999721","-3","1,61538943079401","1,7104590390185","-0,248715496147253"
"2079","0,513987295662764","7,2707905295835","-3","-2,19657734875613","-2,22366583528774","-1,05121191432512"
"2087","1,9036005117623","7,08071256358335","-3","2,01804197179765","0,363093950513116","1,57764397294773"
"2095","-0,622425270974852","7,024057406772","-3","3,00554232140142","-5,03673706359869","-0,675154265698388"
"2107","1,67819572527601","7,00717061625723","-3","-4,46234521122432","3,27094777733536","1,65507635002558"
"2116","1,13451854294788","8,70407456683951","-3","0,629210174915021","3,36402696624696","2,92897828770291"
"2128","-0,774970888702387","8,20985838511731","-3","0,19328735559139","0,677108516962927","2,1912818349347"
"2136","-0,153713671275121","6,36061368906005","-3","0,0593760293793058","-0,806061457720343","-3,34289718795313"
"2148","5,37446823664056","5,10748549940817","-3","0,018239749072387","3,19628323226776","-3,27651005587599"
"2156","-1,93398673956796","4,03203742102286","-3","-3,38001602707662","-7,93882864425118","3,11944261622373"
"2169","-2,18525409503015","8,11536098128266","-3","2,65450091388639","0,0125692135281734","-0,357689285634213"
"2177","2,36821226702978","7,33244753521709","-3","1,50824687714535","-0,709978249705483","1,72044416832448"
"2185","-4,13357526810013","8,80102749220261","-3","2,84893813782776","-4,34408817949466","-2,43984530183022"
"2197","1,18011497049185","8,23875643840225","-3","2,2607856869822","1,75575907264565","-1,29647221576858"
"2206","0,234073056530897","6,3692271216154","-3","0,387301320162499","2,21646576463245","2,52714350257318"
"2218","0,0464278457300485","6,81199011600747","-3","0,811784817980541","-3,79231289597016","-0,479646992061796"
"2226","1,81086118356783","8,64589853475719","-3","-0,750627457990666","0,913799462733584","-0,0987620033503182"
"2238","-0,64081990078118","3,08670645815289","-3","-3,61620468895613","5,40246698872548","5,36194753970792"
"2247","-0,127105135187938","7,8335930569564","-3","2,58194601300367","-1,4526164621191","-9,07232254223536"
"2259","-0,0252110076036181","3,84458847261277","-1,17157287525381","-0,206850847253682","4,72467422228414","7,51424114172541"
"2267","-0,00500054465502039","8,05948943662247","-3,68629150101524","-3,44916170822875","-1,64675098826703","-5,0409644362082"
"2275","1,80066048208458","10,7196688570897","-3,11774900609144","-5,83078773831125","-0,471665144007602","6,34432036532761"
"2288","1,15880914230495","6,10869464156901","-3,02020253553339","2,20883770179798","1,57848323333342","1,89451990646501"
"2296","4,63480408053988","6,73433509463868","-3,00346620710888","-1,01427570845266","6,30642515923518","-1,6099077353842"
"2308","-2,08069740264232","6,92081519394781","-3,0005947071199","2,38123374249094","-2,19370326655515","1,46260537275958"
"2316","1,38895084350744","6,97639796080331","-3,00010203561049","-3,65412684334259","-5,76905915490396","-2,49293575462752"
"2328","-0,724504834325208","10,3968396586569","-3,00001750654307","-0,815322414363527","-3,79311850690783","2,28078495558141"
"2337","-1,94535617537153","7,71440856386666","-3,00000300364793","7,5207789497079","0,199990373664587","1,26372079918698"
"2349","0,614143132324907","9,61681311126087","-3,00000051534451","1,69593055951101","4,48443826318027","-0,739792806233023"
"2357","0,121813860280779","4,07803717752146","-3,00000008841914","1,90659277231776","-0,715559769347997","-1,94642188074166"
"2365","0,0241614955463752","2,0232599739077","-3,00000001517033","-6,49274156754822","-0,204951813638044","-2,98896796502163"
"2378","0,00479237638222703","8,51661929827603","-3,00000000260282","-0,687317743521372","-0,0587026377290576","4,97274354049818"
"2386","1,80260288516976","7,45204768324844","-3,00000000044657","-0,903946997514359","-3,44397039597305","-0,976084240420545"
"2398","1,15919441343406","8,83667583842582","-3,00000000007662","0,72231611676031","-0,700006046439379","3,38720757851563"
"2406","1,03157584122471","6,54744460826956","-3,00000000001315","-3,16373049217857","4,22665979872561","-1,3025549794869"
"2419","-0,795389333889849","8,56704737941277","-3,00000000000226","-5,74310599514646","-0,78939310385051","-0,268203369096674"
"2427","-1,95941595080752","8,16901568801546","-3,00000000000039","-2,84265595987915","-0,226099279526215","-0,0552245765650078"
"2439","0,611354408604991","6,34844000340044","-3,00000000000007","0,433953689960818","-3,49191641921652","1,78272334677203"
"2447","0,121260723424402","3,40191970406125","-3,00000000000001","-5,63793177905465","4,4269962081678","-0,632927273473017"
"2456","3,62735643908541","7,92754637649023","-3","2,26808121034389","2,69514427146999","-0,130323272193473"
"2468","0,521130031963358","8,9784042754251","-3","0,696732883369371","-1,22805231636028","-0,0268342920064387"
"2476","-0,896635071597416","4,88775129923088","-3","1,90683923854334","1,36183756734316","3,58266346198229"
"2488","-0,177845478660552","9,07235466641175","-3","-0,414237199826402","1,10363811500601","2,32587927522035"
"2496","-0,0352752365838777","6,6176916823394","-3","-0,127249711041054","-0,683894144193357","-3,31518282078636"
"2509","-0,00699676103896673","5,18411086703219","-3","5,03933875989418","-3,6230387821649","2,11147967722722"
"2517","-0,00138779126030801","9,16068840724267","-3","5,31927493939638","4,3894399239188","-2,35932889939364"
"2529","-0,000275265165047243","4,94208340457515","-3","-2,36596954771379","-2,45634769558537","2,30829535573531"
"2537","-5,45982045395422E-05","7,3866117684657","-3","-0,726803245591377","2,01002717156757","-2,3188034483392"
"2546","-1,08294267399585E-05","5,41329728443549","-3","1,46954253717835","-0,424284690222469","0,522545376654629"
"2558","-2,14799157784009E-06","4,12318851549252","-3","1,14423898240542","-1,83510266796356","0,107595021117549"
"2566","-4,26049127923613E-07","8,14252972503227","-3","1,04430883764094","-1,23919148854477","-3,56603437531845"
"2578","3,60330457244068","9,04248279846374","-3","-2,37200785207726","-2,78208796674513","-0,528360856560071"
"2587","-1,28529292825476","4,90685071852386","-3","3,65696094875303","-2,22400693006394","4,4793963320545"
"2599","-0,254934859549108","9,07804749140256","-3","-0,876616527409274","1,36299625358269","0,716427201443137"
"2607","-0,05056573578256","8,32132577468471","-3","1,42352132800296","2,10396998783676","-0,852483624748615"
"2619","3,59327506099503","4,69190068971424","-3","-3,94832694911555","1,31620091137219","-0,175531155197293"
"2628","2,31602239844998","5,61010435292118","-3","-0,905697876691745","-2,33658990084313","-1,83023724497339"
"2640","-1,54062235006369","7,58572391375128","-3","0,721778263401212","-4,80998498122402","-1,17095050094478"
"2648","1,49607347263609","8,87651974017023","-3","0,221723388174719","1,62231613947236","0,758894730476146"
"2656","-0,703257310269719","8,26125786366815","-3","0,0681113069712243","-1,24891187048304","0,156260677444565"
"2668","-1,94114177844942","2,97205941096935","-3","0,0209231429102674","-2,78487209463051","1,82626934562267"
"2677","0,614979048141298","6,09748377207046","-3","3,39204649341429","-0,511226019930912","-0,623960908301221"
"2689","0,121979662236553","6,02905627890194","-3","0,734813834226615","-0,860004547536928","-0,128477047361893"
"2697","1,82584671045151","7,7105978671207","-3","0,918537342901869","-0,959902270764147","-1,82054854050407"
"2709","1,16380477205607","8,91374001119203","-3","4,36059455362898","-2,70209348666718","4,21332764720288"
"2718","-0,76916203335098","4,86847729232041","-3","5,11077120251753","1,22606191064012","0,661642168325813"
"2730","-0,152561498341934","9,06660980335963","-3","-4,12282945596334","-4,78956435194567","-2,65785856658915"
"2738","-0,0302602179607519","6,61597935279418","-3","3,11912527568382","1,62816504991354","2,24682642445942"
"2746","-1,80765437224567","3,4816632120126","-3","0,650975043051586","-1,24723661587249","-0,537365849192158"
"2759","0,641455964339954","7,95131494389833","-3","4,27840197083898","-2,78439226543183","5,2716365501481"
"2767","0,127231296913764","8,98548879943398","-3","0,00709377052691496","1,20248975819312","-1,91454049489732"
"2779","0,0252360314881715","6,5918002051801","-3","0,694988690430841","5,48515414103429","1,39987978057704"
"2787","0,0050055080842541","6,87833085616108","-3","0,906303439132955","0,284645273571979","-0,711756909002819"
"2799","1,80264515934659","3,55986041643204","-3","-0,721592240403535","-0,918471429556149","-1,94064913240381"
"2808","-0,642449530054669","7,97462261585958","-3","-0,221666243686703","-0,263070107244545","2,39450386581564"
"2816","-0,127428368359787","5,58856140087625","-3","-0,0680937527303431","3,35180771371141","-5,88924142611876"
"2828","1,77637720832265","7,5793027627259","-3","3,36470135335254","2,38718700307523","3,58146658674379"
"2837","1,15399261149722","7,17266856098122","-3","0,726413668397248","0,397320397699894","-2,05665035770501"
"2849","-0,771108252550473","8,75340333548955","-3","0,915956892196495","2,54095785531459","-1,21757022955401"
"2857","1,64870480208483","4,82068690558759","-3","2,66699231193661","-1,27221464490789","-1,04479892941218"
"2869","-0,672983241471531","7,35042799697857","-3","-1,18072543657385","1,34918852009647","0,784870045940534"
"2877","-0,133484658922391","8,80638679766064","-3","-2,05551712784711","1,10001515395502","0,161609140450435"
"2890","-0,0264763712817962","6,53841657419319","-3","7,13980297992159","-0,684931838694847","1,8273706241255"
"2898","1,79640080187905","6,86241918555366","-1,17157287525381","-0,113911171252979","1,51739903361022","-0,623734148886513"
"2910","2,959616573128","6,95899228731917","-3,68629150101524","-2,72780197562648","-0,565384056967876","-3,71661914939918"
"2918","0,388685384365133","6,98777712934699","-3,11774900609144","-3,22357381503252","-0,161938237504863","4,82291608426742"
"2927","2,68039949789183","5,29441954443984","-3,02020253553339","-2,37587018854303","-1,75996096270116","-2,80102894974697"
"2939","0,333303327641535","5,78969276558467","-3,00346620710888","1,27015537211565","0,495909067712919","0,423252443781389"
"2947","0,867762267423078","7,63925252569436","-3,0005947071199","-1,3026299539465","5,28277413002907","0,0871500498545448"
"2959","2,77542328212866","7,19053735079023","-3,00010203561049","2,29265407260149","0,226679255810247","1,81203908014295"
"2968","-1,4495012544887","3,65291753548139","-3,00001750654307","-3,68133767182991","0,778504192333189","-0,62689099970228"
"2980","-0,287505198702911","8,00235947449237","-3,00000300364793","0,869128230923686","-0,777019540535529","1,66501402693567"
"2988","1,74462634175871","3,89489145118096","-3,00000051534451","1,95979744261169","-0,222555223038968","-2,451258678543"
"3000","-0,653957427427958","9,7764201529768","-3,00000008841914","-2,09077849727106","-1,77732298004012","-3,0929166905239"
"3008","-0,129710933007947","3,4236728141523","-3,00000001517033","2,05054236839552","2,20451455461715","3,15724551890859"
"3017","-0,0257278615336863","7,93403016779585","-3,00000000260282","-7,14133117850679","1,34499905262581","5,03237773346293"
"3029","-0,00510306142856886","7,2783995785338","-3,00000000044657","0,11344172324478","-0,614763144903623","1,62438356714038"
"3037","-0,00101218035201451","8,78491781086678","-3,00000000007662","-0,657961338085211","-1,88965982226172","-3,45962471788618"
"3050","-0,000200763615987187","6,53201746945221","-3,00000000001315","-2,58773854205719","0,458760505660662","0,287643884703653"
"3058","1,80161250747751","5,15857457754029","-3,00000000000226","-2,18054766610968","1,84497728809089","-1,73486690887298"
"3070","4,76230263127141","7,45113971776311","-3,00000000000039","1,33015658530913","-2,18513689571374","4,23096997526968"
"3078","-2,05540836198169","7,13446793435108","-3,00000000000007","3,79423050127346","2,08770781781542","-1,12881957400278"
"3090","-0,407685462635642","8,7420171525586","-3,00000000000001","-5,91287728770935","-2,11561361558622","-2,02652467212306"
"3099","1,72078886624419","6,51923038226422","-3","-3,89480807931881","5,53477748009618","5,96501040405833"
"3111","-2,46033786366461","6,85670049687437","-3","3,49636171267148","-1,41471987216061","-3,56586532961727"
"3119","-1,2896546149002","8,65922503278541","-3","-1,61876063059212","-0,405206407639847","5,64805153703986"
"3127","0,744200010060841","6,49455313730417","-3","2,19554174837946","1,5975184546163","-1,83703453986837"
"3140","-1,65404198932753","8,55128240336328","-3","1,36725900542626","-2,25601446442835","3,20993308755506"
"3148","2,47357695128271","8,16431673626947","-3","2,80562801033543","-3,07332808669494","0,455037606008738"
"3160","1,29228055710239","6,3470394210309","-3","2,24748122950987","1,11973228197722","-0,906305207135823"
"3168","-0,743679160539473","8,50731406288094","-3","0,383214317909629","2,03429391840267","-0,186613320598135"
"3181","-1,94915935832923","8,15121141282151","-3","-2,57508977384066","-5,558069202376","-0,038424728392235"
"3189","0,613388779840858","6,34313321259111","-3","0,208957018434558","1,40804861850929","-1,80200626342326"
"3201","-1,67998809225121","6,80421249433621","-3","-3,32142950363776","3,8304523054271","-1,16513758365231"
"3209","2,4684306021826","6,94164304222891","-3","2,67249813427514","-2,61645385459354","-1,03400275381656"
"3217","3,09291211921478","5,28066869264453","-3","-0,17903410054243","-4,89014407812982","-4,59519015061546"
"3230","0,415124245556331","7,4875314226121","-3","-1,74780711745755","-1,82779985105603","0,259730202468633"
"3238","2,68564358444693","7,14531494512376","-3","2,15589990025145","3,19005688566392","6,43576309368432"
"3250","-1,46730884847425","7,04331296875837","-3","1,35508140833566","-0,0862986261495858","-3,46893471297739"
"3258","-0,291037293505437","7,01290998156498","-3","1,10907761694435","3,40243889394519","0,285726904546147"
"3270","-0,0577265694942456","5,30191071089901","-3","1,03350760202858","-1,02546781977125","1,85292716724226"
"3279","-0,0114499306444097","7,49386287649138","-3","-0,682516336601388","-5,43445122439834","-2,4125663099893"
"3291","-0,00227106708246124","3,74332756871727","-3","-5,28809115493871","-0,270122860258073","-4,87904411156309"
"3299","-0,000450460867687196","11,4331818823231","-3","1,3755489084353","-0,790947381433477","1,99537747787969"
"3308","3,60321530908232","1,21555445911047","-3","0,422555485587928","-2,65370114758572","0,41085940372188"
"3320","2,31799402351249","4,87199784343794","-3","-1,56300454291215","1,23992252450606","1,87869264999804"
"3328","-1,54023128282342","8,36572187501831","-3","3,90547903782292","0,355140661973956","-0,613166656178217"
"3340","-0,305501288560656","5,70513351242979","-3","-0,800274144262925","-5,03901505766755","-0,12625445036456"
"3349","3,54270918771211","4,21017401732726","-3","-0,245836572991901","6,69745199980461","3,56219229427904"
"3361","-1,29731188172094","9,87039413428975","-3","1,61729090486312","0,631873633057432","0,527569750545094"
"3369","-0,257318790983312","1,74974568184476","-3","-2,19599323408476","-4,24617439734941","-2,68546482868021"
"3381","-0,0510385830316138","6,73315760921495","-3","-3,06020724940623","-2,64335298909212","0,447047743868461"
"3389","1,79152894437092","7,92046422943188","-3","-2,3256855400411","2,95646480584228","0,0920496354785872"
"3402","1,15699792306199","8,97629335136276","-3","-2,10004748699018","1,56037388832207","0,0189535357418869"
"3411","-0,77051215599939","4,88712211144922","-3","1,35488547140628","-5,6938101618949","0,00390263921471532"
"3418","-0,152829292025521","9,07216712898601","-3","0,416207875107364","1,36916946818518","0,000803575282609381"
"3430","1,77133899425893","8,31957305782947","-3","-1,56495446822014","0,392159785531372","0,000165460653494676"
"3439","1,15299329346903","4,69137827014942","-3","-1,17354861625777","-3,31483363436799","-1,79406032726"
"3451","1,03034586351879","5,60994863912126","-3","-1,05331247719816","-2,37659682606466","-1,16350147087153"
"3459","1,00601903136942","7,58567750127151","-3","-4,40199618752837","1,31929120298058","-2,82776026556281"
"3471","2,80284618933024","5,47263135952692","-3","-1,73787028522014","0,377873570245516","-0,37634608046877"
"3480","0,357590343774495","9,24668561191374","-3","1,46614284831547","5,24896620745447","6,30479142279677"
"3492","-0,929072787951885","4,96771596587883","-3","0,450385078576327","0,216995934662509","-3,49590251390822"
"3500","1,61737290430416","5,69231460617093","-3","-3,247265109655","4,2028873687621","0,28017408322138"
"3508","2,92410680650569","5,90829045258232","-3","-4,07595747983841","3,34453299135965","-1,73640498285495"
"3521","2,18329443331241","4,27072752883551","-3","1,74790479526604","-0,328474979593634","-4,73981870546027"
"3529","-1,56694863289521","8,18650560562819","-3","3,92255876108984","-1,09408234739605","0,229950372605143"
"3541","-0,310800612736761","7,35365309593198","-3","4,28340123923267","-3,74052556633099","2,84144246677381"
"3549","-0,061646577845418","7,10541080604171","-3","3,39424860179271","-2,49852421388637","1,37916332236584"
"3561","3,59107720177331","7,03141903226121","-3","-1,95731925099766","-0,429209785922399","1,07807185270327"
"3570","-1,28771819875553","8,71130211582923","-3","-5,67969843347188","2,59064336727463","2,81016982848015"
"3582","-0,255415906305757","6,51007537466925","-3","2,94806044494099","1,45559470632525","-1,42137028562964"
"3590","-0,050661150286637","8,55590900375515","-3","-0,0943839908450642","2,84407053460473","-0,292668106408789"
"3598","3,59325613575032","8,16569575339712","-1,17157287525381","-1,72180341232653","-2,8989749541989","-1,85435639960056"
"3611","-1,28728601227478","6,34745045463599","-3,68629150101524","3,85669754196718","0,16967079480208","2,41227202303807"
"3619","3,3479744738229","3,40162475645842","-3,11774900609144","2,57035974993306","3,47575407921297","1,2907947231594"
"3631","0,465715269686976","7,92745846360353","-3,02020253553339","2,17520906716936","2,42268792625672","-0,734218133579337"
"3639","-0,907626460663144","8,97837807187039","-3,00346620710888","2,05382255185777","2,12106697553463","-1,94527402440479"
"3651","-0,180025595088584","8,29161803574096","-3,0005947071199","2,01653377382394","2,03467620354077","-1,19463721843419"
"3660","-0,0357076576010349","6,38498319345026","-3,00010203561049","0,312269465506184","0,296353670968715","2,54811189915311"
"3672","1,79456979773243","3,41281186692593","-3,00001750654307","-0,904073802958163","0,798460453658374","4,90695370789679"
"3680","-0,644051259227574","7,93079292425217","-3,00000300364793","1,41508671522305","4,3694313988198","-5,57781952867556"
"3692","-0,127746067611649","8,97937195030304","-3,00000051534451","-0,565298877827413","1,67865646348667","-0,942598692602577"
"3701","3,57796652188907","4,88803972704345","-3,00000008841914","-0,173654415599363","1,90796025233604","-0,988180749160694"
"3709","-1,2903186715827","5,66856608917894","-3,00000001517033","1,63946457413853","-1,45351886618517","0,796528046512268"
"3721","1,54572062443737","5,90121190485514","-3,00000000260282","2,88924696096787","-3,84347596903557","1,95810398462905"
"3729","4,7115470721078","5,97055495100615","-3,00000000044657","-1,11245093134204","6,03988028460542","-4,18500421047052"
"3742","-0,263823280485557","4,28928625500569","-3,00000000007662","-3,72735340387388","3,8706875431805","2,93237857907815"
"3750","0,749323595094414","4,78816272333953","-3,00000000001315","-2,53062646619099","3,24938376740981","1,39788757744657"
"3762","0,950278918780285","8,34073375053749","-3,00000000000226","4,60823482560388","1,35785056682811","-2,50626151132633"
"3770","-0,81151438915899","7,3996227573211","-3,00000000000039","1,10841527298557","0,102496151718606","2,27804110760672"
"3782","-0,160961989500124","5,41717537524941","-3,00000000000007","1,03330413629107","0,742935462092842","1,26315582551394"
"3791","-0,0319264358216599","9,23015625003406","-3,00000000000001","-0,682578839332468","2,63994949417168","1,05418525905759"
"3799","-0,00633253420537389","8,36666372602116","-3","-1,90249125141299","-1,2438612958407","-0,782937348070582"
"3811","-0,0012560434144993","4,70541424310775","-3","2,10838241182522","-0,356268811379666","-3,74939998020062"
"3820","3,60305552365993","5,61413223949161","-3","-0,352325062111189","1,61153524194596","-2,36021125862363"
"3832","-1,28534232650052","7,58692447660487","-3","-0,108230893712489","1,17515693630262","-2,07416951658153"
"3840","-0,254944657576131","5,47300303639478","-3","-1,7260570486234","1,05016873964171","1,57291687400103"
"3849","-0,0505676791984057","5,84292184812134","-3","0,46977176175933","-2,41278727584635","3,91206119121177"
"3861","-0,0100299814235145","5,95318085776278","-3","1,83711894989101","2,02250381909693","0,599609716901413"
"3873","-0,00198942346081049","7,68798223221453","-3","-5,51408326219183","-2,13428945283456","0,917557397137345"
"3881","-0,000394597511132413","5,50312458657521","-3","1,3061262917375","-3,03846340737683","0,983024606106398"
"3889","1,80157406097574","7,55383723290387","-3","0,401229520855134","4,55687497044206","0,996504671276294"
"3901","-0,642661979922502","5,46314096232179","-3","1,81606342819276","2,73234436155531","-0,794814104305865"
"3910","-0,127470507296388","9,24385687824633","-3","2,94349644208159","-4,64455409428022","-0,163656677789033"
"3922","-0,0252834783105698","4,96687282580911","-3","2,28983309483904","5,8104341619087","1,76039656953459"
"3930","-0,00501491905099816","7,39400057094937","-3","-1,29658514548519","2,09139086025356","-2,43161887854921"
"3942","-0,000994697516660535","7,11743688445656","-3","-0,398298571862347","0,312597976826962","0,499316047417152"
"3947","-0,00019729593630304","7,03500355798376","-3","4,95607513887711","-2,62404351466903","3,69100076513424"
"3963","-3,91331895673944E-05","10,4143078027462","-3","1,90807804657669","3,67557380212113","0,554092136467847"
"3971","-7,76197703010689E-06","2,61380334630286","-3","-8,18509485736689","-2,66081441188847","0,908185072269937"
"3979","1,8016507889032","7,69263826602384","-3","-1,90000206087546","1,95146347622019","-0,812999604636994"
"3992","1,15900556735652","5,50451237670752","-3","3,10914706738189","-0,441058600787239","-1,96149557074472"
"4000","1,03153838404495","5,85231360800812","-3","-3,43051882287961","-0,126328734543544","2,39021146734897"
"4012","1,00625556503903","9,35985473813519","-3","2,63898693741255","1,67739505938451","3,08034672766318"
"4020","2,80289310523284","8,40532201101963","-3","-3,57494752389125","-3,94671441971761","-3,15983374469695"
"4032","2,1592519779078","4,71693683693982","-3","-2,48380883562358","-2,55758116658794","0,34937252595133"
"4041","-1,5717173979425","9,02144124203967","-3","-3,84143100490161","1,26745336857559","1,86603215732556"
"4049","-0,311746486179948","8,30445356165737","-3","0,127139536313136","2,07660443655618","4,76650966704501"
"4061","1,73981813883283","6,38880898530217","-3","-2,34656305263438","-0,4052155197758","1,56963984248271"
"4073","-0,654911123282534","5,11588946628321","-3","2,97196779621228","-3,54321918924875","1,91138643205941"
"4082","-0,129900096360047","5,73647960371036","-3","1,60576967098908","0,985145294549833","0,187659573282364"
"4090","5,37919160377569","7,62339166557544","-3","1,18608665668631","-1,43141139862609","0,832734554218262"
"4098","3,47190711472486","7,18580981957706","-3","-5,71407416407947","0,590012777719605","-0,828535289088118"
"4110","-0,509702979563961","5,35344570804446","-3","-3,83373765868405","-1,54458590817895","-1,96469445522686"
"4123","0,700553929306519","9,21116081166206","-3","1,82231241066906","0,557597147350124","2,38955279910926"
"4131","-0,861046759343149","4,95712734705412","-3","-1,13301258584278","-1,55387044668857","1,28611670764609"
"4143","-0,170786619791352","7,3910958069797","-3","-1,04086019585013","-1,15864049018962","1,05891303334909"
"4147","-0,033875128363536","7,11657108258765","-3","0,680257690010528","-1,04543807180554","1,01213052368366"
"4163","-3,61002370978011","10,4386200415311","-3","-6,56226954290658","0,700563896908237","1,00249774279942"
"4172","3,08561253148209","7,72686173870425","-3","-1,40148562531216","0,20065667103044","2,79460869577412"
"4180","3,21532871779971","6,21665039169467","-3","-0,123332549151838","-3,3696842734279","0,369519986485642"
"4192","-1,36224703563139","6,76651267987258","-3","-4,11631523669279","-0,678728892250512","-0,923913764190556"
"4200","-0,27019852756168","6,93040613273782","-3","-6,72854048156624","2,51917569179885","-1,98433341770033"
"4213","1,74805907968146","6,97925666216965","-3","-2,14537202135156","3,14870316106216","-1,20267976638166"
"4221","-0,653276551854021","3,58994263735459","-3","0,648152655501307","-4,52529991770621","2,54645589346459"
"4233","3,47372877402328","11,3874635514628","-3","-0,493703247192722","2,41743445126903","1,31842393397474"
"4242","0,490658342316195","9,71161389579155","-3","0,848339078258467","-2,02117276741967","-7,90490671039598"
"4250","0,898973268186851","9,21210557806144","-3","0,260601661604665","0,421092350208656","2,37233541346696"
"4262","-0,821690745490361","5,65934622010963","-3","-3,30556476255954","0,120609968001706","0,488477154929633"
"4274","-0,162980446083078","3,19652653213498","-3","-2,40105702445533","0,0345453066866795","-1,6935142131714"
"4282","-0,0323267919849666","6,16438905423568","-3","4,64803732047281","3,43705121322707","2,44539033049729"
"4291","-0,00641194391814715","7,75093552313413","-3","2,81345177110435","-1,01555410198705","1,2976139682425"
"4299","-0,00127179414612448","7,22382588952126","-3","-4,52135359344895","-3,71803337628927","-0,732814012805329"
"4311","1,80140007106572","5,3647768815064","-3","-1,08172618834702","-2,49208196358218","1,64320388500193"
"4323","1,15895583805724","7,51260093871311","-3","2,36051359934654","-0,4273645859261","-0,661655112443803"
"4332","1,03152852035423","7,1527872334472","-3","-1,9676823215163","2,59117187251202","3,45195029785843"
"4344","-0,795398719874322","5,34360290598343","-3","2,08835633778701","1,4557460816702","0,504870305744999"
"4348","-0,157765484022415","5,80435249242939","-3","-0,358476880768993","1,13053554713095","0,898050021511332"
"4364","-0,0312924164031339","9,34555931725533","-3","1,58268887824114","-2,38976848181014","-4,40327526145099"
"4373","-0,00620677793000653","8,40106107889438","-3","2,87180600950304","-4,82521647841372","2,88743534660723"
"4381","-0,00123109995010031","6,41760408529926","-3","-6,19623728068963","-0,0956248358168237","4,97682230711441"
"4393","-0,000244185808519072","5,12447221230087","-3","-2,28904401065676","2,6861893208835","-0,181150002983335"
"4401","-4,84336865396304E-05","5,73903780039004","-3","-2,08879155915894","4,91011782582115","-4,62548859375325"
"4413","-9,60670894859131E-06","5,92221689524642","-3","-0,334466366963123","-5,02079261366934","-4,33469720982109"
"4422","1,80165042300492","4,27487848230772","-3","0,897255126852816","0,561936268427099","0,313367158641086"
"4434","-0,642646833691823","6,48580557673156","-3","-3,10999089927525","-1,55262762844694","2,85861845044159"
"4442","-1,92911983155007","7,84673780820145","-3","1,04464050201447","3,98245051382043","-0,411394442887656"
"4450","-1,18428875515727","7,25238097982231","-3","-4,75752507171742","0,854238413165933","-0,0847084210246403"
"4463","4,3684037399458","7,07522536298617","-3","-3,53989491435625","2,6718290696633","-3,605630731621"
"4471","0,668115038580186","5,32048460339412","-3","0,219768543090958","0,478848049594107","4,84576922140758"
"4483","-0,867480937785627","7,49939906153192","-3","1,06751079723395","-2,57642589362512","-2,79632336075307"
"4491","-0,172062824103605","8,85078951934495","-3","-1,36488043171271","-3,16510085863833","-3,16396744214858"
"4500","-0,0341282605172638","8,25358864389311","-3","0,580721768557199","-0,620131771929463","1,34852137448301"
"4512","-0,00676926100685698","8,07558532263192","-3","-1,51441737156995","-4,31835420260274","-3,31052068567398"
"4524","-0,00134266715866678","9,72446644076064","-3","-6,23645275854284","5,19028653020708","1,31834524043527"
"4532","-0,00026631490455697","2,4081873490325","-3","-2,99420737320354","1,20018880436994","2,06554906884181"
"4544","1,80159950553206","5,92941452783968","-3","-1,30541100849478","1,05733840873004","4,8075913171121"
"4549","1,15899539541926","5,97896110171001","-3","-1,78662889644296","1,01642296194356","-0,215995612104622"
"4565","1,03153636646488","11,0995409088307","-3","4,8367837724521","-7,5631878313077","-4,63266349992745"
"4573","-0,795397163616545","4,51998306766107","-3","2,8714328782682","-3,30699581231311","2,84020302293613"
"4581","-0,157765175342309","5,55886211774254","-3","2,26769585637836","2,05280478520395","-2,20928067913693"
"4594","1,77035997329611","4,16657596660415","-3","-2,99619504557183","2,30154608933782","4,13328552161171"
"4602","1,15279910694068","4,7515873601975","-3","3,46521660507507","-0,340787359229066","2,4392554426891"
"4614","-0,77134498140022","8,32983199807323","-3","-4,32113766203513","1,61596946509814","0,296350760466171"
"4622","-0,152994481004564","7,39637335125696","-3","2,36539733711167","2,89000533848872","0,855114678706594"
"4634","-0,0303460990636961","3,7142695750116","-3","-3,65899163580759","2,25491680231969","0,970167300485963"
"4643","-0,00601907808920368","9,72258350408333","-3","-0,816816832140844","2,07301369249676","-0,800237116532111"
"4651","-0,00119387012373112","8,51343793601202","-3","5,82751032695737","2,02091270266809","-0,164773306394072"
"4664","-0,000236801359147399","4,74916216433123","-3","-4,59546359502813","-1,4211668383853","1,76016664944783"
"4672","-4,69689982012521E-05","7,3291091375808","-3","-6,18292072859355","-3,83420964767923","-0,637571823847718"
"4684","-9,31619142716163E-06","3,69422062008112","-3","-1,28495329305101","2,61537767040598","3,45690918193021"
"4692","-1,84784487707481E-06","8,01467038450488","-3","-0,0875349297845136","1,46267914637204","2,29998576429801"
"4700","-3,6651572871039E-07","7,30243542139918","-3","0,973110105693679","-0,581057017651164","2,06176874982848"
"4713","-1,80165240117081","7,09014472632069","-3","0,298930129434401","4,97430772110399","2,01271853170867"
"4725","-1,15900588714604","7,02686878291517","-3","-1,60098107146747","-3,28882889295506","0,208524420410948"
"4733","0,770113880998808","7,00800858269594","-3","-2,87742519653726","-3,36914850498224","-0,957063653378241"
"4745","0,152750295106528","7,0023870599945","-3","-2,26953663931269","-0,678575436565424","3,39112402396882"
"4749","0,0302976653594011","7,0007114936105","-3","-3,77560863289803","2,51921964483019","-1,30174856142243"
"4762","0,00600947137673334","5,29827479631898","-3","0,147359540264984","-1,99201928378983","-0,268037323098464"
"4774","1,80284429312795","7,49277914587799","-3","4,43088654697588","2,14302088389978","-0,0551903867635436"
"4782","2,96089462461372","8,84881636923532","-3","-2,33168352796648","-0,386192410985224","-0,0113640098919753"
"4794","-1,41271344557185","6,55106324798493","-3","0,283729092178919","3,31654281966358","-1,79643430985029"
"4802","-0,280208422463683","6,86618868762637","-3","6,85839707450541","-2,76364866020566","4,21829290241772"
"4815","-0,0555786881378505","8,66205310879139","-3","-6,97159458497569","-3,21872551336141","-2,92552425087423"
"4823","-0,011023903378653","6,49539608134953","-3","-0,834416816526689","-0,635491034302784","3,98580695674572"
"4831","1,79946576290698","5,14765910675076","-3","2,43648467609935","-0,895596738655328","2,40888877979232"
"4844","-0,643080155935327","5,74594894937101","-3","1,44127437136295","-0,97009664506179","0,290098094417213"
"4852","-0,12755345153482","5,92427685115559","-3","-2,25006383188653","0,722143313072563","-2,73436157334089"
"4864","3,57800472683941","5,97742975178919","-3","2,00161143507667","0,206837483129699","2,23107402668737"
"4872","2,31299356322677","9,39714719709144","-3","1,30768546557947","-3,36791395499503","-0,540609356161422"
"4884","-1,54122311247765","5,01256295620447","-3","2,78732758793403","-0,678221834714473","-0,111314495718862"
"4893","5,09925896975668","9,10955636919994","-3","2,24185951455167","4,23289926870834","-0,022920278415316"
"4897","-0,186921528363692","4,92684284989985","-3","-3,00413172299525","-0,787605984529555","-0,0047194137586753"
"4913","2,56622920703738","9,08400640059091","-3","0,0771594298131301","-5,36632244380399","-3,58916054680939"
"4921","-1,49099441218024","3,21729008318534","-3","1,71651219170453","1,46296904250736","1,26097173167897"
"4930","1,50591705855795","7,87251516828203","-3","2,91291525313425","0,419026014879793","0,259641145362776"
"4942","1,10034747055062","5,55812697664579","-3","-7,87641846560068","-1,59356021983436","-1,74063282981562"
"4950","-0,781748641345955","7,57023139525746","-3","-3,49798917364977","-1,17000850071447","-2,94659484630436"
"4962","-0,155058022730157","7,16996472445964","-3","1,92545113824107","-1,0486941161981","3,18737400654262"
"4971","-0,0307553977600657","7,05066014919715","-3","0,591480197982035","2,41320963993409","3,24448696135498"
"4979","1,79555206694068","8,71703717560586","-3","3,56731617083762","3,11835218907623","-1,33194195429017"
"4991","-0,643856428417305","6,51178478222345","-3","0,788655004975462","-1,10683640404256","3,31393448119388"
"4999","-0,127707423374091","8,55641851443161","-3","2,62788638815515","1,39655642960388","0,476452075727067"
"5011","1,77632185841034","6,46391034613206","-3","-2,88554795470812","1,11358234900657","-0,901895847825602"
"5020","-0,647670695502272","5,13827438266305","-3","-4,96484142491898","2,74611078907159","-3,77389420187988"
"5028","-0,128463974368975","9,14702625973414","-3","-0,217961414030357","3,92728063193055","-0,571160359584187"
"5044","1,77617179828211","8,34188577445068","-3","-4,14538432009955","1,55201490892027","-0,911699515050771"
"5052","1,15395186889397","8,10190340611629","-3","6,80500618874647","-3,26904766531087","0,812275961175366"
"5057","-0,771116333750959","8,03037360707619","-3","-4,29518620321345","0,0636739562857725","-5,21503101764176"
"5069","-0,152949129275733","8,00905324014161","-3","-4,397868830159","3,44539428926334","0,13210149469175"
"5077","5,37461988176592","4,59882388662807","-3","-0,0437928485764614","2,41399222496328","4,61538923105445"
"5089","-0,132304332637181","5,58236162721071","-3","0,986547255221514","3,8321546830264","0,744428901378581"
"5098","-1,02624225631148","9,2793921146894","-3","3,68867699718695","1,52476877716846","0,947376478710324"
"5110","-0,203552761961723","6,67940182868","-3","-2,55968321216223","3,57746183113356","-6,18721306405038"
"5118","3,56293044057859","6,90444163491548","-3","-4,86473888863105","-0,261759115726989","-0,0680762362511711"
"5126","-1,29330104329952","6,97151761315409","-3","3,19840823271718","0,638604865421359","2,78007711802883"
"5139","-0,256523250521554","6,99151046211682","-3","-6,78871774926858","-2,53066808198253","1,36652785320071"
"5147","3,55242386751312","5,2955323117845","-3","0,22176120058424","3,70231854812015","-0,71862425773594"
"5159","2,30791965934375","4,08808716664696","-3","6,14655157823378","-4,36673248211819","3,44022003161821"
"5167","2,06107514744814","6,43013004788173","-3","-1,1118380663133","2,46285159865465","0,502454978196009"
"5179","0,210461784811222","6,12820573486141","-3","-0,341546033823383","3,13257072106775","0,897552692034793"
"5188","-0,958255395037334","11,1440251711173","-3","-1,79772923106635","-1,10276390857291","-0,815188871305573"
"5200","-0,190067726333584","4,5332421681687","-3","-6,32348345561816","-2,02943380880362","-1,96194635301926"
"5208","-0,0376994909506465","7,26475143479855","-3","2,05748628361356","0,418726209060555","2,3901186487527"
"5216","-1,80912993472107","5,37697526111907","-3","2,32484968533994","0,119932253937277","1,2862332192584"
"5229","2,44281561843203","9,218174094407","-3","3,09979072040997","3,46150788400382","-0,735157372792777"
"5237","-0,515473210114872","6,66115501863797","-3","-4,43339300329865","0,705029162791819","-1,94546741902183"
"5249","1,69940941751257","8,60094021436924","-3","2,3309135685255","0,915513964527053","2,39351175360189"
"5257","-2,46457842753905","3,073306058595","-3","-1,97677516824847","2,6893797145166","3,08102627509569"
"5269","4,11446126454915","6,12766162392021","-3","-1,30005600164298","3,91103162364676","-1,36559942553707"
"5278","-1,18390618858974","4,33611389830049","-3","-1,09217433760465","3,2609391857205","5,10109861580141"
"5290","-0,234825035812864","8,20599484519297","-3","-6,10674373172512","3,07473863351957","-3,74374960771823"
"5298","-0,046576999069663","9,06139938522242","-3","5,50968576028853","-0,4057499261701","2,02323537433926"
"5306","-0,00923843931217042","4,91248904795099","-3","-0,307477162317766","-1,11621556551151","3,00478429377504"
"5319","1,79981990554716","9,07972806724505","-3","-1,78726359916172","1,39387003465016","-3,17539247324592"
"5327","2,96029474437928","6,61988941829604","-3","3,83658879783951","2,82639125196766","-3,24201989651109"
"5339","0,38881989805372","6,88670320361029","-3","0,871372983929585","0,523118005704127","4,92063872983704"
"5347","-0,922878478577783","10,3701049947668","-3","2,65329656117733","-2,56374601951384","2,60137588016829"
"5360","-0,183050797328036","6,0045026836465","-3","-1,18493264038688","0,265687621195569","-1,46436212955649"
"5368","1,76534462905214","6,70327935557118","-3","-3,74961909255559","3,50325537756999","1,49257402855912"
"5380","2,95345665356125","6,91155863568497","-3","-5,92308537684242","4,14414323830705","-2,48676504047011"
"5388","0,387463578662276","5,27170165240209","-3","-2,89794390679401","-0,0994492890286658","0,48796114366809"
"5397","2,68015715557561","4,08098413533492","-3","-2,96864934299507","5,82582894861574","1,89456833028981"
"5409","0,3332552596074","11,5338247192214","-3","0,39524972614177","-2,33135642875539","-2,40399216118304"
"5417","-2,7355519237061","6,35136415770803","-3","-3,95701171516026","-0,667750967533439","2,29909893986388"
"5429","0,457409645592422","6,8066658322802","-3","1,78444379801904","6,6630550411206","-0,526602645363207"
"5438","1,89237846661039","5,24043701741923","-3","-2,83745501381612","-2,09155674543849","1,6856639610563"
"5450","1,17700119097277","5,7736025863925","-3","7,89959913033177","2,82808954401576","-0,652912344860688"
"5458","-0,766544554386361","5,93251936960644","-3","-4,95893770698308","3,95076112262513","1,65965608615788"
"5470","1,64961000098924","4,27794926590613","-3","2,16947125549561","-1,8684164593679","1,13582688449923"
"5479","1,12884863109669","8,1886581362702","-3","-2,02636870473303","1,17842340947656","-0,766126879916215"
"5487","-0,776095502515832","5,6523574116777","-3","-3,00810021422318","-2,37605236100597","-0,157749817539366"
"5499","3,44936792114015","7,59831797565116","-3","2,76874989909832","-1,3941311950867","-0,0324815713768257"
"5507","-1,31582590460285","5,47639901378595","-3","3,23615262599326","0,600690635329117","-1,80078253409152"
"5519","3,34231365263401","9,24780860921505","-3","0,686924727234989","-1,54152753852685","-1,16488561092578"
"5528","-1,33705986948804","6,66998796292293","-3","0,903826266665229","3,98562981994987","-1,03395087122025"
"5540","-0,265202711804789","5,19969843901362","-3","2,66326589964373","-0,858429309360273","0,78710372190896"
"5548","1,74904998810421","9,16533448144843","-3","0,510939397047879","-5,38660777773934","0,162069066848657"
"5560","-0,653080007475671","8,34734277293391","-3","0,849765254223181","-0,256419461068384","0,033370929012368"
"5569","-0,12953689880346","4,69965538715018","-3","-0,738960230761642","-0,787022431153654","-1,78722313525925"
"5577","-0,0256933422544603","9,01629028599589","-3","1,46580802745616","-2,65257695682941","6,01428393141621"
"5589","-0,00509621460991159","6,60098098024788","-3","1,14309177669036","-0,473333827567252","0,0324691588395738"
"5597","-0,00101082230147648","10,2849418498231","-3","-2,34166267676444","-2,56272974772597","-0,99331441825516"
"5609","-0,000200494249825152","9,38299327127233","-3","0,280663592987855","-0,447599641207327","-0,204529004720614"
"5618","-3,97675676073178E-05","4,00834419848282","-3","0,0862171748998295","-2,5553589194697","-1,83620806467865"
"5630","1,80164444066883","8,81023618817711","-3","1,71929464447663","-2,15906682102753","-1,17217992617937"
"5638","-0,642648020274256","6,53956393402625","-3","4,60657954793202","-3,75913852684052","4,34683037800271"
"5646","1,67418459004061","6,86276117075389","-3","3,49352589126349","-3,21743371349712","-1,10496326786042"
"5659","-0,667929384859509","3,55521967354736","-3","-3,61963176784122","2,07845730980339","-0,22751812847468"
"5667","-0,132482238231166","9,67517665678848","-3","-1,80472585666246","0,595315183246818","-3,63503605061405"
"5679","-0,0262775434718016","8,49930772184812","-3","-1,2472040965188","0,170511160240148","-2,33666308468757"
"5687","-0,00521208956107433","4,74495047417019","-3","9,08091857411731","0,0488380887715195","1,51886797745466"
"5700","-0,00103380582822788","7,32785378972784","-3","1,17519054985711","-1,69959005842063","2,1068378240161"
"5708","-0,000205052978839765","7,09772099449028","-3","-5,02461179213521","-1,20037774259878","-2,36028468298027"
"5720","-4,06717808924877E-05","8,73106425946972","-3","2,14929680384811","0,656185819920357","-1,28009023853229"
"5728","-8,06715303687037E-06","6,51596573308607","-3","-0,339756551691278","-3,23921086054297","2,53051664348196"
"5737","1,80165072837225","6,85572742663896","-3","3,28124913640325","-0,641358481352934","-2,27304683998311"
"5749","4,76231021229688","5,25506045000483","-3","0,700777944476306","0,816301042098555","0,531966918710668"
"5757","-0,253754529829669","5,77796128658112","-3","2,60089139456128","-4,90692873821073","-5,27274822018695"
"5769","0,751320708342192","7,63575580907558","-3","-4,58665011077095","-0,119028996530217","3,70840599234282"
"5778","-0,850977286930511","5,48755783649419","-3","2,2838344490041","-0,747670826871417","-2,03051282279175"
"5790","1,63286296508847","7,54919736493052","-3","1,39438167969653","4,2130075734124","0,581906031881075"
"5798","-0,676125432952467","10,5675698108422","-3","-0,571659266969066","0,92027494782674","5,5021009022611"
"5810","-0,134107905286126","6,0633595851322","-3","3,21001083737771","-4,16357001536826","-0,0729921968627794"
"5818","-0,0265999907468305","8,42275967751338","-3","0,678894219475619","-4,33327164991663","4,3672536872639"
"5827","-0,00527604622726646","6,4240716287669","-3","-4,17706928426351","6,89959219490451","1,48743079902915"
"5839","-0,0010464914840457","6,82833721934772","-3","-0,97596533712898","-1,02380738230008","-1,69372966371452"
"5847","1,80144475932413","6,94883372354416","-3","-4,37823588491002","-0,293240605197261","-0,348748428512517"
"5859","-0,642687626604024","8,68668651353646","-3","1,65504775655626","1,62958788509442","-0,0718092556300945"
"5868","-0,12747559425595","6,50273838113313","-3","2,201224413874","-3,96040742971535","-1,80888032465054"
"5880","-0,0252844872971541","8,55372211945677","-3","4,75462376975371","-4,27508148582887","0,62754140515814"
"5888","-0,00501511918113776","6,46310665129388","-3","-1,53942499354563","1,77552408407559","1,92330868826362"
"5900","1,80065759126126","5,13803483118823","-3","-0,472896653608493","3,93570523657487","-0,603979963894956"
"5912","1,15880856891687","5,74308031155536","-3","3,24034976883306","-0,872728791173167","5,25792033066098"
"5917","-0,770153018610114","7,62535909055316","-3","4,07383315319244","-0,249968425038845","-3,71145913788377"
"5929","-0,1527580579606","5,48445896222377","-3","-3,44136692000421","-5,21233140403668","-1,55830463005474"
"5937","1,77135312336984","7,54827370601611","-3","1,63565450559564","-0,206502933624187","2,47323074130308"
"5949","1,15299609594528","7,16341995573467","-3","-3,88316166323056","-5,91346029068578","-4,07893672477695"
"5958","-2,57295823756311","7,04870939758606","-1,17157287525381","-0,885679723319115","-4,54805646390345","1,16012407219212"
"5970","2,2913120531171","5,3125811824487","-3,68629150101524","2,42073720079005","0,983759794335856","0,238876047178175"
"5978","1,25612873895018","4,09316879952247","-3,11774900609144","4,82205600113368","-0,431808235890862","0,0491859166473877"
"5990","-0,750849789491421","9,8355192400452","-3,02020253553339","-4,90432955993824","2,58989911493332","-5,37215553375789"
"5999","-0,14892930741196","10,2490371428092","-3,00346620710888","0,493436804773265","-3,68535349761434","1,89384307291753"
"6007","-0,0295397813472512","5,96841686958919","-3,0005947071199","5,23000772882684","0,944434950665829","2,18404729733146"
"6019","1,79579318162563","10,096398066255","-3,00010203561049","-3,08620113401457","1,98408496659014","1,2438019732873"
"6027","-0,643808603880974","5,92292085024673","-3,00001750654307","-1,64086106121837","-0,431715099515516","-2,5379886006359"
"6040","1,6739543909846","10,0828373986806","-3,00000300364793","2,18875270719182","3,30350413585879","-1,31668047093514"
"6048","-0,667975044306256","4,21694164728856","-3,00000051534451","3,05798302870539","-1,05380487695394","0,728888113062447"
"6060","-0,132491294676112","5,46853676571555","-3,00000008841914","0,632192728803453","-0,301832537272354","1,94417654331378"
"6068","1,7753729886767","9,24546516611803","-3,00000001517033","2,5798226714246","-0,0864513749638383","1,19441124092786"
"6080","1,15379342686875","6,66928946988382","-3,00000000260282","3,87092553814667","-3,45191823522569","-2,54815842918792"
"6089","1,03050456811553","6,9014275176804","-3,00000000044657","-0,118079097428608","2,72487420958675","5,85760309052254"
"6097","-0,795601818416623","5,26868194374621","-3,00000000007662","-1,03627277085225","4,92119801568054","0,000207695744070868"
"6109","1,6438465603279","5,78202134614595","-3,00000000001315","-0,318333096848672","1,83669437125442","0,794137162253224"
"6118","-0,673946862411734","5,93502868809309","-3,00000000000226","1,5950206652127","-1,4739309578145","0,957611688162878"
"6130","3,46962886605442","9,38450902043571","-3,00000000000039","1,18278466478506","-2,13574408945853","0,991272009071345"
"6138","-1,31180719335617","6,71073326021781","-3,00000000000007","-0,63665984879976","3,81543333179605","2,79229725429651"
"6150","-0,260193902294214","3,50990582001467","-3,00000000000001","4,88285283140117","-2,6207556138826","2,16313844426903"
"6158","-0,0516088546655114","6,25779573923902","-3","-1,50003425063663","3,676515528107","-1,55459767325597"
"6171","1,7914158323202","7,77877657434829","-3","1,23201335824119","-2,66054468117271","-2,11419476859166"
"6179","1,1569754875501","7,23212426915738","-3","-0,621537264396798","-1,47561595636303","-3,02351334273933"
"6187","1,03113572244234","7,06918759257357","-3","-0,190930310770942","4,00450832441993","1,37744166058091"
"6199","-0,795476630425528","5,31868496908239","-3","-0,0586519677246825","-0,85302209685944","-1,51047144017693"
"6208","-0,157780937398834","7,4988626576221","-3","-1,71082687613208","-1,95790234568271","2,48307986313049"
"6220","1,7703568469289","8,85062963733303","-3","3,86006942903951","0,439214369137207","-4,07690873540349"
"6228","1,15279848683302","6,55160371561818","-3","-2,50703309421772","0,125800506661494","2,95463604310359"
"6240","-0,77134510439713","5,16441250747625","-3","-1,46294617153862","-1,67754635528889","1,40247051400831"
"6249","-0,152994505400715","7,45287978707749","-3","2,24340646187908","2,23309274064357","1,08287093406347"
"6261","1,77130622457065","5,43304931074887","-3","6,46039124386669","-0,360393880676279","-2,57112520338342"
"6269","-0,648665534795604","5,83101313171776","-3","-5,40104862255859","1,61035373276959","-1,32350348312063"
"6277","1,67299103004692","7,65156858668782","-3","-1,35196009854476","1,17481852648851","0,72748321662095"
"6290","-0,668166124705085","7,19420830951083","-3","3,97030987526056","-2,37708487755875","0,149792870728484"
"6298","1,66912313344497","3,65401171144686","-3","0,912450821625134","2,03272975911441","1,8249375879777"
"6310","-0,668933312989786","9,70462288097053","-3","-0,719703823221021","1,29579616713407","-0,624235124662776"
"6318","-0,132681365038187","5,10420999690266","-3","1,47172341191767","-0,628855916814132","3,45965528302411"
"6330","-0,0263170398103127","7,43493566262815","-3","-0,547900625589974","-0,180117952670129","-4,87582638424189"
"6339","1,79643240490542","8,83157538290221","-3","6,60292836883727","-3,47874637146324","2,79013442250124"
"6351","-0,643681815431843","9,94979889940237","-3","1,41397562826969","-0,709966638905665","-0,425495687988378"
"6359","-0,127672789295006","7,58116237626483","-3","-4,9512592968942","-4,34408485391015","-0,0876119464067025"
"6367","1,77632872799928","4,47128556905652","-3","5,55744909349932","3,46933836981573","-0,0180397906955536"
"6380","-0,647669332935301","8,94822175534323","-3","2,09281438118247","-1,71988470580107","-0,00371449398953754"
"6388","3,47484095283955","8,28262956181286","-3","0,335702139463222","-2,91976891374688","-1,79485923166218"
"6400","0,490878940394723","6,38230406440334","-3","-2,58968506122859","-2,26344173481424","-1,16366596976457"
"6408","0,899017023302071","6,81588786523035","-3","1,89728303744532","-3,78903376242426","0,760394656264762"
"6421","-0,82168206676514","10,3489975819247","-3","-2,10998232540784","1,91473867759191","1,95066391710493"
"6429","3,4403259322684","4,29627407721691","-3","-1,34097596794305","0,548422621597278","-0,598347368992484"
"6441","-1,31761936204153","7,1941200794938","-3","3,97368409526227","-1,55649822954175","-1,91729747262938"
"6449","-0,261346732419476","8,75979723358699","-3","0,913487349779501","2,267763545197","4,19340649994909"
"6461","-0,0518375158365229","6,5245299616946","-3","0,973424140211049","-2,06404175609445","0,657540292478821"
"6470","-0,0102818505639044","6,85828010396919","-3","2,6846457016062","2,12239208815993","6,31176881686776"
"6478","-0,00203938111833626","8,65969585478303","-3","-4,56092158765817","6,46221243379375","-2,70037143283572"
"6490","5,40455247892363","4,792756198386","-3","-1,09388109821921","-0,435504072843057","-0,556021609455783"
"6498","-1,92801960016147","9,0440401676409","-3","0,66397017525225","0,588840547195575","-0,114487965034182"
"6511","-0,382418198349929","1,50344036541407","-3","-6,56727291186388","0,882235028915229","-1,81766811006547"
"6519","1,72580056928111","10,0636177218382","-3","1,98259649130345","2,67984790669039","0,625731950899165"
"6531","-0,657691475563583","5,21121297800467","-3","0,609034704597023","-1,23243352648128","-3,45934707811463"
"6539","-0,130451572761017","4,062954716116","-3","-1,50571990806039","-0,35299565076279","-0,506393344247344"
"6552","-0,0258747657041479","6,4226390011505","-3","0,537457226705511","-1,81468394327326","-0,898363623673256"
"6560","-0,00513219952871747","4,42403565964114","-3","0,165101726314932","0,480235221031809","0,815021895937187"
"6568","1,80063436864694","8,23220104510507","-3","-3,33490143047625","3,56470645626631","0,167817575319561"
"6580","1,15880396276539","10,7711477500284","-3","-0,717259416735053","-4,40614756526305","1,82864897565379"
"6589","2,833150724717","7,82597585416685","-3","0,779664758357627","-2,68917276865742","-4,21165972221505"
"6601","-1,43805115066811","7,94812988859987","-3","0,239505566500254","1,22976268408078","1,13279566331104"
"6609","-0,285234097271357","6,28260217976085","-3","-5,00485483335201","-4,78850437029072","-3,35493981841561"
"6621","-1,85822784750707","6,7861704496473","-3","9,92660416040551","-0,0851096930368711","6,69148228170985"
"6629","2,43307716175411","6,93626538119562","-3","-1,95064201969334","2,68920108548477","-3,4162806992496"
"6642","3,08589984662533","5,27906581233425","-3","-2,29202814802764","1,48382377112245","-1,49752573551812"
"6650","0,413733377616103","5,78511639032989","-3","1,98872039799639","-2,28857908387907","2,48574545626053"
"6662","4,48702003750285","5,93595120540148","-3","2,99653501400594","2,05807973504815","-4,07635987484145"
"6670","-2,11001002346752","7,68284671505346","-3","0,613316485632079","-2,12409974009725","-2,42753413303828"
"6679","-0,418515575052848","3,79965660692119","-3","-2,5044045858255","-1,32196650833641","-3,88212607020054"
"6691","1,71864073866386","8,04609692222351","-3","1,92348038489995","2,33493850901656","3,99474288532659"
"6699","2,9441930456515","9,0137397743255","-3","1,2836843532639","-0,331223047108561","-1,97155445204783"
"6711","0,38562616360344","6,6002207677852","-3","-3,99128353204885","-1,80844779809335","0,594045890788373"
"6720","-0,923511948369471","8,58277798541713","-3","2,46672537511512","0,482021388057238","0,122317377628265"
"6732","1,61847588388707","6,47176712192556","-3","1,45056402524495","-5,00267367007085","-3,56300295961669"
"6740","1,12267325146444","3,43867892127177","-3","-5,63282924271536","1,56712592624576","1,26635772545505"
"6752","1,02433195378658","6,23656565559291","-3","1,26964866076848","3,8760154912375","3,8489389447329"
"6761","-0,796826142096003","7,77244867773092","-3","0,390023941051547","0,823753117810585","0,586612492648162"
"6769","-0,158048609896371","5,52830088563148","-3","5,19824028487919","-0,764059268397514","-0,879213200701586"
"6781","1,77030375471229","7,56134134924611","-3","5,36808797006287","-3,64599980974074","1,61305947187147"
"6789","-0,648864372357787","7,16731493310596","-3","-2,35097465094944","-2,47144999021064","-0,667862016020507"
"6801","-0,128700737393822","7,04987034516137","-3","6,04904125100049","1,29212320269076","1,65657786509612"
"6810","-0,0255274915858379","7,01486449105496","-3","1,24382679633564","-1,34348627802069","2,92928745806962"
"6822","-0,0050633185159692","8,70636782413979","-3","0,0749012628290724","4,04235312561152","0,397251098309922"
"6830","3,6023003595087","8,21054191964101","-3","-0,976991047507071","-2,55576087090644","-4,50639256594705"
"6842","-1,28549211155154","4,65888015181738","-3","-5,3785509733407","0,267974740677911","-0,721985877274046"
"6851","-0,25497436709223","5,60026216136206","-3","-2,0378585874838","1,79033211346744","2,64543345878289"
"6859","-0,0505735720117461","7,58279032329951","-3","-3,70443934833804","4,65352492151641","-0,45529042724467"
"6871","1,79162117822395","8,87564534620147","-3","3,55484116844876","-1,66712968876987","-5,47603003978044"
"6879","1,15701621743197","8,2609972394177","-3","-1,60079630036631","-0,477502045139493","1,8724547300704"
"6892","1,03114380111957","6,37585627540769","-3","2,20106021903163","1,57681141844911","0,38554892115472"
"6900","1,00617730043456","5,11202874625528","-3","-2,01666487686887","1,16521128129659","0,0793866832753706"
"6912","-0,800427075315752","7,43726614037874","-3","3,76611891654223","6,18805512262334","-1,77774823360886"
"6920","-0,158762846615832","5,42839546464177","-3","-2,53589379425251","-2,22760700838527","0,633951677151182"
"6932","3,57181441599533","5,82962599365793","-3","-4,85743100668294","1,07554345784117","1,92462859918672"
"6941","-1,29153892746171","7,65115513253555","-3","1,50784359236376","-2,40551940705564","2,98448060623159"
"6953","1,5454785895251","8,89602234764541","-3","-2,92242395494039","2,02458549410683","2,20271007332501"
"6961","1,10819440809999","8,26707086402788","-3","-2,28335982807122","1,293463473269","2,04173913997628"
"6969","-0,780192219554422","4,67572932311278","-3","2,99138322308822","-5,77025908480438","-1,57959447026651"
"6982","1,64690301838138","3,90334699789268","-3","-1,77388519909622","1,34727284113577","3,26294144044232"
"6990","-0,673340621073707","6,37506588947149","-3","-4,62334924486852","0,385888117365314","-3,12223647017277"
"7002","-0,133555544334333","7,8137304350746","-3","-1,80586783009634","0,110526713355413","0,357114015450844"
"7010","-0,0264904312382003","3,83866816537739","-3","1,44525465203416","-3,39549944510174","1,86762617339267"
"7023","-0,00525431535383603","11,4615993605187","-3","-2,94165067956736","-5,82685795040645","1,17864909081383"
"7031","-0,00104218121590053","6,32983647036391","-3","-0,596456542341335","2,33106170035913","1,03678484885237"
"7043","-0,00020671421748277","6,80024923109316","-3","0,816774247476353","-2,75949013836302","-2,58061458657012"
"7051","-4,10012837091779E-05","6,94046174118048","-3","1,94371479897584","-0,503956078000772","-1,32545740029219"
"7060","1,80164419596411","5,2803165908331","-3","1,28990017199124","-0,857922278735003","-1,06701350240908"
"7072","2,96065658813567","9,18936374759267","-3","-2,29656454002475","2,46785082541431","7,95667352702472"
"7080","-1,41276065955301","6,65256772811239","-3","1,98732686170597","-2,00673242608027","-4,1557707323853"
"7092","-0,28021778724691","5,19450611632809","-3","-0,38951217079927","3,85238506598022","1,93839791602465"
"7101","3,54772411132574","7,4618495701849","-3","-1,81246397017837","-0,896593492358876","-0,600873007347011"
"7113","-1,2963171832993","3,73378559535229","-3","-2,94239072296117","1,45677455239379","-0,123723119183192"
"7121","-0,257121494867507","8,02646322891181","-3","1,09612567528074","1,13083012341808","5,35680790608921"
"7133","-0,0509994498064427","5,60401315535088","-3","2,02952888926496","1,03747258051897","-1,89700323545439"
"7141","-0,0101156221182524","9,28584562820178","-3","-2,06935766292586","-0,702845386108208","1,40349080056575"
"7152","1,79964591838007","6,6813253805136","-3","2,05712264409705","-3,62846682824508","-0,711013379752923"
"7161","1,15860790595654","6,90501497401975","-3","1,32473797875391","-2,46642816462744","-0,146401639029214"
"7169","2,83311183730548","8,6736257775773","-3","-3,97867225043779","1,29356156228718","-0,0301449178324722"
"7181","-1,43805886389564","6,49884546256182","-3","-0,915019663403141","-3,05665264533475","-3,59439580056909"
"7190","3,31806902977446","6,85062451212648","-3","-0,973894852319749","2,83808683414595","-0,534200632941411"
"7202","0,459783594493995","6,95547673479819","-3","-4,37759985175365","1,52646787371191","4,4781938893746"
"7210","2,69450166232061","6,9867292741771","-3","-3,42318551578495","1,15079179987681","2,51027400829321"
"7222","-1,4655518693538","6,99604449127735","-3","0,255620555537442","2,75676838158448","-3,27721491199736"
"7231","-0,290688800787975","6,99882101028506","-3","4,46414329677094","-2,92398018138252","3,91339187893441"
"7243","-0,057657446775193","8,70158586051746","-3","-0,628657820210204","-1,5510695884109","-1,19421068357574"
"7251","1,79021610815923","8,20911659452527","-3","1,49969187438175","-2,87141660837599","-0,245894671465171"
"7260","1,1567375250563","8,06232986234014","-3","1,15350057081133","-2,24959258746996","-0,0506310907166907"
"7272","-0,770563805337488","4,61470366190426","-3","-0,645655642750226","3,06924631188592","-1,80451962182378"
"7280","1,6488127919218","7,28903206973374","-3","-1,89114879810901","-1,83447973532545","0,628439298305212"
"7292","-0,672961821938821","8,78808696018432","-3","-1,27375239862928","-2,95259141179805","7,30577675910103"
"7300","-0,133480410407952","4,83102480133226","-3","-1,0840941220078","1,15431388026256","-0,701605231106173"
"7312","-0,0264755285988499","5,65157206496494","-3","-1,02583291102351","0,330620492377521","0,649629948031081"
"7321","5,39970562596978","7,59808389306864","-3","2,37768348025423","0,0946968687191827","0,927856843013523"
"7333","-1,9289809621591","5,47632924249316","-3","-1,96240789810617","1,74070157854561","-0,808949076810825"
"7341","-0,382608882263653","7,54585053958676","-3","2,08997659027793","-0,501425372403761","1,62752724870309"
"7349","-0,0758895809024411","5,46076042673523","-3","1,3348303972036","-0,143619085198043","1,1292113768345"
"7358","-0,0150525216651387","5,8392727825056","-3","4,48847580352757","-8,60902733937549","1,02660534652156"
"7370","-0,00298563262288596","0,84628138709627","-3","-3,31399265843969","2,53418813850836","1,0054781899309"
"7382","-0,00059219327878368","5,76193130473584","-3","-1,71083644168358","0,725846361598223","1,00112799000361"
"7390","-0,000117460157940524","6,92904059557301","-3","-1,21836216505807","-1,5056802282324","-0,793862137073309"
"7403","1,80162903052444","7,97884964643904","-3","-6,14550742698734","2,28231892125357","3,42472813066987"
"7411","1,15900125163276","7,29175859454268","-3","0,419349267718753","-2,0598727811901","0,499265108982433"
"7423","-0,770114800442075","8,78889963560299","-3","1,12882008946771","0,410007828202487","2,6909902766251"
"7431","-0,15275047747596","8,23514157639643","-3","0,346762749126103","0,117435120859943","-1,44591002317496"
"7440","-0,0302977015319531","6,36814966598969","-3","5,18495085994557","-1,67994238293781","-2,09181537241262"
"7452","1,79564284992179","8,51360624005241","-3","0,285576930010771","-1,19475022286322","0,56928349340749"
"7460","1,15781390664888","8,15308687630544","-3","0,780536056985489","0,657797663438526","0,117218661252332"
"7472","-0,770350307554925","6,34369221835076","-3","-2,45303633076765","-3,23874919365433","-1,76995841735327"
"7480","-0,152797189763421","8,50631638652363","-3","0,246450670306274","-0,64122624995847","-1,15853875256754"
"7493","-0,0303069668054029","6,44897676927967","-3","0,0757072918499112","-4,32439611791854","-4,6208328105913"
"7501","1,79564101217638","8,53769778684167","-3","-3,36236254685865","0,0478209608688589","2,04854463162758"
"7510","1,15781354213636","8,16026766842931","-3","2,65992389438536","1,01369695877245","0,42180681859882"
"7521","1,03130194861813","1,24002072461073","-3","-0,182896786928893","5,43107979490618","-1,70724200900676"
"7534","1,00620866862266","6,58122759864903","-3","-0,0561841459356916","0,269157209842034","-4,73381388573125"
"7542","-0,800420853508683","7,87517955623123","-3","-5,09568788861854","-4,35006423570916","-5,15109639097197"
"7550","-0,158761612534887","7,26085840478915","-3","4,82027245780289","2,46762574538289","1,14526599257846"
"7558","-0,031489996174124","7,07775216738628","-3","-0,519258343645567","4,8475164847272","1,235816685329"
"7571","1,79540636105574","3,61930047619666","-3","-0,159511203272534","5,24274707449142","-1,53963281617179"
"7583","-0,64388532884031","6,29040220873538","-3","-0,049000318012837","-2,49836370434627","-2,90520781719869"
"7591","-0,1277131557057","6,08655807414444","-3","-0,0150524296481975","0,997992876787099","-2,18638736186089"
"7603","-0,0253316070575565","7,72773700899469","-3","-0,00462396260886671","-4,14130991750512","1,54981059084932"
"7607","-0,00502446527589647","7,21691127714394","-3","-0,00142043714589011","0,813839158113554","0,319114684964186"
"7624","1,80065573748513","7,0646531666944","-3","5,07799231092817","1,94667950350566","0,0657075017818693"
"7632","1,15880820122469","7,01927069914784","-3","3,63833938917595","-0,442428834171282","0,0135295428065271"
"7640","1,03149923693227","7,00574387713137","-3","-0,189527340756536","-0,126721199057616","-1,79130858785953"
"7653","1,00624780030038","5,29977476227247","-3","-6,1366496443888","3,39086099369939","-1,1629348723097"
"7661","1,00123923664175","5,79128895641337","-3","-3,96354880984318","4,11195105282687","-4,62173799627971"
"7673","-0,801406528770907","9,34166556409144","-3","5,16805476874171","-1,82224817273388","-1,53983054424925"
"7681","-0,15895711892803","6,69796322280315","-3","-0,412422939701399","2,90522535120958","-1,9052485305178"
"7693","-0,0315287744119727","6,9099740946572","-3","-5,20512104331179","0,545697798906972","-0,186395744961435"
"7702","1,79539866948256","3,56929208637643","-3","1,40103653420622","2,58345635618475","2,75571446818624"
"7710","1,15776547402733","4,57355929830649","-3","-1,26242451111393","2,16711453536253","-2,22667734598853"
"7722","-0,770359914052636","9,97870574194236","-3","0,612195248718093","3,76144356650213","-3,04667413571745"
"7730","-0,152799095189874","5,18590388175647","-3","-1,50474901909555","-1,92264110717934","-0,421421673009667"
"7743","-1,83195967321557","7,45928556469369","-3","3,92337457828938","4,59004898539099","-0,880867480429693"
"7751","-1,16501726398645","2,03108408747806","-3","-0,794776805167752","1,74184611783156","2,61271884640576"
"7759","-1,03273079007342","3,41313955468042","-3","6,52709036460357","-3,21467589621753","-7,6384041353911"
"7771","6,20011723789478","7,22895332235123","-3","-3,68774973788663","0,079247208393759","-1,16097900607328"
"7784","-1,77022118267082","9,77017972492916","-3","-1,82565104640547","1,73627646126062","1,7609479171451"
"7792","-0,351119249670054","5,12375004855984","-3","0,439177436950974","-0,502692821821643","3,95077783662037"
"7804","-0,0696436856002686","7,44075982370286","-3","-6,6363270938759","3,28317457914294","-4,77470149846873"
"7808","-0,0138136628753531","7,13137407482574","-3","5,34700280995457","2,36752898706031","2,81095660313163"
"7824","-0,00273990786658155","7,03915771494625","-3","-3,7430709144994","0,391689916212018","-2,21530268085594"
"7833","-0,000543454345534226","7,01167145528405","-3","-0,842645183439464","0,825766818835752","-1,25023763189342"
"7841","-1,80176012137729","5,30154155237876","-3","-0,951662103387534","2,66367418848482","-2,8456197271402"
"7853","4,24592973222163","7,49375284409629","-3","2,40046804388906","-1,23706602962287","5,0022597459247"
"7861","2,44547493279882","7,14716931897462","-3","1,43021040597464","-0,354322499981017","-2,76410108486593"
"7874","3,89001124411744","5,34192841507796","-3","-5,6390816801398","1,61209270767858","0,430856098084368"
"7882","-0,426772999043231","5,80385338910444","-3","-3,81070068393728","-0,538261738090104","-1,70537871165337"
"7894","-1,08464943063071","9,34541055315744","-3","-1,55622995450292","3,27298687126634","2,44294736377755"
"7902","-0,215137688988396","6,69907946445522","-3","1,52194102290446","2,36461100690608","-2,29107784536558"
"7911","-0,0426720596684907","6,91030680468756","-3","5,54595440048392","-1,3227242011447","-1,26584016286938"
"7923","-0,0084639036744949","6,97326580164829","-3","-1,29633578248358","3,04829983403883","-1,05473797916067"
"7931","1,79997353288741","5,29009425853948","-3","1,29458758195371","2,30025577376784","0,782823539904212"
"7943","1,15867288753123","5,78840355907591","-3","-7,37355326810941","0,372421411100119","-1,63290664314567"
"7952","1,03147239777624","5,93693098788069","-3","0,0421053154772824","-0,893330442945168","-1,13031902429347"
"7960","1,00624247681628","5,98120147828416","-3","-2,37268475303815","-0,255869184242312","0,767260979195679"
"7972","-0,800414147732199","11,100208681581","-3","1,27113390747584","1,64029186934709","-3,43020545813552"
"7984","-0,158760282459735","4,52018210582777","-3","0,390480194653143","-2,24376323217621","-2,29448731793532"
"7993","3,57181492458972","7,26085871700773","-3","3,50557088974367","-3,06981906847321","8,70392979030217"
"8005","0,510113501890069","8,77968953385352","-3","-0,923122107476691","4,54789403008626","-0,413717687481268"
"8009","0,90283215378751","8,23239638835678","-3","-1,97638384574554","-0,69738466354932","4,29709639950243"
"8021","-0,820925344516783","4,66539415435105","-3","-1,29993579110795","1,51383227490162","-2,1152037727162"
"8034","-1,96448095905545","7,3041410161248","-3","-2,78494696196037","-0,566405653901423","-0,435532309271084"
"8042","2,41200210448602","8,79259037394159","-3","-3,93393776087586","-0,16223084498967","-3,67786733604007"
"8054","1,28006732961565","6,53430437452225","-3","-1,59408720739221","-1,76004477182133","3,03680090324675"
"8062","1,05555070269997","6,86119349210745","-3","1,51031163642496","-2,93127162633534","1,41938871911964"
"8074","-0,790633975941054","6,95862695378863","-3","-1,22885624349542","1,16042032850649","-4,29592870231067"
"8083","1,64483192031544","6,98766823703876","-3","4,008126203658","2,04594785604251","2,90953860464684"
"8095","-0,67375141855259","6,99632436110807","-3","-0,768741915392194","-0,413996228313874","-0,400909697807529"
"8103","1,66801530341553","6,9989044290499","-3","3,14946893029269","1,59500085962862","-0,0825495532617475"
"8111","1,13249927997669","6,99967345113544","-3","-1,03251322797548","-0,543157213501554","5,36528577402705"
"8124","2,82793325213561","10,4037772147681","-3","1,3756313506962","1,55800635644461","-1,89525759494056"
"8132","-1,43908602420588","4,31260184394402","-3","-5,65584784458854","-5,69448827429433","-0,390244158806526"
"8144","3,31786529491864","5,49704950475715","-3","-2,12304153762363","-3,77175979184276","3,50783533405393"
"8152","-1,34190914431353","9,25396375085942","-3","-2,0377971850795","0,206107972189659","-3,07181144522395"
"8160","-0,266164554175019","8,37375985463054","-3","-0,318801382338258","-2,36812290272607","2,16159120717834"
"8173","-0,0527931195635658","8,11140388136236","-3","2,5948768123833","1,32171831813052","-4,14310505111424"
"8185","1,7911809361352","6,33126807122544","-3","-5,28130728484928","0,378568748584487","2,94100585077006"
"8193","-2,44637576050778","8,50261321135586","-3","4,76325195229572","-3,31872640166823","1,39966398103054"
"8205","0,514767064223844","8,14981026419863","-3","1,15603505359972","-0,664133454268028","-4,29999013641008"
"8210","0,102102848567451","8,04465285581873","-3","-0,644877073846718","0,809777796655678","2,90870233260767"
"8222","-1,78140046620367","6,311372078549","-3","1,49470947458904","0,231937896983259","-2,19517628744212"
"8234","6,05162035089167","8,49668295753044","-3","-2,23364907858138","0,0664320363921892","0,548000901823719"
"8242","1,80362946250968","8,14804267657403","-3","3,69946344238404","3,446184263133","-5,26944673321812"
"8255","0,159398032659075","6,34218873042533","-3","-0,863560167344712","-2,72651654336527","3,70908578700947"
"8263","0,833268557097137","6,80393097940666","-3","-3,65089653854957","-4,92166841564002","-0,236278452724975"
"8275","0,966929206529925","8,64349640652796","-3","2,57128900818108","-1,83682910398949","3,53953773567746"
"8283","-0,808211843353599","6,48986502007631","-3","-0,210124577340709","3,18747071209215","0,522905049985018"
"8295","-0,160306937229514","6,84794777695323","-3","1,62826128881033","-0,0870393622650332","-0,892330920128307"
"8304","-0,0317965077290562","6,95467889981408","-3","-3,88543278880785","-0,0249299582205015","3,40445285647254"
"8312","-0,00630676327074003","6,98649146930637","-3","5,88486081613244","-0,00714047990130588","-1,29900408012228"
"8324","-0,0012509318096216","5,29403633710266","-3","-2,88503652067491","-0,00204518807332071","1,52662217751555"
"8332","-0,000248119411677166","5,7895785457609","-3","-4,96468431726913","5,14014924779852","-2,47975433581239"
"8345","-4,92139075667486E-05","9,34115575442877","-3","-0,217913152061","-1,52774994370289","0,489404687041347"
"8353","-9,7614639725964E-06","3,29393672073201","-3","0,933059161167977","1,27599767681542","0,100771167423503"
"8361","-1,93616364965658E-06","4,49148612724037","-3","1,97943641372192","-2,34810497783528","0,020749348040138"
"8373","-3,84033551604082E-07","8,2523055153877","-3","-0,391936041051327","3,75460857461572","1,7983668035654"
"8382","1,80165225230111","7,37326559644451","-3","-1,81320855996727","-0,924598796869746","-0,62970619806171"
"8394","-0,642646470855183","7,11125656141979","-3","-2,94261945383208","-0,264825117933439","3,45852875835431"
"8402","1,67418489736427","5,33122416064168","-3","4,48167451510969","-3,5030083379579","0,506224847623268"
"8410","1,13372300457069","5,80066284984102","-3","2,76234670637499","-0,716915791511098","-0,89576546726151"
"8423","-0,775128681887113","7,64252229891876","-3","-4,53705258118417","2,50823813689997","-1,97853752563466"
"8435","1,64790735928737","5,48957467490631","-1,17157287525381","-2,77935831930821","-3,70874297012009","2,38670243334315"
"8443","-0,673141412393583","5,84786123588021","-3,68629150101524","-3,93222098323519","-0,77584264541768","-0,508564595172777"
"8451","-0,133516031756483","7,65659037855242","-3,11774900609144","-1,59355982969946","2,49136020985952","-5,48699948947674"
"8459","-0,0264825940103876","7,19570511848638","-3,02020253553339","3,20328319369856","-0,286420484620562","3,66429045544672"
"8472","1,79639956761532","8,76026967463087","-3,00346620710888","3,3696371034829","1,63154131531968","5,13678112710433"
"8484","2,95961632831466","4,82273350535377","-3,0005947071199","0,727929883691581","1,18088710895536","-0,148213585623875"
"8492","-1,41296699266629","9,05297528549164","-3,00010203561049","-5,85481554848317","2,76538832982901","-2,8246124043252"
"8500","1,52139361553378","8,31385268462918","-3,00001750654307","1,20145658802402","-1,20793289688663","2,21249087487039"
"8509","-0,698235118883238","6,39161051352274","-3,00000300364793","0,369075987667205","1,36760020477347","1,24965866528514"
"8521","5,26646367541112","5,11672449742326","-3,00000051534451","-6,65786158949498","2,81886700380864","-4,33087707147149"
"8529","-3,75706152127536","9,14060304218179","-3,00000008841914","-4,81646969270768","-1,1926154465595","-0,685846253466721"
"8541","2,05644792394562","6,638033979307","-3,00000001517033","5,90604562052693","4,79914414355322","2,65287480983191"
"8550","-0,592108342669404","8,59404869434457","-3,00000000260282","-3,57133830300356","3,51531384380858","-0,453758211366332"
"8558","-0,117443311060029","3,07125195334607","-3,00000000044657","-0,789890565557899","-0,27955964513324","1,70066303819744"
"8570","-0,0232946072851464","7,82898664511553","-3,00000000007662","-0,935456388680299","2,34708475297339","1,14427044570517"
"8578","1,79703189735913","5,54515274634619","-3,00000000001315","0,712636732768178","-4,75490078910949","-2,55848269988642"
"8590","2,95974174944698","5,86442698739239","-3,00000000000226","-6,55232301025229","4,06525013426271","-3,11499471734448"
"8599","0,388710212796534","7,66152801161621","-3,00000000000039","0,294379406394957","-2,54920267178602","-0,435489263598613"
"8607","0,878752094080121","8,89911411626681","-3,00000000000007","4,47604964553432","-3,15730353837523","-2,6778584726949"
"8619","-2,62735389676324","4,86411785820013","-3,00000000000001","-2,317809855482","-2,33147679520308","1,44861393518778"
"8627","0,478870472300326","7,36337314513281","-3","0,287990951846444","3,04579290156003","-1,49581667002408"
"8640","0,0949828431436761","5,40637071700261","-3","1,78127762143495","-3,55477564458524","0,69200296588674"
"8648","0,018839625772537","2,41918669051102","-3","-5,53123718490365","4,40899196478371","-1,65160710824571"
"8660","0,00373679590441773","8,63463029495802","-3","-3,77757188511883","-0,737169223024719","0,659924841690747"
"8668","0,000741184766611885","7,48722236268749","-3","1,83956599981936","1,50243711551934","0,135882222769413"
"8680","-1,80150531620064","10,549097372693","-3","-2,82052199994394","-2,28324781896533","5,41026210068652"
"8689","0,642675615288574","6,05785363985062","-3","4,51918168668344","2,05960672476985","-3,68009111379384"
"8697","3,73077786878603","6,71918128704375","-3","-0,611750552549391","-0,410084032522792","2,03634301494639"
"8709","-1,26000889674283","6,91629840873779","-3","3,19769517739474","-3,54461363672883","-0,58070556264716"
"8718","1,55173249770136","5,27311440208165","-3","-4,40331768928493","0,98474589459429","1,67452386722377"
"8730","2,91108718469796","5,78334249676293","-3","0,647342865830767","1,99563089387882","2,93298264046748"
"8738","0,379059693169419","5,93542247384822","-3","0,19885754503935","-0,428408095908948","2,19210635360717"
"8750","-0,924814392490208","9,38462639329158","-3","-1,63172241351193","1,59087298865536","-1,5486330184026"
"8759","1,61821754712843","10,1146427915043","-3","0,498750460592096","-0,544339525138782","-0,318872216198921"
"8767","2,92427433944316","4,22642164939397","-3","0,153211377487425","-0,155910627862323","-1,85975197264014"
"8779","0,381675334607191","8,87523694780425","-3","3,43268417547454","-0,0446561801188811","-1,17702774875609"
"8787","-4,52760024304801","6,55893823767137","-3","-2,63832176177858","1,70078784761943","-2,83054540197325"
"8799","1,10196103418756","5,16659865511768","-3","-4,8888958999269","-0,512857529286804","3,21126923740932"
"8808","2,02022373371756","7,45353139620423","-3","-0,194631674175625","-1,86047184714736","-0,338781669784907"
"8820","-0,599293326454081","5,43324353114186","-3","0,940211008792392","-1,24645777084145","1,724337352376"
"8828","-0,118868435863677","10,9368828417972","-3","0,288823841114678","4,07014419125387","1,14914511965271"
"8840","-0,023577277471585","7,87537530751168","-3","1,78153347706249","2,59293412607075","-0,763384580669859"
"8849","-0,00467649808742856","6,26091675094954","-3","-0,45272993284724","-1,25732751539903","-0,157185162758165"
"8857","3,60237708444","5,07776955820193","-3","-1,83188386283078","-0,36012582827686","-0,0323653057933535"
"8869","-1,28547689334007","4,02318020656364","-3","-4,64116588037128","5,03758719808288","1,78743019871502"
"8877","1,54668097987785","6,4107837023844","-3","1,57427817342734","-1,55712593575847","1,16213629025243"
"8889","-0,693219429046544","6,12243931037286","-3","0,483603217554626","1,26758375654333","1,03338477068789"
"8898","-0,137498459608473","9,440369141505","-3","-3,23706081465667","1,07664178249374","-0,787220285180698"
"8910","-0,027272499301853","5,02544580680504","-3","-2,38001326600132","-2,40520482309054","3,42609572519194"
"8918","1,79624289174003","9,11339626677625","-3","-2,11673644547303","7,16541063171884","2,2936411008935"
"8930","1,15793292354635","8,33186192705433","-3","-0,343050769112503","3,19306380834664","-1,52772644499001"
"8939","-0,770326700830441","6,39697839742386","-3","4,28023718427743","-3,79901572302795","-0,314567435584031"
"8947","3,45051214952195","8,52219901034791","-3","-4,07077112508607","-1,80169871673849","3,52341759541726"
"8959","-1,31559894956762","6,45371078744219","-3","5,82792664955803","2,19753281576165","-3,0686029702946"
"8967","-0,260945988309753","6,83717154779642","-3","-4,59533570470187","-3,79773570252638","-1,42593694292654"
"8980","-0,0517580291754813","6,9514669075692","-3","2,28116631751231","2,62582459815377","0,706391593264678"
"8992","-1,81191841304304","5,28359682073354","-3","1,39356205518793","-1,96148531659045","-1,64864440924244"
"9000","0,640610201776502","7,48840418845413","-3","-2,26472059967299","0,438188128678744","6,04281806762401"
"9008","3,73036819882517","3,74170053727727","-3","1,99710901601241","-5,01522846478139","0,0383444973747742"
"9020","0,541562174647611","6,32688510467628","-3","1,30630236544951","-0,150048383488468","2,5960841399429"
"9029","-0,892582403671693","6,09743226558261","-3","-0,598716390982371","0,957022893618741","-1,46545172852097"
"9037","-3,78034629836055","9,43291547355078","-3","-1,87672950832421","3,70126877069882","-2,09583911904461"
"9049","3,05182944262875","8,42709869302453","-3","-1,26932293053877","-2,6534548164543","0,568454981429042"
"9057","-0,394676736157862","8,1273022009674","-3","7,38131432769906","-3,18716361022484","-1,67704633054227"
"9070","-0,0782832116226824","8,0379440411217","-3","-0,0397211921040812","-0,626451021760432","-2,9335020297993"
"9078","3,58777736420154","6,30937243094819","-3","-1,01220197080216","-2,60658582794923","4,98416428736185"
"9090","-1,28837271385431","10,1980242105208","-3","-3,69655788076246","-2,17373931695267","4,40855054496154"
"9098","1,54610660062169","2,54933726908675","-3","5,94288138377281","-0,336184358110184","-3,88634913617255"
"9111","1,10831897263869","7,67342333127602","-3","2,21121549915002","6,04444455359951","-1,59431546069226"
"9119","-0,780167512468216","8,90265966767831","-3","-3,01354527181856","-1,26874018529074","2,46581590948941"
"9127","-1,95639673797214","6,56711192832764","-3","3,45988678129942","1,35018368057146","-0,492274687124723"
"9139","0,611953262440732","5,16903492764102","-3","4,14127282643007","-2,32685649983572","-0,101362116522613"
"9148","0,121379504688306","7,45425755823526","-3","-0,035030992793845","2,04711625420735","-3,60905982084242"
"9160","0,0240753421259936","5,43345997297677","-3","4,06766746927724","-3,84081826307872","-0,537220036885004"
"9168","1,80642761652517","7,53307280822764","-3","1,63516769644247","-2,5272502141083","2,68347778064779"
"9180","1,15995303999262","7,15888913469317","-3","3,58073655306676","-0,43743753445753","1,34663750834302"
"9189","-0,769926015437109","7,04735892871273","-3","-0,20722238179368","-4,26602661668325","1,07137460533873"
"9201","1,64893929606346","5,31217865801414","-3","-4,44927584009059","1,77811759468525","4,60288522425571"
"9209","-0,672936730136883","7,49692336880503","-3","5,71165361654172","-1,20428695977513","-3,84633453675844"
"9221","-0,133475433507464","7,14811433421404","-3","2,1401845377174","-2,77209055383574","-5,17426502352392"
"9229","-0,0264745414422266","8,74608463570994","-3","-3,03536530469117","-5,64830014381054","1,93458983784711"
"9238","-0,00525116364980362","4,81850547397616","-3","-1,62524478002816","0,668626178249218","0,398342888017803"
"9250","-1,80269388455601","3,94590324671154","-3","2,19354987960855","1,19150901678404","1,87611542927872"
"9258","2,4440921939961","6,38775032102803","-3","3,05945667424978","2,05485232960161","-2,40779171690139"
"9270","1,28643232414906","7,81751119132963","-3","-1,06016413324525","-2,12502413890773","2,29831659005079"
"9279","-0,744839143928312","2,13785779448883","-3","-2,01848184705213","-1,32223127617391","-2,32085813210929"
"9287","3,45556754708639","8,55077663714011","-3","-1,31286789499411","0,6212843291236","0,522122305753018"
"9299","-1,31459622323207","4,0583541659904","-3","-1,0961100288644","-4,9627857479618","1,90160230498395"
"9307","1,54090522859735","9,82514229544928","-3","-4,415143186603","-1,84860599837665","1,18564496669252"
"9320","-0,694365035864349","5,14013234218965","-3","3,33651973789428","-0,243059134794417","1,03822533889693"
"9328","-1,93937801652654","7,44564277481002","-3","-6,74629121410324","-0,783195744386257","1,0078708114732"
"9340","0,615328886211829","7,13282950054656","-3","8,69884198635292","0,775675778430331","-2,58656814888527"
"9348","0,122049051803254","7,03959152310496","-3","-1,32779883212062","1,93574868512306","2,26150552093796"
"9360","0,0242081452372209","7,01180075732665","-3","-2,10069667013109","-5,58629469121873","-0,534343340973434"
"9369","0,00480162923978372","7,00351736590465","-3","-1,33812350333753","-2,02719246202941","-5,49230747768738"
"9381","0,000952391979245773","5,29911112226544","-3","-1,10386831050886","-2,00778850998749","0,0750087178596139"
"9389","-1,8014634237418","7,49302842346992","-3","2,3537117509174","-0,28865245327266","-2,57274407775544"
"9398","0,642683924560238","7,14695339618753","-3","1,41584731938442","-2,50983300278833","-2,11793121496084"
"9410","1,92912718843745","5,34186405654331","-3","-0,565065227494241","-2,14602721261036","-0,230188301448084"
"9418","1,18429021437875","7,50577147963065","-3","-0,173582640448813","-2,04182535596191","-2,6355858541915"
"9430","-0,765098793566081","5,44881435284541","-3","3,33229617466303","4,84233369091246","1,45731810421074"
"9438","-0,151755564191744","7,53764937655643","-3","0,716459107034332","-0,613050768494982","3,88825875675836"
"9451","-0,030100362798658","5,45831596572117","-3","-0,779910605853223","-0,175591015925517","-1,19938573426434"
"9459","-0,00597033687322368","7,54048145319722","-3","-0,239581088502594","-1,76387141409652","1,54713415313554"
"9467","-0,00118420241703411","7,16109737561317","-3","5,00483163371426","-1,21878931489956","-2,47553080509411"
"9479","1,80141744468123","5,34607984961579","-3","0,230246024190441","5,79164738085637","2,28436873221835"
"9488","1,15895928407343","4,10315350359554","-3","5,8419675868834","0,372431574675201","3,0585531154138"
"9500","-0,770123124609747","8,13655803475892","-3","-3,89821291098908","-2,60690587652783","-3,16432117157883"
"9508","1,64890019991803","7,33876558677197","-3","-0,197493770978918","1,96690404815564","-1,44564585692449"
"9520","1,12870784370697","8,80291066787582","-3","-0,0606682000071632","-0,436636086613946","-2,8858553756371"
"9529","1,0255289011065","8,23931774287806","-3","3,36698241222109","-1,83864037536389","-0,388308189166943"
"9541","1,00506359809111","4,66745715215139","-3","0,727114387893255","0,473373580096148","-0,874049228556252"
"9549","-0,800647975582349","3,90088137206108","-3","0,916172146532477","3,56274113371111","-0,974066030399081"
"9557","1,64284566680392","8,07626825171989","-3","-2,41137021963899","2,44760290240004","2,59352874273231"
"9569","-0,674145387311661","7,32079544965363","-3","-1,4335594502287","5,55535985354591","-2,26007229566141"
"9578","1,66793716062951","3,6917426195895","-3","2,25243378196694","1,0183320546152","2,32873284662461"
"9590","-0,669168547936227","4,6100572381088","-3","4,77035479848592","-5,13548433652315","-0,520500857908634"
"9598","-0,132728023342075","8,28764714398836","-3","8,62226473952301","2,24266441996311","1,68692035328434"
"9610","1,77532603409702","5,68186234522095","-3","-1,65851307900595","-0,357652344441104","1,14144074987492"
"9619","-0,647868214936068","5,9051750231845","-3","-3,20228892783019","5,03829565741759","2,82321783949314"
"9631","1,67314917658452","5,97173620886121","-3","0,0162874292624408","3,58381201628891","2,16950516602341"
"9639","-0,668134756707592","7,69351289075583","-3","5,08343199834532","-3,68709697448434","-1,55328672957104"
"9647","-0,132522973259031","8,90864761655293","-3","0,254391305423549","-0,0560644188653414","-0,319830441405408"
"9660","1,77536670530354","6,56889671269591","-3","5,84938478664529","-0,0160580636576097","1,72823951649187"
"9668","1,15379218057631","5,16956690533621","-3","2,87530378946492","1,70897896747614","-2,4382401959616"
"9680","-0,771148007556938","5,75247884755105","-3","-3,80954369232803","-0,51051141517828","-1,29614171547608"
"9688","3,45034924524514","7,62816044381803","-3","-0,170255433964323","1,56735682004057","2,52721155443535"
"9700","2,28767339569493","7,18723121462257","-3","1,64050870883013","-0,551075065080907","-0,479632979802048"
"9709","0,255407019723009","7,05580664633381","-3","-3,8816704983637","-0,157839832362217","-0,098759118147519"
"9721","-0,949340612346359","5,31469660776177","-3","2,50039745205224","-3,47236543536657","1,77375934071594"
"9729","-0,188299499944662","7,49767387577224","-3","-5,31033044188711","1,00543934402448","-2,42886740908516"
"9746","1,7643035611096","8,85027530577354","-3","6,44714586756337","0,287979601268845","2,29397698693327"
"9756","-4,25335915373413","6,55149810258744","-3","2,3661207318947","0,0824835941022648","-0,5276572841723"
"9758","1,15635611568992","5,16438102816834","-3","-2,96595986395619","0,0236250875619336","-1,90274198805553"
"9770","2,03101287147606","7,45287040426914","-3","-3,29673364347092","3,43392342598859","-1,18587963382313"
"9778","-0,597153326101901","8,83692106089647","-3","2,68008446662641","2,41070672131584","2,54991513489733"
"9791","1,68320835669651","6,54751769994779","-3","1,51610590017596","-1,30952139031894","1,31913621116948"
"9799","1,13551278671836","5,16319461850463","-3","4,54416190651813","3,05208140497081","-4,31657125545895"
"9811","1,02687864570769","7,45251677976992","-3","5,16716133991105","-4,55297448102865","-0,682900605787612"
"9819","-2,59797334015662","7,13487838520752","-3","4,35854081503113","2,40950785703114","0,859386938659169"
"9828","2,28635036576467","5,33826494584696","-3","0,724521209869655","-2,02344311566257","3,76514137928536"
"9840","-0,546507728656285","9,20663599228971","-3","3,30099465078105","0,420442073306706","-1,22473629216986"
"9848","-0,108398535450337","4,95577866705465","-3","-0,293156422113692","1,83400205926568","6,92419752081896"
"9860","1,78015173136979","9,09263108914828","-3","5,68118335485814","-3,90185878357235","-6,1624577240412"
"9869","2,95639360782801","8,32567260159234","-3","1,13082436437661","-4,25831188568213","-1,06297897302762"
"9881","-1,4136062117708","4,69319631679436","-3","1,73299754700121","0,0667489160584998","4,3693154661603"
"9889","1,52126682791281","5,61049053106133","-3","0,225169844931343","4,44627502433157","-4,68852225528579"
"9901","-0,698260266912637","9,28777629246721","-3","0,761979577450549","0,98708779725813","-0,759487400866105"
"9910","-0,138498298061756","6,68190083956869","-3","-2,45873670403145","-0,717276679134195","-2,74457150467027"
"9921","1,7741815135423","5,20324922350823","-3","1,93750912197278","1,50813477086957","3,22897174461566"
"9930","-0,648095227923111","7,46445556454991","-3","4,67361295105949","-2,28161588708831","1,45895777217995"
"9938","1,67310414908713","7,13843689195126","-3","3,51411791240897","-1,36708254390184","-2,49368681602607"
"9950","1,13350864066641","8,74320015088264","-3","6,54355121566514","0,60843795477645","4,0747247043666"
"9959","-0,775171200468385","8,22152026337676","-3","-6,3755026735565","-1,53930853846623","-2,95508574733223"
"9971","-0,153753402647486","4,66215238688474","-3","0,0415064767444309","2,2726870449698","2,18562568244252"
"9979","-0,0304966294044409","7,30317476607481","-3","-3,37286871057684","-0,349053214488756","3,0382213681618"
"9991","-0,00604893543178453","5,38842782400408","-3","0,963886949360939","-1,81355474414954","2,21377559734088"
"10000","-0,00119979225811001","7,51965040312047","-3","-3,08952223986019","3,90771533741537","0,24992319684071"
"10012","-0,00023797600071192","5,45295114262297","-3","-0,641881273211324","-2,59432404907416","0,845554983200917"
"10020","1,80160512648765","9,2408196728034","-3","-0,889989347839","0,256929411351583","-2,61998988745748"
"10028","-0,642655818150552","6,66790482148009","-3","-4,3518248822328","0,0735901473072514","-1,33356499538299"
"10041","-0,127469285123269","5,19907753219528","-3","3,35597051618771","0,0210778118091446","0,725411494866806"
"10049","-0,0252832358953775","9,16514941226919","-3","3,4165411905","-1,70754120290114","0,149366291610486"
"10061","-0,00501487096850922","6,64535033730322","-3","-2,64328073256685","0,510923222087854","-3,55743343666013"
"10069","-0,000994687979610812","8,59622942795766","-3","0,18800940726599","-3,2808172142745","-0,526589875095271"
"10081","1,80145503442862","4,77383922215929","-3","3,44337379783578","4,48745959189022","4,47976098706173"
"10090","-0,642685588560975","10,7403389955344","-3","2,44339064375629","2,71246229392378","4,30469107902387"
"10102","-1,92912751848812","4,41291836598637","-3","-4,63503283698937","2,20406462959964","-2,11363998564622"
"10110","0,617362048629738","7,22888739424599","-3","-1,11664736611171","-3,08228650494381","3,15297847632066"
"10122","3,72575698178122","7,06822280081184","-3","0,65697659521642","-3,30999029230825","2,23740472894815"
"10131","-1,26100477798923","7,02033467402582","-3","0,201816934686358","4,47910379058815","-1,53930582909206"
"10139","3,35318729544829","3,60218646157148","-3","0,0619962346037313","-2,43066602246891","-3,90514048872672"
"10151","-1,33490310775481","7,98723843227976","-3","-3,36657445267825","-4,83693041970892","4,78409848412728"
"10159","-0,264774923136965","7,29425897892318","-3","-4,11260817038617","3,32817672702806","-6,39721050420026"
"10172","1,74913483899038","5,38577036017593","-3","3,42945560509675","-0,0467381125494799","1,68277851064451"
"10180","2,95024147944656","5,81692103879951","-3","-1,63931354775971","1,70019153708634","3,93468231780242"
"10192","-1,41482647211019","5,94543098564268","-3","-1,19639101522303","-0,513028325536796","-1,1898268629126"
"10200","-0,280627536357438","7,68567228419966","-3","0,632480107911494","1,56663592240931","-0,244992018226049"
"10212","1,74599051007049","7,20437335057813","-3","-4,88413680787765","1,16229679887687","3,53774356371464"
"10221","-2,45533917629302","10,4647906249294","-3","-0,193169726556389","-2,38067137150911","0,522535619924294"
"10229","4,11629384852045","7,7346622141485","-3","2,63346965702051","-1,39545417972108","2,69578180522351"
"10241","-1,18354269982616","2,81510087586126","-3","1,50178627592427","-1,11326664077053","2,14326537248402"
"10249","-0,23475293866298","7,75263755654055","-3","4,5397630547274","2,39471467055597","-1,55868965009455"
"10262","1,75508962970541","5,52239592883261","-3","-1,60542815287712","-3,74125854927134","-0,32094293301627"
"10270","1,14977026984605","7,55958130172222","-3","1,19963735818323","-4,21231250072415","1,72801044823539"
"10282","1,02970658428789","3,76291578172901","-3","2,75413624140488","0,0799241360432188","-2,43828736239919"
"10290","-0,795760096650751","6,33320857828291","-3","2,2316634499378","2,73647034799853","-1,29615142730987"
"10303","3,44546749468197","7,80125433077386","-3","0,378355247114682","1,49736271153878","-1,06097923835705"
"10311","-1,31659954510879","10,6426985973383","-3","0,809036669792102","-2,28470123815335","-1,0125559668727"
"10319","-0,261144454105483","4,38381540267438","-3","2,63414744090353","-3,08154459991189","2,58560344913541"
"10331","-0,0517973944039421","7,22021288564927","-3","-2,88362461910867","1,11737889466042","-0,46760976148641"
"10340","3,59303076437536","7,06563725312764","-3","-3,27144104271046","-3,10711517664027","5,28599971948246"
"10352","2,3159739427843","7,01956401863333","-3","2,68785411198804","4,53721161704697","-3,70567743438357"
"10360","-1,54063196113215","5,30389403133045","-3","-0,174316890867544","-0,700444337975161","2,03107464816493"
"10372","1,49607156630304","7,49445403038688","-3","-5,13197713947135","-1,91420077141358","-0,581790348888568"
"10381","1,09839464008683","5,44544104306573","-3","1,42350564280393","2,16530979103141","-0,119793892877604"
"10393","1,01951634775193","4,13276937183281","-3","0,437287336308815","-0,379808385308656","-3,61285502687571"
"10401","-0,797781306339966","6,44344814778964","-3","1,82714004468007","-1,82236369108633","3,05018730199785"
"10413","-0,158238064500087","6,13217536403301","-3","-2,1315295827876","0,478035574950525","1,4221450536327"
"10422","3,57191850530605","4,33745927598564","-3","-1,34759507959321","0,136919740693202","-4,2953611575894"
"10430","0,510134046883968","8,20639585213411","-3","-1,10677788826321","1,75279512343001","1,11556106874946"
"10442","0,902836228839212","7,35958163703816","-3","0,660008404539372","2,92919517004239","-1,56439412147357"
"10450","-0,820924536239766","5,40524060976202","-3","3,58836738131857","0,55256327409549","0,677882484361988"
"10462","-0,16282847026232","7,52466166788511","-3","4,18074083952418","-0,84173391234832","-1,65451459451527"
"10471","-0,0322966479347909","7,15638208726892","-3","3,36271230760248","-0,24109082053848","-1,13476822255986"
"10483","-0,00640596491598443","7,04661167132175","-3","-3,65981645122573","-5,20978866586015","-1,027749532194"
"10491","-0,00127060822496745","3,6100186550322","-3","-0,12426065567491","-3,63293132764787","0,788380612363448"
"10503","-0,000252022182845008","7,98957291721787","-3","-0,0381716864999828","0,245871450713967","1,95642638228395"
"10512","-4,99880131403916E-05","5,5930175284625","-3","1,68108357440257","-0,643155436734024","-5,97944403472947"
"10520","3,60329474194053","7,5806309682643","-3","-7,25482539099395","-2,61137033413761","3,56289336418375"
"10532","0,516357450361688","7,17306444954547","-3","0,0785773852522613","4,67920367546748","1,52771410476689"
"10540","-0,897581702045279","3,64770951489488","-3","2,71694777407128","2,76738195174543","-0,685435105337057"
"10553","-0,178033240605682","8,00080715767619","-3","-3,55099869954254","0,506216464253469","-1,93522932553574"
"10561","-0,0353124787284955","7,29830331021124","-3","-0,783642433656203","-0,855008642343433","-1,19256895865194"
"10573","-0,00700414793163434","7,08891309799342","-3","-0,933537022241528","-0,244892990677996","-1,03965102763972"
"10581","-1,80304158490654","8,72843895382431","-3","-2,67239275996309","-1,7837210004241","2,58002442429727"
"10593","0,64237089996792","8,21712050073378","-3","-0,513743081359275","-1,22447466627351","1,32533588257326"
"10602","0,127412772265168","6,36277825504153","-3","4,22780213638836","-2,77787275014871","1,06698848122984"
"10614","-1,77638030177171","5,1081306758465","-3","-2,39406911906026","-0,509221256098074","-0,780301092882919"
"10622","2,4493114318709","5,73416699747773","-3","-1,42824471738902","2,56772634953998","3,4275204256575"
"10630","-0,514184780644602","7,6227023638562","-3","-2,82436223852195","1,44903077617002","-1,29425433836879"
"10643","-0,10198735397534","3,78172981761414","-3","-0,560426653577752","1,12861213821341","-2,06058861711381"
"10651","1,78142337428709","6,33881634111706","-3","-0,864967266732631","1,0368373015251","-3,01247553576989"
"10663","1,15499350676641","9,50486306926082","-3","-2,65132878604109","-2,4166056884199","1,37971440688587"
"10671","-0,770909727304389","3,34273176935415","-3","-2,20008198165492","-1,40574654625452","0,284090927558219"
"10683","-0,152908149368133","6,20796738588347","-3","1,32415583016315","-1,1162145974305","0,0584959138776064"
"10692","1,77132335308864","9,46586187289199","-3","0,406768022843437","0,680291967278863","3,60023342951857"
"10700","2,95464251955259","6,73498151323709","-3","-1,56785430066725","-1,51872799326179","-1,25869176308265"
"10712","0,387698792420401","8,62294514064429","-3","0,518370134797187","0,565003414144579","-2,05326608358878"
"10720","0,87855148120358","6,48373945373207","-3","-1,53357119788546","3,58898590245864","-1,21687338854982"
"10733","0,97591096908636","6,84612197394674","-3","2,22171112838738","0,741541627858304","2,54353334712671"
"10741","2,79687432528221","3,5502601491787","-3","-0,317511562886031","2,63955026986294","-0,476272231228315"
"10753","-1,44524649002737","6,2698238606195","-3","-5,17596517493655","-1,24397564232806","-0,0980671211843527"
"10762","1,51499105239416","6,08042443559623","-3","-3,66843571717391","1,3572767819608","5,36209061983964"
"10770","1,10214727609948","6,02397152655855","-3","-3,2053370674955","1,1023318073071","3,48636769451543"
"10782","-0,781391654106137","7,70908229197317","-3","-1,37026803389495","1,02931004564379","-4,07623175249808"
"10794","-0,154987215142374","8,9132882747312","-3","-1,80655235513912","-0,705183312859003","-1,63341335539414"
"10802","-1,83239368171317","6,57027991992571","-3","-1,94057473128817","-0,201979771793806","4,25185983042234"
"10811","2,43820130838516","6,87191646126109","-3","-0,288935573191146","1,6557269640664","-1,12451823577129"
"10823","1,2852638807049","8,66376034461826","-3","-0,781567800089131","1,18781440250509","-0,231544605943093"
"10831","-0,745070901964772","6,49590494471502","-3","0,759909837257462","1,05379411206396","-1,84177072835132"
"10843","-0,147783078527035","6,84974805335947","-3","0,233437043434995","1,01540779862541","0,620769086735947"
"10852","-0,0293124295168895","8,65715276851487","-3","0,0717096299797065","2,71799147183824","1,92191422995205"
"10864","1,7958382763318","6,49393547256547","-3","-3,36359059039998","-1,22150838341071","1,1898273058606"
"10872","1,15785266902226","6,84916102712062","-3","-2,41888200451194","-0,349866453199589","1,03908650596723"
"10884","-0,770342619128423","8,65697779787354","-3","1,25694255309387","-1,81378767332729","-0,786046265937212"
"10893","-0,152795664781927","8,19582059374556","-3","-6,38511746139421","3,9076486214547","-3,75004012381007"
"10901","-0,0303066643288743","8,05836682009496","-3","-4,73268530177535","2,54639187598194","-2,36034306777984"
"10913","1,79564107217189","2,91158515332053","-3","0,853354729471041","-1,27065822371315","3,30808653278173"
"10921","1,15781355403633","4,37752137654042","-3","-2,12347668201944","-3,79110072112049","-0,318846446155469"
"10933","-0,770350377494804","8,21833687105853","-3","-3,73074040916529","2,62772500051126","1,72844212662762"
"10942","-0,152797203635834","9,06507808310359","-3","-4,91728602563191","-1,96094100020139","-4,23229287393504"
"10954","-0,0303069695569635","4,91358553067177","-3","2,48945670227082","0,438344032679932","4,71673597482618"
"10962","1,79564101163061","7,37811761446794","-3","0,764737319936341","0,125551223452691","2,55939116034974"
"10970","1,15781354202811","7,11270276714134","-3","-3,1506991037653","1,74953893390312","-1,473007018627"
"10983","-0,770350379876607","5,33165522066225","-3","1,03213533043517","-2,21247250710402","-0,303300399077536"
"10991","-0,152797204108259","10,9066031529856","-3","0,317062114672896","-1,34727838255029","1,73164314483268"
"11003","3,57299768729587","7,8663500609041","-3","0,0973984530870228","0,614110295453566","-0,643444973278416"
"11011","0,510348100118802","4,55628938793098","-3","0,0299198744496229","-3,25126220191044","-0,13248892551896"
"11020","0,902878685799924","5,56968367855477","-3","1,7020006515236","1,06876809815408","-0,0272802121613175"
"11032","2,78238854194607","7,57367601733888","-3","-0,477161657164476","0,306118327857855","-1,79971154508341"
"11044","-1,44811971142234","12,2768032581289","-3","6,62465870424717","0,0876789181978181","-1,16466508828776"
"11052","-0,287231172852584","5,57281836681524","-3","-5,35058722779341","-1,6884652037612","-1,03390546437339"
"11064","-0,0569716343252024","3,17073580425577","-3","5,4347793674611","-6,33792637726369","-1,00698132510254"
"11069","-0,0113001910114763","4,45476452615665","-3","2,0551314130705","-1,24247605375942","0,792656902577486"
"11085","-0,00224136657493364","6,53942290143729","-3","-1,36868326028128","-1,78302873735101","-3,42497629520605"
"11093","-0,000444569841175934","9,56465640760241","-3","-0,420446424054889","3,20288030216315","3,0888725856204"
"11101","-8,81793928282557E-05","5,06249120821889","-3","-1,8219666772981","5,05810931198334","1,43011057030219"
"11114","-1,80166981865051","7,42250084672289","-3","0,440309239948093","-6,69198299187582","-4,29372101307267"
"11122","0,642642986610681","5,42399448095575","-3","1,82806834461318","-0,630307190753349","-2,47229000937546"
"11134","3,73077139696375","7,5302514978673","-3","2,94718423773637","4,24662306034716","3,2850360302165"
"11143","-1,26001018041371","8,85998548064113","-3","-1,09465315332889","0,929903151239967","-0,323592673796318"
"11155","-2,0515724138583","8,2563296171907","-3","-0,336266992702866","2,69350108919404","-1,86072394131036"
"11163","0,593075388742728","8,07640230460652","-3","-0,103298008175065","-1,2285229593478","4,20505530705544"
"11171","0,117635122396932","8,02277267922905","-3","-6,80297036895618","3,07528110965026","-2,92824994593572"
"11183","0,0233326526171935","6,30485041345633","-3","1,91019248383942","0,594405450741238","3,98524572085922"
"11192","0,00462797731716245","8,49473909225098","-3","3,97241198886643","0,883828937800637","-1,17941557489298"
"11204","-1,80073437994853","8,14746328278871","-3","5,99152522649725","-0,746852252589495","-0,242848275683528"
"11212","0,642828528699075","6,34201603473391","-3","-5,54507978454075","-0,213914658488065","-0,0500038207548804"
"11220","0,127503541858417","6,803879505258","-3","0,296604456147092","1,65230855406302","1,78379832964765"
"11233","-1,77636229783424","8,64348106400286","-3","-1,60169549608677","-2,24032139344806","-2,426800325011"
"11245","0,647662674436703","6,48986044704144","-3","-1,18483510907237","-4,78241159597791","-1,29378618194444"
"11253","0,128462383409296","6,84794641390199","-3","-1,05677957998354","-1,79694293518319","2,52769657198867"
"11265","0,0254802146280082","6,95467849353931","-3","2,3681769591487","4,91247331923786","1,31456128456566"
"11269","0,0050539412414668","6,986491348211","-3","4,80590999695078","1,12061708460623","2,8588643276607"
"11282","3,60430709442381","6,99597357441517","-3","0,169139197453065","-0,679030999614336","2,17684497768093"
"11294","0,516558248119513","8,70073714601828","-3","-4,33366115790807","-0,194489182943054","-1,55177542122239"
"11302","-0,897541874277567","6,50692635096102","-3","0,668740686918641","1,65787243092457","-0,319519254547857"
"11314","-0,178025340860694","6,85303312375605","-3","3,59104985505573","-2,23872777862721","-0,0657908049261383"
"11322","-0,0353109118324715","6,9561946521478","-3","4,18156486983356","2,07235822841971","-1,80764109192642"
"11335","1,79464849133181","6,9869432585798","-3","-3,4082727656929","1,30714661891146","0,627796570120032"
"11343","-0,644035650535373","8,69804554545839","-3","-1,73979839007914","-2,33918324627775","1,92336122815908"
"11355","1,67390935680937","3,10224953834619","-3","2,15836010480367","0,330007262435688","-4,19215793870748"
"11364","-0,667983976730051","9,540163143225","-3","-0,336972392209328","1,8080995710348","4,72499998288421"
"11372","-0,132493066401572","8,45906522586843","-3","1,58929485171829","-3,90927781712911","-1,02709602715544"
"11384","-0,0262796912141886","6,43489295950007","-3","-0,51178380231196","2,5938765210481","-0,211484827287222"
"11392","-0,00521251556077583","6,83156265469142","-3","1,53559445631304","-1,97063593772028","1,75054848554959"
"11405","-0,00103389032427674","5,24785783219064","-3","2,85733905292718","2,14914553727792","4,74273093191771"
"11413","-1,8018573982117","10,8816262748964","-3","2,26336636785618","-2,09801652227688","-2,0234451253947"
"11421","-1,15904654783177","9,56084265792554","-3","0,38809408067662","2,11266097938986","-0,416638689621283"
"11433","0,77010581604647","9,16716629181122","-3","-5,95920986109726","-0,394888145091203","-0,0857882408130436"
"11445","0,152748695442011","3,94401422051221","-3","2,86219720423516","-3,54026120549618","-1,81175867603045"
"11454","0,0302973480696689","3,68524999932193","-3","-5,19918901388573","4,41314921445407","-1,16714566005543"
"11466","0,00600940844305376","8,01199657682216","-3","1,40285879698385","0,977599847958226","2,55377256507126"
"11470","0,0011919521719328","7,30163845899088","-3","2,123754374373","2,70716245602278","-0,474163918878441"
"11482","3,60354107788441","7,08990718153228","-3","1,34520660983613","-2,93818839269704","-1,89172740439337"
"11495","-1,2852460179507","5,32486070626132","-3","1,10604417316822","1,87201756148617","5,99276591681555"
"11503","-0,254925554999525","5,79876614127785","-3","1,03257575707565","2,96334305810522","-5,35424471054924"
"11515","-0,0505638902468157","7,64195696079287","-3","6,08843561706533","0,56234396872113","-2,69065778129256"
"11523","-0,0100292298937891","7,19134344208959","-3","1,25592836930035","-0,838932509603178","-2,14221030724436"
"11535","-0,00198927439663937","7,057032348065","-3","-1,61419080143283","-3,66744512742824","-0,235187502596287"
"11544","-1,80204689641787","5,31506194376176","-3","-2,18867354752097","2,6631426403498","-0,842520821185054"
"11556","6,04752517953334","7,49778276881652","-3","-1,36514915972679","1,47636006813106","0,826520241882658"
"11564","-1,80048746214028","7,1483704893247","-3","5,65906787352967","-2,2907168500449","3,75837394225171"
"11573","-0,357122495728599","7,04422371259413","-3","-4,64720750777837","-1,36968925677714","2,36205904769523"
"11585","-0,070834415477583","8,71511871376241","-3","-6,19881596433858","0,607691335759686","0,28045559016969"
