Timer,AX,AY,AZ,GX,GY,GZ
"1001","2,99999808000123","3,99999856000052","-2,99999997","0","-0,999999000001","-0,999999190000656"
"1010","6,43859585142535","5,76470552359871","-2,999999995","-1,74747468370579","0,728997487532997","-4,51057372289674"
"1022","2,0477779701595","5,19047610206177","-2,99999999914286","-6,39243676398008","1,9207362582348","3,5655922917472"
"1030","2,707709115304","5,04760812623386","-2,99999999985294","3,99677869114609","-2,14033200729189","-0,068091583725462"
"1042","4,6030490932194","5,0119018612986","-2,99999999997477","1,81235145281689","-4,74683386216764","-3,49493360112685"
"1051","0,799626398411801","3,25297523914725","-2,99999999999567","-2,23762305586587","5,01301139882774","6,30197185243444"
"1063","3,32406667956866","5,56324383419243","-2,99999999999926","-1,33549754888071","1,18186407357704","-3,0909782063772"
"1071","4,79235975293064","3,39081095718322","-2,99999999999987","-1,09094741729903","-2,35742328605224","0,191897010689275"
"1079","4,24340534618584","3,84770273932905","-2,99999999999998","-1,02465422720114","-4,81075592607905","-3,42695211061031"
"1092","5,76758134937744","3,96192568483278","-3","-1,00668332248876","4,99417692331678","1,10406024313195"
"1100","6,92860321056832","2,24048142120799","-3","-2,73072951605964","-5,64564980310137","0,288644671387343"
"1112","4,5924484844899","6,31012035530203","-3","-0,469169988697598","3,04280202041439","-1,66309771588803"
"1120","3,18199451543611","0,0775300888255051","-3","0,872816360816612","-1,80936188624612","0,565200996345307"
"1128","3,74871652863536","1,51938252220638","-3","-3,22123058107678","2,17262004911391","1,88632647873119"
"1141","5,61561766971116","8,87984563055159","-3","1,1267816829302","-0,360145704855435","1,23172052140022"
"1153","1,80349276405911","6,7199614076379","-3","5,4922038316831","1,59942601485744","-4,15510144150192"
"1161","2,63244440601709","4,42999035190948","-3","-3,24007901288415","-0,528956015208515","-2,56342808398332"
"1169","4,57989998426064","3,10749758797737","-3","1,85058999451197","1,54971000391105","1,32981930874622"
"1178","4,17813973602758","3,77687439699434","-3","-3,95617353986203","1,16189407219632","-3,129454569048"
"1190","4,05472282533761","3,94421859924859","-3","0,927551718647972","1,04767912249337","2,92039853394863"
"1202","2,3240007773538","7,48605464981215","-3","0,251442773302566","2,71953374724818","-1,97505398497886"
"1210","6,17795859963683","2,87151366245304","-3","0,0681616636301875","-2,90456702492341","2,22220414583575"
"1222","7,05466718196856","3,71787841561326","-3","1,7473952008757","-1,56091049688369","-0,41902863596274"
"1227","6,32398368424233","3,92946960390332","-3","-0,526312240567871","-1,1651927085774","-0,109550528317635"
"1243","1,02109603749319","3,98236740097583","-3","-0,142673887321746","4,06782497456493","-0,0286408069154971"
"1251","2,3920996049787","3,99559185024396","-3","-3,49651192563168","-2,50748427994174","-0,00748783080618643"
"1263","6,19887790901111","7,49889796256099","-3","-0,67675997957155","-1,44396639521808","-1,74051837233737"
"1272","1,98266473833799","4,62472449064025","-3","2,54546019273106","0,574740139030972","-1,19360056081152"
"1280","2,68748432508568","4,90618112266006","-3","-0,309971015821609","1,87475750824237","-4,52773630264884"
"1292","2,90399816977975","4,97654528066502","-3","-5,27078098779007","1,25762320893942","0,0777113004877183"
"1301","4,66331870663851","4,99413632016625","-3","-1,88665055101619","2,78136399018803","-2,45680473570262"
"1313","4,20376517073611","6,74853408004156","-3","-1,96927298043677","-1,18086565747745","-3,85798744267992"
"1321","5,75540426599274","4,43713352001039","-3","4,92400069329747","-0,347774551391908","5,46849221235391"
"1329","5,23205297497916","4,8592833800026","-3","-2,39410877752429","1,60306942028526","-2,30888230907233"
"1341","3,37847490548669","1,46482084500065","-3","2,07991747871993","-0,527883002643389","0,396367562801587"
"1353","5,50188297958486","2,61620521125016","-3","-2,16508915155566","1,55002601484854","-1,63493472497635"
"1362","5,15417365740055","4,65405130281254","-3","-1,3158349464749","4,57297085487845","4,04968542637576"
"1370","1,66174157113689","5,91351282570314","-3","0,643300549717755","-1,65322284756681","-0,941253318021108"
"1378","2,58889979354232","5,22837820642578","-3","0,174387337154497","1,21860426737583","1,49248020699357"
"1391","4,56652349524147","5,05709455160645","-3","-3,41056226699138","1,06438073673968","-2,34836786781877"
"1403","0,788411502603868","3,26427363790161","-3","4,53329280277594","1,01896065119359","-1,35251627122497"
"1411","6,70624024220404","5,5660684094754","-3","4,41564840737594","-4,11089150616718","-1,09216158619931"
"1423","5,52414070459647","3,39151710236885","-3","-0,074078468175371","2,49480083571323","4,19158762352043"
"1428","5,16101101792091","3,84787927559221","-3","-1,02008135514769","-0,265260839826824","-2,64271527491851"
"1444","3,35665149486292","5,71196981889805","-3","1,45239187419595","-5,19459704956211","0,309090525769818"
"1452","3,80236948441208","5,17799245472451","-3","-0,606282395441779","1,47014887160634","0,0808083922910463"
"1460","2,24648024147128","3,29449811368113","-3","5,02240098466548","2,1384626709016","-5,19455579391262"
"1472","4,46133547959703","7,32362452842028","-3","0,0904013637034833","1,33528652657663","1,64193927870562"
"1481","4,14171785270929","6,33090613210507","-3","-0,975493798196967","-0,606747245277802","2,16782811744707"
"1493","4,04353437067983","6,08272653302627","-3","-1,99335680456347","3,23229171068014","3,04387685555341"
"1501","5,70618289472143","0,770681633256567","-3","2,18855421073378","0,657428085355669","-6,41989342544246"
"1513","3,5241230879976","4,19267040831414","-3","-0,406721879538925","2,60460163917018","1,3215879390098"
"1522","2,16100560627001","4,04816760207854","-3","-5,29700842611336","0,472568248294398","2,08407570651624"
"1530","2,74226893622314","4,01204190051963","-3","-5,35159591546454","4,25565076936801","-0,455140830224539"
"1542","2,92082747902493","4,00301047512991","-3","-2,63747582672077","1,66430751834169","1,61956908658187"
"1550","4,66848850968703","7,50075261878248","-3","4,01394500025844","0,195643973312828","-2,31514184766812"
"1563","4,20535328485126","-0,624811845304381","-3","5,27486245533874","-2,64787311426131","2,13329183332416"
"1571","7,44870167136327","8,34379703867391","-3","-10,2146675391442","-3,1908039074931","-3,91939532249082"
"1579","6,44502731561271","6,58594925966848","-3","-1,22685026211988","-0,645209589500322","2,71387702335911"
"1591","4,44389858862315","4,39648731491712","-3","5,1252582873522","-0,895511335207042","-0,29048605230761"
"1603","3,13636140635727","4,84912182872928","-3","-0,6106336371817","2,44175647747424","-1,8145052124186"
"1612","2,04188892152464","3,21228045718232","-3","-0,165531918186301","1,42460902219909","0,525617135452204"
"1624","2,7056774284581","3,80307011429558","-3","-0,0448727588360531","-0,580441043003561","0,137416944666071"
"1628","2,90958691735734","3,9507675285739","-3","-0,0121642068044688","-3,58192832832618","3,5130477007174"
"1641","6,35784506839513","9,23769188214347","-3","-6,91896864492052","-2,46589077363213","-1,08155147742011"
"1653","5,41711703503261","0,559422970535868","-3","0,39547287633825","4,68475880339941","1,45580076276218"
"1661","3,43532481702471","5,88985574263397","-3","-2,35062990959089","-0,62030038648775","-4,09651807339786"
"1673","5,51934672938559","6,97246393565849","-3","-7,28180289072359","4,93379205768055","-0,809551333183837"
"1677","5,15953835452762","6,24311598391462","-3","4,75495053814992","-3,25244992277868","6,00403379295407"
"1694","3,35619910673521","2,56077899597866","-3","0,288982518378256","-3,36885670040201","0,30825079407261"
"1702","3,80223051510041","3,64019474899466","-3","-1,65057976537203","4,41882798551502","2,55771037255133"
"1710","5,63205665519384","3,91004868724867","-3","-1,17636060304877","-0,698619177711294","-4,80843566195757"
"1722","3,50135221525995","5,72751217181217","-3","-1,04780822270108","-3,61673275126969","-0,995674526807932"
"1730","3,84682016355358","5,18187804295304","-3","-1,01295995884752","-0,770649102142011","2,47825236750336"
"1743","5,64575416928351","1,54546951073826","-3","0,72540457186761","-2,63794615052224","-3,82920910244588"
"1751","3,50555996075123","4,38636737768457","-3","-1,53227350896218","-2,18788033584108","4,47601599976643"
"1763","5,54092229466045","5,84659184442114","-3","0,584627905047604","-0,349840431287411","-2,56835453626712"
"1772","5,16616616209276","6,96164796110529","-3","-1,57043555945475","0,896969144390538","-1,41002941873572"
"1780","5,05104465779502","6,24041199027632","-3","-1,15463493428568","0,264164716644544","0,63136297973764"
"1792","3,32287087941814","0,81010299756908","-3","-2,77083656651928","3,48878237491574","-1,5734977016607"
"1800","2,09918285013212","5,95252574939227","-3","2,97779327568021","2,43845853190661","-1,14993480352848"
"1812","6,10889667982905","1,73813143734807","-3","-0,192773206597949","-4,69283782195614","4,17648343746289"
"1821","-3,12340529142802","6,18453285933702","-3","-0,0522573876053727","2,32341290718288","-4,38522486138788"
"1829","-0,959480271122144","5,29613321483425","-3","-1,74308383452205","-2,02122783775878","-4,36215213562936"
"1841","8,1693045849746","3,32403330370856","-3","-1,20143681089921","0,404731943819088","1,8595622588844"
"1849","4,28077054379109","5,58100832592714","-3","-4,51244150904426","5,23567242533912","-1,25239821498545"
"1862","4,086250029165","3,39525208148179","-3","0,0478395798948179","0,247440018462489","-2,80454755715828"
"1874","2,33368563322538","5,59881302037045","-3","-2,44486711318042","0,778364957675375","-0,471779542719763"
"1878","2,79531459108427","5,14970325509261","-3","3,0661577967216","-4,18174889697222","0,876658314686164"
"1890","4,62993214939618","5,03742581377315","-3","-3,62665472901835","0,768440899716915","0,229192883935638"
"1903","4,19350913925579","1,50935645344329","-3","1,01687840737933","-1,47917975540423","5,27560229211136"
"1911","4,05944415920256","2,62733911336082","-3","-3,1821779225704","0,564369517729393","0,117810215764204"
"1919","2,32545112601948","6,40683477834021","-3","8,05303930886366","-1,53928043906222","0,769360972866672"
"1927","6,17840413289336","7,10170869458505","-3","1,64087129604873","-1,15882248042502","-4,27598037069056"
"1939","7,05480404552929","2,77542717364626","-3","-6,74194233511885","-2,75226637115007","-0,856469819879481"
"1952","1,24559707176934","5,44385679341157","-3","-0,556538439700351","-2,22154857167478","2,51464594035137"
"1960","4,15387373018437","5,11096419835289","-3","4,30696790010818","-3,77073971577384","1,39598788421326"
"1968","4,04726854012864","3,27774104958822","-3","2,62537796552059","-1,52149726464278","-0,635033987858102"
"1976","5,70732999590776","3,81943526239706","-3","-8,20397787386295","-0,153585190758003","-3,64314432253013"
"1989","3,52447546652506","3,95485881559926","-3","0,0471297298065982","4,36575162563365","-4,16814316318928"
"2001","5,54673295735545","3,98871470389982","-3","2,74169381769436","-0,714250597873592","3,64884457682051"
"2011","3,47514159028605","7,49717867597495","-3","-1,98569335654781","1,49513924054466","1,692511914264"
"2017","5,53157806180628","1,12429466899374","-3","0,461713848984465","-0,559669319404535","-0,557510970663112"
"2026","1,7776765992473","6,03107366724843","-3","0,125162412323572","-0,164827171703436","5,06992703389708"
"2038","6,0101330305476","5,25776841681211","-3","3,49176487622232","-1,7540348016251","-5,15164364614111"
"2050","8,69592232207854","6,81444210420303","-3","0,675473138908656","-2,92756124629318","-1,08540256151313"
"2058","2,44254248243796","4,45361052605076","-3","-4,27472681854948","-2,27317433975278","-4,49944909989283"
"2066","3,52156392725824","3,11340263151269","-3","-0,887720195553722","-2,08045206739456","1,82366744482972"
"2078","2,16021945653568","5,52835065787817","-3","2,48827263035946","1,38728992595474","2,21533899116898"
"2087","4,43483699041781","-0,117912335530457","-3","-0,325473546830973","3,81955189416755","-2,15938421632316"
"2099","5,82638732182777","6,72052191611739","-3","1,64068769659533","0,830380991191669","-1,30310852891835"
"2107","6,94666784359363","3,68013047902935","-3","1,17367903914574","-2,46093789411425","-2,81780522311645"
"2116","4,59799776720684","2,17003261975734","-3","-2,41075427398362","0,275233751858624","3,00187590223923"
"2128","3,18369920208073","4,54250815493933","-3","0,346487394487261","-5,03541699130324","1,52336891537921"
"2136","3,7492401920896","5,88562703873483","-3","3,5517621423559","1,51702869489612","-0,601731587820898"
"2148","3,92296898223848","3,47140675968371","-3","-4,49501602797423","3,85776101802599","-0,15731624928147"
"2157","2,28352725525115","3,86785168992093","-3","-2,67635446832295","-4,27484168304395","-1,77968940026306"
"2169","6,16552552024528","3,96696292248023","-3","-3,91226545278739","-0,964467541238391","4,01184087401558"
"2177","5,35803830685496","5,74174073062006","-3","-3,24729893851238","-2,69502725901362","-2,68970812858445"
"2185","1,72436684415784","5,18543518265501","-3","3,84863280108922","4,61727624269789","3,77392626887768"
"2198","4,30094723110886","5,04635879566375","-3","3,50113147221754","1,06531730734907","-2,75190834224635"
"2206","4,09244811478365","3,26158969891594","-3","0,678012256486784","-4,09723909346772","3,75766469226138"
"2218","4,02839917780788","7,31539742472898","-3","-6,00295629513803","-0,912162132469153","-2,75615975648562"
"2226","2,31591440427309","2,82884935618225","-3","-0,356212468017062","-2,67962289023136","-1,45912907286431"
"2238","7,86828409495038","1,95721233904556","-3","2,63235492179046","-2,20015447504061","-1,12003435608335"
"2247","1,49549037268456","4,48930308476139","-3","1,44250238590185","-0,353455265224537","2,4457398281937"
"2259","4,23063856527374","4,12232577119035","-3","-5,79571661843002","-0,809587311081887","-2,09914839648977"
"2267","4,07084996421931","9,28058144279759","-3","-2,02895126387114","-0,943921912667624","0,451200237606149"
"2279","5,71457398414139","4,0701453606994","-3","3,17890518590574","4,13299102567021","0,117961447415712"
"2288","3,5267007505167","4,76753634017485","-3","-3,59609091715845","-2,48829234727301","-1,70772100832262"
"2296","2,16179743957434","4,94188408504371","-3","-5,89050743165048","0,267177642668201","-2,92358680241307"
"2308","4,43532173173458","1,48547102126093","-3","2,40318820503885","-3,33229772361319","-0,502901072584261"
"2316","4,13372667784625","6,12136775531523","-3","-1,07745620740927","-4,09786438535692","0,868521925556396"
"2328","4,04107955809267","5,28034193882881","-3","2,43683857222859","-1,61783814346595","-4,98861656607463"
"2337","4,0126192478589","1,5700854847072","-3","-5,52616976378182","3,22902535085547","1,69577987401277"
"2349","2,31106696052082","2,6425213711768","-3","6,68870702522258","1,65646611579079","-1,29521735728723"
"2357","4,48117590276421","8,1606303427942","-3","-1,18681049216123","-2,21764909847538","-1,07718140166017"
"2365","7,53343174496052","4,79015758569855","-3","-0,321723215572909","2,05237614061088","2,45694327204962"
"2378","1,39262692923843","3,19753939642464","-3","-1,8161312277102","-3,80654222989025","1,38090214243986"
"2386","4,19903989798676","5,54938484910616","-3","2,23659691244866","0,87894231831387","-4,11609951180653"
"2398","5,75395270733939","3,38734621227654","-3","3,06413721480418","-3,15212804530738","4,40101158904755"
"2406","1,84598796625829","3,84683655306914","-3","7,47522203058135","-4,04480294805416","-7,8036459110528"
"2419","2,64549852622345","3,96170913826728","-3","-4,70251804952652","3,5142644542073","0,2212599806467"
"2427","4,58391008529659","3,99042728456682","-3","1,4541487829154","-1,67051236058462","-0,68071471825394"
"2435","0,793752496994112","5,74760682114171","-3","-4,06364170114211","0,508020507567306","6,03771673970495"
"2447","6,70788094466416","5,18690170528543","-3","-2,55941656082999","-1,55587568137993","0,317056838087658"
"2456","5,52464471272043","6,79672542632136","-3","1,30618769266078","-1,16370991441528","-0,9171089010673"
"2468","6,8539753962862","6,19918135658034","-3","2,08300203756397","-2,75370576025641","-1,97832901405403"
"2476","4,56952353278149","6,04979533914508","-3","-0,435335196312912","-0,516480626042954","0,482787165183153"
"2488","3,17495218924784","2,51244883478627","-3","1,61090615744234","0,847892250157905","-1,61234124976875"
"2497","3,74655319329779","5,37811220869657","-3","1,16560579358186","5,36618674401353","-2,89865079078136"
"2509","7,30776266564323","3,34452805217414","-3","1,04489278514183","3,69686126292016","1,24217893889556"
"2517","1,32330354363699","5,58613201304354","-3","-4,17458372302838","-1,91124425616998","2,06331507784058"
"2525","2,48493486421508","5,14653300326088","-3","-2,58949096972607","-3,97386071074344","1,27799228632169"
"2537","6,22739601389691","5,03663325081522","-3","3,02695284152131","-0,875826194141456","2,81123885172874"
"2546","5,37704433152497","3,25915831270381","-3","-0,179446922660432","-2,66892166052644","-1,26503184984873"
"2558","3,42301486527697","0,314789578175951","-3","-3,50648044145934","-0,491511018313195","1,40783179355489"
"2566","5,51556522979192","5,07869739454399","-3","4,50729109169777","-2,55573771193716","1,10662323434296"
"2578","5,15837671397289","4,269674348636","-3","0,950764233568916","-0,458177423847006","-4,18780678121394"
"2587","3,35584226185265","2,317418587159","-3","-0,742264726764862","-2,5459206969462","2,64370373545943"
"2599","5,49493044764487","4,57935464678975","-3","-0,201214765355053","2,95569748189133","1,42972865614192"
"2607","5,15203790599836","5,89483866169744","-3","-1,78346353024387","-0,129523024650599","1,1123479334662"
"2616","5,04670459247428","3,47370966542436","-3","-2,94130081441066","1,66734627203586","1,0293721583928"
"2628","1,62872810092357","7,36842741635609","-3","-0,526252122416907","-3,91993666131287","1,00767903478092"
"2636","4,27156792271746","4,59210685408902","-3","-2,60049316276573","5,96202230727125","4,47912912009799"
"2648","2,39061351998971","3,14802671352226","-3","-2,16278301593267","-2,94962774185178","-3,56754064445217"
"2656","2,81280229412971","3,78700667838056","-3","3,14262577828053","1,8368024699594","-1,6712558759391"
"2668","4,63530420473123","5,69675166959514","-3","-3,60592561929275","4,65742885600196","4,04018965225538"
"2677","4,19515938334147","5,17418791739879","-3","-2,43533787207165","-1,62834927853193","0,794824873543963"
"2689","7,44557020219043","-0,206453020650303","-3","1,33982321829446","-0,479562121452917","0,946359170777782"
"2697","1,36563670254271","4,94838674483742","-3","-4,8235511144959","-3,55221866451724","-4,22970609626566"
"2705","4,19074875815334","5,98709668620936","-3","3,42133887172083","-2,4571410357278","-2,58293266825963"
"2718","0,672977092727036","1,74677417155234","-3","-0,0725358845032249","1,27635195756956","1,32472004504751"
"2726","8,36358944598979","-0,813306457111915","-3","-1,7485809743536","2,08138790171554","-1,39222695713761"
"2738","5,03326254919237","7,54667338572202","-3","2,25490858467114","-2,09250617257108","-1,1025435177625"
"2746","-0,0682107182596416","5,63666834643051","-3","-2,11765217515957","2,08923175127298","5,92743413875672"
"2759","4,75028452642687","6,90916708660763","-3","-1,3029756258976","1,32078761988048","0,288224638659658"
"2767","2,53767068800384","4,47729177165191","-3","-4,53996687580038","-0,611017291357979","-4,40176828846398"
"2779","6,24359595523836","4,86932294291298","-3","1,76929572874171","-0,179949567547465","2,58776580151602"
"2787","1,99640169499742","6,71733073572824","-3","3,93746017541481","1,65249524455179","-3,80057799343731"
"2796","6,07732329072533","2,67933268393206","-3","-6,11937793751807","1,1921651624996","1,0063797760818"
"2808","5,33094342444389","8,91983317098302","-3","1,34114548163536","-0,648897652372215","-1,47545359526425"
"2816","1,71604355508832","2,22995829274575","-3","-3,0942748862195","1,51438621513483","2,35281929225691"
"2828","4,2983903962098","3,55748957318644","-3","-0,567720672456433","-0,554000928668159","-0,38488071128965"
"2837","4,09166267952525","5,63937239329661","-3","-0,88281676291069","1,54233407296757","-0,100622920827773"
"2849","2,33534834771504","6,90984309832415","-3","0,76068407753282","-0,545770056969419","-1,76486753953291"
"2857","4,48863491297729","7,97746077458104","-3","0,20620792373794","1,54475813170318","4,0157158900271"
"2865","5,84291352976654","1,99436519364526","-3","1,78481708667214","2,86592756295416","0,78842647173577"
"2878","6,951744536816","3,49859129841131","-3","-3,97400340532714","0,549530860709761","-4,27099590114721"
"2886","2,90674772698892","7,37464782460283","-3","0,922718359245984","0,86733317050881","-2,59372744348666"
"2898","0,278544240582032","4,59366195615071","-3","-3,20770303686964","0,96092853846775","-2,15522365186618"
"2906","8,24242344138764","3,14841548903768","-3","1,13044875956111","-0,716998721006766","1,43653996543187"
"2918","3,30323195805835","7,28710387225942","-3","-8,33814437868737","-5,32763753387062","2,11412867699351"
"2927","7,17157861673062","1,07177596806485","-3","4,46859514906679","4,84195108057579","-2,18584456398805"
"2939","4,66708820839294","7,76794399201621","-3","-1,5175611206299","2,83697773397553","-3,0485870616529"
"2947","-0,180695978098458","2,94198599800405","-3","0,588616171846963","-1,16448695709401","2,94154047366"
"2955","3,02292057716668","3,73549649950101","-3","3,61739894734659","-5,45942646309636","-0,230965892780144"
"2968","6,3926600861386","2,18387412487525","-3","0,709530301037389","1,39215445293216","-1,7989443071196"
"2976","5,4278118759344","6,29596853121881","-3","0,921258830964185","-1,29549103535977","0,529685366714464"
"2988","3,43861016999386","5,3239921328047","-3","-0,750263116621933","4,02945105636609","0,138480539957297"
"2996","3,82754640655256","6,83099803320118","-3","4,98337037202383","-2,51878571131308","-1,70235651235359"
"3008","2,2542143514658","-0,792250491699706","-3","0,0798208588227221","-1,44729475877948","-2,92218431266147"
"3017","-0,614717331339509","4,80193737707507","-3","0,750555801319582","0,573759908860754","1,23602635280985"
"3029","3,88959336317258","5,95048434426877","-3","-2,52545545800261","-3,2420067498562","2,06170655040746"
"3037","8,35170323952568","5,23762108606719","-3","0,315393943598224","-2,36578110094222","-3,93811052448477"
"3045","-0,0488174355492701","1,5594052715168","-3","1,81441547465158","3,00875005971126","0,970423375626033"
"3058","4,75624195763312","6,1398513178792","-3","4,67860912222475","-0,113898608499042","-1,48485400928913"
"3066","4,23231030584956","5,2849628294698","-3","-1,73171228165516","-0,0335440676287712","0,611800895615527"
"3078","2,37855395507208","5,07124070736745","-3","-2,19835418517374","-5,12635457338298","-1,57861199807543"
"3086","4,50190726286242","5,01781017684186","-3","-3,05377029163285","1,49024683650928","2,32584963777875"
"3099","4,15418111699146","5,00445254421047","-3","-2,28565838348964","0,438889827770373","-0,391931637271923"
"3107","-1,03106568923188","3,25111313605262","-3","1,38039866541931","-1,57623522948056","-3,57958782863852"
"3119","2,06888557265536","5,56277828401315","-3","-3,08363404626076","0,535785890334277","1,06415527691622"
"3127","7,09958964558427","1,64069457100329","-3","-0,564836130003753","1,86328516481404","0,278211947329865"
"3136","5,64497388408707","2,66017364275082","-3","4,30471854385133","-0,45124734705838","-1,66582523934152"
"3148","5,19812981647592","6,41504341068771","-3","4,35368599124958","3,2780876968724","4,04160943376268"
"3156","5,06086358710841","5,35376085267193","-3","-0,0908753771111321","0,670915376185673","0,795196060142851"
"3168","10,0971253682493","3,33844021316798","-3","2,43320087399849","2,60857375614064","0,946456213520264"
"3176","0,180169122209047","3,834610053292","-1,17157287525381","0,388515265739709","2,17922992652934","-0,75255920640738"
"3189","3,82658444092347","2,208652513323","-3,68629150101524","0,834237364533478","0,347292815308659","1,54181225221339"
"3197","0,561109292929278","4,55216312833075","-3,11774900609144","-4,23168866079529","-0,897719438040387","2,88021174322999"
"3209","1,55798651890477","7,63804078208269","-3,02020253553339","-0,87605331647196","-0,264385684233732","0,491561130056474"
"3217","5,24983678443666","1,15951019552067","-3,00346620710888","0,762517527566331","-0,0778637367820861","0,867074128020961"
"3226","6,076747473767","6,03987754888017","-3,0005947071199","0,206704939431911","1,68256035295179","-2,51187355808525"
"3238","3,63795698709058","3,50996938722004","-3,00010203561049","5,24278739119219","-5,62094784804558","-1,39526307469934"
"3246","3,88878384462703","5,62749234680501","-3,00001750654307","-5,03660915993258","8,1665525196435","4,11234500058429"
"3258","2,27302590750938","3,40687308670125","-3,00000300364793","-8,00992409211978","-1,59488378635339","-2,6634324060711"
"3267","4,46949005464281","5,60171827167531","-3,00000051534451","1,09973425855727","-2,17519811895564","0,303674254736749"
"3279","2,45141330838796","3,40042956791883","-3,00000008841914","-0,430799388804302","2,06487829973892","1,81795312604472"
"3287","7,90990806402467","5,60010739197971","-3,00000001517033","-0,845699838222304","1,31361533010435","1,21384504400608"
"3299","4,89389596216455","3,40002684799493","-3,00000000260282","-4,41600754296146","-2,31862144654177","2,79446824542006"
"3308","6,66021540495424","5,60000671199873","-3,00000000044657","3,53181668531123","-1,38834475295558","2,20770517465325"
"3316","4,51000231421724","3,40000167799968","-3,00000000007662","-1,77150510042237","2,29661302302357","-3,16137999551486"
"3328","4,84947739132851","3,85000041949992","-3,00000000001315","-2,93805909678111","-2,02912062186325","0,173491215163034"
"3336","1,5681417886229","3,96250010487498","-3,00000000000226","-3,98320892283082","-3,00857626025502","0,0453574115189322"
"3348","5,94576593817596","5,74062502621875","-3,00000000000039","-1,5376126652235","-2,29703392103383","1,7504189667555"
"3357","5,29053026236127","5,18515625655469","-3,00000000000007","1,58318055474847","3,02899666397205","-0,542371794842382"
"3369","1,70362901771837","3,29628906413867","-1,17157287525382","3,88700766202746","-3,51891953357304","-1,88035802962992"
"3377","4,29457676891197","5,57407226603467","-3,68629150101524","-2,67521914413332","2,66914140180717","2,24696138447693"
"3385","4,09049116964668","5,14351806650867","-3,11774900609144","2,00371345821819","3,19706759135358","1,32600463724223"
"3398","4,02779802295432","1,53587951662717","-3,02020253553339","-0,456828919930806","0,64705429539963","-0,653330354791225"
"3406","4,00853928712808","6,13396987915679","-3,00346620710888","-3,5816737673469","-0,809437241328943","-1,90936695126563"
"3418","4,00262318743947","5,2834924697892","-3,0005947071199","2,75798973225067","-3,64936957334738","2,23937731403789"
"3426","4,00080581812502","5,0708731174473","-3,00010203561049","-0,252358037751316","2,63072280289686","-0,414538895911658"
"3438","2,30743798774708","1,51771827936182","-3,00001750654307","1,66050801065955","3,1857530011489","-3,5854982531662"
"3447","4,48006111699164","6,12942956984046","-3,00000300364793","-0,549865812442288","-2,76726165843324","2,80117081955559"
"3459","5,84027974153565","3,53235739246011","-3,00000051534451","-5,33581220033645","1,89051076645221","-2,00622478807171"
"3467","5,25812591034526","2,13308934811503","-3,00000008841914","6,74030957493441","-3,85421290057786","-1,26306664432681"
"3476","3,38648426218551","4,53327233702876","-3,00000001517033","4,01393139986039","4,27588663252317","2,40834557539389"
"3488","0,425914721806763","4,13331808425719","-3,00000000260282","-5,36973016250086","2,67026714481253","-7,32460700015546"
"3496","8,28769424555415","5,7833295210643","-3,00000000044657","-2,91347391235021","0,491907274391131","0,346499549663108"
"3508","5,00994826856069","3,44583238026607","-3,00000000007662","1,21020904199948","-2,56062115975321","2,8291493386228"
"3516","1,61743690930945","2,11145809506652","-3,00000000001315","0,328066146262706","1,95136807589532","1,47821141377984"
"3529","7,65371848027345","6,27786452376663","-1,17157287525607","0,0889328972008371","-0,425306212524901","-0,613537530740168"
"3537","1,42957786536163","7,06946613094166","-3,68629150101563","3,48194369905805","3,28572757221965","-5,3760850646473"
"3549","5,9032004244966","4,51736653273541","-3,1177490060915","0,672810792460869","-6,14880204809226","5,07160192312064"
"3557","5,27745454313981","4,87934163318385","-3,0202025355334","0,911304825289714","1,18912772987153","1,06447651424145"
"3566","1,69961228167129","4,96983540829596","-3,00346620710888","-2,48187925671904","0,350207798986354","1,01685669091088"
"3578","4,2933428659657","4,99245885207399","-3,0005947071199","3,78504224911649","3,51412276327602","2,74296776000713"
"3586","2,39730257456384","-0,251885286981502","-3,00010203561049","-0,973942367793261","0,740429625170296","2,1942409268635"
"3598","7,89328576345335","3,18702867825462","-3,00001750654307","-1,99293623937508","-0,781937446397626","-3,16490007823039"
"3607","4,88878975020333","6,54675716956366","-3,00000300364793","5,64650379088153","-1,93577880237754","0,172570927411524"
"3619","1,58021816976216","3,63668929239091","-3,00000051534451","0,259584534049626","0,429897380512423","0,0451168121881716"
"3627","5,94947568710975","5,65917232309773","-3,00000008841914","-4,38746682224773","3,53759199391233","1,75035606464921"
"3639","5,29166986179864","6,91479308077443","-3,00000001517033","4,2684713532684","2,45283336213617","2,93473327915612"
"3648","5,0895981955479","6,22869827019361","-3,00000000260282","0,886024450176994","0,427871254926179","-4,7098670796183"
"3656","5,02752370984076","2,5571745675484","-3,00000000044657","-2,48873231677022","-2,57948028890252","-0,969904831507806"
"3668","6,70126457264365","5,3892936418871","-3,00000000007662","-1,40356885218163","1,94581390879934","0,74642881753085"
"3676","4,52261222643454","3,34732341047178","-3,00000000001315","2,34843523453641","2,98404175492812","0,195145783113695"
"3688","3,16054148402941","0,336830852617944","-3,00000000000226","-3,82121655006777","2,28980830944147","1,78957952485517"
"3697","7,12774546607176","5,08420771315449","-3,00000000000039","0,964136158208819","2,08535090691092","-2,27069444781546"
"3709","2,96081353131586","4,27105192828862","-3,00000000000007","1,99027795037197","3,73062839450376","-1,33220939129527"
"3717","3,68077184300867","2,31776298207216","-3,00000000000001","2,99736452526419","-0,195807703523897","0,651708188604348"
"3729","3,90193615940254","2,82944074551804","-3","-1,18746778893395","-2,76315882050694","0,170382093831133"
"3738","5,66268527674672","4,70736018637951","-3","-2,0508191832399","-3,22475648670276","3,52166608427681"
"3746","3,51076103523996","2,42684004659488","-3","2,17297718191211","2,75577481434956","0,65926246577036"
"3758","5,54252001506332","4,60671001164872","-3","-3,86878010740172","1,51708997932078","0,910917837854345"
"3766","1,7810378627716","5,90167750291218","-3","-0,777675262412062","-0,553204648099847","-0,761850332348707"
"3779","6,01116557859587","3,47541937572804","-3","2,51810385445267","1,5425685840787","-0,199177572234438"
"3787","5,3106204072085","5,61885484393201","-3","3,14044873984194","-3,95668470642558","-1,79063359274059"
"3799","3,40261007020056","3,404713710983","-3","5,76699094152411","-0,870767721013268","4,00897963264679"
"3807","3,81648751976483","3,85117842774575","-3","-2,43667132862278","-4,37292375644524","-0,951895409815984"
"3819","5,6364362708455","3,96279460693644","-3","1,06837952814329","1,7121383469501","4,96681946567519"
"3828","3,50269759135456","2,24069865173411","-3","2,74745426007022","2,20973054180321","-3,44003925092415"
"3836","2,15442389835512","8,06017466293353","-3","2,20262155553204","1,35627549485978","3,57776027015871"
"3848","4,43305665030324","4,76504366573338","-3","-3,13182625877148","4,5159097491173","-1,06463307241708"
"3857","4,13303086646633","3,19126091643335","-3","0,151017604543769","0,0354640496072314","3,19878465725469"
"3869","2,34805625959923","3,79781522910834","-3","0,0409381865620874","2,42142816626525","-2,90227292834676"
"3877","1,10691955835592","5,69945380727708","-3","3,46893318664753","0,418622169023626","1,97979272954031"
"3889","5,11127332269527","5,17486345181927","-3","-2,78855169845145","-2,58220422001202","-3,95952601159556"
"3897","0,955753446210601","5,04371586295482","-3","-1,48484455390711","1,94501168890783","0,96482452694168"
"3910","6,75764608884922","5,0109289657387","-3","-4,58926830742613","-2,13267007769391","0,25224299150207"
"3918","3,84712253777935","3,25273224143468","-3","0,0270132013105027","-1,33358056071045","3,54306773518738"
"3930","2,26022795198974","5,56318306035867","-3","-0,721594987789716","4,01823338100422","0,664857697129037"
"3938","2,77274909306792","6,89079576508967","-3","2,53330621944766","0,88889430684021","2,65094141042966"
"3947","2,93019069206473","2,72269894127242","-3","3,14456983059973","-0,738213388763845","-1,30693989114985"
"3959","2,97855524741269","3,6806747353181","-3","-2,8764808350836","3,19357386095306","3,13543614660659"
"3967","6,37903148061065","5,67016868382953","-3","-3,23759836512535","-1,05946649409517","0,558286804222442"
"3979","8,80924440226276","6,91754217095738","-3","-4,0644086908128","-3,72300522416424","2,62307959713288"
"3988","4,17016349491505","4,47938554273935","-3","-5,01746005049332","2,60903650414888","0,424336697082658"
"4000","3,05227260025597","3,11984638568484","-3","0,910938035670133","-0,23161750530219","-0,889061736214851"
"4008","2,01605764349683","3,77996159642121","-3","-0,481978686861112","-0,0682132412700134","-0,232435625039219"
"4020","7,77617096223686","2,1949903991053","-3","-2,58849142184285","1,68540250245979","-0,0607677932664019"
"4028","-1,91842500559878","2,79874759977633","-3","3,02722380117428","1,2018566179027","-1,75444784525477"
"4037","5,18191637038825","6,44968689994408","-3","6,73629767449302","-2,35153529728674","2,27987924744632"
"4049","6,05588297133923","1,86242172498602","-3","-5,63174508600639","-1,39803815000285","3,07317141787325"
"4057","5,32435716312392","6,21560543124651","-3","-1,25558371165929","2,29375823866412","-1,19655239870383"
"4069","3,40682987040588","7,05390135781163","-3","4,11746916024103","3,08651419322951","-0,312825750289281"
"4078","3,81778380208086","2,76347533945291","-3","-6,07058070340798","0,61449541946485","-1,82034568609106"
"4090","2,25121537262335","5,44086883486323","-3","-2,10346202852033","4,29744947692765","-1,21447055308735"
"4098","2,76998051477368","5,11021720871581","-3","1,42978885667019","-1,73436613682158","-1,05607101850047"
"4110","6,31495931502557","3,27755430217895","-3","0,387590328528839","-2,21627680691138","-1,01465916448866"
"4119","2,01832383746953","5,56938857554474","-3","5,29182220291217","7,16925586398229","0,734728278708984"
"4127","1,00562890784347","5,14234714388618","-3","0,163436663989756","-5,29957948687743","0,192086803131118"
"4139","6,77296735425822","3,28558678597155","-3","5,95997591750086","-1,26626116845235","-1,68834173162546"
"4147","3,85182908416605","7,32139669649289","-3","-4,1132743203081","-2,78390793959966","-4,65708105857137"
"4159","3,95448330996719","4,58034917412322","-3","1,61388227749809","4,59110015854938","1,78245626528037"
"4168","2,29320815570821","4,89508729353081","-3","2,89533035299782","1,0576082374271","0,466004012150394"
"4180","6,16849940039485","3,2237718233827","-3","-6,40188079684304","-0,688525762443369","-5,09385054362757"
"4188","3,66614230254691","5,55594295584568","-3","2,9934817673282","-0,202776443399183","-3,54741469576548"
"4200","0,511823000544668","5,13898573896142","-3","-0,188520335550872","-1,76521117114357","-3,14311568227828"
"4209","1,54284624066116","6,78474643474035","-3","5,13564884870122","3,89111465165523","0,439705463804456"
"4217","3,55237628369456","4,44618660868509","-3","-1,60781694080861","2,55694866341951","-2,36216525659367"
"4229","1,47687516623302","4,86154665217127","-3","1,29306721050755","-1,24695779852515","-2,09468420960532"
"4237","5,22492015166212","-0,284613336957182","-3","6,26619866682394","-0,367239225089421","3,19092811077319"
"4250","4,3762837702956","6,67884666576071","-3","-2,30134499330379","-3,51913865694271","-3,64288769743022"
"4258","5,80840033189979","3,66971166644018","-3","-4,08168926790152","4,37456872563453","-2,42951531177938"
"4270","3,5555233083297","2,16742791661004","-3","4,35136220963009","-0,711653890129603","3,10339012173799"
"4278","3,86346100590861","6,29185697915251","-3","-0,820423099179645","3,20139584956305","-1,9272128032564"
"4290","0,572437421452049","3,57296424478813","-3","1,50651567622667","-1,05716285475855","0,496150948509345"
"4299","8,33270461931738","2,14324106119703","-3","-2,32052818157088","-2,01683492617814","-3,34740819194495"
"4307","1,6381559216792","6,28581026529926","-3","0,370946083360785","2,11151754949307","-2,35226537429343"
"4319","4,27446405920014","3,57145256632481","-3","1,82947467167959","-0,378140888524301","-2,09209599189609"
"4328","4,08431273733747","3,8928631415812","-3","1,22485583028768","-0,111365570703785","-2,02407750617084"
"4340","2,33309051568075","3,9732157853953","-3","2,78987220246233","-0,0327980673726659","-3,7448555644642"
"4348","7,87356043231059","3,99330394634883","-3","-1,24371526714501","-0,0096592979013519","-1,4561737134882"
"4360","4,88273031689034","2,24832598658721","-3","-2,06606687415387","1,70264711556063","-0,119261709172768"
"4368","3,27116632161126","6,3120814966468","-3","-3,0179095545043","-0,498556560567828","-2,50830120973964"
"4381","5,46891880761746","5,3280203741617","-3","-0,547019389277711","-0,146828966611962","-2,13288988219989"
"4389","6,83685693052595","3,33200509354042","-3","-0,877205013238157","-0,0432423262303128","-2,03474262986733"
"4397","2,87145535172969","2,08300127338511","-3","0,762205323057327","-0,012735217177892","1,46803843231325"
"4409","0,267702760011065","6,27075031834628","-3","1,93553809254517","-1,70924248260006","2,12236361225068"
"4418","8,2390930421128","1,81768757958657","-3","-5,66206340759204","0,49661417127157","-5,66081314784656"
"4430","3,30220889121271","7,95442189489664","-1,17157287525381","-1,99272025559607","1,85174877459215","-0,218519449305065"
"4438","7,17126434036785","4,73860547372416","-3,68629150101524","-0,269108804568385","2,95633880697348","0,942870441147661"
"4450","1,28137256192854","1,43465136843104","-3,11774900609144","2,65596717570798","-2,83482600663584","-1,49205742755164"
"4459","5,8576731709218","6,10866284210776","-3,02020253553339","4,90673882037199","-3,2458630565718","-2,86720387966114"
"4471","1,87784990194498","3,52716571052694","-3,00346620710888","1,78796519435694","4,45505061510565","1,25040039545369"
"4479","6,04090531229258","0,381791427631735","-3,0005947071199","-3,24423222312395","-2,39344317579601","-3,15021778941747"
"4487","3,6269466174458","5,09544785690793","-3,00010203561049","-1,60837143931964","2,00060335342682","2,9149702133857"
"4500","7,27102066800962","7,77386196422698","-3,00001750654307","-2,89383646278452","6,41116140738495","1,50064835809358"
"4508","3,00482630480308","2,94346549105675","-3,00000300364793","2,9444501915038","-0,406368904840096","-4,0847931521379"
"4520","3,69429214661905","0,235866372764187","-3,00000051534451","-3,65964749607676","-2,82517080880094","-0,806485978675165"
"4528","2,21327991564343","6,80896659319105","-3,00000008841914","-2,4499009173596","1,87345605014042","-0,949407841246223"
"4540","2,75832710474453","1,95224164829776","-3,00000001517033","3,06479322194089","-0,448251938512756","-6,2024555030582"
"4549","4,61856994689279","4,48806041207444","-3,00000000260282","-1,89810685476808","-1,83750570325249","5,85555626336282"
"4561","4,19001877917718","4,12201510301861","-3,00000000044657","-4,70129636682248","3,86982332328687","-0,469127818027992"
"4569","4,05837195392592","5,78050377575465","-3,00000000007662","5,18339774557008","-0,860305521038715","-3,5997699395019"
"4581","4,01793130668392","6,94512594393866","-3,00000000001315","-4,05270863654446","-0,253366981031824","1,05887888118119"
"4590","5,69831787801939","4,48628148598467","-3,00000000000226","-0,827535015272553","-1,78011049641267","2,01539324997522"
"4598","3,52170702999245","4,87157037149617","-3,00000000000039","-2,68216559634029","2,18123482160094","-0,473097119495639"
"4610","3,85307296821258","1,46789259287404","-3,00000000000007","-0,45600517382955","1,34788327323221","1,61487460795332"
"4618","2,262055867381","6,11697314821851","-3,00000000000001","-4,31036825063288","6,2189300289578","1,16075235048226"
"4630","4,46612016309993","7,02924328705463","-3","0,102618046134204","1,24250924640229","2,78058773195115"
"4639","4,14318766177864","4,50731082176366","-3","-0,701099859081107","-1,63407090973335","0,465515504216024"
"4651","7,42960498575417","6,62682770544091","-3","0,809944298107331","1,22424466901351","-0,878295980154802"
"4659","1,36073234055138","0,906706926360228","-3","0,219561493383421","1,06604188094927","-3,70674255302928"
"4668","2,49643263311166","7,72667673159006","-3","-5,12723414291714","1,01944987168928","2,76947280188913"
"4680","4,53811846679274","6,43166918289751","-1,17157287525381","1,61009801788101","-2,40525556930374","1,46260962534283"
"4688","7,55092395672133","0,857917295724379","-3,68629150101524","3,89430450752324","1,99712450735572","-2,35617720999767"
"4700","1,39800036960777","4,21447932393109","-3,11774900609144","-4,40215888530531","4,70464500144635","3,86112433890336"
"4708","4,20069056754174","4,05361983098277","-3,02020253553339","2,53557081008678","-1,61444373923844","-2,72911134504914"
"4721","4,06165022537583","5,76340495774569","-3,00346620710888","-8,9572407825755","4,64100874542751","-3,19061831626137"
"4729","7,40455746412735","5,19085123943642","-3,0005947071199","-4,34381980566674","-1,63318513479778","-2,31127434828269"
"4741","1,35303798115864","5,04771280985911","-3,00010203561049","1,09354992454067","-3,89197003538735","1,39574218988728"
"4749","5,87968810316952","1,51192820246478","-3,00001750654307","-3,89031142416582","2,55927499143823","-1,37365898153477"
"4761","3,57742223073125","6,12798205061619","-3,00000300364793","1,94540576677627","-0,246272675981383","4,11799315829209"
"4770","2,17737859381056","3,53199551265405","-3,00000051534451","-1,20155288421101","1,63296254907837","-6,13907727508736"
"4778","2,74729856160273","5,63299887816351","-3,00000008841914","4,13211595655901","2,89190448208056","-2,08211721900948"
"4790","4,61518208378299","6,90824971954088","-3,00000001517033","-4,33769243123435","-1,14831058253295","1,45565285571076"
"4799","2,49616850810648","4,47706242988522","-3,00000000260282","-2,63370683943616","1,36730504070472","-1,35799598256635"
"4811","2,8452277782302","3,1192656074713","-3,00000000044657","3,01496670567532","2,81366618273337","0,644966561768352"
"4819","2,9524554518386","3,77981640186783","-3,00000000007662","-1,91161393710315","-1,17135239875043","1,90718032757035"
"4831","2,98539476894482","3,94495410046696","-3,00000000001315","-6,43387568280653","4,7715027530973","2,97573329534013"
"4840","4,68832296441116","3,98623852511674","-3,00000000000226","2,25589073660831","-3,3002454444282","2,25509497162653"
"4852","5,90425579176995","3,99655963127918","-3,00000000000039","-1,11738593123816","-1,67744101326156","-1,41042968344985"
"4860","5,27777874188544","0,499139907819796","-3,00000000000007","2,42601433429674","5,62245553526886","4,84694061345088"
"4868","1,69971187242924","3,37478497695495","-3,00000000000001","-2,07126844975762","2,0668426511839","0,00574123208034116"
"4881","5,98618301117911","6,59369624423874","-3","0,438515963271241","2,01968570504369","0,740061742893092"
"4889","3,61013644924481","3,64842406105968","-3","8,76346280912261","0,300305742983371","0,932041939495135"
"4901","2,18742808925551","3,91210601526492","-3","-2,6243811011729","0,793934344008899","-0,756327663260311"
"4909","6,13600477437949","7,47802650381623","-3","-4,16925861115913","4,35029570129737","-1,93629448936134"
"4921","7,04177936758757","-0,630493374045942","-3","-0,859129640409116","1,69218122144655","-1,24478412014673"
"4930","1,24159601511586","6,59237665648851","-3","-0,961812551063684","1,90934486328435","-1,06399617444815"
"4942","7,53826374756574","5,39809416412213","-3","2,46818751060236","-1,4376823908152","-2,75529187077885"
"4950","6,47253992993556","3,34952354103053","-3","-7,24658941036998","2,98757454438339","1,27965858605437"
"4958","4,45235020094584","7,33738088525763","-3","-1,42225707224847","-1,12013497018592","-1,40400779075085"
"4971","4,83176721281783","1,08434522131441","-3","5,07228697667148","-0,329888869481529","-1,10562348995435"
"4979","1,56270139094999","6,0210863053286","-3","1,10392456885394","-0,0971549582009191","-1,02761412498854"
"4991","0,865666044325356","5,25527157633215","-3","1,02817210219286","-0,0286129262798631","-1,00721941586301"
"4999","1,65154344384293","1,56381789408304","-3","-2,45019861657567","-0,00842673977177557","0,736673320938897"
"5011","5,27857657813279","7,89095447352076","-3","-3,12204083762981","-1,70797360092194","-1,54596544604432"
"5020","4,39276651198743","4,72273861838019","-3","1,15367025816979","0,496987867257716","-1,14273679153195"
"5032","4,12065412082244","3,18068465459505","-3","0,312739487576749","0,146366973658961","-1,03731699836399"
"5040","5,72987334532635","3,79517116364876","-3","-3,3730574597713","1,7485981229878","-1,00975612770858"
"5048","3,53140056813499","3,94879279091219","-3","-0,643293669662959","-0,485023614721872","-1,00255063461797"
"5061","5,54886028242226","5,73719819772805","-3","6,01236788651414","-8,67030269108732","2,47645468310017"
"5069","3,47579508422661","5,18429954943201","-3","3,81659935544809","-0,964458455838728","3,12456395046394"
"5081","5,53177880890272","3,296074887358","-3","-3,69430558375057","3,42145098904242","0,55544438552076"
"5089","1,77773826683781","7,3240187218395","-3","-1,73037832228948","1,71313703307338","0,883775717807739"
"5102","2,62453287047468","1,08100468045988","-3","-1,19799257251578","2,91551652044233","-5,98462862621429"
"5110","2,88466008422823","6,02025117011497","-3","0,675245521329723","0,564135212470891","1,43538323751956"
"5122","2,96456867958839","7,00506279252874","-3","-1,54587073542396","2,57712612846317","-4,84041677522809"
"5130","1,29630628492157","2,75126569813219","-3","4,03877751120228","2,16996834411425","-1,74259640430918"
"5139","6,86226066798007","5,43781642453305","-3","-0,905159251228611","-1,36092665356949","-0,194143839911887"
"5151","7,26487824098973","3,35945410613326","-3","-0,245372573662142","-0,400803980897767","-0,7893175775855"
"5159","-0,382679693873366","3,83986352653332","-3","-3,52435171287891","-0,118040035943271","0,79364141203329"
"5171","8,03930176465715","3,95996588163333","-3","1,04461093547254","3,376219963155","-1,53107175157808"
"5179","3,24083491916141","3,98999147040833","-3","2,01209323114747","0,699816127653378","2,33827852371437"
"5192","0,381172634855367","5,74749786760208","-3","1,2743604736687","0,911593405329915","1,34987852076556"
"5200","4,88833080004621","3,43687446690052","-3","-2,38346132782486","-0,731528319429945","-0,647088784816024"
"5212","7,65850584030927","3,85921861672513","-3","3,81172159915847","-3,62642476147037","-3,64629591949072"
"5220","1,43104849663633","7,46480465418128","-3","0,76220771568151","-2,4789953355078","-0,691845595227502"
"5233","5,90365218837689","6,36620116354532","-3","2,66445652734575","-0,435576169109459","4,29624593214461"
"5241","1,89197421692095","2,59155029088633","-3","2,18012234640494","0,871719271493895","-0,876792726665144"
"5249","6,04524416693938","3,64788757272158","-3","2,04882796441781","0,256728423477977","-0,229228024501331"
"5261","5,32108902403291","2,1619718931804","-3","2,0132363926896","-5,04086696119202","1,67863155892062"
"5270","1,71301637741016","8,0404929732951","-3","2,00358815063299","3,22091549183115","-2,29970059976011"
"5282","5,99027002802616","4,76012324332377","-3","0,272054897614309","-0,0514141611708128","-1,33979273762839"
"5290","5,30420149366535","4,94003081083094","-3","0,802667030122398","-0,0151418891074933","-1,08883515523983"
"5302","1,70782868938898","3,23500770270774","-3","0,946506541670387","3,40652430525207","0,715335764026532"
"5311","5,98867641981825","5,55875192567693","-3","2,71441666109505","-4,40773456917609","-1,55154392071679"
"5323","0,225283296794311","1,63968798141923","-3","5,65150122246875","-2,70909743573603","-1,14419522371325"
"5331","6,53325263631455","4,40992199535481","-3","-0,739060751132411","-2,20883496868987","0,700862469772957"
"5339","3,7781910125409","5,8524804988387","-3","0,528571561655063","-2,06150359872961","0,183232951765275"
"5351","3,93186239774625","3,46312012470968","-3","0,872204135286459","1,39287040426554","-1,6906564758017"
"5360","7,3646878831978","7,36578003117742","-3","0,965356814079315","-1,29528018186242","0,557996055085418"
"5372","3,03359997861053","2,84144500779435","-3","0,99060884846763","0,61852943955004","-1,59267869471676"
"5380","5,39594069625375","1,96036125194859","-3","-0,731463560350219","1,88765381380207","2,32217205129304"
"5388","5,12162919990961","2,74009031298715","-3","-0,198286761251779","1,26142127593564","1,34566765684922"
"5401","3,3445537765404","6,43502257824679","-1,17157287525381","6,86191913060405","1,07699069440044","1,0903710896587"
"5409","7,18427228466709","5,3587556445617","-3,68629150101524","-2,13985577117794","1,02267438640197","1,02362654904003"
"5421","4,67098758193458","1,58968891114042","-3,11774900609144","4,60667651895035","-2,40430592346506","-0,732383852502949"
"5429","3,20612097597486","4,39742222778511","-3,02020253553339","-0,0222941447922655","5,40838790067566","-0,191473878124495"
"5442","2,06331839497586","5,84935555694628","-3,00346620710888","0,722874240077714","3,70928984718245","-0,0500587852650482"
"5450","9,48349856554585","5,21233888923657","-3,0005947071199","-4,26187722310814","-1,9075839369043","-0,0130873307981097"
"5462","0,991668829710483","3,30308472230914","-3,00010203561049","0,844680887427634","-0,561799002027435","-0,00342154182352364"
"5470","4,07586939971696","3,82577118057729","-3,00001750654307","3,68681353732157","-1,87094623802089","-5,21657680391164"
"5483","5,7161159067812","3,95644279514432","-3,00000300364793","-1,00057042444508","0,448991098618243","3,37474288211598"
"5487","5,21998396630722","3,98911069878608","-3,00000051534451","-0,271236845718658","0,132231534478258","1,62085097539129"
"5499","1,6819578694206","2,24727767469652","-3,00000008841914","-0,0735274846008056","3,44992697849443","1,16231480744596"
"5511","4,28791959915518","8,06181941867413","-3,00000001517033","5,16682136530762","-0,98396841360961","-0,696125299564402"
"5519","4,0884461506859","6,51545485466853","-3,00000000260282","0,129551160205402","-3,70077042471389","1,55656628995468"
"5532","4,02716981266335","4,37886371366713","-3,00000000044657","-0,964880984691513","-2,50089073869675","2,88406902765081"
"5540","4,00834630692729","4,84471592841678","-3,00000000007662","-0,261562073381076","-2,1475164010771","2,23113033510439"
"5552","4,00256390576511","4,9611789821042","-3,00000000001315","-0,0709048258975492","-3,74893663872172","-1,41669497982013"
"5560","2,30797805547707","3,24029474552605","-3,00000000000226","-0,0192210371732185","3,60139949141371","-0,370379659489518"
"5573","7,86584612440732","5,56007368638151","-3,00000000000039","-1,73412826751111","0,0606414748185429","-1,83539253639795"
"5581","3,18755100330479","-0,109981578404622","-3,00000000000007","0,529908670234643","0,0178594081106683","3,99727788841316"
"5589","3,75042342863368","1,47250460539884","-3,00000000000001","1,8725666016403","-3,40572397377808","-2,69351546447919"
"5601","3,92333246120269","3,61812615134971","-3","-3,95021607254993","0,996986558424018","-1,44275139674291"
"5610","7,36206756816858","6,65453153783743","-3","-2,52866889032988","0,293620659474803","-1,11575258887765"
"5622","3,0327950428625","5,41363288445936","-3","4,7723584116545","-3,3245100398499","-1,0302622689176"
"5630","3,70288387579676","3,35340822111484","-3","-0,70629851673462","1,02090472325488","0,730649014938242"
"5642","3,90872876466347","3,83835205527871","-3","-0,191464965518157","0,300664753772489","0,191020323509254"
"5651","5,6647719002007","7,45958801381968","-3","1,67701503948544","-1,61694363927835","-1,68862055124776"
"5663","1,81859247414999","6,36489700345492","-3","1,18352673567777","-1,18169492526563","-1,18003243388426"
"5671","-0,748536211041351","2,59122425086373","-3","2,77866862000124","-2,75900249239579","-1,0470675427731"
"5683","3,84848548155057","3,64780606271593","-3","2,21108321332441","1,18745130065701","-2,75086606217168"
"5687","3,26064663529757","3,91195151567898","-3","2,05722090476342","0,349714076932258","-2,19630585298233"
"5700","3,08006815669703","0,477987878919746","-3","-1,44232400286668","-1,60249821422093","-0,312761293563113"
"5712","1,33178662105175","6,86949696972994","-3","-0,390988383710058","-1,17744062996354","-0,820328834573531"
"5720","1,79473123268368","7,21737424243248","-3","-1,83490778282786","-1,05225771034454","2,52409461209928"
"5732","1,93694339538385","2,80434356060812","-3","0,502589136117162","-1,0153903212078","3,1370188973171"
"5741","1,98062961337128","3,70108589015203","-3","-3,32159259675633","0,700959282531703","-1,17986016217266"
"5753","7,07247825790287","3,92527147253801","-3","-4,08717803306952","1,91193007374978","-0,308461744648971"
"5761","3,94383597287233","5,7313178681345","-3","0,163120944409176","-0,436921025282906","1,6579167553063"
"5773","3,98274694733864","1,68282946703363","-3","-5,87145195808373","-1,83416865704371","1,17200525679404"
"5782","5,68750957890543","4,42070736675841","-3","2,40835380499828","3,87080611056745","-2,43215259538581"
"5790","5,21119637562811","4,1051768416896","-3","-1,07605590513668","-5,97649165451405","-1,37442088676235"
"5802","3,37206795738586","5,7762942104224","-3","-1,02061740313681","1,23987454382735","2,37923320682939"
"5810","0,421486170675181","3,4440735526056","-3","-1,00558901128508","-3,04583056598279","1,36058568201249"
"5823","4,90071473317985","3,8610183881514","-3","7,6430738494615","-2,30800561741593","1,09427124682657"
"5831","4,27669096251034","3,96525459703785","-3","-3,65701640687459","-2,09071016228199","-5,92959683498711"
"5839","4,08499682076324","3,99131364925946","-3","0,00864789653145726","-2,02671488140463","1,44977070721922"
"5851","2,33330065957486","3,99782841231487","-3","-1,72657349526628","-2,00786775010108","2,11758771207714"
"5863","4,4880058827399","5,74945710307872","-3","-1,19696115158321","-2,00231711646836","-3,92350099602175"
"5872","2,45710119391835","1,68736427576968","-3","2,4044429074022","-2,00068240966718","-0,764317879887793"
"5884","2,83322667247805","6,17184106894242","-3","4,83855506489591","-3,7056928326475","0,800177314011141"
"5888","2,94876882678471","5,2929602672356","-3","-3,41727156763068","-1,50234042791418","-3,26792376986795"
"5900","4,67707182482632","5,0732400668089","-3","-5,11311490030799","1,55754851108814","4,62275801079767"
"5913","4,20798999727522","3,26831001670223","-3","1,61392549342464","-4,65776485339036","2,68569186225674"
"5921","4,06389254046665","5,56707750417556","-3","0,437506495661422","-1,78273339032274","-3,03641551895719"
"5933","5,71243673002108","1,64176937604389","-3","1,84751801559731","-1,9360132143445","-5,00952044561717"
"5937","5,21885375834958","2,66044234401097","-3","-0,499170726301521","-0,275663513164513","1,69031477962247"
"5953","5,06722978409931","8,16511058600274","-3","6,78035483926226","-2,49216886412046","2,18047537166371"
"5962","3,32784279562038","4,79127764650069","-3","6,48262253117192","-2,14494773799604","1,30862258455104"
"5970","7,17913883094981","4,94781941162517","-3","-4,9715941192405","1,36829542580299","-0,657874705444468"
"5982","2,97660108210294","4,98695485290629","-3","-0,34771073994526","-1,30251771312278","1,56656649622859"
"5990","3,68562162780961","4,99673871322657","-3","-1,82317598334817","0,616397927661861","-0,590438045093871"
"6003","2,21061641508496","6,74918467830664","-3","-2,95206615411349","5,29800978108295","-1,89292443358749"
"6011","4,45031845469826","4,43729616957666","-3","-3,98700598694127","-3,14518483757345","0,505115273832241"
"6023","2,44552397600989","6,60932404239417","-3","3,64811137683966","0,0737174554908028","-1,60650380600259"
"6032","4,52247981360466","4,40233101059854","-3","-1,73997967798997","-3,38927332399735","-1,15856389437821"
"6040","4,16050080807286","4,85058275264964","-3","2,25724024313092","-4,11464416359708","4,17422745450526"
"6052","4,04930431515491","6,71264568816241","-3","3,06973325458568","-3,32827178223191","-2,64725390432012"
"6060","4,0151458146665","2,6781614220406","-3","-2,8967676997825","5,43078057438108","2,04646470948502"
"6072","2,31184309771064","3,66954035551015","-3","1,94365558528922","3,01039281447834","-0,464973820721372"
"6081","2,78860477281151","5,66738508887754","-3","-0,473109541080347","2,29756891104399","-3,59868392160118"
"6089","2,93506140543035","5,16684627221938","-3","-0,128251581764676","-1,32334724761391","1,05916280887628"
"6101","4,67286103591796","3,29171156805485","-3","-5,22152008131593","1,31575531759252","-3,20021479879992"
"6113","4,20669648314354","3,82292789201371","-3","-1,87329679543552","4,50397622697427","1,16333827368873"
"6122","4,0634951852809","3,95573197300343","-3","1,49218255759399","1,73744138761069","2,04270303421144"
"6134","5,7123146663035","3,98893299325086","-3","-4,78224920750589","-1,48830936413477","-2,20451802978646"
"6138","5,21881626154148","3,99723324831271","-3","3,43253508410173","2,9726644885078","2,16221324024807"
"6154","-0,011210390213503","5,74930831207818","-1,17157287525381","-1,79841857666758","7,40293318417252","3,04240890632322"
"6163","4,76779448274213","5,18732707801955","-3,68629150101524","2,24139849710551","0,591207816425076","2,27252659271924"
"6171","4,23585913121467","1,54683176950489","-3,11774900609144","-2,12131451960546","-0,120392626676082","0,33268838586733"
"6183","4,07245367221012","2,63670794237622","-3,02020253553339","0,424949363865036","-2,74094846630377","-2,65158296062724"
"6191","4,02225707603389","2,90917698559406","-3,00346620710888","-3,34263935809716","7,01473578812284","5,52245444336956"
"6203","7,39245626492829","2,97729424639851","-3,0005947071199","-2,36396564952434","1,47688052236939","1,92090781423408"
"6212","1,34932060835394","6,49432356159963","-3,00010203561049","-2,09866461401922","5,25692076919603","-3,23636007958915"
"6224","0,800117506100299","3,62358089039991","-3,00001750654307","3,16000713661637","-0,74630217125582","0,153888478932926"
"6232","3,32421711089606","2,15589522259998","-3,00000300364793","-0,143378269790826","-6,33626763857396","-1,69832827249073"
"6240","3,09959639958309","2,78897380564999","-3,00000051534451","-0,0388672987853209","4,5449013019135","0,555990346386066"
"6253","6,41621416638637","6,4472434514125","-3,00000008841914","-5,1972895920072","-2,36698141691685","0,14535769386299"
"6261","5,43504746440068","7,11181086285312","-3,00000001517033","-1,86672834075232","5,419380271771","0,038002205078747"
"6273","3,4408328736572","6,27795271571328","-3,00000000260282","-3,69279020977742","-1,40394838235584","0,00993526763164233"
"6281","3,82822919988693","2,56948817892832","-3,00000000044657","1,99895025484461","1,29201762711177","-3,474524050254"
"6290","3,94723365094","3,64237204473208","-3,00000000007662","-1,1870379258488","-0,619490288489642","1,09162307133706"
"6302","3,9837906815868","5,66059301118302","-3,00000000001315","-1,05070265500315","1,52304692324936","2,02395386617909"
"6314","5,68783020409684","3,41514825279576","-3,00000000000226","4,1730087706445","-0,551450279608129","-0,470859038497418"
"6322","1,82567576485665","3,85378706319894","-3,00000000000039","-2,59768933046093","-0,162406597559403","3,35402048968829"
"6334","6,02487791574034","3,96344676579973","-3,00000000000007","-1,43310516066165","5,06864550694579","2,35399408839315"
"6339","5,31483270620063","3,99086169144993","-3,00000000000001","-1,11740710575919","0,198249230969611","-1,3845735734801"
"6351","3,40390404821555","3,99771542286248","-3","-1,03182697814473","4,17486158510788","1,37657889612527"
"6363","2,12407546556726","5,74942885571562","-3","2,44920784471149","1,64051444574662","1,09845250057675"
"6371","4,42373390163552","5,18735721392891","-3","-2,06498110160866","1,89412857714111","-2,45138217210509"
"6384","7,51578611089311","5,04683930348223","-3","0,440220351526375","3,67431186134801","2,09767326638316"
"6392","6,4656350146535","5,01170982587056","-3","0,119335907450387","-1,91788523854275","1,28697486503789"
"6404","4,45022907692614","1,50292745646764","-3","1,76126762817988","2,84615089564902","-0,663534268791704"
"6412","1,44549652001202","7,87573186411691","-3","2,93528390014193","-1,16178538628818","3,30364762382444"
"6424","5,90809048315206","6,46893296602923","-3","-1,20429674222601","1,36333660127946","2,34082464460185"
"6433","3,58614717056565","-0,882766758492693","-3","-0,32646342695148","-2,30397812732246","0,350544176676505"
"6441","3,87286836387192","1,27930831037683","-3","-1,81741621470457","-1,38403217621145","0,830206762837134"
"6453","2,26813682384423","7,06982707759421","-3","-4,67942256948135","4,00337496943407","0,955609385040674"
"6462","4,46798817484084","3,76745676939855","-3","1,73149177057203","0,884518383647351","-0,750166208197272"
"6474","2,45095194525858","2,19186419234964","-3","-6,44629452247243","2,67148158111256","1,54243787584786"
"6482","4,52414723391052","6,29796604808741","-3","2,25252421005888","3,90324865065801","-0,596746213279587"
"6490","4,16101302366382","5,32449151202185","-3","2,33953703569745","-1,85046148996031","-0,156012876747975"
"6503","4,04946166289183","5,08112287800546","-3","-0,365793121102405","-2,25046783372366","-1,77934864753787"
"6515","2,32238459850447","3,27028071950137","-3","-0,0991600090602569","2,04271075585187","0,534808441071851"
"6523","6,17746212493187","5,56757017987534","-3","1,70203727142651","3,0125786653731","1,87838067216481"
"6531","3,66889556591378","1,64189254496884","-3","6,37706317631466","5,70919637681882","-0,508917583772037"
"6539","3,89828788051981","2,66047313624221","-3","-0,542373810436781","-2,31859517957538","-0,133051026558763"
"6552","2,27594545655419","2,91511828406055","-3","-6,33378125184703","-0,682845159676148","1,70377600021258"
"6564","6,16319646410603","4,72877957101514","-3","-0,445893229661127","-0,20110345962961","-2,29312685612692"
"6572","5,35732284305586","4,18219489275378","-3","0,879126276186242","1,64626525108684","0,400486656452759"
"6584","5,10976616428047","-1,20445127681155","-3","1,96723328335865","-0,51516147874785","-3,37241859179949"
"6589","5,03371911719331","0,448887180797112","-3","-0,466718046491444","3,25926446466545","1,11831744484236"
"6605","3,31754863883685","9,61222179519928","-3","3,33131661114339","-1,04012007641245","2,03093282291291"
"6613","5,48316701243066","5,15305544879982","-3","2,36089625421385","-2,01181568918344","-0,469034465349717"
"6625","1,76280518729583","5,03826386219995","-3","-6,54675637547016","2,11299575565743","-1,8611847739099"
"6634","6,00556467484611","5,00956596554999","-3","-0,503626997656635","3,03327817011539","0,513413266350852"
"6642","5,30889986307575","5,0023914913875","-3","0,863475678547161","2,30430883462439","-1,60433438514117"
"6654","3,40208153547742","5,00059787284687","-3","-3,22376267390476","0,384129572204672","-1,15799672263596"
"6662","7,20194426271407","1,50014946821172","-3","1,12609527760085","0,8186211442548","-1,04130654316132"
"6674","2,98360669290609","4,37503736705293","-3","0,305264400798704","2,65207430753949","-1,01079915127018"
"6683","3,68777368453156","4,09375934176323","-3","-3,37508382284342","-1,21894252176593","-1,0028233219057"
"6691","3,90408705823759","4,02343983544081","-3","1,08507480555221","1,34650335947609","-1,0007381271346"
"6703","3,97053646043987","5,7558599588602","-3","3,75198005283019","-0,603443796655221","2,47692854367996"
"6711","0,605329978311746","3,43896498971505","-3","0,746012845047167","-0,177719111689898","-0,352433682863388"
"6724","4,95718979483111","7,35974124742876","-3","4,38898417216475","-0,0523397254805025","-1,83070075389948"
"6732","5,98684911389022","2,83993531185719","-3","-3,53914224049107","-0,0154144753331562","0,521382985388583"
"6740","5,30315062151897","3,7099838279643","-3","-1,68831629969851","-5,1210152608307","-1,60225078784926"
"6752","3,40031542338726","3,92749595699107","-3","-2,91550809251774","-0,213672549912373","0,581108770996164"
"6765","3,81578262618198","3,98187398924777","-3","6,39641097054456","2,64256355165405","1,89048539525333"
"6773","3,94341018238606","5,74546849731194","-3","-2,99496453995028","3,18924019807185","-7,45999597231656"
"6785","3,98261614856836","3,43636712432799","-3","0,18811838226592","-4,47172650798869","5,52678583823056"
"6789","3,99465984688873","3,859091781082","-3","-1,67792223868211","0,683040132113614","-0,55508130826071"
"6802","5,69116910785658","5,7147729452705","-3","4,0029806973638","5,31763645293188","-0,145120035625947"
"6814","1,82670144419882","5,17869323631762","-3","-2,64378091697355","-4,84489648034661","1,70062068764893"
"6822","4,33238344275324","1,54467330907941","-3","0,283318016231802","0,57313853669679","-2,29395177864698"
"6834","4,10210501872576","6,13616832726985","-3","0,0768024750487711","0,168793965869862","-1,33828977020302"
"6842","4,03136568645727","5,28404208181746","-3","0,0208197849613313","1,75520305480696","-1,08844222057771"
"6855","5,70244479116213","3,32101052045437","-3","-1,72327391280462","-3,89406212340801","-1,02312226697255"
"6863","6,9085938820578","7,33025263011359","-3","-2,92498447966762","0,853166997037251","-1,00604506791505"
"6875","2,89349225801724","6,3325631575284","-3","2,93600651813173","-4,8652109447443","-1,00158041796425"
"6883","3,66009139089632","6,0831407893821","-3","-0,204100853341602","-0,138336095923946","-2,73897394281088"
"6892","3,8955833220509","6,02078519734552","-3","-1,78424589736447","2,66475075078494","-2,19319678632917"
"6904","3,96792419391002","6,00519629933638","-3","-6,39934847262715","-5,33168477834336","-3,78906998061616"
"6912","3,99014661875353","2,5012990748341","-3","0,53633266297726","-1,98120829565216","-3,2062938564031"
"6925","0,611354031631749","3,62532476870852","-3","-0,583527540591051","1,41651802483085","3,90030972902492"
"6933","6,6518498783538","2,15633119217713","-3","-2,61601950992054","3,828159807278","0,0196940131201107"
"6941","5,50743250435212","2,78908279804428","-3","1,29084363991386","-0,872575765750842","-6,94909425032303"
"6953","3,46306886651679","8,19727069951107","-3","-3,10791082083145","-1,96247252545465","-3,03244820131455"
"6965","3,83505988449778","3,04931767487777","-3","-4,02925270420367","2,12752771915503","0,468638285971379"
"6974","5,64214152389039","3,76232941871944","-3","-1,55009431540965","6,44854166658066","-0,616040322003251"
"6982","1,81164063871019","3,94058235467986","-3","5,03763257378961","-0,395360114136101","0,838942886121933"
"6990","2,63494735528235","3,98514558866997","-3","1,0945303766029","-1,11643677285497","-1,51922816860056"
"7002","4,58066886636704","3,99628639716749","-3","4,48346107616604","-0,328799720254784","-4,61286813710244"
"7015","2,48556637738255","5,74907159929187","-3","-0,0556956597962484","-1,80232605232914","0,0554544983490921"
"7023","2,84197090494213","3,43726789982297","-3","-2,74401588895919","0,469200302048173","-0,724062777610146"
"7035","2,95145497147378","5,60931697495574","-3","-1,47277168807669","3,54916702433085","-2,66641994170209"
"7039","2,98508743093322","5,15232924373894","-3","0,600757790378211","0,750750445400804","1,30289319569053"
"7055","4,68822855310966","3,28808231093473","-3","1,89177253797441","0,926593976642069","-3,13649411159386"
"7064","4,21141723763609","3,82202057773368","-3","1,24174367379772","-2,43260238647948","4,65711888083094"
"7072","2,37213580408507","3,95550514443342","-3","1,06553241026457","1,98907064702448","2,69467514201983"
"7084","6,19274522006849","3,98887628610836","-3","1,01776467084999","-2,11969435577602","0,443054581958317"
"7092","5,36639993864124","3,99721907152709","-3","1,0048156863014","3,78671646738177","-2,62272890614861"
"7105","5,11255456134093","5,74930476788177","-3","-0,727612339299183","0,820710690638955","0,3143157468406"
"7113","1,64895658236815","1,68732619197044","-3","-5,3839961223316","-0,758294018924031","-1,65638628941966"
"7125","2,58497236711329","7,92183154799261","-3","-5,3751767327285","-3,63430747791258","-4,64872665203248"
"7133","7,95093613112448","8,23045788699815","-3","-0,914950380665118","2,63515871264637","-1,69248108409698"
"7142","6,59930894436613","7,30761447174954","-3","1,75197322529463","6,59804312757768","1,55751903087856"
"7154","4,49129243129601","3,57690361793738","-3","-4,71182457818172","-0,351330716548455","-1,33136416710178"
"7162","3,1509203421259","6,39422590448435","-3","5,18054373472749","4,01300581557829","0,651929163375514"
"7174","5,43198039129519","6,09855647612109","-3","-0,595646735716434","-0,112645253743471","0,170439865307468"
"7183","3,43989069809552","6,02463911903027","-3","1,56744855044358","-2,7386668018917","-1,69400109060838"
"7191","3,82793977255393","6,00615977975757","-3","-0,575092576932413","-1,51205153034899","2,29568240106942"
"7203","2,25433518974403","6,00153994493939","-3","3,30193820351221","2,26018036979185","1,33874222281467"
"7211","2,77093889279302","2,50038498623485","-3","0,624014504232628","-0,334358477450965","1,08856050944484"
"7223","9,70087282336648","1,87509624655871","-3","4,35591259185715","3,31251242074595","-4,19252908629196"
"7232","7,8296823329147","2,71877406163968","-3","-1,81918957149191","-1,02443811977227","-2,57321313900949"
"7240","3,86925138387443","4,67969351540992","-3","4,6936034222512","-3,71268908270565","3,06582187093101"
"7252","1,26702572213798","5,91992337885248","-1,17157287525381","0,00127019259307071","-0,798909023079707","-1,93703461821284"
"7264","2,46764685500979","5,22998084471312","-3,68629150101524","4,18709768522823","0,76471478754153","0,493583140667183"
"7273","2,83646619883441","1,55749521117828","-3,11774900609144","-1,86495229010286","-1,48027712577996","-1,60951875813816"
"7285","6,33538308210549","6,13937380279457","-3,02020253553339","-3,96339096783283","2,26953819066229","0,579208638364137"
"7289","3,71740737551488","7,03484345069864","-3,00346620710888","0,925595202295726","6,49036490676778","-3,32569365259485"
"7301","5,60599979693394","4,50871086267466","-3,0005947071199","7,16658354132934","-0,38304282935292","-2,34658834161877"
"7313","1,80053824541075","4,87717771566867","-3,00010203561049","-0,328348882050562","-2,81830108963609","-0,352051033246858"
"7322","6,01715590987723","4,96929442891717","-3,00001750654307","0,63990824435859","-1,53550447651636","-2,56916147381307"
"7330","3,61965102787534","1,49232360722929","-3,00000300364793","2,6313033159133","2,25327328617862","-0,410240383874829"
"7338","5,57596998069635","0,873080901807323","-3,00000051534451","2,17113510045534","-0,336392669816374","0,892747065633211"
"7350","5,17693247647157","5,21827022545183","-3,00000008841914","-1,41144389051558","3,31191333453082","1,9719598743019"
"7363","5,0543519667336","4,30456755636296","-3,00000001517033","1,34630045171111","-2,73010641298468","1,25410845129635"
"7371","1,6310773012492","4,07614188909074","-3,00000000260282","6,280629251697","0,19596143133153","-0,672126839036979"
"7379","5,96509912650205","5,76903547227268","-3,00000000044657","-2,29743311841001","-1,64777962028988","1,56284042924721"
"7387","1,91085012937899","5,19225886806817","-3,00000000007662","1,10612453041294","-2,89626823020119","-2,32997294475409"
"7400","6,05104266694597","3,29806471701704","-3,00000000001315","4,48660404504797","1,14702542317936","0,390853643028104"
"7412","3,63006071596449","5,57451617925426","-3,00000000000226","1,67407412936888","3,74879204173302","0,102184479564801"
"7420","5,57916773744521","6,89362904481357","-3,00000000000039","-1,54618827894993","4,22052535337154","5,24239731134044"
"7428","1,79229569303252","2,72340726120339","-3,00000000000007","-0,419144141605155","-3,4625127750118","-3,36799238826547"
"7440","6,01462387651854","1,93085181530085","-1,17157287525382","5,07313083680167","-0,0197382059453077","0,119474628132422"
"7449","3,61887321141324","7,98271295382521","-3,68629150101524","1,83307111052889","-0,0058130623703413","0,0312353560333373"
"7461","2,19011193914112","4,7456782384563","-3,11774900609144","0,225830760892731","-0,00171199420125167","3,48528766683429"
"7469","6,13682922742852","3,18641955961408","-3,02020253553339","-0,938781297393674","-3,41148791112018","-1,08880903959369"
"7481","1,96360397603762","0,296604889903519","-3,00346620710888","1,47443087383376","-0,710202825500367","-2,02321816785747"
"7490","2,6816290409732","8,57415122247588","-3,0005947071199","2,85752755777535","2,49633134246778","2,20961213844653"
"7498","6,28781858619707","4,89353780561897","-3,00010203561049","-2,95429288985424","-3,67579380801328","1,31624007872823"
"7510","2,00998646481851","6,72338445140474","-3,00001750654307","1,92806152941546","-2,49353492170491","-4,13300471262995"
"7518","7,77430595413807","2,68084611285119","-3,00000300364793","2,98049876013675","1,26563366181005","2,65803114664573"
"7530","1,4666211854953","3,6702115282128","-3,00000051534451","0,536877988320642","2,07823127634004","-3,78220787497584"
"7539","4,22177022672433","5,6675528820532","-3,00000008841914","-2,58337971258973","1,31754789044074","2,74974320543825"
"7547","2,37531614344242","-0,0831117794867002","-3,00000001517033","-3,15814386397325","-0,61197141805766","-0,281109224906593"
"7559","6,19372218994084","8,47922205512833","-3,00000000260282","-0,585034416338887","-0,180230565629551","-1,81205374178494"
"7568","3,67389050257028","1,36980551378208","-3,00000000044657","2,57032536147397","-0,0530793691153849","2,26481880561138"
"7580","2,20701272546579","7,84245137844552","-3,00000000007662","-3,76106608323777","1,68985955103773","1,33067326786021"
"7588","6,14202098755311","4,71061284461138","-3,00000000001315","0,980441879918033","2,90866111244462","1,08645096799023"
"7604","5,3508179389245","4,92765321115285","-3,00000000000226","-1,46313743089497","0,562116238995024","-2,45451984366888"
"7608","3,41495836798156","4,98191330278821","-3,00000000000039","2,33228725234604","0,871039666890969","0,358292196374009"
"7621","2,1274712470098","1,49547832569705","-3,00000000000007","-3,82559398082829","2,6675119892766","0,0936716396832333"
"7629","2,73196750137471","7,87386958142426","-3,00000000000001","0,962949514587511","-2,91988785623612","0,0244894423315495"
"7637","6,30328208040529","4,71846739535607","-3","3,71887405859484","1,8455611084319","-3,47071901787491"
"7649","3,70754625441761","4,92961684883902","-3","0,737038398839888","-0,456467225982043","2,83117861565088"
"7658","7,29578010660899","1,48240421220975","-3","2,65763357321656","1,57105854258227","1,47874194642475"
"7670","3,01243216784153","4,37060105305244","-3","-3,00848059371319","2,87367324811062","-2,35195958822714"
"7678","2,00381904321029","7,59265026326311","-3","-6,73121672432081","0,551812028058014","-1,35345528788048"
"7690","4,38679227736283","2,89816256581578","-3","-1,28254870358361","-2,5429787220205","0,646153677538191"
"7699","4,11881889301096","1,97454064145394","-3","-1,80551171427571","1,95656391746215","0,168929926676863"
"7707","4,0365000289887","7,99363516036349","-3","4,96839345986265","-2,12926785231999","1,78272567126028"
"7719","2,31840290837745","4,74840879009087","-3","6,26251424292638","3,78389699469684","-0,533925554554844"
"7727","6,17623898775749","3,18710219752272","-3","-5,76017934749595","0,819880332975528","-0,139589091445699"
"7740","3,66851982985707","5,54677554938068","-3","-1,2903999555913","-0,758538566017144","-0,0364940660442471"
"7748","0,512553354224485","3,38669388734517","-3","2,37911330955711","-0,223395784134836","-1,74810174044665"
"7760","1,54307059833535","7,34667347183629","-3","-2,0839824833734","5,05068369489146","-1,19558315081015"
"7768","6,93806430799672","2,83666836795907","-3","0,435069414892383","0,192959331064548","-4,52825462947223"
"7780","3,9025452913676","3,70916709198977","-3","-5,06881377846364","0,76231995162463","7,03181882767148"
"7789","2,27725329250034","0,427291772997442","-3","1,62593473960791","2,63549314787429","2,31551489244532"
"7797","2,7779791150487","5,10682294324936","-3","-3,01707358370262","2,18715790658755","0,343927214296439"
"7809","6,31741640862835","6,02670573581234","-3","4,63996058614603","-3,06135604489808","0,828476829218329"
"7817","5,40469773692212","7,00667643395309","-3","2,71564636003004","1,80389757495829","-4,26052516610676"
"7830","3,43150972727286","1,00166910848827","-3","-1,26383657283253","-0,468737475837676","2,62469229614547"
"7838","2,13255566648743","4,25041727712207","-3","-3,80043918844685","-1,84353886079932","1,4247583198876"
"7850","7,81195804212399","5,81260431928052","-3","2,6986863175966","-2,9539209205118","-2,36607302654636"
"7858","3,17099709916005","5,20315107982013","-3","1,46048364752124","1,13004623644262","3,85853718414113"
"7870","5,43814777928523","6,80078776995503","-3","1,1248289265875","5,44928339042903","-2,72978772882514"
"7879","6,82740436454357","0,950196942488758","-3","-4,15291445684288","-1,39514167042323","-1,45223438998333"
"7887","4,56136116563356","5,98754923562219","-3","0,874218755328298","-0,410880581958886","0,620328944110973"
"7899","6,55806389179367","3,49688730890555","-3","-8,40760377547609","-1,82649953444901","0,162178327984536"
"7908","2,78581279322986","3,87422182722639","-3","-0,736987416591879","2,16757287217389","-3,43472174018983"
"7920","7,01263239162306","7,4685554568066","-3","0,0712980333668155","-0,361632139561192","4,57915047612623"
"7928","2,92545189439193","2,86713886420165","-3","-0,70959015747825","-0,106503609710736","0,935730381975158"
"7940","5,36271863779974","3,71678471605041","-3","4,26547830162747","3,37961753461648","-0,755363359659849"
"7948","5,11142370088578","7,4291961790126","-3","-4,30154027149599","-1,00467511733025","3,27963989605562"
"7961","3,34141874472202","2,85729904475315","-3","2,56284672666742","-0,295885002677211","-4,61969495566602"
"7969","7,18330923283795","7,21432476118829","-3","1,42365995049084","1,6183513148953","-0,946330299910938"
"7981","1,28507263784394","4,55358119029707","-3","-5,80082446753457","-0,52338236024705","-0,985968634372929"
"7989","2,47319069513262","3,13839529757427","-1,17157287525381","-2,03033591091415","3,25684334812495","-2,73489240996652"
"7998","1,14535966168219","3,78459882439357","-3,68629150101524","3,17852983271999","2,3701505999402","-3,93069047302112"
"8010","1,73746265149401","3,94614970609839","-1,28932188134525","-3,596192668731","-1,30197134923351","-1,50475825083252"
"8018","5,30497013803291","5,7365374265246","-3,70649403654863","2,75405391632157","-0,383441163723952","-1,87052437325293"
"8030","6,09368391336437","5,18413435663115","-3,12121521320032","-3,71126053985191","3,29805716998004","-0,227589230946298"
"8039","5,33596925144383","3,29603358915779","-3,02079724265328","-2,46389229552699","0,676796548618426","0,940499244324228"
"8051","6,79601609678812","2,07400839728945","-3,00356824271937","-3,85467073663768","-0,800677905578044","0,245883408090557"
"8059","2,85890943771233","2,76850209932236","-3,00061221366297","7,14182068186082","3,17517755213045","1,80284433099193"
"8067","3,64946787882973","4,69212552483059","-3,00010503925842","-1,06397943901796","2,3460993580515","1,20989501210319"
"8080","7,27793898438629","5,92303138120765","-3,00001802188758","1,44049188443894","-1,30905463580832","1,05487479254088"
"8088","4,69976109739488","6,98075784530191","-3,00000309206707","2,84832730139616","-3,7965109641842","-5,93989661407243"
"8100","4,90776947696683","0,995189461325478","-3,00000053051484","2,22996644288715","-0,823595249699507","-0,291482818740463"
"8108","4,97166766429945","4,24879736533137","-3,00000009102196","2,06233981243693","-0,948047364650938","2,66235571279967"
"8120","3,29848702521613","4,06219934133284","-3,0000000156169","3,74581700056583","4,1317760464694","3,17316577446955"
"8129","7,17012101868453","5,76554983533321","-3,00000000267944","-1,98457563500712","0,922333546347224","-1,17040995006487"
"8141","1,2810213444283","5,1913874588333","-3,00000000045972","2,91985241581956","2,68261845443976","-3,78311260745071"
"8149","4,16475572837667","1,54784686470833","-3,00000000007888","-4,66631551556373","-2,91543887924033","1,0109459133285"
"8157","4,05061138602973","4,38696171617708","-3,00000000001353","2,4639626459671","1,8468713683832","0,264300931728063"
"8170","4,01554733435425","5,84674042904427","-3,00000000000232","-3,78989912362287","8,07137794346225","1,8076593943829"
"8178","7,39039509637498","3,46168510726107","-3,0000000000004","-0,756292030702783","0,788070240884817","1,2111538586189"
"8190","3,04149698894625","5,61542127681527","-3,00000000000007","2,52390046824257","-0,0624150397093632","1,0552039044178"
"8198","2,01274747862987","1,65385531920382","-3,00000000000001","-0,31581547366481","2,39260197747554","2,75299322638018"
"8210","-0,688893648211184","2,66346382980095","-3","5,10114140085566","5,52660819403806","0,458301217638646"
"8219","7,25242621092085","4,66586595745024","-3","-1,61717129616308","2,74410668619304","0,858378681780634"
"8227","2,30630471331366","7,66646648936256","-3","3,01944919735213","-0,486346379429707","-0,775586129407095"
"8239","4,4797129859106","2,91661662234064","-3","0,547436759069359","2,2677507460432","-0,202768648584514"
"8247","5,84017279899286","5,47915415558516","-3","-0,851599631437469","-1,33212894000273","3,42410983760209"
"8260","5,25809305861762","3,36978853889629","-3","-0,230853513359018","-2,09781467720931","0,633757434737466"
"8268","6,77209327421626","5,59244713472407","-3","-0,062580281464243","3,79316021087618","-0,834310937625532"
"8280","6,23717967889396","1,64811178368102","-3","-1,7458821874421","0,822608425566599","-3,69524313691877"
"8288","6,07285933184348","2,66202794592025","-3","2,25564017780167","-0,757735120535427","4,5110399600415"
"8301","2,63676258703075","2,91550698648006","-3","-0,388536067071429","3,18782455198954","0,917923620382538"
"8309","5,27403604010511","4,72887674662002","-3","-0,105325217201812","-1,061159712399","0,978542013652997"
"8317","3,39137170207602","0,682219186655004","-3","-1,75746957925047","-0,312520175853938","-0,744170719191085"
"8329","2,12022564854072","6,92055479666375","-3","-1,20533653042731","-0,0920397365020325","-3,67167694667625"
"8338","7,80817037838566","3,73013869916594","-3","0,67325470496103","-3,43809016672647","-2,43704195123571"
"8350","3,16983356503896","3,93253467479148","-3","5,36926073447843","-0,718037406386774","-3,85282067531949"
"8358","3,74498080083333","0,483133668697871","-3","-1,54448891364277","5,90500770949113","1,99272148901086"
"8370","2,22885098604592","8,62078341717447","-3","-2,14760126009836","-1,26092714769863","-1,21758516700078"
"8379","4,45591994072296","-0,344804145706383","-3","3,87565906846414","1,33413854527674","0,681675458742367"
"8391","5,83286380277962","6,6637989635734","-3","4,23737559881092","1,09840652232583","1,91677747371341"
"8399","3,56303825291175","7,16594974089335","-3","-3,58024062818647","4,43996523699349","6,45536388501576"
"8407","3,86576952510234","4,54148743522334","-3","1,75837823078696","-1,69239408503963","-5,78943608807754"
"8420","2,2659561283815","4,88537185880583","-3","-0,523334936505324","-3,90940755334577","-2,99070729264365"
"8428","6,16012783790828","6,72134296470146","-3","1,5870509930574","2,55413950041351","1,21811175696916"
"8440","5,35638019039907","2,68033574117537","-3","-0,569778703392827","-1,95327697734814","0,318462212539002"
"8448","3,41666703850457","3,67008393529384","-3","-3,61229244469571","7,24671145527952","1,82181927850052"
"8460","7,20642478992498","5,66752098382346","-3","6,20752512581685","1,54519924522191","-0,523704951571063"
"8469","2,98498306806781","1,66688024595586","-3","0,411667439511398","-1,54492624041069","-0,136917024764563"
"8481","5,38100604571811","6,16672006148897","-3","-0,888404279148992","-0,454993357449449","-0,0357954829606689"
"8489","3,42423186603527","1,79168001537224","-3","-1,96974838494141","3,27698446631013","1,72920241566151"
"8497","5,51593908080021","4,44792000384306","-3","5,65278960579462","-2,74039324908594","-0,547918633845602"
"8510","5,15849155743166","7,61198000096077","-3","-1,46762927953093","0,19293187433857","-1,88180819100589"
"8518","-0,0297415631014757","4,65299500024019","-3","-0,397848194128954","1,76231186539526","-2,96910002322783"
"8530","6,4549114353224","3,16324875006005","-3","1,62106821698299","2,92999890896995","-0,51480001446502"
"8538","3,75412534390216","2,04081218751501","-3","-0,560557239023839","0,568400393815936","0,865411075228797"
"8550","7,31008875798059","4,51020304687875","-3","-0,151957097314674","-0,832601455789143","-1,51230834534408"
"8559","1,32401809698446","4,12755076171969","-3","-0,0411928663422708","-1,95069976567787","-2,87249826422744"
"8567","5,87077347194578","5,78188769042992","-3","1,717751132802","0,425503035325694","2,98757699511266"
"8579","1,881874189287","3,44547192260748","-3","-0,534348220167246","-1,58017774885822","-0,218930139578081"
"8587","4,34933198304068","3,86136798065187","-3","3,31298327394386","-1,17086707116858","1,68132383013331"
"8600","4,10731144841157","5,71534199516297","-3","-2,83082694602865","0,655170113690102","-0,560435974880455"
"8608","5,72577460380939","3,42883549879074","-3","0,232613164593556","-4,92352263909075","-5,36220223421602"
"8620","0,144522370123998","5,60720887469769","-3","-1,66586049458631","1,54998249272874","-0,140450838852041"
"8628","4,81563409917658","6,90180221867442","-3","-4,63833850935805","0,456482464927932","2,70184139890707"
"8640","5,94336455630871","0,975450554668606","-3","1,74262892854204","0,134437802855331","-5,50931491543892"
"8649","3,59698302890553","7,74386263866715","-3","3,9302312801818","-3,37139068727967","3,29820965258421"
"8661","5,56900658793492","4,68596565966679","-3","0,794333582369724","1,00709799085851","-1,87627933308494"
"8669","5,17479338872877","1,4214914149167","-3","0,944247492205029","-3,11438515622824","-1,22909380327366"
"8678","1,66807575564364","4,35537285372917","-3","0,984886486762189","4,493771927323","0,678666649616438"
"8690","7,66927425017093","4,08884321343229","-3","2,72482078157596","1,02894428083036","5,39311237201823"
"8698","3,12716600117108","4,02221080335807","-1,17157287525381","3,92540380827861","1,00852432638497","1,8870927213403"
"8710","5,42468328465257","4,00555270083952","-3,68629150101524","-1,93589284560356","-0,702981373913774","-3,24520067179143"
"8719","1,74483954475218","2,25138817520988","-3,11774900609144","1,20413166794219","-0,207033738682844","1,89013796076103"
"8731","2,61442669729474","6,31284704380247","-3,02020253553339","6,24208982306006","1,64451873561803","2,97127775190583"
"8739","4,57436511624419","5,32821176095062","-3,00346620710888","-2,3078804720434","-2,22116769921847","-6,43887367995825"
"8751","2,4836299255575","5,08205294023765","-3,0005947071199","2,8322102248644","-6,47611940317813","-0,421935003853264"
"8760","7,91980470108977","5,02051323505941","-3,00010203561049","-2,96115596850718","2,09273010359883","0,889689633068565"
"8768","3,20412656265558","5,00512830876485","-3,00001750654307","0,19728328465804","4,02730977056992","0,232599781915742"
"8780","2,06270573025458","3,25128207719121","-3,00000300364793","-1,67543779665242","0,89156737747232","1,79937146985421"
"8788","6,09769125702789","7,3128205192978","-3,00000051534451","7,4614897578147","-4,14840986258497","-2,26813444915227"
"8800","5,33720026913958","4,57820512982445","-3,00000008841914","-1,97732283822585","4,18924323169682","3,8841421714269"
"8809","1,71796559801419","1,39455128245611","-3,00000001517033","-5,72277041098634","-0,766233757117478","-2,72309358039713"
"8821","5,99179038132134","6,09863782061403","-3,00000000260282","1,44865872793624","3,1853216343155","-1,45048427690277"
"8829","3,61185897979155","5,27465945515351","-3,00000000044657","2,12162340120843","0,643595015409801","2,35934725188417"
"8837","3,8807667860699","6,81866486378838","-3,00000000007662","3,03296994084914","-2,51594788489728","3,09394747259445"
"8850","2,27056314369864","4,45466621594709","-3,00000000001315","2,28001977835143","0,259032861651087","-1,19112072273773"
"8858","9,54716217277572","3,11366655398677","-3,00000000000226","-3,11084497718563","0,076287286945839","1,42715506248842"
"8870","2,70403523362796","5,52841663849669","-3,00000000000039","-1,57221252939835","-1,68302463026489","-2,36544642398122"
"8878","5,29470155455927","3,38210415962417","-3,00000000000007","2,30271893317359","-1,20115631517934","2,12014024310114"
"8890","3,39771995072175","3,84552603990604","-3,00000000000001","3,08206171856305","-1,05924217274689","-2,18427290471089"
"8899","0,429366218003104","5,71138150997651","-3","0,564409899930644","0,688044555187283","0,428945350832179"
"8911","4,90313540844969","3,42784537749413","-3","4,33975484377046","-1,50285713349994","5,32782542533706"
"8919","5,97024412271507","7,35696134437353","-3","-3,55248743581595","-1,14809552035813","-3,34565812702815"
"8927","1,91243062307122","6,33924033609338","-3","-3,42085173099345","0,66187652082241","3,60243519950396"
"8940","2,66590907574384","2,58481008402335","-3","-0,656249846512686","0,194928024748867","-2,79674283716931"
"8948","2,89737045926621","7,14620252100584","-3","0,822102338803215","-1,64808396694305","-4,94686060173123"
"8960","4,66128273727588","1,03655063025146","-3","1,95177510817342","-2,8963578627687","-1,77042499746195"
"8968","7,58875884416294","4,25913765756287","-3","1,2580093033608","1,14699902565839","3,27570219290854"
"8981","3,10243243751923","4,06478441439072","-3","-2,3878938392701","0,337800552560247","1,59495785283013"
"8989","5,41708537015085","4,01619610359768","-3","3,81052002414321","-6,72248241648689","-4,06013694946569"
"9001","1,74250553799164","5,75404902589942","-3","0,761881990066331","3,72566604759872","-0,800039879775882"
"9009","4,30651926459591","-0,0614877435251451","-3","0,935450442722178","1,80273084490638","0,79083818149264"
"9018","4,09415979024745","6,73462806411871","-3","-0,746416023089225","1,23641077010582","0,206756133497235"
"9030","2,33611543627679","3,68365701602968","-3","4,98441325065536","1,06962489678411","0,0540541665022331"
"9038","4,48887055525631","5,67091425400742","-3","1,8090213508736","1,02050509902754","1,75269263977281"
"9050","2,45736681305614","5,16772856350186","-3","0,219311298804082","1,00603891862753","-0,541777367495679"
"9059","9,6045464756754","5,04193214087546","-3","2,517286964796","-4,11469706162382","-3,61876338253459"
"9071","6,10728224711823","5,01048303521887","-3","2,14022729558538","0,788188211200346","-0,684647509677718"
"9079","2,64733697779947","1,50262075880472","-3","-1,41982244668335","-3,17885586882272","-0,917554484452562"
"9091","3,58447484006007","4,37565518970118","-1,17157287525381","6,53078253276488","-4,05267450971223","2,49867601204155"
"9099","3,87235463991451","5,8439137974253","-3,68629150101524","1,22821455921596","3,51194621520437","3,13037347782442"
"9108","2,26797901275155","3,46097844935632","-3,11774900609144","0,0618649079330327","-5,08217881573528","-4,65871905467476"
"9120","6,16074924866441","2,11524461233908","-3,02020253553339","-0,983229523801148","-3,61321861549175","0,782028028823225"
"9128","3,66376152996387","4,52881115308477","-3,00346620710888","-0,266536035982862","1,93587769690259","-1,5341079456637"
"9140","3,89671075371571","4,13220278827119","-3,0005947071199","-0,0722531786909862","-2,84085197015745","-2,87819753517736"
"9149","5,66108008203219","4,0330506970678","-3,00010203561049","-0,0195865516334431","-2,24763775189566","-3,96815605611045"
"9161","3,51026793475629","7,50826267426695","-3,00001750654307","-0,00530956577744852","-0,367439476893593","1,96256829465856"
"9169","5,54236853930478","1,12706566856674","-3,00000300364793","-3,45927490125069","-0,813705775285651","0,513092364308971"
"9181","1,78099133086545","6,03176641714168","-3,00000051534451","2,79116988783831","0,760357023533495","-1,60441828152726"
"9190","2,62553218067108","5,25794160428542","-3,00000008841914","-1,9722812739232","0,223931334680294","2,31910286263398"
"9198","1,19215751089143","1,56448540107135","-3,00000001517033","0,465349626033976","-5,05052597089507","1,34486525049736"
"9210","6,830267159415","6,14112135026784","-3,00000000260282","-3,33168756559041","1,51257897738062","-2,38696020992586"
"9218","7,25505014075682","7,03528033756696","-3,00000000044657","4,55467433144431","-1,26002503234626","2,11451569524432"
"9230","2,99992031137964","2,75882008439174","-3,00000000007662","-0,765308799106422","-1,07657948929437","3,02993889638557"
"9239","3,69278507230085","3,68970502109794","-3,00000000001315","-1,93637938970303","0,682938574293977","-1,20785507628479"
"9251","2,21281695680828","2,17242625527448","-3,00000000000226","-4,71167137032028","5,31760654332705","3,16134080534616"
"9259","2,7581848882125","8,04310656381862","-3,00000000000039","-1,73508587815713","-1,43392157408087","-1,17350146101097"
"9271","8,00414536310027","4,76077664095466","-3,00000000000007","-7,11493985199283","1,28319027809035","-3,78392084972433"
"9280","4,92284476029684","4,94019416023866","-3,00000000000001","-0,386569218518155","-0,622090014653633","1,01073460708238"
"9292","3,28348909545723","1,48504854005967","-3","1,89520796045821","-5,29968614705016","0,264245687983572"
"9300","-1,29853396149814","4,37126213501492","-3","3,97159274193268","-1,97178443818566","0,0690841919615998"
"9308","5,37234097800872","7,59281553375373","-3","-0,923371847215673","4,83027714247693","-3,45906020040307"
"9321","6,11437959188651","2,89820388343843","-3","-1,97922747070403","-0,57744405073819","1,0956659284967"
"9329","5,34232676620311","5,47455097085961","-3","2,19238442183588","1,53542988263101","2,0250108276842"
"9341","3,41234996082824","5,1186377427149","-3","1,32323420876866","2,86318031764661","1,26797805225437"
"9349","0,433860417363663","5,02965943567873","-3","-5,82804809992285","-1,15677008284686","2,80862073798038"
"9362","9,98294463921672","5,00741485891968","-3","-3,76663353965228","-3,75166192335154","-1,26571632751854"
"9370","4,53071299665898","6,75185371472992","-3","3,70785042771069","-0,810386841988461","-2,06946867484461"
"9378","1,4702204113809","2,68796342868248","-3","0,00513230237301032","0,761334476414118","3,93608120056755"
"9390","5,91568542642084","5,42199085717062","-3","-5,185362082719","-3,1867645123753","-0,970953920529601"
"9399","5,28128981647565","3,35549771429266","-3","-7,05024836373754","-2,34951181219108","-0,253845455506184"
"9412","3,39359999288982","5,58887442857316","-3","1,35988527953465","-0,39744221716584","1,67219559645661"
"9419","5,50652926196203","3,39721860714329","-3","-0,360277074116131","0,882950030849131","-0,562822453359648"
"9431","3,46279139908222","3,84930465178582","-3","-0,826582493034527","1,96552783099914","-0,147143874720914"
"9439","2,14216509726837","7,46232616294646","-3","0,775928187902124","1,28435580809372","-0,0384691828455691"
"9452","4,42929086370404","2,86558154073661","-3","0,210340330924221","2,78923695831066","1,72850340559438"
"9460","5,82468360467726","3,71639538518415","-3","-5,12973383605036","-1,17854700425925","-0,548101382506627"
"9472","5,25333492607485","7,42909884629604","-3","3,33833818173536","-5,46356726147124","3,33382630993907"
"9480","-1,69341613807097","4,60727471157401","-3","-0,0950358952911858","6,50741052642594","-2,86696774123831"
"9489","6,94384649711807","6,6518186778935","-3","-1,75468032708846","2,32746910187528","1,98902289084229"
"9501","3,90432152463488","4,41295466947338","-3","-2,93349819997911","-3,02003325539408","1,25856939338065"
"9509","5,66341803816136","3,10323866736834","-3","-0,524136972423397","-1,59491624194755","-2,40952133326541"
"9521","1,81817658066344","3,77580966684209","-3","4,3157513615879","-2,88069953483635","0,370056572755781"
"9530","7,71538378987137","0,443952416710522","-3","-0,83007656670212","-0,553881326710675","1,83530806884768"
"9542","6,52694951510177","1,61098810417763","-3","1,50389879287986","-0,868614418169993","-0,520178452467959"
"9550","4,46906430579486","7,15274702604441","-3","-4,0501553583045","-2,66679773378055","5,07968721909853"
"9558","4,83690162617626","5,5381867565111","-3","4,35991049165333","1,21460635285161","0,0665903278808093"
"9571","3,25708818557423","5,13454668912778","-3","-2,54702359816734","-1,34778039652885","-0,982590675256772"
"9579","5,4645941386996","5,03363667228194","-3","-1,41937058178784","-6,21889973093098","-1,99544851936219"
"9591","6,83552843354312","-0,241590831929514","-3","0,615233880490217","0,462991534057266","5,6939937333344"
"9599","4,56385680203006","6,68960229201762","-3","-3,29105661007906","-0,569137080729573","-1,51136660316563"
"9611","6,55883052745664","7,17240057300441","-3","2,83677087461031","0,832384495494563","4,82055174182588"
"9620","-0,599570807384983","4,5431001432511","-3","-1,9599196574777","1,95063586910451","-3,47827937355132"
"9632","6,27986533442126","1,38577503581278","-3","-1,26021714581658","1,27997000405712","0,0906412824665221"
"9640","5,3931624056092","4,34644375895319","-3","-1,07054023995597","-2,32853026902163","-3,45342433103491"
"9652","0,042347079909983","5,8366109397383","-3","-1,01912220440906","-4,80224669674695","1,09713936590365"
"9661","1,39862772222165","3,45915273493457","-3","-1,00518368950389","-0,11979261219881","-1,45172547703665"
"9669","5,20088328427232","3,86478818373364","-3","-4,45924077843179","-2,44626361459851","0,620461993925214"
"9681","2,67609032234697","3,96619704593341","-3","3,52009692413032","-2,13142826822576","0,162213112426914"
"9689","6,2861171447403","5,74154926148335","-3","-3,50359990543119","-0,333214837710572","-1,69615188663294"
"9702","5,39508290202264","5,18538731537084","-3","4,5080719537812","-0,803626340370208","-2,92056218002572"
"9710","5,12136569371537","3,29634682884271","-3","7,86664705620204","-0,942166358255497","-0,50211031760463"
"9722","5,03728238183835","5,57408670721068","-3","-1,13857411464017","2,42801619329533","2,60728941947636"
"9730","3,31864323969992","3,39352167680267","-3","3,87810616703922","-7,1068968905924","-2,056912994048"
"9742","0,405074607708757","3,84838041920067","-3","4,96695674991276","-3,20951457491757","0,462242229141103"
"9751","1,51005415403022","2,21209510480017","-3","-4,38246415460102","2,05477182403447","3,59796977637318"
"9759","8,62073152355927","2,80302377620004","-3","-3,64584365732191","0,605147033272891","-2,79791027400096"
"9771","0,03382548357893","2,95075594405001","-3","1,0116766302144","-3,23276298614541","3,7456379821637"
"9780","9,86005772864527","6,4876889860125","-3","2,00316532676821","2,75341683507033","-1,02074325090011"
"9792","1,10734420776524","3,62192224650313","-3","4,72977584999044","-1,89458817966484","-2,00542309976002"
"9800","4,11140377093761","3,90548056162578","-3","0,0110758943830453","-2,96895536058964","-1,26285705154351"
"9812","2,34141262243231","3,97637014040644","-3","-0,996997522030859","-2,28536524346698","0,669839611633263"
"9820","7,87611690401287","3,99409253510161","-3","1,45864949078019","-2,08404238780351","-1,5634384002424"
"9833","4,88351564057816","3,9985231337754","-3","4,58216729172313","-2,02475116752799","0,59125585213259"
"9841","6,65702666931453","5,74963078344385","-3","-0,0289381603674825","-2,00728942037476","0,154577480899846"
"9849","1,12340366131946","3,43740769586096","-3","4,17890873803252","3,11432877867698","0,0404126191988774"
"9862","2,42352752978759","5,60935192396524","-3","1,5906634043681","-0,0828048160830012","0,0105654444684064"
"9870","2,82291316354882","5,15233798099131","-3","-1,56879944293758","-0,0243866925792997","3,47988374085435"
"9882","4,63841016723893","5,03808449524783","-3","3,03256194640998","-3,41816579442252","2,38689968117999"
"9890","2,50330395347219","3,25952112381196","-3","-2,90684418029251","2,69881419837996","-3,11453151983367"
"9902","2,8474197188896","2,06488028095299","-3","0,212006244442562","1,50031461411272","0,185739245061894"
"9910","2,95312879507201","6,26622007023825","-3","3,51530669448777","-3,96912884463588","1,78712028669153"
"9923","1,29279206167058","5,31655501755956","-3","-1,04706287908185","2,53655109384461","-0,532776629634377"
"9931","6,86118113216482","3,32913875438989","-3","6,63183102156441","-1,95845690629727","1,59927204215155"
"9943","5,57173706601504","7,33228468859747","-3","-2,20222856514483","-1,28227336319362","-5,79756981062499"
"9952","5,17563216551378","4,58307117214937","-3","1,13193279147565","-1,0831318038872","-0,254273007349879"
"9960","3,36114297174394","3,14576779303734","-3","6,22251799179383","-4,43546670803806","0,933523058088636"
"9972","0,418130119440178","7,28644194825934","-3","1,14464952501432","3,39921079589048","0,244059559259807"
"9980","6,59249333818091","2,82161048706483","-3","3,49704748587104","1,70658711509812","1,8023675053389"
"9992","5,48919874217779","1,95540262176621","-3","-0,323094839573141","-0,49739619862237","1,20977035116663"
"10001","3,45746762894361","6,23885065544155","-3","-1,08758526437796","-1,85197908801467","-2,42227931779709"
"10013","2,14052968593382","0,0597126638603882","-3","-3,75266059356632","-2,95640663615175","-1,37183962456869"
"10021","2,73597892907948","3,2649281659651","-3","4,44055603107166","1,12931417294658","0,64134729051804"
"10029","6,30451435267951","8,31623204149127","-3","0,932673545596494","0,332592219436715","0,167673348504952"
"10042","2,01511524480589","4,82905801037282","-3","-2,47608657671226","-3,31303259811301","0,0438363928787382"
"10050","1,00464325882531","3,2072645025932","-3","0,328776969231108","-0,681206934141848","0,0114605532587806"
"10062","6,77266457229464","3,8018161256483","-3","0,0891255886647294","0,799379011129585","0,00299623833924193"
"10070","3,85173607243898","3,95045403141208","-3","5,21091372048938","0,235423627766064","1,73934409381435"
"10082","5,64726428953691","3,98761350785302","-3","-1,58741397274311","1,77482603277114","-0,545267201212321"
"10091","3,50602385526859","2,24690337696325","-3","-0,43031969394394","2,93368443315945","-0,14255424293341"
"10103","2,15544569485742","8,06172584424082","-3","5,07010134333326","-1,13600604674462","1,70129148654165"
"10111","4,43337053642867","3,0154314610602","-3","0,103332082530071","-0,334563030759196","-0,555215645955268"
"10119","0,747508185518173","3,75385786526505","-3","4,21476484829669","-5,21500710908867","-0,145155156770778"
"10132","8,38648468578289","3,93846446631626","-3","3,32930114431939","3,16962980032967","-3,51507077301259"
"10140","-0,0381329074873888","7,48461611657907","-3","-2,09748567540008","3,34446549997329","-0,657538192602835"
"10152","6,4523336944802","2,87115402914477","-3","-0,56859106029554","-1,01502767776009","-2,64902780472578"
"10160","5,44614303842156","5,46778850728619","-3","-3,6119704957757","-3,70991763090801","-0,431120576767078"
"10173","5,13705087989662","3,36694712682155","-3","6,20761240044282","-2,50358466540255","-0,85127259567592"
"10181","3,34929116932631","7,34173678170539","-3","-3,04614447429522","4,6736576453484","-2,69967757991643"
"10193","5,49291801459605","4,58543419542635","-3","0,174244412361695","2,78741394696233","1,29419834401624"
"10201","5,15141970578829","3,14635854885659","-3","0,0472345610448146","-1,1790838959453","0,338354232065883"
"10213","3,35370513539088","3,78658963721415","-3","-3,44503112302967","-2,05274166555655","0,0884590734381722"
"10222","3,80146439092555","3,94664740930354","-3","-2,39172223583685","0,395450864929534","0,0231266729715865"
"10230","7,3246308610491","3,98666185232588","-3","3,08056442772388","3,52744721459049","3,48316773889348"
"10242","3,02129484402647","7,49666546308147","-3","-5,35166713379561","-0,961138072866455","-2,82792403148307"
"10251","5,39216067644674","2,87416636577037","-3","-0,179659560338185","-0,283062988579798","1,99923044866549"
"10263","5,12046801393121","1,96854159144259","-3","-0,77762029754904","3,32761935989491","-3,95444422907117"
"10271","5,03700662318319","4,49213539786065","-3","-0,939716817956013","-1,01998900318381","-0,772407655233651"
"10283","1,62574897739122","5,87303384946516","-3","5,9320128432541","-3,71137878164316","0,798062329289218"
"10291","4,27065276442457","3,46825846236629","-3","0,336980960025947","-0,798523128747605","-1,52991595032854"
"10303","5,7759514958713","5,61706461559157","-3","0,820267330854085","-0,940663420879453","-1,13854082356222"
"10312","5,23836488773311","5,15426615389789","-3","-0,777640116046487","-0,982524894297578","-1,03622000768499"
"10320","3,38041386479405","-0,211433461525527","-3","-5,39755776280361","-2,70034529652256","-2,74803009083736"
"10332","3,80966905747953","6,69714163461862","-3","4,99465366496593","4,61571003734909","-0,457003659252024"
"10341","3,94153215247677","1,92428540865465","-3","-4,10387379975577","1,06485604712093","2,61908206997581"
"10353","2,28922968383511","7,98107135216366","-3","2,61643059142026","-2,39188308091679","-2,0538299324584"
"10361","2,78165814806964","2,99526783804092","-3","3,16710336937457","3,70655467151587","-1,27551249711731"
"10373","4,62573702054685","3,74881695951023","-3","2,31638096510033","0,797102389034529","0,666530981554749"
"10382","5,8850299876285","2,18720423987756","-3","0,356847466219999","-5,88172242831031","0,174257353561601"
"10394","3,57906320661199","6,29680105996939","-3","0,825652787333586","1,26778485260809","1,78411846969864"
"10402","2,17788268592672","1,82420026499235","-3","0,952737571621003","0,3733729621023","1,20499933714969"
"10410","7,82588206953731","4,45605006624809","-3","-4,19956536232257","0,109961377549398","-0,68496588853921"
"10423","4,86808397926458","5,86401251656202","-3","-0,867345261607503","3,44336823594288","-0,179076961641593"
"10431","3,26666710659274","3,46600312914051","-3","0,764878126356856","-0,98590001669597","-3,52393926391309"
"10443","3,77472713985591","3,86650078228513","-3","-1,52157293042479","-1,99584744010706","-4,13697828320529"
"10452","7,31641743291162","3,96662519557128","-3","0,587528641566432","0,412206677588829","5,39555305891129"
"10463","1,32596220547251","5,74165629889282","-3","-3,2985670075803","-3,28958549192202","-2,32795146594826"
"10472","5,87137068350341","5,18541407472321","-3","2,83473493942918","-0,674301570449227","2,1299428964504"
"10484","0,189248095089159","3,2963535186808","-3","-1,96047156329375","0,801412696964373","-2,18171010646475"
"10492","9,90780207032248","5,5740883796702","-3","0,468551028535712","3,64700627969172","2,1681761263978"
"10500","2,81482036536392","1,64352209491755","-3","0,127015850092454","2,48505676021015","1,30540707921047"
"10513","1,94311458505416","4,41088052372939","-3","0,0344317378304061","2,14285316548375","-0,658715364718405"
"10521","2,67533489577536","5,85272013093235","-3","3,46716940412139","2,04207142042487","5,04346823398392"
"10533","4,5930755330294","3,46318003273309","-3","-2,78902982852329","2,01239037588402","-1,68143949561653"
"10541","2,48937758687418","0,365795008183272","-3","-3,21389195266818","-1,40733464830073","-3,91671578369302"
"10553","2,84314167209373","1,59144875204582","-3","-2,32906451784","-0,414471513225816","-2,50110471866889"
"10562","8,03024327561126","7,14786218801146","-3","3,09754982062995","1,58342662194142","3,08467384157572"
"10574","3,23805223785214","3,78696554700286","-3","1,56860844892646","2,87731574818967","-0,193545213787591"
"10582","5,45874647738854","3,94674138675072","-3","1,15413963711882","2,25837663143451","3,42652120538984"
"10591","1,75530343219301","3,98668534668768","-3","-0,687133272138638","3,78158587924762","0,634387860900369"
"10603","2,61764110356673","3,99667133667192","-3","-0,186269608585112","3,23018340554525","0,90441464005036"
"10611","4,57535255114731","7,49916783416798","-3","3,40734119454703","-5,45966840000541","0,975010236095546"
"10623","2,48393325612787","6,374791958542","-3","-4,53416597822495","3,80306691543037","2,73202745464421"
"10631","4,53427877757592","0,843697989635499","-3","-0,958049537304256","-2,5854576841642","-3,02430157687708"
"10644","5,85693488898634","4,21092449740888","-3","2,46920759670282","-1,46693019766441","-3,26779262626206"
"10652","3,57043266067024","4,05273112435222","-3","1,39827604784198","-1,13751474521747","-2,3314507412724"
"10664","5,56085056841907","4,01318278108805","-3","-4,07878780585672","2,37048450269984","3,1290280485675"
"10672","3,47947838555501","2,25329569527201","-3","-0,834604614223714","1,40361884529198","-1,92051004313909"
"10681","3,8401007320045","4,563323923818","-3","0,773753533530809","1,11886903642756","-4,71777896559268"
"10693","2,25807092032717","4,1408309809545","-3","-3,24808475160244","2,74049975656966","-1,71053406850626"
"10701","2,7720864735449","4,03520774523863","-3","-2,33833357747102","2,21808320787054","-1,92432224673085"
"10713","2,92998714167652","7,50880193630966","-3","1,36611935722264","-1,34675643441529","3,23546741295059"
"10722","4,67130227056156","2,87720048407741","-3","-1,35858712653549","-2,10212259341901","-3,63124337609829"
"10734","4,2062176453152","7,21930012101935","-3","0,631711194102273","-4,73556779274479","1,05065048982272"
"10742","5,75615764275768","1,05482503025484","-3","-3,28658990342767","-1,80564698947741","-3,20244025302784"
"10754","3,53947485324134","6,01370625756371","-3","-2,3487716392704","-1,94276145587082","-2,3143650664517"
"10763","5,55134062568229","0,00342656439092748","-1,17157287525381","1,36328978432231","1,427840932202","-0,343626604662003"
"10775","3,47655702198414","8,50085664109773","-3,68629150101524","-3,08827195962413","0,420510780808307","-0,828398238063827"
"10783","3,83920331702005","6,62521416027443","-3,11774900609144","2,89174218657974","1,8293357064246","0,783424193841111"
"10791","2,25779524301595","0,906303540068608","-3,02020253553339","-1,94501791253369","2,94973797589847","-3,27230369288056"
"10799","2,77200178810813","2,47657588501715","-3,00346620710888","-1,25617754780772","2,2797055671968","-2,33263011110281"
"10812","1,23715157523541","6,36914397125429","-3,0005947071199","-1,06944517678488","-4,7395918627181","4,86728047455351"
"10824","8,53689845808724","3,59228599281357","-3,00010203561049","-4,47666092466582","0,604151604037139","1,0110588699181"
"10832","6,779310974165","3,89807149820339","-3,00001750654307","1,7864568461218","-3,23305614816067","-2,47423029652564"
"10844","4,54658733549174","3,97451787455085","-3,00000300364793","0,484276676700008","-2,36314507586211","-1,38542164898871"
"10853","4,86071596040817","3,99362946863771","-3,00000051534451","-3,32655677879521","-0,401457324326572","2,37635717590844"
"10865","3,26440372157851","5,74840736715943","-3,00000008841914","-5,81744152072903","-0,823724308346892","-2,11728774440442"
"10873","2,08122229771528","-0,0628981582101429","-3,00000001517033","-4,49267607088632","-0,948085373473461","-1,29210285927382"
"10881","6,10337936968371","4,98427546044746","-3,00000000260282","2,78211542483006","-0,984710719770178","-8,0306101878199"
"10894","3,64613805113142","5,99606886511187","-3,00000000044657","0,754182008402498","4,12097838985336","6,37760489113295"
"10902","3,8912969893558","5,24901721627797","-3,00000000007662","-1,52447245775889","0,919153548553276","3,14447769777749"
"10914","5,65941702533248","6,81225430406949","-3,00000000001315","-1,14217515492498","0,976190061752178","2,29921138003185"
"10922","1,81694750773962","2,70306357601737","-3,00000000000226","-1,03854115574404","-0,712504078131694","-4,87601744222188"
"10934","4,32938712664144","3,67576589400434","-3,00000000000039","7,63414110919219","-1,91533011005813","4,20233922250683"
"10943","2,40837502715283","3,91894147350109","-3,00000000000007","-3,65943791388206","0,435919686905112","0,83721713403163"
"10951","2,81825845947437","3,97973536837527","-3,00000000000001","-1,72092631715157","0,128381897294038","0,957442171161115"
"10963","4,63698028660846","5,74493384209382","-3","0,533487484164549","0,0378095141098883","-0,749687045986016"
"10971","5,88848381156825","5,18623346052345","-3","1,87353675444319","-5,10534036256041","-1,93455837142496"
"10984","5,2729337402196","1,54655836513086","-3","-0,492117508974967","-0,209056164738034","0,494230528746601"
"10992","3,39103308608023","4,38663959128272","-3","3,3244312686241","-0,767060600210842","1,867772013587"
"11000","3,81293118082507","4,09665989782068","-3","-1,09880581208447","2,47958626484793","-0,511691103412935"
"11012","3,94253424560909","4,02416497445517","-3","-5,48462007068133","-1,9752335122761","-0,133776133427084"
"11025","0,596727965389636","5,75604124361379","-3","6,69997040801086","3,82926136207301","-1,77353509025372"
"11033","3,26173778674302","5,18901031090345","-3","4,00299616918801","2,53873236599367","-1,2022324264661"
"11045","6,46602245176621","3,29725257772586","-3","-3,64377672283719","0,453169210999666","-2,79143225151064"
"11049","5,45034809390641","3,82431314443147","-3","0,0122369393902898","0,838953880039054","1,27021007236587"
"11062","3,44553308089152","5,70607828610787","-3","-5,18343614198813","-0,75292125109951","2,07064351608433"
"11074","3,82967305865348","1,67651957152697","-3","1,59486265555302","-1,92723329659624","-2,19721329142749"
"11082","0,562058086793821","2,66912989288174","-3","2,16125668557264","3,84339781643518","2,16412298549641"
"11094","6,63670663496872","8,16728247322044","-3","-0,414121753090793","2,5428956669102","-0,434213330406968"
"11102","5,50278064463073","6,54182061830511","-3","3,34557453079597","-2,95658837786841","-3,59064192237716"
"11115","3,4616398596444","4,38545515457628","-3","5,82259689504285","0,129260648531179","-0,677295456493498"
"11123","3,83462090723629","6,59636378864407","-3","2,76515581496555","1,74356017094846","-0,915632369252248"
"11135","0,563578018617183","6,14909094716102","-3","1,20742013222072","-0,486507332619265","2,4991785283796"
"11143","6,63717354350665","6,03727273679025","-3","-1,6726898775742","-0,143280370869597","-0,346616663763237"
"11152","5,50292407447372","6,00931818419756","-3","-2,18235426121184","1,66329462155441","-0,0906191973054918"
"11164","5,15449347180599","4,25232954604939","-3","2,13732036178348","1,1953456669614","-5,23937369273085"
"11172","3,35464936695126","4,81308238651235","-3","-2,14952825093645","-0,647960967910778","1,63022212127951"
"11184","2,10894489795787","4,95327059662809","-3","-1,31161666308637","1,51466207633573","2,16476479270923"
"11193","1,03346683202365","3,23831764915702","-3","2,37336183751986","-3,96490340018619","-0,434045536816727"
"11201","1,70309024301022","3,80957941228926","-3","-2,08554160514585","-0,873188193246941","-0,113476535470984"
"11213","6,98722081435178","0,452394853072314","-3","3,89248233711616","0,742838967104973","-1,76822797878241"
"11225","7,30326480435032","5,11309871326808","-3","2,5130183015177","1,92426398186429","0,5377158202647"
"11234","4,70754094737855","2,52827467831702","-3","0,410152350691222","2,97769512597426","-1,59798074390467"
"11246","3,21734982068574","8,13206866957925","-3","0,840102793422254","2,28793917553678","0,582225128041775"
"11250","3,75957734069826","6,53301716739481","-3","-4,23009864734725","-1,32618328313145","-1,58634426428597"
"11262","3,92614445555182","4,3832542918487","-3","0,853295494096221","-0,390571775403923","-2,89185415864246"
"11275","5,67012183408895","3,09581357296218","-3","1,96023101776557","1,59046528933493","1,24395584523965"
"11283","5,2058550265062","5,52395339324054","-3","-0,468616236150012","1,17389683560585","2,06377963088555"
"11295","5,0632366978394","5,13098834831014","-3","-1,85595131291961","2,75670589149461","-0,460447020821771"
"11299","5,01942570954667","5,03274708707753","-3","2,2258023955965","-2,89361952576657","-3,59750043847371"
"11315","5,00596739242062","5,00818677176938","-3","1,33229322707631","1,85329734564653","-2,41764930127117"
"11324","5,00183312595177","5,00204669294235","-3","-0,63883900257703","-0,454188841129588","-0,370629156564832"
"11332","-0,0778655368689543","5,00051167323559","-3","-0,173177891078628","-0,133762311970758","-0,835457764723819"
"11344","6,44012821025564","1,5001279183089","-3","1,68197234010838","-6,86136151981832","0,781578556553106"
"11352","5,44239363025315","2,62503197957722","-3","2,91378835790781","7,09574873572463","1,94289606372478"
"11365","3,44308954563735","4,65625799489431","-3","0,518793984801113","2,50073949509058","-2,23061148834323"
"11373","3,82892242796377","5,91406449872358","-3","2,59847139431004","-2,96900371372828","2,15539138626198"
"11385","5,64025615586741","3,47851612468089","-3","-6,48235398054968","1,83109608847183","-3,91361763215622"
"11393","3,50387102354619","3,86962903117022","-3","-0,486168653867746","1,24476456530144","-0,761733980745586"
"11402","3,84759391739975","3,96740725779256","-3","2,59712611123341","-4,04439041484139","-0,937707912898387"
"11414","7,33880141095809","7,49185181444814","-3","6,61970584055475","-2,60208962373433","0,754846355477291"
"11422","8,1040765572546","2,87296295361203","-3","1,25232008634981","1,23366341814964","0,197346457840967"
"11434","0,567923564842206","1,96824073840301","-3","-6,84727165721764","3,7743076367065","-3,42552741103172"
"11443","7,33131800568267","2,74206018460075","-3","-0,585091345512658","-0,888435668478466","1,10443271548049"
"11451","6,40896817475077","2,93551504615019","-3","-0,88752564341792","-1,96714339594809","-1,44981870926286"
"11463","1,0472024612154","2,98387876153755","-3","2,48832536998313","-2,99032346256997","-4,59472178077236"
"11475","7,47854790463217","2,99596969038439","-3","-0,325459250057033","2,8248172488407","1,79875942750386"
"11483","3,06857668961747","4,7489924225961","-3","-3,5460617864117","4,94840725334822","0,47026629849922"
"11496","7,09949475966545","5,93724810564902","-3","2,76764350688029","-4,95363748609345","0,122946063894185"
"11500","6,33775428792299","5,23431202641226","-3","-1,97865885735594","-1,16437843236934","-1,70641783397649"
"11516","2,71813578729253","3,30857800660306","-3","0,463620776598353","-2,75390264423732","2,29243617711426"
