Timer,AX,AY,AZ,GX,GY,GZ
"1004","0","0,99999964000013","-2,99999997","0,999998560002074","0","0"
"1013","-7,16279063459169","-0,76470594712801","-2,999999995","4,43859586009299","-3,44748839978738","0"
"1025","-2,91119908435988","1,56043954212294","-2,99999999914286","0,0477779929256785","0,968922674796367","3,44958120419889"
"1033","-4,76116954311993","-0,609979404778003","-2,99999999985294","0,707709121767117","0,291777915059922","2,40094455623778"
"1041","1,17489730584053","3,34751448281552","-2,99999999997477","0,910217482339366","0,0879193859644002","-1,33566033595217"
"1054","-2,3035067888551","0,586878095994181","-2,99999999999567","0,972419855074776","3,42381381790942","1,353705492013"
"1062","-2,06658182834119","0,896719529769784","-2,99999999999926","7,76276664167314","2,4290541041495","1,09787314807513"
"1074","-3,79523130467705","2,72417988340574","-2,99999999999987","-2,61535238063065","-2,96668342440038","-0,696209637458275"
"1082","-3,17445393905019","3,93104497086649","-2,99999999999998","-0,803411265212364","-1,59264351194059","-0,192646829300612"
"1091","-3,03827084858446","1,48276124271003","-3","-5,3252289225963","-1,17858813941783","1,66998499013827"
"1103","-1,2277707608795","1,87069031067762","-3","1,36414054102949","4,04215918920223","-2,26119358952571"
"1111","-0,0499672311732144","0,217672577669393","-3","3,80467004786089","0,916729093750055","0,37430947160931"
"1123","-4,35283629575918","0,804418144417349","-3","-4,21686080683199","2,67356542034358","5,27345022482372"
"1131","2,0450961457497","0,951104536104337","-3","-0,988188912777976","0,504314868391261","-3,26408565627153"
"1140","0,448643151085521","-0,762223865973916","-3","-4,38199085059122","2,54928786103432","0,0968011370426811"
"1152","-3,46282868828924","-1,94055596649348","-3","-1,7317248368017","5,56284009424269","0,0267856564186477"
"1160","-4,10153308516003","2,26486100837663","-3","1,46803067136901","-4,02234331674856","1,73070373112068"
"1176","-1,46102400974945","3,06621525209416","-3","0,450964999786107","3,18521747624924","-0,521100299846374"
"1184","-3,66238700359104","-1,23344618697646","-3","-3,24708696339869","2,35715532137785","-0,144192661550917"
"1193","0,415938611403351","1,44163845325588","-3","-5,76871230689395","-2,98834947024529","-1,76319119765972"
"1201","-6,03125306957441","4,61040961331397","-3","0,535097129508222","1,79814442044803","0,512110755475181"
"1213","0,89626840491888","3,40260240332849","-3","-0,528432824884545","-3,85546111299547","0,141705182020787"
"1222","-5,92588067787981","-0,399349399167877","-3","0,837670483724431","-0,860469198211012","1,762502891984"
"1230","-0,861240427140939","0,650162650208031","-3","3,64294347503667","-0,957953566030125","-0,512301215214643"
"1242","0,030440393787916","0,912540662552008","-3","2,50469654232603","0,711328747173652","-1,86504980742847"
"1250","-0,773947045846422","2,728135165638","-3","-1,23058114676788","-1,48430547057557","0,483925655507358"
"1262","-2,731034522806","2,1820337914095","-3","-2,07083232580276","2,25137543402407","-1,58938578643233"
"1271","-3,9409956742267","0,295508447852375","-3","5,44228874551476","-0,321566942106093","2,28349604013303"
"1283","-3,20643101074749","0,823877111963094","-3","-3,02099043337165","3,30041532130282","1,35515372025578"
"1292","-4,82591073154095","0,955969277990773","-3","0,0719805950179422","0,693210815607036","-0,62501802092243"
"1299","1,16069048883704","-0,761007680502307","-3","0,0221117512392292","0,907551658710037","-0,172947534247555"
"1312","-0,525998329493206","-0,190251920125577","-3","0,00679251877181177","-2,42517534599011","-0,0478559795094634"
"1320","-4,45726566080827","1,70243701996861","-3","0,00208659688535026","-1,42946460790277","-0,0132421360314512"
"1332","-1,53906287555744","1,17560925499215","-3","0,00064098263224852","-7,92404917999427","-0,00366420598790129"
"1340","-3,67950678680319","1,04390231374804","-3","-3,38542220002565","-0,785162412078821","-0,00101391539022729"
"1353","0,412182957419962","-0,739024421562991","-3","0,960030637311738","0,0647395008052478","-5,17015632955588"
"1361","-0,690202236582913","3,31524389460925","-3","-3,09070686208666","2,71816711206537","1,56937598766924"
"1373","-0,932038087760545","0,578810973652313","-3","4,43618347780761","-3,57822001025762","3,88084285792195"
"1381","-0,985090849384135","-0,855297256586922","-3","1,05556274235705","-5,87290014633947","-4,372723285524"
"1390","-0,996729303741435","5,03617568585327","-3","-0,67574120816062","-1,16706589646956","-2,65655169602552"
"1402","-6,34115722063604","0,00904392146331734","-3","-1,90039079642926","-5,14631912668834","1,26491069049384"
"1410","2,6089080638544","-0,997739019634171","-3","7,18745630718446","-0,948116815156844","2,07330292756857"
"1422","-1,20829546859664","-0,249434754908543","-3","-0,0992725242968731","1,71429296934373","1,29699158841806"
"1430","-2,82631974714945","-0,0623586887271357","-3","-4,41611467499207","0,516587772852752","-0,641111952539105"
"1443","-2,18127396892111","3,48441032781822","-3","2,3362213059407","-4,94030584147197","1,5458910685536"
"1451","-5,60101681319957","0,621102581954554","-3","3,10328397363812","-1,88603644377858","-4,01882330350778"
"1463","-2,57059829755461","0,905275645488639","-3","2,33891829826127","-3,66431644833272","6,0578349055129"
"1471","-2,90579996286876","-0,77368108862784","-3","0,411302912033799","5,2931058628225","-3,04704008016711"
"1480","-1,19870994839982","3,30657972784304","-3","-7,64488988167624","-2,10362545951139","3,60344324820386"
"1492","1,73703289715481","-1,17335506803924","-3","3,34437240333306","-1,33256825314452","-1,00289815058756"
"1500","-1,39956316178273","1,45666123299019","-3","1,72016880913103","0,598441760902897","3,16907382930465"
"1512","-4,64890402453527","1,11416530824755","-3","-2,16439012457145","-3,2169814225708","2,32349217040684"
"1521","-1,58110355885247","4,52854132706189","-3","3,7207391315024","-5,76404393516743","0,366220972524912"
"1533","-5,46935437545986","-0,117864668234529","-3","-2,54983403075431","2,26305382315517","2,54792014814201"
"1541","2,80015989149978","0,720533832941368","-3","0,216715341470762","0,681952242268824","-3,01826184079813"
"1553","0,614285328284761","2,68013345823534","-3","-1,6262366690238","0,205500574479085","1,88811449580055"
"1562","-6,98774074070221","0,420033364558835","-3","5,57886428455119","-1,63673253750713","2,96904037736259"
"1570","-1,09418607401754","2,60500834113971","-3","2,09939292331818","3,90410122679838","2,26814129871622"
"1582","-3,58191189841493","-1,34874791471507","-3","2,03053255665369","-0,823531920267072","-1,37238698436393"
"1590","-4,90828188507601","3,16281302132123","-3","2,00937930976058","-1,94682282788354","-0,379750562438001"
"1602","2,92324521958881","-1,20929674466969","-3","-1,38273786939932","-1,28531709847107","-0,10508004762142"
"1611","-2,91996263673298","-0,302324186167423","-3","-5,50319252137949","0,612680499084753","-1,75236842149864"
"1623","-0,421191976279718","-0,0755810465418558","-3","1,30947182328796","1,88328452491009","-1,20818641861218"
"1631","-2,6536488476627","3,48110473836454","-3","2,09506678807515","1,26617036508835","2,38897698390474"
"1643","-2,14339427480135","0,620276184591134","-3","-0,356415494537919","-4,01576702183841","-2,06224269802169"
"1652","-0,250832221969679","0,905069046147784","-3","1,5833221164012","-2,60743444383382","0,429360790083297"
"1660","-4,39690107119821","4,47626726153695","-3","-2,20642812143434","-5,58036207808357","1,84209952193952"
"1672","-3,30644529825143","-3,63093318461576","-3","0,322206356640498","0,61974639860874","-0,49027618485647"
"1680","-3,06722646489193","1,84226670384606","-3","-1,59383083680158","2,88541377432286","-0,135663379987164"
"1692","0,546502008160349","2,96056667596151","-3","0,510390391021576","-5,2264800425809","-1,76083107656565"
"1701","-0,660735982734543","0,490141668990379","-3","1,84959660481594","1,4250441824481","-1,21052810361651"
"1713","-0,925573925669832","-0,877464582752405","-3","4,64660706551906","0,429425082872186","-1,05825482656732"
"1721","-2,76429768321761","1,5306338543119","-3","5,19863151421187","-1,56925476961882","2,43046426632213"
"1729","-2,16766787306247","-0,617341536422025","-3","2,67539860009305","0,527118269179927","-0,327470908251823"
"1742","-2,03678215474754","-0,154335384105506","-3","-3,87095265703193","1,85750106631971","-0,090613845079819"
"1750","-0,227444178535018","1,71141615397362","-3","1,50368987053378","-5,53623289463726","-1,74836550642141"
"1762","0,950104412858007","2,92785403849341","-3","-5,61650949049454","4,72901958045672","0,516213143978152"
"1771","-8,6946953087656","0,481963509623351","-3","-3,80376672288519","-2,27360811796893","-3,30374350126727"
"1783","-2,24927429603069","0,870490877405838","-3","-1,55409990790011","2,0135257175431","2,80911941470166"
"1791","0,725940338841188","0,967622719351459","-3","-0,170214199008956","-0,393240954371102","-0,222693970547319"
"1803","-2,4019965927614","0,991905679837865","-3","-2,43790727983698","-0,118499855302344","-1,78491314386232"
"1811","-0,307563128753079","-0,752023580040534","-3","-0,441711381642605","-0,0357089350704427","3,95268396484621"
"1820","-6,18997132895515","-0,188005895010133","-3","4,24992958650289","1,68789782046615","0,817031499953859"
"1832","-2,69980024746967","1,70299852624747","-3","-0,694462225860069","-3,88868299896694","-0,773920785338223"
"1840","-2,9341436522629","2,92574963156187","-3","-1,90614171424554","-0,870480334225027","-5,3840259027295"
"1852","2,35632197213582","5,73143740789047","-3","0,414451472628015","-0,960970337696164","1,51019654948862"
"1861","-1,2637065652067","-0,817140648027383","-3","1,82012508548284","-0,988238739418938","-1,30540834155459"
"1873","-1,05785065148265","2,29571483799315","-3","-2,13368451124691","-0,996455843010406","-1,0845089546899"
"1881","-4,57394081182521","0,323928709498289","-3","2,0373620507354","-0,998931998089804","0,699907613373777"
"1893","-1,56465849731557","-0,919017822625428","-3","1,3186677132241","-0,999678166603925","-3,25291375800643"
"1902","-0,123872008682509","1,52024554434364","-3","-0,594917874258382","0,69875538960348","1,09989249152069"
"1910","-2,58842425300456","1,13006138608591","-3","-8,64680084780496","-3,18675275398036","-1,41894278814958"
"1922","-2,12908562347632","2,78251534652148","-3","2,34378537279164","4,43701566684816","0,607367070653989"
"1930","1,53293164967697","0,44562883663037","-3","0,719988478955954","-0,662942634404355","0,168063373753194"
"1942","-3,22496280129666","2,61140720915759","-3","-4,85725507216258","-3,59708900460938","0,0465044928545308"
"1951","-4,04935123478694","0,402851802289398","-3","4,89351674153559","-2,48126934350937","1,73616009241852"
"1963","-5,01082643157428","-0,89928704942765","-1,17157287525381","-0,496758399303771","-2,14502647024271","1,20370144305173"
"1971","-0,660500319479054","3,27517823764309","-3,68629150101524","-1,84540898717143","-2,04370250745184","-0,666926089204943"
"1983","1,85510268295213","-1,18120544058923","-3,11774900609144","2,12591753815707","-3,71182779099348","-5,35441960618383"
"1992","-4,93491141184225","-0,295301360147307","-3,02020253553339","1,34587111308831","1,88147190354731","-0,204903072806228"
"2000","-3,42447136516509","3,42617465996317","-3,00346620710888","1,10624830222003","-1,13169266875012","-0,779990258772016"
"2012","0,468131376001621","-1,14345633500921","-3,0005947071199","-0,660171088313292","2,35763233715079","-0,939121527728646"
"2020","-2,45855345719382","-0,285864083752302","-3,00010203561049","1,49001129943155","-0,289547317737291","0,74013748861231"
"2032","-2,1005952059536","3,42853397906192","-3,00001750654307","1,15052679065436","-5,18322787318618","1,92809394436092"
"2041","-0,241443172388176","2,35713349476548","-3,00000300364793","-5,72499781526078","1,43807786003894","-0,466480833652238"
"2053","-2,61421643762694","3,83928337369137","-3,00000051534451","-3,8370932999855","-1,26530573578606","-0,129079014129596"
"2061","-3,91536869627389","-2,04017915657716","-3,00000008841914","3,5140911415978","-2,77860606065294","-0,035717205695721"
"2073","-1,42018418017793","2,98995521085571","-3,00000001517033","3,46511433627613","-3,93328479781716","-6,90305093391856"
"2082","-8,99530249222436","-1,25251119728607","-3,00000000260282","-2,62835952614946","5,21205451214162","3,81316197885487"
"2090","2,24602979598374","1,43687220067848","-3,00000000044657","1,88540261123562","1,26926721305671","0,05513271594344"
"2102","-2,06852683125329","-0,64078194983038","-3,00000000007662","-2,113631878859","-9,11080903618734","-1,70803625588743"
"2110","1,54621674017276","-0,160195487457595","-3,00000000001315","5,42914113163224","-1,1427825166847","-1,1959193503459"
"2123","-3,22204838337314","3,4599511281356","-3,00000000000226","0,360589848995806","-1,74168471872937","2,39237138076704"
"2131","-4,0487118840926","4,1149877820339","-3,00000000000039","-0,889230242700842","4,87247476940564","-2,06130344099559"
"2143","-3,23006126398408","-1,97125305449152","-3,00000000000007","-0,273163036733709","-0,531720695108447","-4,7402550808905"
"2151","-3,05046971049799","-0,492813263622881","-3,00000000000001","-0,0839130756629981","-5,2562047843079","1,68833313520379"
"2160","-1,23044688731001","-0,12320331590572","-3","-0,0257772953157213","-3,67988834199765","3,91375926138318"
"2172","-1,8311792166239","-0,0308008289764301","-3","5,07051011675227","0,192438180145717","-0,917031203523075"
"2180","-0,182340015474549","1,74229979275589","-3","-6,5208163807089","11,2499400744951","-0,253749940271029"
"2192","-4,38187558723227","2,93557494818897","-3","-0,69594205795698","-4,30858355378679","-0,0702146578438982"
"2201","0,258100738594428","0,483893737047243","-3","0,786213247353316","-0,29835542815811","-0,0194289629028873"
"2213","-0,724004037209159","0,870973434261811","-3","7,0127554073047","-0,0899068997580564","3,44120769636897"
"2221","-8,06195300071225","2,71774335856545","-3","-3,53855807578492","3,37022412730951","2,3987938092693"
"2233","3,23140833468394","-1,32056416035864","-3","-1,77982079286926","0,714247112357592","0,387057544159824"
"2242","-2,85235932561631","1,41985895991034","-3","3,83887515683973","-2,48342604576446","-0,89289805152248"
"2250","-2,18698640379152","-0,645035260022415","-3","-0,820734220308426","0,251640441296852","1,47621982145465"
"2262","-2,04102015916539","1,5887411849944","-3","-1,94493126480465","-3,32148708439257","1,1317738707099"
"2270","-2,00899880110979","-0,602814703751401","-3","2,09534524509338","-2,39821902206213","-0,686829029383488"
"2282","-3,78259902277766","-0,15070367593785","-3","-3,7419490589694","-0,421341546330871","-0,190051139495477"
"2291","-1,39105782110198","3,46232408101554","-3","-2,53511011202033","-0,825626140240317","-0,0525886852161022"
"2303","-0,0857883447095911","-1,13441897974612","-3","1,22123838866468","0,75120450435083","1,70874020973614"
"2311","-2,58006964579198","-0,283604744936529","-3","-1,31765678401329","1,92502756921274","-2,25046970725791"
"2323","-5,68850265071507","1,67909881376587","-3","3,98084752582335","-2,11856753510984","0,377276856442229"
"2332","-2,58979051103557","-0,580225296558533","-3","-2,46993121654408","-3,03572932981139","-1,61889637046566"
"2340","-2,91001025642894","3,35494367586037","-3","-6,52997748476163","2,78386689812891","-1,17125362412563"
"2352","-2,98025849190269","0,588735918965091","-3","3,68686284215151","-3,55842193211906","-1,04738726089813"
"2360","2,34620552503831","-0,852816020258727","-3","0,132569048623326","2,62635787712645","-1,01311243780616"
"2372","-3,04655077167353","1,53679599493532","-3","-1,65208560643091","1,49008927215511","2,44295552987764"
"2381","-2,22958716975259","-0,61580100126617","-3","-1,20031446964961","-5,64694934967819","-2,04730639840188"
"2393","-2,05036570603327","-0,153950250316543","-3","2,32408441207188","2,99699769979817","-1,28979813884082"
"2401","-3,79167389126934","3,46151243742086","-3","-3,67168257176356","1,60177846644599","-1,08018948552568"
"2413","0,387576288779752","2,36537810935522","-3","0,872094185439674","2,87999928903668","0,701102845377018"
"2422","-2,47622523670517","2,0913445273388","-3","-3,11772010014298","-2,83079483656692","-3,25258302765803"
"2430","-5,66572177412296","3,7728361318347","-3","-4,0361624903152","3,54428059243221","-0,623307916380381"
"2442","0,976456865765837","1,44320903295868","-3","3,4529389878143","0,766697564687673","0,827525665490617"
"2450","-4,1276644170884","0,110802258239669","-1,17157287525381","1,75351942686826","0,92969627268246","1,95227495867981"
"2463","0,313868336930337","0,777700564559917","-3,68629150101524","-5,53976423713149","4,3761313785046","-0,459789751696096"
"2471","1,06885489467038","0,944425141139979","-3,11774900609144","2,99104689342157","-3,37994801060831","-1,85051946137243"
"2483","-1,5461447712311","0,986106285284995","-3,02020253553339","1,61163058741045","-3,41583573064856","-1,23534560404647"
"2491","-6,46168528827823","2,74652657132125","-1,17503908236269","1,18788707422816","0,970666622285621","0,65816989428868"
"2503","-0,9787826117834","-1,31336835716969","-3,68688620813514","-5,71352109300799","0,292502225439911","0,182120925353812"
"2512","-5,33722016347208","-0,328342089292422","-3,11785104170193","1,24486089511777","-1,61051532148391","0,0503943309159943"
"2520","-2,51272788377211","1,66791447767689","-3,02022004207646","0,382409376213505","0,514684748786488","1,73723644202579"
"2532","-4,67372954560945","1,16697861941922","-3,00346921075681","-3,26814659612484","-3,24222089395857","-5,68916841695721"
"2541","-0,58654965977306","-0,708255345145194","-3,00059522246441","-2,38956252114057","1,02298399360064","3,14905307502654"
"2553","-3,47054911433961","6,8229361637137","-3,00010212402963","-0,426860333554586","0,308267625410885","1,5946603423441"
"2561","-3,10322675431987","2,95573404092842","-3,0000175217134","-7,59517517656687","0,0928938570602545","-0,558744604253575"
"2573","-1,24202046854794","-0,511066489767894","-3,00000300625075","2,66683473398972","1,72665119060619","-1,87790106826817"
"2581","-3,61434308202396","0,622233377558027","-3,00000051579108","0,819226156986032","-0,47968818107545","3,92695345516098"
"2594","-4,91539647889988","-0,844441655610493","-3,00000008849576","-1,44115110161083","3,25276681539361","-0,913380263543959"
"2602","1,14105954495413","-0,211110413902623","-3,00000001518347","-1,13551740459077","5,77482756241761","3,19384415162655"
"2610","-0,530304869574812","1,69722239652434","-3,00000000260507","-6,12005830789531","-2,25980426775008","-1,11623752867225"
"2622","-0,896960588478234","1,17430559913109","-3,00000000044696","2,11997654590064","-4,07828983170014","1,41441998436165"
"2631","-0,977395719821194","4,54357639978277","-3,00000000007669","2,3440460970148","0,771041648725578","-0,608618566989811"
"2643","-0,995041184000803","-0,114105900054307","-3,00000000001316","1,41287812283075","1,93100532588303","3,27817417442229"
"2651","-4,5601619792419","-1,02852647501358","-3,00000000000226","-2,25878688819795","-0,418107780581639","-1,0929027302867"
"2663","-5,12288558462529","3,24286838124661","-3,00000000000039","1,99893179549942","-3,52331007993618","1,42087691153471"
"2672","-0,68508330626785","-1,18928290468835","-3,00000000000007","-3,77156634975459","0,938280130752294","-4,0534157304118"
"2684","-3,49216494190998","3,20267927382791","-3,00000000000001","0,841410842919074","1,98140123633148","-2,56819671668945"
"2692","-3,10796872843911","2,30066981845698","-3","1,95128292576995","6,39171223457444","3,01265115052059"
"2700","-3,02368564952131","2,07516745461424","-3","2,98503458013636","3,02206396499835","-0,166375095454633"
"2713","-4,78582095147013","0,268791863653561","-3","-1,08302588968569","-3,78798484091945","-1,76932925627377"
"2721","-2,39176463199895","-0,93280203408661","-3","-2,02550476025779","-0,141477383133459","3,95699615240274"
"2733","-1,08594340141375","1,51679949147835","-3","5,45621294068654","3,35468379573944","2,54151664073701"
"2741","-1,79947875139635","-0,620800127130413","-3","5,44733470580204","2,40822257191468","-1,29674181935444"
"2753","-3,73663554300953","1,5947999682174","-3","-4,01944036256983","-1,27430237584455","-0,358818934343771"
"2762","2,1802752413582","2,89869999205435","-3","-1,92754323803783","-2,08265871467699","1,62400382658277"
"2774","-3,08295174259388","0,474674998013588","-3","-2,9777419748238","0,372408306942288","-0,550625025176768"
"2782","-2,23757263602527","2,6186687495034","-3","1,08526610837959","-1,58643629565876","-3,59894623882069"
"2794","-0,27149260844167","-1,34533281262415","-3","0,333383382158403","-1,1767176470486","-0,719149414256296"
"2803","-0,840183625392336","1,41366679684396","-3","5,18084084621125","2,34406443850225","-0,922286374679774"
"2811","-6,30681499835504","1,10341669921099","-3","-1,40849517883388","3,10368092571234","4,19137975874648"
"2823","0,835816981984912","1,02585417480275","-3","-8,89672402457465","0,633926559602342","-2,56350329340456"
"2831","-2,37789239428","-0,743536456299313","-3","0,574201808241302","2,5883452544296","0,29065793498964"
"2844","-5,64414999796343","1,56411588592517","-3","2,8691988626666","-4,61734073553794","1,80371932172363"
"2852","-0,799435733871218","1,14102897148129","-3","4,95981914000845","0,608603191094596","1,22239562743179"
"2864","-1,73662610603608","1,03525724287032","-3","0,216418616078125","3,580714270244","4,50812251357229"
"2872","-3,72284723827526","2,75881431071758","-3","-0,933518268346282","-0,920981860646874","1,69401775595674"
"2881","-1,37794976799756","0,439703577679395","-3","-0,286767895177912","-0,277530140260383","-1,53125160546266"
"2893","-5,42478749430196","2,60992589441985","-3","3,29752674554266","-3,48094818997623","-0,423709686140784"
"2901","-2,53193797485624","0,402481473604962","-3","2,39858782240595","0,95104553012077","3,32933995514029"
"2913","-2,89731885109637","2,60062036840124","-3","-1,26317673198916","-1,41206883352893","-1,07874474552976"
"2922","-1,19684940374123","0,40015509210031","-3","2,99758327741804","-1,12417347838522","1,42479454026166"
"2934","-3,60443367561542","0,850038773025078","-3","-4,46479015351215","4,05855658976277","-0,605747843583833"
"2942","-3,13259769200284","2,71250969325627","-3","-2,75715999176968","-2,47564650308543","3,27896852677367"
"2954","0,532161189327789","0,428127423314067","-3","-0,539782765283509","-1,44467366674127","-2,81597485023517"
"2962","-0,663882001156981","0,857031855828517","-3","0,834183890447181","-2,83265707855383","-1,50249490749119"
"2971","-4,48751390369262","0,964257963957129","-3","3,64187242688544","2,84506101365135","0,584247524436803"
"2983","-1,54569858656332","-0,758935509010718","-3","-0,881251577203191","-3,5399815999152","-1,56162591506599"
"2991","-1,90033758652842","6,81026612274732","-3","-1,96352161878796","-0,765402099437808","2,29117742073827"
"3003","-0,1975116390984","-0,54743346931317","-3","5,4752535696903","-4,32662271075242","1,3572792203067"
"3012","-4,38520386353059","0,613141632671708","-3","-1,31805440237726","-1,70110819207078","-0,62442987789208"
"3024","-1,52325431229222","4,40328540816793","-3","-2,09770327439159","1,48738534892328","-3,61936863764013"
"3032","-0,114788961865561","1,60082135204198","-3","-1,33720396075892","0,448211069236455","-0,724800456947882"
"3044","-2,58643165879138","0,150205338010495","-3","3,97484281983946","0,135064637238435","-0,92385006383228"
"3053","-2,12864849794141","2,53755133450262","-3","0,913843298901611","1,73935900064874","-0,978928697649583"
"3065","-3,80884718579167","2,13438783362566","-3","-2,41208561938631","-2,17451719717954","-2,71746132412019"
"3073","-3,17744092420027","0,283596958406414","-3","0,259030337686184","-4,75124769787715","-0,475235419186403"
"3081","0,522323701227423","0,820899239601603","-3","-4,99885701014203","-0,130406953956782","0,868498521348087"
"3094","-2,4466650109687","-0,794775190099599","-3","3,15720842686973","-4,13527226258373","-1,48297136851281"
"3102","-2,09798717699269","1,5513062024751","-3","5,04829292709775","3,45252888009206","2,31294176901043"
"3114","-5,5827457657223","4,63782655061878","-3","5,32202557403215","0,0403905497899484","-2,08328225606923"
"3122","0,994659735078724","1,65945663765469","-3","-0,672315027143578","0,0121713525829108","-4,74633679652977"
"3134","-5,90429607096822","1,91486415941367","-3","-1,20652875446346","-5,09230748868009","-0,0366416482911607"
"3143","-0,856505302056536","0,228716039853418","-3","1,32217544313519","1,46547595346803","-2,45672288733171"
"3155","-1,74914574769448","0,807179009963355","-3","-0,593840333135125","-2,95570795850481","1,32020493574491"
"3163","-1,94496882581709","0,951794752490839","-3","1,51038747383862","-2,28799455787925","0,365311368145129"
"3171","-3,76855244118346","0,98794868812271","-3","-2,22883294696633","-0,388126330796318","0,101084605944733"
"3184","-3,16860126097427","-0,753012827969323","-3","2,00813336012921","-0,815617014306383","-5,14190484412008"
"3192","2,3048878131175","5,06174679300767","-3","3,00249849054278","0,754220670296137","-0,14609852180162"
"3204","-1,27498993847175","-1,73456330174808","-3","0,615148408661762","-1,47138035016998","4,40615720639521"
"3212","-2,84095085248254","-0,433640825437021","-3","-0,811032284685253","2,25527031038626","0,942511208294748"
"3224","-5,74573348891888","3,39158979364074","-3","-0,249141370969132","1,37826515395374","0,984092387036103"
"3233","0,958904288629353","0,597897448410186","-3","-5,15496250504381","-0,584671384055149","4,44218208233671"
"3245","-4,1315150152779","0,899474362102547","-3","-0,276364793830234","-0,1761858057759","1,67577150607648"
"3253","-3,24822620834228","2,72486859052564","-3","2,60791292702361","1,64556629658267","0,186991433492106"
"3261","-1,27382973682781","2,18121714763141","-3","-0,198874059299703","1,19453597567288","-0,948257960146258"
"3274","-1,84069633314245","0,295304286907852","-3","-3,44671131516264","-4,03735344280003","-3,7089744833457"
"3282","-1,96505274374166","-0,926173928273037","-3","-2,44441589719953","0,78337748533502","0,973696805517632"
"3294","-5,55358326246031","1,51845651793174","-3","-0,443710766726821","0,236064218712354","3,71601361731273"
"3303","-0,779567648116866","-0,620385870517065","-3","-5,90754191680015","-3,3261808481064","-2,69504094395807"
"3315","-3,51289245290915","-0,155096467629266","-3","-1,2003595524545","2,69634177515348","-1,46903151892092"
"3323","-1,33189091805649","5,21122588309268","-3","3,32407056306484","1,51117833141385","-1,12978480934364"
"3335","-1,8534335100015","1,80280647077317","-3","0,0211227258376094","-2,24327752335251","-2,75920442859125"
"3343","-1,96784696306179","0,200701617693293","-3","5,08491735526702","5,4199824028477","2,95979777399405"
"3355","-3,77357133460115","2,55017540442332","-3","-3,13077151088575","3,72924135033262","6,71216764303685"
"3364","-4,95032719114367","0,387543851105831","-3","-5,04017175902982","3,21975074959602","3,02718676755795"
"3372","-2,42785320313716","2,59688596277646","-3","-1,93391172500645","-3,72841359049495","1,28423087449332"
"3384","-1,0938603349561","3,89922149069411","-3","4,79153989434587","3,27379072794886","0,078648978517607"
"3393","1,76003429054321","1,47480537267353","-3","-0,528084712689455","2,38384612606998","-0,978237192448252"
"3405","-6,73639195895964","1,86870134316838","-3","-3,54784168330205","-6,37762323629366","-3,71726997904615"
"3413","-1,03904641239486","1,9671753357921","-3","-0,782672628422578","2,77681526743782","-0,751890548799489"
"3425","-1,78919072020838","1,99179383394802","-3","-6,01166776298876","-0,163230066108028","0,791945812623135"
"3433","-1,95375369526741","-1,50205154151299","-3","2,15327308596204","1,64947039980211","-3,2274460449423"
"3446","-1,98985471273592","1,37448711462175","-3","-1,03134462769071","4,59302925998406","-4,06293615756723"
"3454","-0,217149466719033","-0,656378221344562","-3","4,06879988542519","0,0827291579691312","3,59904467520511"
"3462","-2,60888700375871","5,08590544466386","-3","-4,13572264366896","4,12090495962897","-0,00411527126068767"
"3474","-3,91419955123926","3,52147636116596","-3","0,7295455078072","-1,75819993822436","-1,72443065245372"
"3483","-3,20055260885478","-2,11963090970851","-3","5,30253806711596","-0,529818768763237","2,2461280350366"
"3495","-3,04399624662245","4,72009227257287","-3","-1,37111095500968","-3,55697324697933","-0,378478232210689"
"3503","-1,22902677058953","1,68002306814322","-3","1,27161736319745","2,62679442621303","-0,10472798357175"
"3515","-5,39211749833864","3,6700057670358","-3","-3,99499039613478","1,49022082255192","1,69431284478641"
"3524","-2,52477099155064","-0,332498558241049","-3","5,85120576564315","-3,94825130025667","1,19212197165931"
"3532","-1,11512168351442","4,16687536043974","-3","2,18305362493544","0,810227666836089","1,05316170120058"
"3544","-1,80587973965898","-0,208281159890066","-3","5,44185142884089","-1,45450311265916","-2,43187357524492"
"3552","-1,95741485041183","0,697929710027484","-3","4,44292298654255","-1,13696069162153","-1,39621098256873"
"3564","-3,7712827889494","2,67448242750687","-3","-0,94236694493458","5,75336167838203","4,06024099216713"
"3573","-4,94982514123529","-1,33137939312328","-3","0,403323427779538","-2,9649312392385","-6,04637429655751"
"3585","1,13350675405483","1,41715515171918","-3","-4,26172199925235","-1,59211550816521","1,32691939956529"
"3593","-5,87383649368051","2,85428878792979","-3","2,38364926118704","-2,87708743780314","3,81375316183164"
"3605","-2,63044813952096","0,463572196982449","-3","-1,96057526718805","1,13301389063835","0,778588224707266"
"3614","-1,13830461736409","0,865893049245612","-3","0,39773000510705","2,04008261758762","0,938733573579626"
"3626","-0,030340587885249","-0,783526737688597","-3","1,81498841038192","8,10805378324924","-2,46353676231815"
"3634","-0,787280879172837","-0,195881684422149","-3","-0,442452896889149","-2,55670616343802","0,318319481504986"
"3646","-0,953334723718304","5,20102957889446","-3","1,55689224821818","-2,46910031385386","-3,35850227593019"
"3655","-2,77038771078869","1,80025739472362","-3","1,17107197928255","-1,44270102765549","-2,37590855147675"
"3663","-2,16900387340914","-1,5499356513191","-3","1,05255167797593","-1,13340423253542","3,06585883881962"
"3675","-3,81770014991793","4,86251608717023","-3","-2,36947573026101","0,658458163979112","-1,87494402203844"
"3683","-3,17938304400246","1,71562902179256","-3","1,96492924050461","5,29439605496682","-1,24210407724383"
"3696","-1,25872726145309","0,178907255448139","-3","2,98922659767484","-1,4045782631409","0,656299770171243"
"3704","-0,0567583162734346","2,54472681386203","-3","-4,46735724570722","-2,12191625797812","0,181603446906758"
"3716","-4,35432609066442","0,386181703465509","-3","7,39890873333162","0,360578376338672","-1,6730407832092"
"3724","2,04476932185824","2,59654542586638","-3","1,65849319313037","-4,98731796141327","0,537056103239079"
"3732","-1,33205345590916","3,89913635646659","-3","0,202282819079156","1,49711366477732","1,87189968487374"
"3745","-1,07284425678349","-2,02521591088335","-3","-2,63067020204472","-2,94617420020579","1,24126168456325"
"3753","-1,01598021538975","-0,506303977720838","-3","-1,50092631009578","-2,28512163997392","1,06675905663015"
"3765","-4,5647554811379","1,62342400556979","-3","2,23173932609619","-2,085919008956","-0,704819153521128"
"3773","-1,56264346456912","2,90585600139245","-3","6,45680721119731","-0,327232563142227","-0,195029152138729"
"3786","-1,90405487066642","5,72646400034811","-3","1,36908860437502","2,60004962622359","-0,0539661415186148"
"3794","-1,9789520286149","-0,818383999912972","-3","3,49899959754022","-0,21649690587504","1,70835905645243"
"3802","-1,99538259938253","0,545404000021757","-3","3,15328790997816","-0,0652395223194048","1,19600867186928"
"3814","-5,560236877272","-0,863648999994561","-3","-5,41695917766224","-3,41697619716006","-0,669054741120566"
"3823","-0,781027285465178","-0,21591224999864","-3","0,335961882787014","2,6689813601067","-1,90842477404148"
"3835","-1,73258775100977","1,69602193750034","-3","3,48882338509098","-0,195724907434665","5,64179922291322"
"3843","-0,160711503829662","2,92400548437509","-3","2,45735232283191","-0,0589800552365281","-4,88545243724781"
"3855","-0,815881010594905","2,23100137109377","-3","2,1404942649977","-0,0177731437521058","-2,79842799328268"
"3864","0,821016029850296","-1,44224965722656","-3","-3,03527015942914","1,69330262037911","-2,22093147411761"
"3876","-5,16176426446107","1,38943758569336","-3","-3,31802510419632","-0,489737492324756","1,38545032411298"
"3884","-5,25486214010505","2,84735939642334","-3","4,36635348514897","1,5510801321259","0,383365294050542"
"3896","-0,714035675007535","2,21183984910583","-3","-0,658697916263551","-0,53259504337942","-1,61721165060715"
"3905","0,0627334495394261","0,302959962276459","-1,17157287525381","-0,202345708070178","-0,160493038361533","-1,17078744853441"
"3917","-6,10873748375593","2,57573999056911","-3,68629150101524","-1,7549682206203","-1,74702163552988","2,39932558097207"
"3925","-2,68197956536594","-1,35606500235772","-3,11774900609144","-2,92472857788965","-1,22510868904685","3,11049661334431"
"3933","-2,93023423852207","1,41098374941057","-3,02020253553339","-2,28406778622774","4,02814061267452","0,583991458001519"
"3946","-1,20407021982098","1,10274593735264","-3,00346620710888","2,99116574510487","-4,18347050986455","0,884887076602409"
"3954","-1,82539283281891","1,02568648433816","-3,0005947071199","1,6116670975123","-2,65797047993051","0,968147324404728"
"3966","-1,96169553698048","1,00642162108454","-3,00010203561049","1,18789828978271","-2,19827387203267","-2,45539773990938"
"3974","-1,9915969549767","2,75160540527114","-3,00001750654307","1,05772055983861","3,03622705915956","2,04386353839857"
"3986","-1,99815658124152","2,18790135131778","-3,00000300364793","-4,06069745100919","3,31225831187181","1,28884547167219"
"3995","-3,78022050981797","3,79697533782945","-3,00000051534451","2,4454020822442","-2,70053721438966","1,07992587482606"
"4003","-6,73241076452954","-0,300756165542639","-3,00000008841914","1,44401371335262","-1,51244259175319","1,02211613507295"
"4015","3,5230767824398","4,17481095861434","-3,00000001517033","-5,63484143596087","-4,55173708213304","-2,440464134127"
"4023","-2,78837453363215","-1,95629726034641","-3,00000000260282","-5,50220767331168","-0,0702861073507406","-1,39858805959168"
"4036","-2,1729497342897","1,2609256849134","-3,00000000044657","5,69539346297492","0,978819872502476","0,612999388437677"
"4044","-3,81856577350384","1,06523142122835","-3,00000000007662","3,13518957385678","0,294959138841736","0,169621881572456"
"4052","-3,17957294025455","1,01630785530709","-3,00000000001315","-2,72970926176168","-1,60977495128755","-3,39964810276396"
"4064","-4,82001873990863","1,00407696382677","-3,00000000000226","0,161459388652609","0,514907853120267","-0,664002010409803"
"4076","-0,618641864942264","2,75101924095669","-3,00000000000039","0,0495987819527554","0,155163152287569","-0,907026642646241"
"4085","-3,47758934473773","2,18775481023917","-3,00000000000007","-1,67757327982976","0,0467571113587039","-2,69756544479529"
"4097","-1,32414629552319","-1,45306129744021","-3,00000000000001","-2,90095359134628","-1,68456854543271","-2,19302199235087"
"4105","-1,85173453273604","-0,363265324360052","-3","-2,27676433745752","-1,20628897544013","-2,05341074419481"
"4113","-1,96747424977123","-0,0908163310900129","-3","-0,392209808962303","4,03381177513723","1,43180466303706"
"4126","-1,9928646606154","5,2272959172275","-3","-0,813292658854526","2,61287207852346","0,396191914004258"
"4134","-3,77905959425421","-1,69317602069313","-3","4,13578336744459","-4,60994978331427","0,109629502385756"
"4146","-3,17090626862508","-0,423294005173281","-3","2,65609224972433","-2,78648642322554","0,0303353687153222"
"4154","-3,03749257806562","-0,10582350129332","-3","-6,26250248722087","1,16031574462469","-1,71489788213726"
"4167","-3,00822493768845","1,72354412467667","-3","1,07621905462208","2,04830980173745","-1,19781801774606"
"4175","-3,00180434644586","2,93088603116917","-3","-4,74782444199103","-3,78007587868827","2,39184600416313"
"4187","-1,21977091868993","0,482721507792292","-3","-3,53691497356359","-2,53641089949317","1,38513503037411"
"4195","-3,60946208502083","-0,879319623051927","-3","-1,47212559944543","-0,462984506702908","-0,616721950273423"
"4204","-3,13370079976883","-0,219829905762982","-3","-1,83784202634459","5,95645873503985","-0,170651944497084"
"4216","-6,59058044493397","-0,0549574764407454","-3","-0,257377067523344","2,19224557462923","3,39936307603358"
"4224","1,77356591159541","-0,0137393691101864","-3","-0,771873328591162","2,0579315875492","2,38721506487109"
"4236","-5,73342345837312","-0,00343484227754659","-3","-2,62273121746652","0,318798789014362","-1,3394383115886"
"4245","-0,81902010728552","1,74914128943061","-3","-0,498487529865614","-4,3012494809629","1,35265852508319"
"4253","-1,74092242971695","1,18728532235765","-3","2,53967894420411","2,40251304083933","1,09758346208083"
"4265","-3,72378974466953","1,04682133058941","-3","3,16578421670891","-0,276022895029426","1,02700213207503"
"4277","0,402468379551419","-0,738294667352647","-3","0,665308224053709","1,61548122914794","1,00747170802357"
"4286","-4,25358319292553","-0,184573666838162","-3","-4,18124277228527","-0,513188314264368","-4,1678082890245"
"4297","-1,49438001582896","1,70385658329046","-3","0,715562159099252","1,54401342410458","2,57002570944785"
"4302","-1,88907957045357","1,17596414582261","-3","1,91262341219251","1,16393387138942","-3,73543697711233"
"4314","-0,195041910808466","-0,706008963544346","-3","-2,10526990881498","-0,64925831399803","-2,48020942754682"
"4326","-0,823412246716507","1,57349775911391","-3","5,4317098489572","-1,89430694189469","1,31370602038209"
"4335","-6,30313577564817","1,14337443977848","-3","-3,02424016934575","2,12782493785877","0,363513065776785"
"4347","0,836624111797457","-0,71415639005538","-3","3,45660141093549","-5,4547730687822","-5,06928876982297"
"4355","-0,59709042013064","-0,178539097513845","-3","0,754644488268054","-0,342408409367507","-0,126005067571472"
"4367","-4,47286149459199","-0,0446347743784613","-3","4,31024823417098","0,89681810474383","-4,20474239083553"
"4376","0,238140696976298","1,73884130640538","-3","3,40249574219839","-1,42840981223209","1,8365138215248"
"4384","-2,50900768311013","2,93471032660135","-3","1,43083329552692","5,66553593633647","2,23147013038632"
"4396","-7,45353833622839","2,23367758165034","-3","-4,94608078253526","-1,2927383803658","3,06404965450947"
"4404","-5,53824519339217","2,05841939541258","-3","-4,59781742765725","-0,389555841817457","0,571139209370466"
"4417","-1,55682776780829","3,76460484885315","-3","-0,105215147842144","3,27992743801293","0,881330755607061"
"4425","-0,902779051665952","3,19115121221329","-3","2,66048846346961","0,687036964235969","-4,20271250931542"
"4437","-1,75929705568088","-0,452212196946678","-3","-0,182723356698909","2,60434962832346","0,837075506135423"
"4445","-3,72782067989456","0,63694695076333","-3","-1,74894042170947","5,57943249486609","3,67820940037355"
"4453","-3,1596657271746","0,909236737690833","-3","2,15555176001045","-2,31868492851105","-0,982209752445309"
"4466","-3,03502668327298","0,977309184422708","-3","3,04778401486287","-0,698716208131751","-3,71836921848108"
"4478","-1,22705907182225","0,994327296105677","-3","4,01467879293851","-1,90921066245903","0,971097206430593"
"4486","-5,39168583424442","0,998581824026419","-3","-3,45953857443864","2,12333382697444","0,268710439930985"
"4494","-2,52467629520111","0,999645456006605","-3","-0,0627372049569308","-0,360151203840292","1,79764627258546"
"4503","-2,89572581946829","0,999911364001651","-3","-0,0192722701042747","1,59012987062309","-0,502576757972315"
"4515","0,584124977689666","0,999977841000413","-3","-1,69872980917339","6,27380589825567","1,58422487574762"
"4527","-4,21373226035515","2,7499944602501","-3","3,86378553245944","2,98653388188341","-2,28492410580076"
"4536","2,07561210603943","0,437498615062526","-3","-0,813081990859065","1,29728369071071","-1,35554887755959"
"4547","-3,10591222732683","-0,890625346234369","-3","1,44303853075667","3,48690075632023","2,3482006013646"
"4552","-2,2426095944306","-0,222656336558592","-3","-3,94233145085567","-1,94925177430109","3,09634991858418"
"4568","-0,272597591645297","3,44433591586035","-3","-0,903856116894611","1,11126777457912","-4,58979881767081"
"4576","-4,40167585113025","0,611083978965088","-3","2,41515358630246","-0,665128799464991","0,729965598372681"
"4588","-3,30749276602887","2,65277099474127","-3","-1,95089743943825","1,49822743637694","-3,24459647079872"
"4597","-1,28683134325583","-1,33680725131468","-3","2,09351249323415","-0,548521758867656","-0,621097971595254"
"4605","-1,84354856172308","-0,334201812828671","-3","-0,356892959066632","-0,165292420165028","4,27472102238005"
"4617","-1,96567845164331","3,41644954679283","-3","-1,80244365990902","-0,0498094810685607","-0,817150169005176"
"4625","-0,211845797265352","0,604112386698208","-3","2,13911607629227","1,6836487394844","-1,94940397500625"
"4638","-7,94959824071706","6,15102809667455","-3","4,73554468170023","1,20601179965116","0,460584176065613"
"4646","-2,08581855964949","4,53775702416864","-3","3,5331427484971","1,06207992371568","1,85073928501152"
"4654","-2,79945136422307","4,13443925604216","-3","4,85658591170455","-0,679951144760313","-0,487885492636779"
"4666","0,605245194976282","-1,21639018598946","-3","0,877515906298817","1,49376084724574","-1,85829377980149"
"4675","-2,42847410081246","0,445902453502635","-3","-3,42324504739886","-3,94718454357906","2,20908702657528"
"4687","-0,313371634465442","2,61147561337566","-3","-5,1300168357734","-0,888109282823697","-0,38872777840773"
"4695","-6,19124557041871","0,402868903343915","-3","-0,268701722508498","0,732375734680063","-1,83085603944286"
"4703","-4,48070469427952","0,850717225835979","-3","-0,775352154430813","0,220695269965791","-1,22990457639007"
"4716","-0,544204815635316","2,71267930645899","-3","-0,930990327651272","6,86113829530104","-1,06361645307476"
"4728","0,0999901096033877","2,17816982661475","-3","4,09962776782469","-1,93245366189586","0,705688737305641"
"4736","-2,5393144806522","5,54454245665369","-3","-2,43344306077634","-2,28098707111398","0,195269772994958"
"4748","-0,337687252771292","-0,863864385836578","-3","1,94527908757881","0,312643724238229","0,0540327232528695"
"4752","-0,854705081451382","0,534033903540855","-3","-0,402428845375679","-3,30310425798253","3,46153513822986"
"4765","-0,968125914163087","2,63350847588521","-3","1,56918725453802","2,70329571156359","2,40441857660354"
"4777","-2,7736325295241","2,1583771189713","-3","2,86765843966738","-1,88404297394735","5,55848973368742"
"4785","-2,16971570581134","-1,46040572025717","-3","2,26653638489319","-1,26639891732883","-2,46192099843326"
"4797","-3,81785630821525","-0,365101430064294","-3","0,389067879630754","0,618381333911391","-2,40452534723816"
"4806","-3,17941730124299","-0,0912753575160734","-3","-4,26610116747631","3,58366083136902","2,05794034031346"
"4818","-1,25873477663832","3,47718116062098","-3","2,38230402253794","2,47722287640499","-3,87713513452759"
"4826","-1,83738487489194","2,36929529015525","-3","1,42463059211619","-2,95216812204372","0,927165395212935"
"4838","-3,74495120226391","2,09232382253881","-3","-7,33360529754322","0,110388957706989","1,97984607661835"
"4847","-4,94404864703564","3,7730809556347","-3","-6,71686125707854","1,7319231920905","-5,62203637166744"
"4855","-4,2071007569323","3,19327023890868","-3","-0,448974723263689","1,22055890006132","1,44433713047991"
"4867","1,29644198272575","-0,451682440272831","-3","1,8620792535678","-0,632194837700546","2,12295167262173"
"4875","1,28440707667386","0,637079389931792","-3","-6,19922524720409","-1,889165006779","-0,412562126505121"
"4888","-5,06010781184694","0,909269847482948","-3","-2,98277143731314","2,12937441677344","-1,83745119605571"
"4896","1,88993839323517","-0,772682538129263","-3","-2,99470755010783","3,03898589273845","2,21485433782954"
"4904","0,414605405159425","-0,193170634532316","-3","-1,30556465806215","0,614431255359562","1,33616000685465"
"4916","-1,68967081189198","3,45170734136692","-3","1,59894300764527","-5,91082153066849","-0,630273734820219"
"4928","-2,93192150642113","4,11292683534173","-3","0,491180019030745","-0,47983477898562","-1,89769375638957"
"4937","-2,20444036436824","-0,221768291164568","-3","1,8436953620356","-4,2405693997315","-4,6949829597925"
"4949","-3,82547403331229","0,694557927208858","-3","4,64479426010493","3,42079847313148","1,70086029674467"
"4953","-3,18108844037195","0,923639481802215","-3","3,50526508582051","0,0308288584357856","0,470641780836048"
"4965","-1,25910138293518","4,48090987045055","-3","-5,30883515128857","1,70794842510176","1,85352230548014"
"4978","-1,83746529918132","-1,87977253238736","-3","2,06198610278471","-0,485324102210808","1,23617651526307"
"4986","-1,96434393537556","-0,46994313309684","-3","-2,05938711696012","-6,94088196894768","-2,38123189810389"
"4998","-1,99217794761304","3,38251421672579","-3","-3,01824315507131","0,209765168497054","-1,38219802150438"
"5006","-1,99828403655342","2,34562855418145","-3","1,07282453267013","-0,635447437955735","0,617534644347959"
"5019","-3,7802484703385","-1,41359286145464","-3","-1,3632481029429","-4,28746196614962","-4,99899894746758"
"5027","-8,51304180834531","4,89660178463634","-3","-2,80439589940422","-1,68930743094104","3,34002854127792"
"5039","0,571200866951605","3,47415044615908","-3","-0,554293184916935","1,4909414090711","-0,0757871274208189"
"5047","-1,43594257833774","-0,381462388460229","-3","-4,2487022275139","0,449282658063304","-0,0209709102399827"
"5055","-1,87625985234305","0,654634402884943","-3","-5,07639894871748","3,53270436715266","-0,00580282023161366"
"5068","-1,97285449396793","-0,836341399278764","-3","4,13338828401094","0,763209166530448","1,72168623643592"
"5076","-5,55529477211856","-0,209085349819691","-3","-4,80869125644815","-0,770013334587901","-2,24688743711356"
"5088","-2,5605680206763","1,69772866254508","-3","-6,94123178133977","-0,232037044248023","-1,34502382413676"
"5097","-1,12297466000152","2,92443216563627","-3","1,17491034672829","3,32739440327149","-1,0954708786685"
"5105","-1,80760248708281","2,23110804140907","-3","-0,331888315976073","0,701340735123151","-2,74970948684245"
"5117","-3,7384176882571","0,307777010352267","-3","0,898047079490794","0,910001541601355","-2,20745066991835"
"5129","-1,38136553686407","2,57694425258807","-3","-3,10974761898951","0,972879721252001","3,11247249517003"
"5138","-3,64491191893048","0,394236063147017","-3","-2,34090386837322","0,99182753202159","3,30783012412015"
"5146","-1,3608527003001","2,59855901578675","-3","-2,1047224120901","4,39485411111829","-1,08469668949375"
"5154","-1,8597870035885","2,14963975394669","-3","3,04625893095377","0,0230107430785176","-0,30014433436266"
"5166","1,59200905865872","2,03740993848667","-3","-3,44983745769016","5,80156772521859","-3,52963620870509"
"5178","-1,43137777940872","0,259352484621668","-3","-0,752566666439583","4,5428872867456","1,02332115450765"
"5187","-1,09463353919297","0,814838121155417","-3","-2,61680039526855","-0,93238070408182","3,72974507546141"
"5199","-6,36263497110214","0,953709530288854","-3","-3,88228474170461","0,417693321925358","-0,967949414928842"
"5203","-4,51830325948394","0,988427382572214","-3","-3,27102944517029","-0,874131629326175","-0,267839420599815"
"5219","1,22817190571219","-0,752893154356947","-3","3,68798055082084","-3,66072903259097","3,37247051647681"
"5228","-0,511194587591142","-0,188223288589237","-3","3,51853150181801","0,896870084762973","0,656481752788709"
"5236","-4,45401808859579","3,45294417785269","-3","-0,919140731245715","0,270264259325132","-4,26493004435235"
"5248","-5,0996002590591","0,613236044463173","-3","-7,05358946064856","3,47875867784658","2,54315133536027"
"5256","-4,24122490582363","0,903309011115793","-3","1,83320469275598","2,44561149443895","-2,0195814098094"
"5268","-0,491668915483413","4,47582725277895","-3","-4,51528568459519","2,13428127722995","2,16445743673829"
"5277","-1,66910973254527","3,36895681319474","-3","-0,0798621847071019","-1,35685228174993","-2,12436907001895"
"5289","-3,70803582776248","-0,407760796701316","-3","0,97546709969229","2,98844078868927","2,13546184485749"
"5297","-4,93595033343105","0,648059800824671","-3","3,68527327924473","-1,09945849458724","1,31419146284848"
"5305","-4,20532418865624","0,912014950206168","-3","-2,56072880180216","-0,331312573299705","-0,636352608372167"
"5318","1,29683171755125","0,978003737551542","-3","-4,86506008378108","-1,79849666616437","-3,622667753456"
"5326","-0,496132335187785","2,74450093438789","-3","3,19830956463511","0,458038151079494","0,997578574720644"
"5338","-0,889463985670666","0,436125233596971","-3","-0,0175098516255535","-3,25929086990343","-3,17054579890973"
"5346","-2,75637606187947","4,35903130839924","-3","-3,39099796293499","-4,07813512357561","-0,600607552625137"
"5355","-0,385305156694195","1,58975782709981","-3","2,65112736808887","3,46974667653364","2,55709896313712"
"5367","-6,20702599333353","1,89743945677495","-3","-0,185598995783775","-3,35173782764742","1,43086185876137"
"5375","-0,922916706028967","0,224359864193738","-3","5,02141441696681","-2,4073348291993","-0,604068967553235"
"5387","-1,76371475541968","2,55608996604843","-3","-3,15027900695889","-0,424088518167635","-0,167150761988612"
"5396","-5,50941472314653","2,13902249151211","-3","-3,35335472360631","0,872204490708195","-3,49283581312783"
"5404","-2,55050308080266","-1,46524437712197","-3","2,6626910116468","-3,13448532569049","1,0335041211764"
"5416","-1,12076666291064","3,13368890571951","-3","-3,56766585870505","-4,04052602216902","-1,43731298639892"
"5428","-0,0264931975481517","2,28342222642988","-3","2,59685667801953","-1,61489536041434","0,602283888434421"
"5437","-2,56706176754534","0,320855556607469","-3","-6,97350864092113","4,91068167651234","0,166656816179529"
"5445","-2,12439922630552","2,58021388915187","-3","-3,22062389999798","-0,520207364888467","0,04611528701406"
"5453","-3,807915001444","-1,35494652771203","-3","0,317845549062176","-0,1567601156016","0,0127604723595478"
"5465","-3,17723642617508","-0,338736631928008","-3","-2,28797998711955","-3,44455515845739","-6,88963676887843"
"5477","-3,03888125694803","3,415315842018","-3","1,29715440247595","0,962012264183079","5,5401657103184"
"5486","0,552720240704846","2,3538289605045","-3","-2,98714566159526","-1,40876410042553","-3,91357525100964"
"5494","-6,0012465873325","2,08845724012612","-3","-2,30324171814137","-4,52049444048108","-0,806209802979995"
"5502","-2,65839874028608","2,02211431003153","-3","-0,400343407399515","-3,45818821560226","0,7769152362906"
"5514","-1,14443628292322","-1,49447142249212","-3","-0,81579122260325","-1,43941275859428","0,214978720513551"
"5526","-1,81231063254336","3,12638214437697","-3","-4,32903192689225","3,26490347532999","1,78277827186699"
"5535","-3,73945053809136","-1,21840446390576","-3","1,67016274246882","1,68250961940017","-2,22998277750971"
"5543","-1,38159211838944","3,19539888402356","-3","-1,17975151059794","-2,19164828023969","-1,34034616829658"
"5551","-1,86433671529894","4,04884972100589","-3","-1,05521794709014","3,73688203335511","0,629115390140372"
"5564","-3,75086376467956","1,51221243025147","-3","0,675847125973171","0,82473638955241","1,89737323306147"
"5572","-1,38409589599972","0,128053107562868","-3","-3,17800532228197","-5,84744784668624","-2,19827342623928"
"5584","-0,0842610717635279","2,53201327689072","-3","-0,669062430951172","-0,460737652151811","-1,33157193470454"
"5592","-4,36035951012602","2,13300331922268","-3","2,48727996390227","0,86116058232122","-2,81504055588013"
"5604","-1,51780408002745","2,03325082980567","-3","1,45687819858532","-1,43915490681227","1,22105554296208"
"5613","-0,113593316671816","2,00831270745142","-3","6,21877727420946","0,566322768981038","3,78445977771699"
"5621","-6,14741918396751","-1,49792182313715","-3","-5,47527012616872","1,86931501271058","-0,95280941492016"
"5633","-0,909840456858138","3,12551954421571","-3","0,318049316385231","-3,83401445340636","-0,263650060321618"
"5641","-1,76084615208063","0,531379886053929","-3","-3,28791739174427","-0,854006427663391","-1,7962460246782"
"5653","-1,94753560308264","0,882844971513482","-3","4,37560228682886","-0,956006064463382","3,94954806519625"
"5662","-3,76911552817717","0,970711242878371","-3","-2,34866632461481","0,711915610396556","-2,630420076125"
"5674","-3,16872478823421","2,74267781071959","-3","3,66413124303394","0,214529783537906","-1,45115040289138"
"5682","-1,25638910563441","0,435669452679898","-3","-0,874413881495997","-3,33267006908867","2,32174688719483"
"5694","-3,61749520307836","2,60891736316997","-3","-0,268611592095742","0,995727895155157","-3,80413773241403"
"5703","-3,1354630657659","2,15222934079249","-3","-3,46813401911277","0,300054229308587","-2,49921948138949"
"5711","-3,02971722224758","-1,46194266480188","-3","-4,14380629910967","0,0904188192015459","1,30844578495216"
"5723","-1,22589430833181","1,38451433379953","-3","3,4198718379538","-1,67141145687385","2,08534943980943"
"5735","-1,83018049420071","2,84612858344988","-3","0,0505519624008475","0,4963342103902","1,30032495564684"
"5744","-0,182120920653051","0,461532145862471","-3","3,40114818375076","-1,54909226660086","2,80639426441363"
"5752","-4,38182752328608","2,61538303646562","-3","-0,955199765324156","0,533194069941783","-1,22344804164126"
"5764","-5,08376344729526","0,403845759116404","-3","-0,293428243950374","-1,53798485783589","-3,78512180142415"
"5772","1,104124026105","-0,899038560220899","-3","4,98829030190248","-2,86077562144691","2,67591815127322"
"5784","-2,31903251232156","-0,224759640055225","-3","1,91797423694259","2,83658772716604","-1,98284375957628"
"5793","-3,85061269608581","3,44381008998619","-3","0,281992917205479","-1,84387654574023","2,17462304126356"
"5801","-1,40597832680695","0,610952522496548","-3","-0,913374469398067","5,54033852936143","3,04831960583276"
"5813","-1,86968644196592","6,15273813062414","-1,17157287525381","-3,66619901631994","2,06685124930994","-1,15650534579917"
"5822","-0,190787541500604","-0,711815467343966","-3,68629150101524","4,25939778506136","-3,07583016153988","-3,76659821683264"
"5834","-2,60310385404066","2,32204613316401","-3,11774900609144","1,0012558661818","-3,32419237379855","-2,48883199424621"
"5842","-7,47418069219737","-1,419488466709","-3,02020253553339","-2,38523331367253","-0,700375830463553","-0,411971837121972"
"5854","-3,76214870211714","4,89512788332275","-3,00346620710888","3,65289821327904","-2,60836918351041","2,6092959891031"
"5862","-3,94782135011416","-1,77621802916931","-3,0005947071199","0,814944990943738","-7,27930216184149","-2,00127864991201"
"5875","1,35332142593835","3,05594549270767","-3,00010203561049","0,943152868841868","6,20376031218951","-1,27706188909791"
"5883","-0,483739900324826","2,26398637317692","-3,00001750654307","0,982537104305416","-1,82920739780922","-2,79995718601909"
"5891","-4,44799521410511","2,06599659329423","-3,00000300364793","0,994635565246175","-1,24987467750701","2,94852115688062"
"5903","-3,31765408045142","2,01649914832356","-3,00000051534451","-4,08007655876745","0,623360774648936","4,98575538834821"
"5912","-1,28906048252206","0,254124787080889","-3,00000008841914","-4,33178920208753","1,88650293615357","-1,62040121738618"
"5924","-1,84403757935029","2,56353119677022","-3,00000001517033","1,66931573386601","-2,13017660937422","-2,1716700274222"
"5932","1,59546409001883","2,14088279919256","-3,00000000260282","2,20560740021749","3,75540600452795","3,84566521158493"
"5944","-4,99186965154119","-1,46477930020186","-3,00000000044657","-2,01526802624272","-2,56699838311176","-0,93587337705298"
"5953","0,124283235821376","3,13380517494953","-3,00000000007662","-3,00469019182335","-1,47220178771745","-5,42883949284124"
"5965","-2,53398517390111","0,533451293737384","-3,00000000001315","-0,615821678360277","-2,84095244635864","-0,225495656484672"
"5973","-2,11714304559707","-0,866637176565654","-3,00000000000226","0,810825462664863","4,54121968212478","2,66089545433056"
"5981","-0,245073356199698","-0,216659294141414","-3,00000000000039","-3,13654126654768","-4,02885844615986","-0,263708737489168"
"5993","-2,61501280952741","-0,0541648235353534","-3,00000000000007","-0,656325069089441","0,785937381148174","1,65032158619477"
"6002","-2,13491849045717","-0,0135412058838383","-3,00000000000001","-0,894426343967296","0,236835621792516","-0,543342688540942"
"6014","-0,248972846016134","-0,00338530147095959","-3","5,80366942624132","-3,32594839227401","3,29623653717931"
"6022","-0,835243350482872","1,74915367463226","-3","0,475641363648949","-2,39956339968234","-1,08790472863404"
"6034","-0,96385649517981","1,18728841865807","-3","-4,23950662012579","1,27691174459204","-0,301032024701994"
"6043","-4,55332083532436","4,54682210466452","-3","-2,68795504219554","0,384786618194468","3,36328585484696"
"6051","-3,34075989808843","-0,113294473833871","-3","1,17428588607187","-1,58270619563747","0,653940282737277"
"6063","-1,29412932334631","0,721676381541532","-3","-3,02488969620879","-2,87425202058466","-2,5423413659818"
"6071","-3,6257744667365","-0,819580904614617","-3","-2,31483632504801","2,83252672759296","-4,87336215976023"
"6084","0,423970489971893","3,29510477384635","-3","-0,403905159890897","4,94953333744451","-3,51837443951623"
"6092","-0,687616345568149","-1,17622380653841","-3","-0,816885358947157","-1,50849974352415","0,303145453336529"
"6104","-0,931470807686384","3,2059440483654","-3","0,749060620525496","-0,454573714523495","2,80717471890366"
"6112","-0,984966402266796","0,551486012091349","-3","-4,84832438796614","-0,136981966899737","-1,94652400724021"
"6124","-0,996702003143865","2,63787150302284","-3","-0,182168493235649","-1,73993677182162","0,461381086406075"
"6133","-4,56052632159092","-1,34053212424429","-3","2,63684913081414","2,17434309069438","-1,59562405078027"
"6141","1,99953412763537","3,16486696893893","-3","1,50282441799334","-3,74209680672574","4,00506178566517"
"6153","-1,34197693071414","0,541216742234732","-3","-3,92396579736442","0,87235059015269","2,55481678965514"
"6162","-4,63627103991035","-0,864695814441317","-3","2,487404740199","1,9615339235952","-3,01635348439183"
"6174","-5,13958201666122","-0,216173953610329","-3","-0,235893023212019","-2,10756665215538","1,88864255343071"
"6182","-0,688746087548845","1,69595651159742","-3","-0,0724640835079748","-6,42973112185744","-2,20068927580505"
"6194","0,068281355064895","2,92398912789935","-3","-1,71506982616899","-1,3348622292098","-1,33224041979061"
"6203","-2,54627059153369","-1,26900271802516","-1,17157287525381","2,1659564834325","1,59775049050295","2,35465023987632"
"6215","-3,90046307017029","1,43274932049371","-3,68629150101524","-3,72025796102197","2,18012708453723","-2,07174118532883"
"6223","-1,41691425710956","1,10818733012343","-3,11774900609144","-0,835637262037878","-0,343037033180974","0,426732481932396"
"6231","-0,0914606026865035","1,02704683253086","-3,02020253553339","2,43610976689587","-1,80202973357249","0,118080324187495"
"6243","-2,58131399789632","2,75676170813271","-3,00346620710888","-0,251650349047114","0,456973490921434","1,75596570301914"
"6252","-3,90815072059591","2,18919042703318","-3,0005947071199","3,30831452027532","0,137705119340379","1,20918181546177"
"6264","-3,19922564608784","2,04729760675829","-3,00010203561049","5,78752082752794","0,041496279913988","1,05788229776183"
"6272","-4,82433005402006","2,01182440168957","-3,00001750654307","-5,6077479872778","-3,38481226057196","-2,43056734805128"
"6284","-2,40021256983766","0,252956100422393","-3,00000300364793","-3,10826572090203","2,67867369196908","0,327442384704844"
"6293","-2,86842157851172","-0,936760974894402","-3,00000051534451","-2,34044864343567","-5,28877942816574","5,26048172336268"
"6305","0,590114848007604","1,5158097562764","-3,00000008841914","-0,411773019453695","-0,292387621411642","0,178909701955293"
"6313","-0,651168412066765","2,8789524390691","-3,00000001517033","-4,20492139401966","0,911891448628774","-0,950494240533309"
"6321","-0,923475038993259","2,21973810976728","-3,00000000260282","3,40109786456174","-4,82118440241723","-0,26300943287064"
"6333","-4,54446214973806","5,55493452744182","-3,00000000044657","3,43040388086931","-5,24745701530149","-1,79606875788858"
"6342","-3,33881652314043","-0,861266368139545","-3,00000000007662","4,13221596103518","-0,978593867541712","0,503013269029485"
"6354","-4,85495281524027","0,534683407965114","-3,00000000001315","1,65499637655082","-1,692207849778","-1,58410408961269"
"6362","2,93494428908503","-0,866329148008722","-3,00000000000226","-8,26283912899212","1,49006739224077","-2,88491824267887"
"6374","-1,13677124233496","-0,21658228700218","-3,00000000000039","4,84735384902089","2,14767768825554","2,92501174632844"
"6383","-2,81062911357426","1,69585442824945","-3,00000000000007","4,56748945670983","-3,7501322015529","-0,190625626400263"
"6395","1,38341798518015","2,92396360706236","-3,00000000000001","0,0958986848563548","-7,6233628475958","-1,77603957404197"
"6403","-6,8190121948539","0,480990901765591","-3","-0,970540840025226","-0,694553113925744","-2,93802834135677"
"6411","-1,05717123408213","0,870247725441398","-3","1,39466867632146","1,79070225879291","2,91031575308903"
"6424","-3,5737917645718","4,46756193136035","-3","2,81404799942045","-1,15904533802243","-0,194692126419453"
"6432","-1,34525071003501","-1,88310951715991","-3","0,557258217846182","-1,0479269753892","-0,0538728837801567"
"6444","-1,85636431556952","-0,470777379289978","-3","-4,21443470211111","2,38287442455861","-0,0149070620377193"
"6452","-1,96848990879713","5,13230565517751","-3","0,705365915302211","1,41671758088773","-0,00412490446034491"
"6464","-3,77371238087972","1,78307641379438","-3","0,216681671607549","-3,97040088413048","-1,72443331803787"
"6473","-3,16973322320966","1,94576910344859","-3","0,0665625397996805","0,803553075965331","-4,6470403971903"
"6485","2,3046394888002","1,98644227586215","-3","3,4060664801965","-1,45651444449933","-0,00916553264240472"
"6493","-3,05566932461529","0,246610568965537","-3","4,12473974401651","-4,53488360519163","-0,725828100565675"
"6501","-4,01221246309916","0,811652642241384","-3","1,65269975409464","1,63345095404012","2,5224494261982"
"6514","-3,22205420021775","2,70291316056035","-3","-3,18511597382205","-1,20643169656973","-3,74860171892977"
"6522","-1,26808825018933","2,17572829014009","-3","5,09999145235121","4,03376876732479","-0,760560294271085"
"6534","-1,83943679399425","-1,45606792746498","-3","0,259478211520177","-2,48311610496568","-4,38032894694735"
"6542","-0,184151522253566","1,38598301813376","-3","2,46532833184095","0,25173383935064","3,51121952701141"
"6555","-2,60164807672093","1,09649575453344","-3","3,83575397066321","-1,62280053185885","-0,0284171990716806"
"6563","-2,13198660099458","4,52412393863336","-3","1,56392608487904","-2,88633411169919","1,71542865516945"
"6571","-2,0289545724754","-3,61896901534166","-3","-1,51957684516546","1,1302274832041","1,19796488693077"
"6583","1,55489790800469","1,84525774616458","-3","1,22601005987053","-3,05673226631156","1,05477848304557"
"6592","-5,00076886137255","1,21131443654115","-3","-4,00900052408115","1,07887943198791","1,01515764866839"
"6604","-3,43891884908468","2,80282860913529","-3","-2,61714577125808","2,02376965362585","-2,44238960351425"
"6612","2,24558686789018","2,20070715228382","-1,17157287525381","2,88884736962577","-2,08881243817718","2,04746299479724"
"6624","-4,84924890861776","2,05017678807096","-3,68629150101524","6,6586645255499","0,370553934104878","-2,15674237699098"
"6633","-5,18630405578244","0,262544197017739","-3,11774900609144","-0,261712308657334","1,81032172030889","0,403211965700917"
"6645","1,08162917088681","-0,934363950745565","-3,02020253553339","-2,7732050732578","-0,454474770435917","-1,61171991627301"
"6653","-0,543342413236105","1,51640901231361","-3,00346620710888","0,148097890827939","1,56170625688464","0,554024082368519"
"6661","-4,46107052074079","2,8791022530784","-3,0005947071199","1,73830380933234","-0,52939295002587","-3,29328090924065"
"6673","-3,32052247702174","-1,2802244367304","-3,00010203561049","1,22679987803467","-3,55684493008303","1,08872257475532"
"6682","0,490935172696163","-0,3200561091826","-3,00001750654307","1,06967075616616","2,62683309343086","2,02455025298852"
"6694","-0,672925962266955","1,66998597270435","-3,00000300364793","-0,671407361076571","-1,90708434103807","1,28350132961856"
"6702","-2,70887301350124","1,16749649317609","-3,00000051534451","3,17936917565009","-1,27334223957405","-2,36813673976041"
"6714","-5,71675890110193","2,79187412329402","-3,00000008841914","-1,02332815820536","-2,78102779350001","-1,37857448542978"
"6723","-2,59598922850798","0,447968530823506","-3,00000001517033","-7,08559484302436","6,2579358802438","-1,10475461761485"
"6735","0,649879719315648","0,861992132705876","-3,00000000260282","0,13056339311798","-4,51154045368973","2,41759739859114"
"6743","-4,19930730799132","0,965498033176469","-3,00000000044657","2,73291737912332","-2,75683159915067","1,39226064918937"
"6751","-3,26309814865935","-0,758625491705883","-3,00000000007662","1,53233566624117","-0,529406431288124","-2,33804215765788"
"6764","-3,0577171800478","3,31034362707353","-3,00000000001315","-2,22209067190685","2,53912623089841","-4,81683091882704"
"6772","-4,7932866215431","2,32758590676838","-3,00000000000226","5,39582362639374","-0,234855658823618","1,66714398239421"
"6784","-2,39340241404331","0,331896476692096","-3,00000000000039","-1,34245452225237","-0,0707717781634514","-1,26197971930872"
"6792","2,47494712995097","0,832974119173024","-3,00000000000007","-3,79800831003395","-5,11730170375997","2,374091943149"
"6804","-4,7989329804798","0,958243529793256","-3,00000000000001","4,21890722905948","-1,93937265873052","1,38022233830366"
"6813","-3,39464108454337","0,989560882448314","-3","0,988817554139113","-1,98173046045194","-0,61808133184589"
"6825","-3,08657442344963","-0,752609779387922","-1,17157287525381","4,38218396321265","-0,295836220048621","1,55226382730255"
"6833","-1,23836736196414","1,56184755515302","-3,68629150101524","3,42459371103826","0,910852242424701","1,1528158612853"
"6841","-0,0522918614901255","1,14046188878825","-3,11774900609144","-1,94799752329039","3,67179448060807","2,76557730667012"
"6854","-6,1339711717183","-0,714884527802936","-3,02020253553339","1,09440331977511","4,2024396184072","-1,23474242350053"
"6862","-2,68751520793437","3,32127886804927","-3,00346620710888","2,72180934998921","-0,0349717465144159","-2,06495512444233"
"6874","0,629801199339273","2,33031971701232","-3,0005947071199","-2,85669571797392","0,688119966039362","-1,29468168387333"
"6882","-2,42308712514465","2,08257992925308","-3,00010203561049","3,50806946603178","-2,49129924163524","-1,08154080187735"
"6895","-2,09281477616742","2,02064498231327","-3,00001750654307","-0,922354568707095","-3,1480488957134","0,70072892522882"
"6903","-3,80098615985153","2,00516124557832","-3,00000300364793","4,79509014236842","-0,647296474324458","0,193897352936171"
"6915","0,385533409021187","0,251290311394579","-3,00000051534451","3,55143454524305","4,20225946544263","-1,66963896012109"
"6923","-6,03792321358426","-0,937177422151355","-3,00000008841914","-0,216223678707749","2,66363237371989","2,2612893388214"
"6932","-4,44706958844598","-1,98429435553784","-3,00000001517033","0,626387703128287","5,59729685175292","-0,374282977005584"
"6944","-0,53682611126505","4,00392641111554","-3,00000000260282","0,885229871102272","-4,01196006257891","-1,82685904623375"
"6952","0,101608813538889","0,750981602778885","-3,00000000044657","-2,42087539109413","1,48968797477729","2,21778527123109"
"6964","-4,31958428730469","0,937745400694721","-3,00000000007662","0,25633020377642","-3,94841186945347","-2,10961282752104"
"6973","-5,07010883179834","-0,76556364982632","-3,00000000001315","1,77155174204763","-2,58713753497231","0,416253092673534"
"6985","-4,2347552213133","1,55860908754342","-3,00000000000226","1,23701332538441","-0,478270551804356","0,115180592544453"
"6993","1,29037528211255","1,13965227188586","-3,00000000000039","6,15123688528587","-0,842781217391178","0,0318714001947277"
"7005","-2,27817362626747","2,78491306797146","-3,00000000000007","1,27522031902728","-2,65128184954284","1,73211099749772"
"7013","-3,84164927427934","0,446228266992866","-3,00000000000001","-1,60826449875118","2,89971691394436","-3,9672947451934"
"7022","2,15723784460692","0,861557066748217","-3","2,89157561170701","4,96978053517882","7,79538519742023"
"7034","-1,30738066360608","-0,784610733312946","-3","3,96669306357356","-1,50239842072162","1,60362988963002"
"7042","-2,84805657072489","1,55384731667176","-3","-5,16708888402928","-3,85005194782673","0,167029265581115"
"7054","-2,18604248654985","2,88846182916794","-3","2,10552920214288","-2,55749759958216","2,49280219409063"
"7063","-2,04081308723552","-1,27788454270801","-3","-0,353201540872076","4,62663641696482","0,413070423483606"
"7075","-0,228328464712458","1,430528864323","-3","4,96992851603572","-0,605802015652979","-2,60899200138428"
"7083","-4,39196430742399","2,85763221608075","-3","1,91233367171396","-1,88121175176094","2,00136276576892"
"7095","2,03651243466819","-1,28559194597981","-3","-1,41254936243857","0,433112655488144","1,27708516463486"
"7104","-1,33386481127981","-0,321397986494953","-3","2,95169743213399","1,82917326501555","-0,646620220770973"
"7112","-1,073241623031","1,66965050337626","-3","2,29235236064824","-3,84611083156985","-1,90221696107193"
"7124","-4,57731720759421","-0,582587374155935","-3","-2,98862080297619","0,841006838296647","-2,97294264339949"
"7132","1,99585062550678","1,60435315646102","-3","0,0819242362844806","0,253430339690373","-0,545929163585097"
"7144","-3,12340990929928","4,65108828911525","-3","1,71797589473965","0,0763691020701586","-2,5976468559929"
"7153","-0,465823240014481","-0,0872279277211865","-3","-0,472254215042174","6,81764681807348","4,72779398278553"
"7165","-4,44406474513656","0,728193018069703","-3","-3,53069108771124","-0,246901045074583","1,03151070197005"
"7173","-1,53616692349353","0,932048254517426","-1,17157287525381","0,915405422606268","0,624256853780694","-0,714572657933289"
"7185","-1,89824657708439","2,73301206362936","-3,68629150101524","1,97401335386222","2,58543136988135","-0,197728025582196"
"7194","-0,197052923713371","2,18325301590734","-3,11774900609144","-2,08641150512363","-2,91956040233166","-0,0547129415974429"
"7202","-2,60447832282763","2,04581325397683","-3,02020253553339","3,74469341855406","0,120215019882525","3,43144433449876"
"7214","-0,351982576514964","0,261453313494209","-3,00346620710888","4,22876270495477","-1,6624326223196","-2,7737835627911"
"7222","-2,63846602935867","4,31536332837355","-3,0005947071199","-1,70096448968806","0,499039906690741","-1,49082023750422"
"7235","-3,92068845264313","1,57884083209339","-3,00010203561049","-2,21532959570079","0,150381480045798","2,31076992357037"
"7243","-4,98260102215849","-1,60528979197665","-3,00001750654307","0,319471908771693","0,045316194632064","-5,53046707056217"
"7255","-0,654308367747448","1,34867755200584","-3,00000300364793","-1,59467083306774","1,71231406205766","1,46967509564059"
"7263","0,0758361329466141","1,08716938800146","-3,00000051534451","-1,18267719969169","1,21464985359587","-1,3166209550994"
"7275","-2,54461326145576","4,52179234700036","-3,00000008841914","0,63669286104995","-0,633975479170737","-1,08761157541463"
"7284","-2,11947458326117","-0,119551913249909","-3,00000001517033","6,96682417283367","-0,191043180299248","-1,02424283049814"
"7292","-3,8068346574328","2,47011202168752","-3,00000000260282","-0,167048608516916","-0,057569256127368","4,16316758398649"
"7304","2,16487530431185","2,11752800542188","-3,00000000044657","2,3343033668602","1,68131039651319","0,875274017307341"
"7312","-1,30570519519575","0,27938200135547","-3,00000000007662","0,409885249188679","2,90396556747263","-4,20438845771923"
"7325","-4,6283139246656","4,31984550033887","-3,00000000001315","-2,56689671850937","-1,1249143922488","-4,33326401330212"
"7333","-3,35721151381399","3,32996137508472","-3,00000000000226","1,90428339865706","-0,338983494031525","-1,64563299671521"
"7345","2,26351142192097","1,33249034377118","-3,00000000000039","-2,10783188131023","-1,80080823363122","3,26793198277614"
"7354","-4,84531670796358","1,83312258594279","-3,00000000000007","3,73811328359448","-1,2413168281569","-0,0957368274346122"
"7366","1,93705821098635","0,208280646485699","-3,00000000000001","0,841122246580187","0,625939610597773","-1,74978307701393"
"7374","-3,13630750052755","-0,947929838378575","-3","-0,741615280152565","0,188621638868886","-2,9307629565727"
"7386","-4,02990247019944","1,51301754040536","-3","4,85061152541168","-3,34047727065378","1,18903422007695"
"7395","-1,44531003714386","2,87825438510134","-3","-1,5099384718714","4,390692076236","3,77559921905957"
"7403","-3,65893974943603","3,96956359627533","-3","-2,15664822768584","2,72041495667585","0,768030720598002"
"7415","0,41669485309395","-2,00760910093117","-3","-1,35531128737557","3,91574939789373","6,10568799790527"
"7423","-4,25046225901139","4,74809772476721","-3","7,35489952582959","-1,82002184184316","-2,31050681936472"
"7435","-1,49369536067058","1,6870244311918","-3","3,33778353684043","-2,24710668744709","2,80724794996124"
"7444","-0,108304464192492","0,171756107797951","-3","-3,66747433148711","3,72017010862721","-2,94650374361514"
"7456","-2,58500912153058","4,29293902694949","-3","1,56619646853982","-0,878958016269052","0,184678617174348"
"7464","-0,34771151872769","-0,176765243262628","-3","1,17393014689253","-1,96352501590134","-1,67218985876003"
"7476","-4,41815397564615","2,45580868918434","-3","6,13185833541636","3,80562506104515","-1,18600036275304"
"7485","-5,09173256605207","0,363952172296086","-3","-2,11635169015866","-0,853206884847378","2,3951160447431"
"7493","-4,23949892996191","0,840988043074021","-3","1,04268652781262","1,44155168667279","-0,337252046647012"
"7505","-2,27191518934744","4,46024701076851","-3","-0,679696658276563","-0,565600519521753","-3,53990421238869"
"7513","0,720973490831559","1,61506175269213","-3","-1,90160587292288","-0,170438961093072","2,74377183862006"
"7525","-0,622461285516589","-1,59623456182697","-3","0,415844839756509","5,04461487554041","1,48251575104119"
"7534","-4,47842723047007","1,35094135954326","-3","-3,2578755410961","-1,47984772144698","-2,31306784204455"
"7546","-1,54370519680709","2,83773533988581","-3","-4,07921690302751","-0,445939668571455","-1,36333647667664"
"7554","-0,11927537649712","0,459433834971454","-3","-3,33152512405555","3,26293664588542","4,06933763345317"
"7566","-2,58741586640507","4,36485845874286","-3","10,4406350636504","-2,71539988374719","2,57260243585171"
"7575","-3,90948931854934","3,34121461468572","-3","4,97850157135538","1,88039548342948","0,435151794872817"
"7583","0,361730518813758","-0,414696346328571","-3","-0,777842319464511","2,96395818454418","0,843701939734907"
"7595","-0,701270244844176","0,646325913417857","-3","0,453863821203831","-1,10683612150114","2,68004298806786"
"7603","0,846158776904803","0,911581478354464","-3","-2,55338692126453","-0,333535759140484","-2,98170238392161"
"7616","-1,59499875211435","0,977895369588616","-3","0,215623927442818","-0,100508196709863","3,62152271644446"
"7624","-2,91115281478447","2,74447384239715","-3","3,45185671466341","5,06568792342232","4,17198035526923"
"7636","-3,98050914074479","2,18611846059929","-3","-4,32524169275747","-4,87081435127705","-1,84557934136334"
"7644","-1,43447437104806","0,296529615149822","-3","0,671327066191152","2,2308794559665","-0,510686709282308"
"7656","-1,8759377642367","2,57413240378746","-3","0,206225262295764","-0,32774323276734","1,58198078672142"
"7665","-1,97278383586061","-1,35646689905314","-3","1,75615998262135","-0,098762667589809","-4,0088369870179"
"7673","-3,77465436151583","3,16088327523672","-3","1,23228512390896","1,66889710831559","6,06059819993855"
"7685","-3,16993987029651","-1,20977918119082","-3","-2,31426333246338","1,20156651962743","-1,32298353062267"
"7693","-1,25665566437122","1,44755520470229","-3","-4,78934824580975","-5,73389325530633","-2,08937215144824"
"7706","-3,61755367942524","1,11188880117557","-3","1,52875796618538","1,27213947702996","0,421853851213469"
"7714","-4,91610080399383","4,52797220029389","-1,17157287525381","-2,91599925907406","3,78066535111996","0,116730367666086"
"7726","-2,4203447863749","3,38199305007347","-3,68629150101524","-0,588576670985183","2,53658853205428","3,47888408280651"
"7734","2,46903664459522","-0,404501737481632","-3,11774900609144","0,819194868689347","-2,93427878084928","2,40921916968389"
"7746","-4,80022959373682","5,89887456562959","-3,02020253553339","0,251648838807136","0,115779760265652","0,389942325585301"
"7755","-1,61430061921929","0,974718641407398","-3,00346620710888","3,46292322332876","1,73354766511668","2,55448403811554"
"7764","-0,134762253644215","-0,0063203396481506","-3,0005947071199","-4,32184216700148","-3,87492680209698","-1,29315363577069"
"7775","-4,37143821144751","-1,00158008491204","-3,00010203561049","5,75080002368305","-0,866335019957827","-0,357826054966754"
"7784","-1,52023447112723","3,24960497877199","-3,00001750654307","3,84501949195313","-0,959721182094781","1,62427856432522"
"7796","-1,8947513939122","-1,187598755307","-3,00000300364793","-1,81884673925157","-2,68652072469662","-5,72042477400323"
"7804","-0,196286167590314","1,45310031117325","-3,00000051534451","-0,558732344885297","4,58775638301421","3,14040418859492"
"7816","-0,82368520566004","1,11327507779331","-3,00000008841914","-0,171637239402305","-2,31617659480333","-1,854316721702"
"7825","-4,52257074606691","2,77831876944833","-3,00000001517033","-3,4383444242531","-1,39661875067402","-4,68298018396675"
"7837","0,227235725458867","-1,30542030763792","-3,00000000260282","2,63658298741985","2,27779908981264","-0,0191103619054016"
"7845","-0,730775052244424","3,17364492309052","-3,00000000044657","-0,190066890599064","-3,71092121123041","0,994712008518987"
"7857","-4,50218857279704","4,04341123077263","-3,00000000007662","1,63442281858867","0,881745093736555","-3,17133900092909"
"7865","-3,32954275339327","3,26085280769316","-3,00000000001315","-0,497920921946475","0,265706470447454","1,1224648856295"
"7874","-1,29166856121897","-0,43478679807671","-3,00000000000226","-1,84576610302299","-1,61858999695713","-3,13598874805689"
"7886","1,71664009309893","-1,10869669951918","-3,00000000000039","-6,33823992384062","2,21090992103851","-0,591045337559648"
"7894","-3,18466174498244","3,22282582512021","-3,00000000000007","5,43857234129538","1,36489752359776","-0,886838942045676"
"7906","-4,04051018692987","2,30570645628005","-3,00000000000001","-0,329322525365342","2,80861720856062","0,754604502322749"
"7915","0,332987804017505","2,07642661407001","-3","-1,79397428602557","2,24366999709545","-4,96107061074311"
"7927","-0,707575680490194","0,269106653517503","-3","-1,2439013167169","-3,02254731855413","-1,81935215260694"
"7935","-2,71647429855584","2,56727666337938","-3","2,3106949489893","3,48649759420485","3,21986248932585"
"7943","1,40407320620119","2,14181916584484","-3","4,78825207249129","2,44794355181614","1,61425387916166"
"7956","-3,25323113393476","3,78545479146121","-3","-1,52909470015829","-4,6596496081489","1,16996900928748"
"7964","-2,27492769283024","1,4463636978653","-3","-0,469723286153663","-2,8014630475725","1,04703179759743"
"7976","-5,6215621073134","0,111590924466326","-3","-0,144294506764137","-0,542855743017059","-0,710277845419542"
"7984","0,9861443966477","0,777897731116581","-3","-0,0443258941935749","5,9323902095192","-1,91983153993283"
"7996","1,21633551579316","4,44447443277915","-3","1,67919306058337","-1,21232408880368","2,19205903134704"
"8005","-5,07504101664335","1,61111860819479","-3","-0,484167931245855","-0,365323671163737","1,32985236144829"
"8017","-5,2358372198077","1,9027796520487","-3","-3,53435086753058","1,58857119108432","1,09127281241271"
"8025","1,0707628285695","0,225694913012174","-3","-2,47133793056413","1,17736097983528","-4,14461984663378"
"8037","-2,32635112803429","2,55642372825304","-3","2,9336381455474","-0,64521216776052","2,57644213873512"
"8046","-0,290968398118515","0,389105932063261","-3","1,5939951684252","-0,194429261929775","-3,73366149930727"
"8058","-2,62508103848009","0,847276483015815","-3","-5,58876856556801","6,73604400790478","-2,4797181384988"
"8066","-5,69837702903821","0,961819120753954","-3","-3,79524497572585","4,82448385762892","-2,13274188328962"
"8074","2,74991802625305","0,990454780188488","-3","3,52694654708003","-2,54618235287363","-3,76002267483444"
"8087","0,60326351457319","4,49761369504712","-3","0,0834442902792425","0,931387763608445","-3,21030441232855"
"8095","-5,20953374210336","-0,125596576238219","-3","-3,35998581484407","0,979324279442429","-1,33490100572178"
"8107","0,0765331563588882","0,718600855940445","-3","2,66065400375797","2,69242795326311","-5,26254558403643"
"8115","-2,54446035188194","2,67965021398511","-3","-0,182672504303547","0,509998934093878","0,820519211127839"
"8127","-3,90006594868372","3,91991255349628","-3","-0,0561152484555068","-0,846316109187747","-2,21953955480756"
"8136","-3,19745204852177","-0,27002186162593","-3","3,36838103544849","4,84094497961243","1,38583547942768"
"8144","-1,2626911509462","0,682494534593517","-3","0,727544031589227","-3,23988033998146","-3,06311197768235"
"8156","-3,61887771483598","2,67062363364838","-3","-2,46931497479572","-1,6749691079528","-2,29417167027897"
"8165","-3,13576635440718","2,16765590841209","-3","-1,45135952553127","-1,20339626566586","-2,08139967699675"
"8177","2,31209097370164","2,04191397710302","-3","-4,52427243867714","0,637366653275356","-2,0225239480365"
"8186","-4,83465956441828","2,01047849427576","-3","-5,16105148537218","3,58938189773429","3,1636432126459"
"8197","0,15877121283695","0,252619623568939","-3","0,721764729574125","-2,61702835179398","1,5986975512583"
"8206","-2,52641937083851","2,56315490589223","-3","4,60733833448","0,211380509678396","-2,2809193996007"
"8218","-2,11548329686909","2,14078872647306","-3","2,80094943135934","0,0636977393432614","-1,35444074301066"
"8226","-2,02533415864715","0,285197181618265","-3","3,9388535666215","-1,67946362962324","0,625215307484402"
"8234","1,55569213661419","2,57129929540457","-3","1,59559729596207","-2,90340905979762","-4,99687364594607"
"8246","-3,21996971742577","2,14282482385114","-3","0,182961800243358","2,82374049897314","3,34061662937358"
"8255","-2,26763096658919","0,285706205962785","-3","-2,63660543447895","3,24822727350743","1,64766752496441"
"8267","-2,05871156738923","0,821426551490696","-3","-1,50274955680692","2,37614279400686","1,17921483494108"
"8275","-2,01287985538158","4,45535663787267","-3","-2,84724941352956","2,11334746843476","1,04959019222821"
"8287","-2,00282551943385","-0,136160840531832","-3","-2,2602669270083","3,7328147144237","-0,709569916962737"
"8296","-2,00061984858017","0,715959789867042","-3","-2,07995151393749","-0,176489262810302","-0,196343726751805"
"8308","-2,00013597933808","2,67898994746676","-3","4,74667786614135","2,34413326017225","-5,22420566590968"
"8316","-2,00002983047953","2,16974748686669","-3","2,84375320453069","2,10370166454395","-3,61545567119938"
"8324","-2,00000654406413","0,292436871716673","-3","0,56638337311538","0,33259121689037","0,276282292468724"
"8337","-5,5612512555528","-0,926890782070832","-3","-10,9828697491102","0,798881974659817","-0,646842381983612"
"8345","-4,34249963473999","3,26827730448229","-3","0,93335776828562","4,33671158965796","0,821013488785846"
"8357","-2,29451097823086","2,31706932612057","-3","-5,48451961644302","-1,69316842472745","1,95047298679104"
"8365","-2,84523328233709","2,07926733153014","-3","-4,45603024621236","-0,51022206894391","1,2630035517885"
"8377","-2,96604803737968","0,269816832882536","-3","0,938340519963039","4,94222409282323","1,0727752068861"
"8386","-2,99255178514361","0,817454208220634","-3","-0,404560307070852","0,187956084879493","-2,42644635981639"
"8398","0,562883772752794","0,954363552055158","-3","-2,50989616578679","-0,943361014121647","2,0518746190915"
"8406","-9,56026678152265","2,73859088801379","-3","-3,8494447835446","1,41438449781528","-0,432229721259416"
"8414","-6,78103384571286","2,18464772200345","-3","-3,260941323707","1,12487128434823","-0,119601454706858"
"8427","2,7317851796538","0,296161930500862","-3","-1,38734913027773","-2,35968790398736","-1,75638661211901"
"8435","-0,181339290256019","-0,925959517374785","-3","1,57381959897643","-1,40973051786157","0,513993639250444"
"8447","-4,38165605304737","3,2685101206563","-3","-1,20934720402029","3,97250637682748","1,86551811482777"
"8455","-1,52247601104807","2,31712753016408","-3","0,628500090468988","-2,50157701125917","-5,65367184204644"
"8464","-1,89524313193413","2,07928188254102","-3","0,193069224432213","-1,4524876073605","-3,73429243065146"
"8476","-3,75764386261129","0,269820470635255","-3","0,0593090215707701","0,562305071769716","1,96669112502176"
"8488","-1,38558328059387","2,56745511765881","-3","1,7110287167975","0,169445905620512","0,54419931796059"
"8496","-3,64583718684092","0,391863779414703","-3","1,21842123013648","0,0510610989888315","0,150584346418655"
"8508","0,419569228942823","-0,902034055146324","-3","1,06709691556371","1,71404524068347","1,76495982848405"
"8517","-0,688581872602629","-0,225508513786581","-3","1,02061153155923","1,21517152971933","1,21167056261753"
"8525","-2,71230753024057","1,69362287155335","-3","1,00633166561604","1,0648401313584","-4,11130481677888"
"8537","-3,93688743854674","1,17340571788834","-3","1,00194502719791","-0,679119379394496","0,862368752899928"
"8545","-1,42490485620128","2,79335142947208","-3","1,00059749377652","-0,204646915070094","0,238624398711044"
"8558","-3,65446336102975","3,94833785736802","-3","7,77142175191633","-0,0616686272228706","-1,65726262532433"
"8566","-3,14357295874457","3,23708446434201","-3","5,85135428989004","-0,0185833223151729","-1,18186987670396"
"8578","-1,25087142077581","-2,1907288839145","-3","0,1830992501654","-3,40291674356551","-2,77361678738659"
"8586","1,72558996945644","4,70231777902138","-3","-1,94375365929196","-2,42275716520834","2,95580975791626"
"8598","-4,96332327502486","1,67557944475534","-3","1,09570699425853","2,96858090617518","-1,90539549151825"
"8607","-3,43070422020858","-1,58110513881116","-3","-2,35621882931356","3,29187371242634","2,1960536025338"
"8615","-3,09448577708281","-0,395276284702791","-3","-6,49504612557193","0,690636873588381","-2,11562615576194"
"8627","-3,02072782585371","-0,0988190711756977","-3","2,00478387015046","-2,49054079270703","2,13788107984315"
"8636","-1,22392225868863","1,72529523220608","-3","0,61585045544756","0,249496472125188","-0,408431038951977"
"8648","-3,61037278560677","2,93132380805152","-3","0,189183377381474","-3,32213315147636","1,61027575655343"
"8656","-1,35327567481779","2,23283095201288","-3","0,0581153264739429","-2,39841370894581","1,16886823063311"
"8664","-1,85812479294119","2,05820773800322","-3","1,71066202506579","1,27725819422911","1,0467272032535"
"8677","-1,96887611367903","-1,48544806549919","-3","2,91111813782294","-1,31376738993578","-0,710362129134514"
"8689","-0,212547284662309","-0,371362016374799","-3","0,587077237160742","-1,09455116485882","-1,91985486191747"
"8697","-4,38850230962977","3,4071594959063","-3","-2,51246503232164","2,36882461706952","-1,25453126935358"
"8709","-3,30460281917624","0,601789873976575","-3","1,92100429272879","-1,9848330261019","0,652861065748238"
"8713","-3,06682227087894","0,900447468494144","-3","1,28292372140026","2,10054566350954","-1,54263999403879"
"8726","0,546590678258337","0,975111867123536","-3","1,08691146475964","1,33164018251372","4,01972290208282"
"8738","-4,22196635067196","-0,756222033219116","-3","-4,05173028384559","-0,598721427184441","-0,887710208343051"
"8746","0,293180841760825","1,56094449169522","-3","-0,937462393424169","1,51823873967275","-0,245636584098377"
"8758","-4,27755815636705","1,14023612292381","-3","4,09763961103967","1,15616688694468","1,65532229699486"
"8763","-3,28026443556638","1,03505903073095","-3","-0,741244251666213","4,44437639398939","2,90462489584401"
"8779","-3,06148303578344","1,00876475768274","-3","-0,227703153832868","1,736592274463","2,25031701473867"
"8787","2,32838688341215","2,75219118942068","-3","-0,0699482338633808","1,92062429659298","2,06926473962362"
"8795","-6,61170955773255","3,93804779735517","-3","-0,0214874293054256","-1,42123601647642","-3,1507096581192"
"8808","-1,01169419940102","1,48451194933879","-1,17157287525381","-1,69941028492104","-0,428277524074975","0,128173191394587"
"8816","-1,78319032602045","1,8711279873347","-1,85786437626905","-2,90766171072579","1,5696005768139","-1,68782536643035"
"8828","-0,171812448278173","-1,53221800316633","-3,80404050710668","-5,66444411142342","-0,527014063089174","2,25625701331602"
"8836","-4,37956610123081","1,36694549920842","-3,13795154162482","-1,12568222868477","1,53984715094057","-2,09896738577526"
"8848","-1,52201752768016","2,8417363748021","-3,02366874264227","-0,0386083801499111","2,86133680781619","3,86578261969992"
"8857","-0,114517642129948","0,460434093700526","-3,00406091422878","4,3737589781684","5,65687342070543","0,792985195907035"
"8865","-0,805747228025885","0,865108523425131","-3,00069674273039","-2,34923257142824","-3,99400716443387","-0,780574591874117"
"8877","-2,73801069063446","-0,783722869143717","-3,00011954215357","-6,49290001388149","4,89241474531962","-0,215991293757711"
"8889","-3,9425260716721","5,05406928271407","-3,000020510191","5,39106223893004","-3,2243703588339","1,66352538825758"
"8898","0,354483078123288","-1,73648267932148","-3,00000351899244","6,42732103253438","-1,67029530553904","-3,98627293719088"
"8906","-4,26410997274625","3,06587933016963","-3,00000060376365","3,05284028382216","2,19532896102604","-0,826325839877606"
"8914","-3,27731423907388","2,26646983254241","-3,00000010358947","-3,75500617706946","-0,338456075515644","-2,67523488090205"
"8926","-1,28021092618823","0,316617458135602","-3,00000001777314","-1,84631158209675","-0,101990892680405","1,25974090234675"
"8939","-1,84209620713286","7,8291543645339","-3,00000000304939","0,432830717733653","3,36658271764234","0,348580481775739"
"8947","-3,74598475119841","3,95728859113347","-3,00000000052319","-1,55984808974481","0,713149804170691","-1,62683688909757"
"8959","-3,16365047195212","-4,76067785221663","-3,00000000008977","-4,55759908933337","-2,48375671036062","0,549841093898144"
"8963","-3,03590083701728","-1,94016946305416","-3,0000000000154","-0,0928604584699446","1,95019920611646","1,87543739504504"
"8979","-1,2272508393786","0,514957634236461","-3,00000000000264","-5,79976405338503","1,28633454166359","-0,48105132612016"
"8988","-0,0498531733471488","3,62873940855911","-3,00000000000045","0,525558329588837","-2,31103230894865","3,31347306024739"
"8996","-2,57218636433925","5,90718485213978","-3,00000000000008","1,16144649877757","2,00224825224706","-1,08313524349307"
"9008","-0,344898525214461","-0,773203786965055","-3,00000000000001","5,43521392607396","-0,396639323719218","4,87016350133518"
"9016","-0,856287054992803","0,556699053258736","-3","-1,33035419844217","-3,51684074096351","-1,65238642608212"
"9029","-2,74909786972523","2,63917476331468","-3","-3,79429120614035","0,940229611658699","4,71264710164644"
"9037","-3,94495832258327","5,65979369082867","-3","5,91285863975409","0,283330288196257","-1,69597248603206"
"9049","-1,42667540711339","0,914948422707168","-3","-1,18362630480646","0,0853792001591564","-0,469289284136246"
"9058","-1,87422686582142","6,97873710567679","-3","-2,05640824685941","-1,67293010370009","-1,85314805872008"
"9066","-1,97240850736673","5,4946842764192","-3","2,06110058102134","3,89319339456859","-6,40594872914069"
"9078","-5,55519693376777","-3,6263289308952","-3","-5,44527824455512","0,87183950401701","5,67400609734311"
"9086","1,00070326256886","6,0934177672762","-3","4,71288163970565","-4,13459531136114","-2,15324861131982"
"9098","-4,12234536160693","1,02335444181905","-3","1,14056177470342","2,45273287365131","0,404178718878968"
"9107","-1,46558970476863","0,00583861045476253","-3","-0,649630317324697","4,83508565279584","-3,33474433152038"
"9115","-1,88276369337284","0,751459652613691","-3","1,49324932359503","-3,2416459988535","2,80054123459737"
"9127","1,58696854526878","-0,812135086846577","-3","-2,23409762301954","0,0231572334069355","-0,22506762226248"
"9139","-3,21310845246148","5,04696622828836","-3","-6,45753165748599","1,70563664540092","3,38430581851635"
"9148","-7,60800050589217","3,51174155707209","-3","2,01630795641262","1,21263767022885","-6,23341101818926"
"9160","-0,230255615845551","-0,372064610731978","-3","2,31220009655441","6,16005179755163","1,27516482811754"
"9164","-1,61176216640324","0,656983847317006","-3","-1,98252376808908","-0,445061775571242","-4,81702736437328"
"9176","-0,134205380329167","2,66424596182925","-3","-4,68744102037175","3,96185959937536","1,66708962432501"
"9189","-4,37131604731389","-1,33393850954269","-3","-5,21117531510142","-1,80612692031274","2,18458908669364"
"9197","-1,52020767135941","3,16651537261433","-3","0,7063671678583","-0,544261161854348","4,774369214752"
"9209","-0,114120604736651","4,04162884315358","-3","4,60260835059662","6,63062510618457","-3,40218540250651"
"9217","-0,805660127911987","3,2604072107884","-3","2,79949642549062","1,39539994230723","1,78187974557845"
"9229","0,823258236909006","1,3151018026971","-3","0,552788113329885","-3,27816636746645","1,21635244032857"
"9238","-6,94189729005978","-1,67122454932573","-3","-2,52299832363675","0,012152127381944","-4,1100093034038"
"9250","-1,08412916290576","-0,417806137331431","-3","0,224959014365717","0,00366194141370401","2,58601915557338"
"9258","-1,79908075266033","3,39554846566714","-3","-1,62370429145307","1,69976190307158","-0,284427614081759"
"9266","-1,95592332202692","2,34888711641679","-3","0,501213551100406","1,21086736602165","-0,0787034179506649"
"9279","-3,77095558477568","-1,4127782208958","-3","-1,53884153651942","1,06354310781672","-1,74506979504211"
"9287","-1,38850354084209","-0,353194555223951","-3","-1,165526973067","1,01914818128184","3,96370894125321"
"9299","-1,8658529092217","-0,0882986388059877","-3","-1,05084830503176","4,40308695906589","-4,34979357101154"
"9307","-1,97057146988379","5,2279253402985","-3","-2,7084296654925","-1,67316676522823","-0,926914935172178"
"9315","-1,99354411355643","3,55698133507463","-3","4,55361538113396","-0,504194737024082","0,743515151357282"
"9328","-5,55983355927838","-2,11075466623134","-3","2,78444625324685","-0,151934844825888","0,205736647262045"
"9340","0,999686102430051","-0,527688666557836","-3","-2,83745425959359","3,35153252758284","5,22680476287529"
"9348","-0,561318681255808","3,36807783336054","-3","-3,25725794928134","5,80458977938195","1,89288293866139"
"9360","-0,903764246207799","5,84201945834013","-3","2,6922110228142","-2,2508356739031","-1,47622400330537"
"9365","-0,978888272848123","4,46050486458503","-3","3,21264061428924","-7,47290403698161","3,03810074311691"
"9377","-2,77599352292952","-1,13487378385374","-3","-2,70591704194417","-1,64921361637708","-2,88262491130322"
"9389","-0,389608738978132","-1,28371844596344","-3","-8,29527962809919","-0,195635064826933","-3,24422944133687"
"9397","-0,866095362162287","-0,320929611490859","-3","-2,62665932185614","2,63970542589342","-0,620996411578906"
"9410","0,810000251954608","3,41976759712729","-3","3,88592489775438","-0,204546964063184","0,828165277537684"
"9414","0,177693878193568","2,35494189928182","-3","3,57933811445458","-5,15761373127377","0,2291600208394"
"9430","-3,52226820942237","-1,41126452517954","-3","-0,900461520661461","-1,95152034928571","-1,65988149511895"
"9438","-2,33394772548564","3,14718386870511","-3","1,4161963738405","-3,6840494726807","-1,18259453912702"
"9450","-5,63450963229051","4,03679596717628","-3","-3,95057710506715","3,58850107403138","4,11935038730657"
"9459","-2,57794578775791","-1,99080100820593","-3","-0,906389103106848","-1,61729378061105","-2,58343440221571"
"9467","-2,90741181919357","-0,497700252051483","-3","2,41437547713285","2,21130052493605","0,285142836211175"
"9479","-2,97968845950025","-0,124425063012871","-3","-0,258326915258902","-2,03230158683281","0,0789013256902515"
"9488","-1,21491924400023","1,71889373424678","-3","1,613453991025","-1,3110754037908","5,19170840503114"
"9500","-3,608397748449","1,1797234335617","-3","1,18844720640161","-1,09373995746776","-1,56341235432334"
"9508","0,42778250911057","2,79493085839042","-3","2,75069873366459","4,06772747541182","1,29068309856787"
"9516","-0,686780083526421","2,19873271459761","-3","-2,84782117525688","-2,47288293380221","1,08043436102939"
"9529","-4,49253717257384","0,299683178649401","-3","-4,95325211863337","0,254817519442138","2,74554876097168"
"9541","-1,54680056662636","-0,92507920533765","-3","-3,60002039360682","0,0767871170252014","0,483007439806912"
"9549","-1,90057933350396","-0,231269801334412","-3","0,201298570176779","3,42045596773461","-2,58963986413247"
"9557","1,58306023761115","-0,0578174503336031","-3","4,44745610174544","-2,66793276050133","2,00671765844094"
"9565","0,347283982142415","-0,0144543625834008","-3","-0,633783967127889","1,8946993019248","-2,16801694063397"
"9578","-3,48506436510109","3,49638640935415","-3","3,19092672289684","-0,429048295647099","0,400092202883686"
"9590","-0,545161218814279","0,624096602338537","-3","4,05865086556403","-0,129290096534348","0,110708743818754"
"9598","0,880405208543972","0,906024150584634","-3","-1,75322122186036","-0,0389604835433495","3,47721785085527"
"9610","-1,58748593809044","0,976506037646159","-3","-3,92419191655773","-1,71039882195872","0,685466186186363"
"9615","-1,12887978055756","0,99412650941154","-3","0,794525726658836","2,18324410353594","-2,53361789388351"
"9631","-2,80889792343641","0,998531627352885","-3","3,62968981777983","-0,342097745713036","2,02221939006133"
"9639","1,38379776517249","2,74963290683822","-3","4,19343469729797","-6,89772191063785","-2,16372748629735"
"9647","-3,25767906063575","0,437408226709555","-3","-0,0190073643073576","-3,17454572644407","-1,32201279411784"
"9660","-0,495278547176622","2,60935205667739","-3","0,68697067112476","2,04337733633081","2,35748030650176"
"9668","-0,889276685848854","2,15233801416935","-3","0,903840380189316","0,615754579963671","-3,79425000669654"
"9680","-8,09820970288641","-1,46191549645766","-3","0,970460683299677","1,88421087333665","4,39668422681141"
"9688","-0,337795302567701","3,13452112588558","-3","-4,08750285158575","-2,13086730323286","-0,783401965322656"
"9700","-1,63535369485927","2,2836302814714","-3","-0,948451384538535","0,357881054109896","-0,216773650825753"
"9709","-0,139380774008058","2,07090757036785","-3","-0,984164757716625","1,80650285447364","-1,78327494358085"
"9717","-0,811201579819972","2,01772689259196","-3","4,08329309082459","-0,45562555354705","-1,21673850288392"
"9729","-0,958582329576253","0,254431723147991","-3","0,947158186243853","3,26001788588516","0,663318629457642"
"9737","-0,990913994822126","0,813607930786998","-3","0,983767499552979","2,3796957959136","0,183545621958002"
"9750","-0,998006756796128","2,70340198269675","-3","-4,0834151247379","-1,28289867994461","0,0507885559727084"
"9758","-4,56081255204085","0,425850495674188","-3","-2,64000522578021","-5,48256595427238","-3,4325302436958"
"9766","-3,34240339411756","0,856462623918547","-3","2,88182516354743","-0,350783561732522","-0,673100764373009"
"9778","-1,29448986543565","0,964115655979637","-3","-5,19315949226899","0,894294322995368","2,53703950596662"
"9790","-3,62585356068981","2,74102891399491","-3","1,40471100843122","-3,12782874045798","-0,297980678704274"
"9799","-1,3566717712453","2,18525722849873","-3","2,12432335603753","1,05745510726992","-0,0824536603908785"
"9811","-0,0782449019266465","0,296314307124682","-3","-3,7330472600829","0,31865520568836","-3,46939944107311"
"9815","-0,797789892378299","0,82407857678117","-3","0,853243539336346","-3,30129274859096","2,76328107826362"
"9828","0,824984770537734","-0,793980355804707","-3","0,262108265200947","-2,39213362875856","3,21120603887338"
"9840","-5,16089362161548","1,55150491104882","-3","1,77332670732587","-0,419507764223705","-2,8347252779101"
"9848","0,08720358716979","1,13787622776221","-3","-0,455250974120219","0,873584862395064","-4,9542671495828"
"9860","-6,10336934511033","2,78446905694055","-3","-3,52546785451299","1,9619058611579","1,6291142673623"
"9864","-2,68080192946729","0,446117264235138","-3","-2,46860915381464","1,28986224373294","-2,99579477225853"
"9881","-2,92997589454078","2,61152931605878","-3","1,24166684781604","-0,611310857774831","-3,99883637952108"
"9889","2,35723627436131","2,1528823290147","-3","-3,00419090837611","-3,58153020283252","-3,27638609315613"
"9901","-3,04413090004774","0,288220582253674","-3","-0,615668303254381","-0,777922421593957","2,0933975068142"
"9909","-2,22905631019683","-0,927944854436581","-3","0,810872578032374","-2,63173719675013","2,30255192078599"
"9918","-2,05024924867044","3,26801378639085","-3","-1,44371724127298","1,20694812292011","-0,362865287325322"
"9930","-3,79164834342488","0,567003446597714","-3","3,94212295746802","0,363703669044854","1,62288416803305"
"9938","-3,17366792660771","2,64175086164943","-3","-0,789017482166413","-1,58905936510216","-2,27422676739978"
"9946","-3,03809841703418","0,410437715412357","-3","3,14324046984951","-2,87616649478657","0,370703086030869"
"9959","-6,56960766361486","2,60260942885309","-3","-4,42004565529778","1,13329140907327","1,82586846148863"
"9963","-1,78308300256276","0,400652357213272","-3","0,642204194455207","-4,7544673858273","-0,494767450370802"
"9979","2,60883600578909","2,60016308930332","-3","1,89008854616061","1,56728122796547","-1,86019807308753"
"9987","-2,98893618631527","3,90004077232583","-3","-2,11219240440955","3,86960383626699","-1,2380237540758"
"9996","-3,99757287487688","1,47501019308146","-3","0,351154668781889","-2,5325858266715","-2,78915501877321"
"10008","-4,99946754920761","1,86875254827036","-3","3,49349046382888","-3,16049026098409","2,95151020379954"
"10016","-0,658008463637273","0,217188137067591","-3","-0,926833098926891","-2,34970398295957","1,53999863445211"
"10028","-1,70560048589639","2,5542970342669","-3","-1,97752382687208","-3,80403876283379","-0,573869940293851"
"10036","-5,49666590003807","0,388574258566725","-3","2,08533312134663","-1,54363191315491","-1,88208637090787"
"10045","-0,767081396611449","-0,902856435358319","-3","4,71902307166947","-3,56113572190339","0,479211500799521"
"10057","-5,29077819033513","3,27428589116042","-3","-6,62878984359491","-1,47043512405448","-1,59069023111311"
"10065","-2,50253967173421","2,31857147279011","-3","-0,729110474405587","-0,141761669302096","4,00642701341428"
"10077","-2,89086959570236","2,07964286819753","-3","2,46883377852501","-5,83735231840018","-0,891389288119758"
"10086","-1,19543459775857","0,269910717049382","-3","-1,93440739713444","-1,15635385739964","-3,69323846250521"
"10094","-0,0428734824774675","-0,932522320737655","-3","-1,28704102704878","3,35020089529798","-0,745240834085903"
"10106","-2,57065519402636","-0,233130580184414","-3","3,9902523939247","-1,68910353588842","-0,929506081269815"
"10114","-2,1251875345633","1,6917173549539","-3","-4,1598516827814","2,18966125894638","-2,70378568701403"
"10126","-2,02746302666495","1,17292933873847","-3","2,41494284935348","1,35849441793113","-3,91803510726915"
"10135","-0,225399793972937","1,04323233468462","-3","-1,95096217581604","-0,590629129126862","3,6391399660928"
"10143","-0,830072010068709","2,76080808367115","-3","2,09349260683724","1,52067728565385","3,45356326687027"
"10155","0,817902878063173","0,440202020917789","-3","-2,04970861986165","4,55421853790422","4,12550461907436"
"10163","-5,16244721241464","2,61005050522945","-3","-4,70807956509438","0,0710338731837616","3,31143621805635"
"10176","-3,47438705189978","0,402512626307362","-3","-0,139086623251703","-0,978594539555773","-0,360406930518005"
"10184","-3,10406870221765","2,60062815657684","-3","-2,42834518589134","-0,294891236652805","-1,0997275084434"
"10196","-3,02283008091788","2,15015703914421","-3","-0,438773997718515","-0,0888629947742157","-2,0275954070196"
"10204","-1,22438344108259","2,03753925978605","-3","-0,827596732864712","-3,42409493196252","-1,28434394833267"
"10213","-0,0492241375878206","-1,49061518505349","-3","0,745770188771823","-2,42913903421948","0,644611656697382"
"10225","-6,13329818951106","3,12734620373663","-3","-1,46371607340336","1,26799937579076","0,178369251511357"
"10233","-2,68736757240207","-1,21816344906584","-3","5,62878905914794","2,08075935860524","0,0493562124639919"
"10245","-2,93141623305068","3,19545913773354","-3","2,11472933719866","-2,07163906974056","-1,7096346610532"
"10254","-2,98495442995118","4,04886478443338","-3","-1,35037534726156","-4,72024623915373","2,25022220535459"
"10266","-4,77732428669012","1,51221619610835","-3","2,9707966957174","-5,21704014847149","-2,10063726587735"
"10274","-4,17052558537199","3,62805404902709","-3","-2,78020918366442","2,42788881516908","0,418736703070036"
"10286","-2,25678415566863","1,40701351225677","-3","5,22437495066501","-2,66569293442096","0,115867827599648"
"10295","2,5049177726811","1,85175337806419","-3","1,99049718598929","-0,501942560948903","0,0320615636848444"
"10303","-3,01173325805867","1,96293834451605","-3","-3,08134782934585","-0,849914578317002","0,00887169361169984"
"10315","-4,00257398454292","1,99073458612901","-3","-3,33217972426618","-0,954773020066362","0,00245486927317524"
"10323","-3,21993975811676","1,99768364653225","-3","0,976386217299103","0,712287177958388","0,000679282154247576"
"10335","2,29362542568507","0,249420911633063","-3","1,99274607151039","-1,4840166555169","1,72347988651775"
"10344","-6,61933535565086","2,56235522790827","-3","-0,387847441311013","0,552804058198205","1,20019272766933"
"10356","-4,57461692945401","0,390588806977066","-3","-0,119143029297035","1,865241262879","4,50197879188984"
"10364","-4,1260566406294","-0,902352798255733","-3","10,1202577107434","-2,13658363585128","3,41560966220798"
"10372","-4,02765368688644","1,52441180043607","-3","0,49446560498193","0,356158485337202","-2,05487322084061"
"10385","1,33580819987195","1,13110295010902","-3","-0,15529533734373","0,107325365041536","-2,29189193972185"
"10393","-4,04883168581793","2,78277573752725","-3","0,645104307614874","-1,66631681143209","2,08910691383897"
"10405","-6,7913373654465","2,19569393438181","-3","-0,801830118662125","-2,89944737667174","-0,421927244602105"
"10413","-0,0511000658894241","0,298923483595453","-3","-7,01755276100023","4,52359272668951","-3,56333452352859"
"10425","-3,35308481147704","2,57473087089886","-3","0,151465270785731","-0,636853365345109","1,01399655863692"
"10434","-4,85808292227863","2,14368271772472","-3","6,12495734005824","-0,191910407101159","2,00387296081581"
"10446","-5,96886692829866","-1,46407932056882","-3","0,57433794186867","-3,45514740326362","-2,16880409144159"
"10454","0,129329460303548","3,13398016985779","-3","-0,823568870267253","0,958820380268362","3,84645823921704"
"10462","-1,53287815795105","-1,21650495753555","-3","4,82543616533962","0,288932460009027","-0,935653939902415"
"10475","1,66372471610071","1,44587376061611","-3","1,86794700175427","0,0870673675329076","3,18768084548837"
"10483","-3,19627006057518","-0,638531559845972","-3","0,266625028409968","-5,06973820428679","0,605348958401915"
"10495","-5,82368167218215","1,59036711003851","-3","0,774714213840085","3,17093542537707","-0,832495054205917"
"10503","0,941804398908616","6,39759177750963","-3","-0,762015193488509","-3,44178208583358","-1,95365002867181"
"10516","-4,13526630512482","2,84939794437741","-3","-3,61970289252674","-0,735810501512708","-1,26388266493578"
"10524","-5,02967405786423","2,96234948609435","-3","-0,804747705486479","0,778269691928077","-1,07301846459397"
"10536","1,11598989078088","-0,509412628476412","-3","0,75278919173116","3,63184184374553","0,703087124784429"
"10544","-4,09705434716413","-1,1273531571191","-3","0,231249649144894","-7,70020862750535","-1,52874203786073"
"10553","0,320583423775673","1,46816171072022","-3","-3,31458142042016","3,37826527985012","-4,59289103949589"
"10565","-0,710296892522462","8,11704042768006","-3","4,36741135191133","0,0180118382516876","1,72910995561985"
"10573","-0,936446354716324","2,27926010692001","-3","2,72724615406892","1,70408612383242","0,478458689600673"
"10585","-2,76668282331849","1,06981502673","-3","0,530593520075337","1,21217043359068","1,85568530726733"
"10594","-3,9488160233609","3,5174537566825","-3","2,54861236496716","-4,03203944717377","-3,93310073565196"
"10606","-4,98877151051691","3,12936343917063","-3","-2,90990017741521","-4,31099641020857","-2,53490458593454"
"10614","-0,65566201918658","-0,467659140207344","-3","0,106106460526542","0,00225907003055004","6,46844719929817"
"10626","-5,26633555438192","-1,11691478505184","-3","0,0325948911571675","2,69933915957535","-1,21012841857249"
"10635","-0,716552656297428","3,22077130373704","-3","0,0100128392208676","1,51208156800793","1,38843961683147"
"10643","0,0621812865423622","2,30519282593426","-3","3,38869495233486","-5,64032215623011","-2,33909946817127"
"10655","-2,54760879461498","2,07629820648357","-3","-0,959025279063299","-0,398322066807443","-1,37053963786618"
"10663","-5,68138154856579","-1,48092544837911","-3","-5,37303206088171","-0,818689413629469","-1,10253131040183"
"10675","-4,36885322858456","3,12976863790522","-3","-0,343353678408568","-0,945363579223197","-2,75166316532552"
"10684","-0,519667390278951","2,28244215947631","-3","2,58733458155119","2,41378104165912","1,23859257878593"
"10696","-3,4558768104482","-1,42938946013092","-3","3,18042357330082","-3,66994419335263","3,78931241716452"
"10704","-3,10000801633281","-0,357347365032731","-3","-6,10143291297007","-0,804565234268672","-0,951466650393461"
"10716","-3,02193926758632","1,66066315874182","-3","2,81850764119791","-4,33842419215729","-0,263278506532457"
"10725","2,33706180112036","1,16516578968545","-3","1,55862817720224","-3,40332287708295","-1,79614321274394"
"10733","-6,60980649687934","-0,708708552578637","-3","-3,90682341556647","1,97443726550185","0,502992666769686"
"10745","-1,01127671525502","3,32282286185534","-3","0,799861164261448","0,594980069254761","0,139182133235188"
"10753","-3,56372365037241","0,580705715463835","-3","5,32413836513172","-1,51936616642821","-1,68477910331109"
"10765","2,21820780337202","0,895176428865959","-3","0,328334002101073","0,542151780297247","0,533808015264215"
"10774","0,486619536560956","4,47379410721649","-3","0,793670621121044","3,56068969631142","0,14770898903887"
"10786","-5,23512252528078","-0,131551473195878","-3","2,62942713752649","-2,62567450545402","1,7641641938747"
"10794","0,0709196147456885","0,717112131701031","-3","2,19335400443323","0,208775063968206","-0,511841519564249"
"10802","-6,10694164302684","2,67927803292526","-3","-1,32622260050079","1,76157101800009","1,58166124138977"
"10815","2,66028912727789","3,91981950823131","-3","-0,407402914949611","2,92815143094122","-0,562341560472804"
"10823","-1,19702374318248","-0,270045122942171","-3","-1,81795983589104","-2,81628459345831","-3,60218829876383"
"10835","-2,82384701137197","-1,06751128073554","-3","-6,32969810417992","5,24731154000903","1,00324540523302"
"10843","-2,18073151228732","-0,266877820183886","-3","0,362767651053145","-1,41876678584552","-1,44568581748015"
"10856","-2,03964799177855","1,68328054495403","-3","-3,96698989836247","1,2711249656303","-2,84661678886671"
"10864","-3,78932269173984","1,17082013623851","-3","0,088569043565925","-2,31561558680697","4,65890199159341"
"10876","-3,17315773655994","4,54270503405963","-3","1,02720756418224","0,302208712184316","-0,71084419204754"
"10884","-3,03798649404652","-0,114323741485093","-3","-1,3772611999344","-1,60759035331384","-1,91998825261881"
"10896","-3,00833329055123","0,721419064628727","-3","-1,11589103706469","2,21422457116744","-1,25456817963795"
"10905","-1,22120320639082","0,930354766157182","-3","-2,72841017149239","-0,332762042270338","0,652850852374453"
"10913","-1,82915138329008","2,7325886915393","-3","6,24028711242611","-1,7989334514518","0,180649103497752"
"10925","-0,181895159354385","2,18314717288482","-3","-4,46866250932804","0,457906529505536","3,49657091324061"
"10933","-2,60115308690679","0,295786793221206","-3","-1,06553999060419","0,137986282672882","-1,03247058880925"
"10946","-7,47375274248175","-0,926053301694699","-3","0,672676292800615","0,0415810061202683","-2,00898487416705"
"10954","-1,98142991063568","3,26848667457633","-3","-3,17897937194515","0,0125300865889155","-1,27919426358737"
"10966","-0,995926184973913","0,567121668644082","-3","-0,669361649703691","1,7024342440584","2,36932853971657"
"10974","-3,56035612641004","0,891780417161021","-3","-0,89843105700809","-0,486985754306007","-3,79097150487564"
"10986","-3,12292817567778","-2,52705489570974","-3","-0,968798990887631","-0,146749062573747","0,951007567424436"
"10995","0,534282440342104","3,86823627607256","-3","-0,990415348029095","1,65443681164793","-3,1834323727519"
"11003","-2,44404156149882","-1,03294093098186","-3","4,08137296918551","1,19720903080614","2,8424104756355"
"11015","-2,09741165752906","1,49176476725454","-3","-2,43905076055058","-4,03654794011018","1,50980985854257"
"11024","-3,80199460111408","2,87294119181363","-3","1,94355645577226","-0,915038191017399","-2,30551534206241"
"11036","-1,39531272784564","3,96823529795341","-3","-2,09576757329612","0,724260934609182","0,362045284724537"
"11044","-0,0867217652595331","1,49205882448835","-3","-1,33660933187199","1,91690835100766","0,100180854284254"
"11056","-2,58027441500916","1,87301470612209","-3","-2,79621272338168","-0,422355785435566","0,0277208514751379"
"11065","-3,90792266200645","0,218253676530522","-3","-2,2445889432914","1,571385042964","-5,16220518749247"
"11073","2,14269911420797","0,804563419132631","-3","1,31048371667375","2,87084048641267","-0,151715790765246"
"11085","0,470054811077852","0,951140854783158","-3","-1,29024147170991","-1,13489635691665","0,95801901538688"
"11093","-7,01938132339896","0,987785213695789","-3","0,603650144127384","1,35666693265782","0,265091598845267"
"11105","-2,88175213966919","0,996946303423947","-3","1,87824511016372","1,10747858136667","-1,64993893728907"
"11114","-2,97405936499455","-0,750763424144013","-3","1,26978850894701","-0,666270640980723","0,543448570583549"
"11126","0,566940549087791","1,562309143964","-3","-3,99555220269151","-1,89943346359441","1,8736685322157"
"11134","1,12437263399548","1,140577285991","-1,17157287525381","0,772604528383702","-1,27103671198357","-0,481540784750978"
"11146","-5,09521538211676","2,78514432149775","-3,68629150101524","-1,45547282059308","0,616983773485905","1,59004569943165"
"11155","0,101611756872565","0,446286080374438","-3,11774900609144","0,552892652021126","-4,91005235079222","-0,560021513216878"
"11163","-2,53895873163653","-0,888428479906391","-3,02020253553339","-1,52296621034935","3,21905541471846","3,29162137168761"
"11175","-3,8988590302471","-0,222107119976598","-3,00346620710888","5,61058798302855","3,36735209963241","0,634110141460322"
"11183","2,14468744924114","1,69447322000585","-3,0005947071199","0,416328588585504","-2,6839351646664","-2,54782852622811"
"11196","-1,31013390771932","4,67361830500146","-3,00010203561049","-2,5649173861927","-4,90475651928704","2,01828719332168"
"11204","-2,84866056390009","1,66840457625037","-3,00001750654307","-1,4807276731293","3,22065126901617","1,28176829042615"
"11216","-0,405550077632967","1,91710114406259","-3,00000300364793","2,23794415443726","3,36783299690738","-2,36861628570156"
"11224","-2,6502174047389","-1,52072471398435","-3,00000051534451","1,38028461954436","4,11084338094607","-1,37870717966468"
"11236","-5,70389132164916","-0,380181178496088","-3,00000008841914","-2,26879930107818","-1,76123191036455","4,06508443579735"
"11245","-0,812541492133044","1,65495470537598","-3,00000001517033","1,99585607790002","-0,530732428075422","4,29471746536963"
"11253","-5,30075100288277","-0,586261323656005","-3,00000000260282","-3,77251118082223","-1,85859016271569","-1,81161699173188"
"11265","-0,724102548410585","5,103434669086","-3,00000000044657","2,53393015172386","0,439929481148785","-2,22458097650734"
"11274","-1,72009988169372","0,0258586672714998","-3,00000000007662","3,16401824257078","0,132569050298281","-1,33885144633245"
"11286","-0,15797197637422","-0,993535333182125","-3,00000000001315","-1,02804381821699","-1,65870983912422","-1,09376293187983"
"11294","-0,815280026512739","3,25161616670447","-3,00000000000226","-2,00861479308497","-2,89715507952478","2,42063888680661"
"11306","-0,959477039186645","4,06290404167612","-3,00000000000039","0,38297272161949","4,52428349116154","-0,330189670116877"
"11314","-6,33298500174567","1,51572601041903","-3,00000000000007","0,117645561970555","1,0620131985362","1,63192577521403"
"11323","-4,5117987947871","1,87893150260476","-3,00000000000001","3,4217586966683","-0,679971251832135","-0,548432958010142"
"11335","1,22959882324063","1,96973287565119","-3","0,743941139258732","1,4937547881487","1,57153609484688"
"11343","-4,07213137737802","-1,5075667810872","-3","-4,15708749182676","1,14878885400945","1,15814865336421"
"11355","-1,45457400745786","4,8731083047282","-3","-0,969827121356171","-0,653822137648971","-5,84940668499"
"11364","-1,88034712378359","1,71827707618205","-3","2,39488792387924","-0,197023803964622","1,3814219284635"
"11376","-3,75437604948223","3,67956926904551","-3","-3,64993240924326","3,33794534884603","-1,34104131921992"
"11384","-1,3848664037945","-0,330107682738622","-3","0,878775627610885","2,40317858167712","0,628923036265609"
"11396","-0,0844301019803739","2,41747307931534","-3","0,269951478839344","2,12149447573728","0,174028083531246"
"11405","-0,799146771196914","2,10436826982884","-3","3,46854561952197","-4,75802229250166","-1,67513694743641"
