Timer,AX,AY,AZ,GX,GY,GZ
"1003","-0,99999964000013","-2,99999637000439","-2,99999997","0,999998310002856","0","-1,99999872000082"
"1016","0,790697733996738","2,39801053249137","-2,999999995","2,71548759786369","1,74747468370579","3,35353554020465"
"1024","-1,6080316598139","4,08321692183236","-2,99999999914286","3,91192332677389","-2,25893636016428","-2,01618056538277"
"1036","-1,13337284807988","6,01742985839662","-2,99999999985294","1,59650256499546","2,11688513959434","2,31677819208669"
"1044","-4,59051059135108","0,841519244536296","-2,99999999997477","-1,50152943096392","-3,88401581534514","-0,475142164029871"
"1056","-1,56829335454594","-1,82372883578949","-2,99999999999567","-2,15660235704778","-5,96855881288361","-5,4279988908739"
"1065","-0,12466940434035","-2,17254467251546","-2,99999999999926","0,326596974400332","0,65311227413595","1,77029813845537"
"1073","-2,58859918198292","2,33545402158249","-2,99999999999987","-1,58576738149169","1,1770471192327","-3,14584678278067"
"1085","-0,348499088553076","4,86079901052831","-2,99999999999998","3,88033672486626","0,319076538573915","-2,25958921041183"
"1094","-4,41832674884826","1,59924529811836","-3","5,9626348947976","-3,37133959799444","-0,285357321329429"
"1106","-1,53052064824067","3,70658698292642","-3","6,30058473745386","2,81500758452099","-0,83809918439449"
"1114","-0,11638301496841","-0,433057157284028","-3","-3,03262938060091","-1,96581929833495","-0,963321706251167"
"1126","-2,58678135433433","2,49035285030832","-3","0,740803132889091","0,467101352681954","0,781761466831639"
"1134","-3,9093501224067","-1,47835124707758","-3","-2,45643062024572","3,58445844115817","-3,36979771326016"
"1143","-1,41886385499399","-3,89073137913295","-3","-1,45477347434932","-1,02831707050649","1,23657932210629"
"1155","-5,43376302582013","1,1850170261497","-3","0,545743972885262","4,90799489064972","0,280144478891706"
"1163","1,02734283705707","5,61981949474862","-3","3,54590554685479","-5,12736545214236","-1,70998592525843"
"1175","-4,11650130255532","-0,0322965366679087","-3","2,48271220529573","-4,57669093632261","-2,93429791329411"
"1184","-1,46430766378807","0,783767107166248","-3","0,462979953654588","-3,42741286949244","-0,438211177604114"
"1196","-0,101857535543237","0,954706169901358","-3","0,832314379499565","-1,38694624066474","-0,872727908283951"
"1204","-6,1448446459259","0,990512400689279","-3","4,32313568032116","3,3529413288655","-2,74461884728507"
"1216","-2,68990057731756","0,998012653368356","-3","-1,65009193977844","-1,81999502804146","-3,9421439298983"
"1225","2,40990281869016","2,7901159067681","-3","2,86025124020845","0,506631718698476","-3,21344075189029"
"1233","-4,81320208211832","0,37497165521607","-3","-1,1068806327334","5,32409220649286","2,27200166718436"
"1245","-1,61714646002584","0,869076682624578","-3","-2,03337369869402","3,63002006040509","-1,25873481336819"
"1253","1,64523834974672","-0,81795641222932","-3","2,052822786902","-5,47380169830228","6,03519246707373"
"1265","-3,20032550885834","5,20026103895076","-3","4,70424195561584","-1,21276806846582","1,9141644783374"
"1274","-2,26332151656622","3,46088385705277","-3","0,156657214266568","-1,05767763902509","-1,5663500102982"
"1286","-3,83839109137655","-0,48452405250141","-3","-0,951083460740565","-4,47347095447896","-2,12830541936853"
"1294","0,377327698800474","0,689040000667045","-1,17157287525381","-1,98472570941388","3,51623937650472","-1,25561525094992"
"1306","-2,47847352205451","0,934863890536351","-3,68629150101524","-1,30748264004206","-1,77572783177864","0,715542970938009"
"1315","-0,324340262001661","6,35795265765603","-3,11774900609144","0,591735840624503","-1,21028601794272","-1,61134730055882"
"1323","-2,63240199412379","2,70338298286603","-3,02020253553339","-1,50297719065738","-1,05700479927453","-1,13849946208479"
"1335","-0,358108334419413","-2,43372829215379","-3,00346620710888","0,530692262740451","0,71346479901831","0,742075309830534"
"1344","0,921439951897706","-0,509787730841781","-3,0005947071199","-3,20978610526518","1,92232540338703","1,94156769676711"
"1356","-5,13973375752117","-0,106784118570122","-3,00010203561049","6,06098144133969","-0,47889177401109","-2,33359394354755"
"1364","-5,2500291956618","5,34922874047722","-3,00001750654307","2,2680498567344","-1,85873682847095","4,0182332865024"
"1376","-0,712975447385205","1,70155560305664","-3,00000300364793","-1,29179673991572","0,496129505671556","-1,0896775888221"
"1384","-5,27890869285269","-1,64357887748607","-3,00000051534451","-3,77886206685238","-1,59442590147512","1,52658787939693"
"1396","-2,49993579965543","-0,344276864888481","-3,00000008841914","-0,867705429501876","-1,16113828931032","1,11929739113951"
"1405","0,670951448917475","1,71841727164698","-3,00000001517033","-0,958690746660605","-4,50151729659919","1,02702657635985"
"1413","-5,97530960538698","1,15048529118521","-3,00000000260282","2,38839476206259","0,0508009395884199","2,77957489028939"
"1425","-0,872083902562711","1,03152182409421","-3,00000000044657","4,80902499911728","-0,715146555036108","-3,14374515314652"
"1433","-1,752563304583","2,79713499931093","-3,00000000007662","-1,49837199473852","2,53505427487403","5,60814728695282"
"1446","-0,165093642693106","2,16697412105673","-3,00000000001315","-7,2188614797934","-0,312791875070885","-3,5029379474098"
"1454","-4,37809216265072","0,244443511234409","-3,00000000000226","3,43364349911096","-1,81371010015474","1,9798687539024"
"1466","-5,0829440022196","-0,948796953500135","-3,00000000000039","-3,30333357585588","-1,22058233533915","-2,32491691854773"
"1474","-2,45694602800589","1,59178977373969","-3,00000000000007","-0,71922067437768","-1,05979594778831","0,473294897488926"
"1487","-1,10024257603078","1,12396090675477","-3,00000000000001","2,46316978756735","-6,20296297651072","-1,66622809881066"
"1495","-3,58324054408933","1,02596581942665","-3","-3,60636600007731","2,3184870642249","0,622519482485808"
"1503","-1,3473235368923","4,58650338710242","-3","-0,813843175778003","0,628500606030446","1,91448257222136"
"1515","-0,0761941321738719","-2,03927518871062","-3","-0,941872146500881","-5,01637802295249","2,98062620422894"
"1524","-6,13921473450137","3,15390187995227","-3","-4,357345319729","-0,08876864590871","-1,32474531974835"
"1536","0,872584304956179","0,451173105632503","-3","-0,0483380220240059","-2,48189917345416","-2,07357037817717"
"1544","-0,589201649519096","0,885038433416516","-3","-2,39058950962603","-0,401716508564315","2,30368901004685"
"1556","-4,47113089482889","0,975919252633273","-3","-0,434214451341084","-0,837815986663248","1,29534803940788"
"1565","0,238520347455128","0,994955858631945","-3","-2,51108022301163","-2,68495258482486","-4,25344574119655"
"1577","-4,28954930722623","0,998943414763942","-3","-0,47183792587635","1,27215710936494","2,80984277090567"
"1585","-1,50227008539156","2,79031087131749","-3","0,852667631469899","-3,11297640690084","3,18346819891275"
"1593","-3,67143536514825","2,16554468592383","-3","3,64174309423552","-2,30170810828682","0,494660188655854"
"1606","0,413953626272152","-1,54638810132063","-3","2,51263767774158","1,37604787049045","-4,43483991194961"
"1614","-2,47043870591813","1,46661366587231","-3","-6,27866748014914","2,10193988922631","2,76874829800679"
"1626","-0,3225776234884","2,88827273372562","-3","-2,33602277271855","-0,43020148155972","-0,372745819648484"
"1634","-4,41264022511533","-1,3949998413031","-3","2,95831998739376","-0,116619970000079","-0,0844447918040725"
"1646","2,03197665336329","-0,292207559042345","-3","3,29923739871106","-6,94728474445147","3,52777335870065"
"1655","-4,89610966866005","-0,0612080768996538","-3","-2,65755422765383","2,11671467159401","-1,20079026751161"
"1667","-3,41595922926133","1,77771107020543","-3","1,85792112538079","2,30272148535561","6,82177175918209"
"1675","-1,31062618339225","1,16290543320253","-3","1,26788764633449","-2,10469094819396","-6,0014459176237"
"1687","-3,62939346689423","1,03412344401873","-3","2,77139640291664","0,429455718404483","0,640384883417175"
"1696","-1,35744833848758","2,797679954934","-3","-4,51012160175116","-3,34141776553245","-1,62837420929538"
"1704","1,70220964853874","-3,20450830401622","-3","-2,78379066328272","-4,09255228371026","-1,14235687291956"
"1716","-1,40720251508288","0,328758669554538","-3","-8,99573198066457","7,07733522545886","4,28810557242995"
"1724","0,691294821568979","5,44046093363469","-3","6,56655994020703","2,37637527310831","0,7449134929414"
"1737","-3,40959695623199","5,30173019440638","-3","8,48916158235139","-3,0847247163554","-2,60469346975773"
"1745","-0,528605549199598","0,691606186723762","-3","-0,661493801747456","-3,29404957747025","5,73026832701795"
"1757","0,884037110056133","-1,85513076800614","-3","-7,95754453263287","6,29379510678952","0,0716324717715811"
"1765","-3,36731409934331","-2,17912236760376","-3","-3,54800353687055","2,16397148314044","2,56313233882395"
"1773","1,26129516631098","2,33407620601115","-3","3,57987648634669","-1,4133858197561","-3,19277976395256"
"1786","-6,84580289923754","6,65104259442975","-3","1,80557177031204","-2,11206154317189","0,276682371119582"
"1794","0,717576462705926","4,55530808140593","-3","1,25154145190983","2,15637546740358","-1,71077025858857"
"1806","-4,18445632881561","-3,04580960101753","-3","-0,609203592354298","-0,41544496451809","0,612428548635774"
"1814","-6,82109003371385","-0,637999060981749","-3","-1,87797301320245","3,34521583171294","0,138744416592489"
"1827","-1,83825197014316","-0,133640264866724","-3","-2,96189682091349","-1,09317148670954","3,57833641063168"
"1835","2,5967333085595","1,76253885855687","-3","2,7628895209877","1,43257843952543","-2,96278738854967"
"1847","-2,99159121660957","4,74079172710652","-3","3,23821383125393","1,11726432102753","-4,99156956011104"
"1855","-0,436905502438575","-0,216424556405316","-3","-0,988861031720877","1,03178827174358","3,6426223517132"
"1867","-4,4377209138525","-1,04533397744687","-3","-1,99652183410968","1,00861723507704","-0,174771466514733"
"1876","-1,53477524493448","-2,00949600888775","-3","-8,06215772887017","2,73125376536421","-0,0395941129991667"
"1884","-3,67856618744928","0,579075275654573","-3","2,48257456953772","-1,25960568284291","-0,0089699641220246"
"1896","2,19301421146197","7,2834263963537","-3","2,4629369766044","3,11637887538874","-3,54893627777254"
"1904","-4,8607820398546","-0,683824445466864","-3","-0,230942833538597","2,3026304569769","1,1959958521197"
"1917","0,153040592436406","-4,72430359153154","-3","1,61563555355675","-1,37579783816566","-1,50250169751137"
"1925","-2,52767652620478","1,01041048193462","-3","-2,18326238697046","4,8137990349007","-1,11384071662442"
"1937","-2,11575908544074","2,002180660832","-3","3,69376766500801","-3,42398248704662","2,5211137729441"
"1946","-3,80601956976395","1,20992458633372","-3","0,841134526476017","3,52965481981372","3,11805724368418"
"1958","-1,39619570570556","1,04397244296333","-3","-2,42510193502473","-4,50100892991009","-3,06706267850809"
"1966","-1,86754037858111","1,00921081124385","-3","-6,50823482093916","2,50877432116136","-1,46828875960888"
"1974","-5,53219147857457","-0,788602823468971","-3","1,96779021241644","3,13791966930363","0,667362228957097"
"1987","1,00575008637295","-3,74625128870677","-3","-4,44879722841997","-1,14936578932714","0,151189527853939"
"1995","-4,12123821418056","1,21528095400378","-3","1,61085386140615","1,41734516356906","3,58115582475803"
"2007","-3,24597173417637","3,83562662146944","-3","12,317227968737","-0,61578293534483","-4,73560073164004"
"2015","-3,05396007132878","2,38450468486913","-3","-3,15392008391714","-3,6247633737373","0,927159483028738"
"2027","2,33003723441666","-3,29105522219332","-3","-6,04806186464504","2,74630890635871","1,98349813206131"
"2036","-4,83072260185829","-1,47990231560382","-3","-5,63951155442601","1,47339328430963","-0,550642614949673"
"2048","0,159634884352975","4,27107248958643","-3","5,61454671191137","-0,600589286695299","-0,124746941553163"
"2056","-7,86810463274414","-1,10534780741686","-3","1,44090175772954","-0,162809073420292","-0,028261160695473"
"2064","-2,06794089206389","3,34952960142623","-3","-0,550075445098681","5,1426187145591","-1,77985458280824"
"2077","-1,01490453931296","0,49215081565111","-3","-0,171762195771174","-3,33484532034471","0,596777638368943"
"2085","1,7773552253205","-0,89691024739632","-3","-3,42912896322817","1,82490053409217","1,90865081086411"
"2097","-1,39071744741133","-1,97840601548566","-3","-7,50949226882711","1,22361586294427","-2,34105119572958"
"2105","-4,6469634951487","0,585587628426012","-3","4,34289343395547","1,06061828316712","0,469639710480216"
"2117","-1,5806778550436","3,70372614079235","-3","3,73157332191381","2,74535032460025","3,6533000526858"
"2126","-0,127386256726252","-1,22418860352608","-3","0,852939421060152","0,47313342984444","-1,17235245552106"
"2138","-2,58919519148553","1,53410408844273","-3","-0,733667901146172","-0,871741942416268","-3,8124981665882"
"2146","-2,12925474817498","-2,46918677112438","-3","-1,91683725112421","-1,96523152181286","-0,637165622275388"
"2158","-2,02835527201717","2,27331705120102","-3","-8,03727605297526","-2,99057488396267","-0,917800624792494"
"2167","-3,78684535032555","3,05725112362844","-3","-0,885151937930489","1,18930833992885","2,56552624886566"
"2175","0,388635550383991","2,22146007546614","-3","0,0358615449878595","3,78023591008092","-0,418785353092223"
"2187","-2,47599286109538","2,04638875658713","-3","-2,36429802062792","-0,975245280819283","-0,0948749525502871"
"2195","-0,323796066780427","-1,5713474326596","-3","4,63723891385779","-0,264371649719843","-0,0214937235864527"
"2208","-2,63228261124814","-0,329146702465575","-3","-3,92750841750884","-0,0716664520712944","-1,77832143397706"
"2216","-2,13870705476439","1,72158655360574","-3","2,461375302218","-0,0194275004824833","-1,17632710545439"
"2228","1,53082094732197","2,94168134564127","-3","-1,91917840071844","6,91040469497153","4,2804096867547"
"2236","-5,00605074678988","-1,38381245643205","-3","0,400732573829264","-0,397794410849269","0,743170006014553"
"2248","-7,00132738312175","-2,0803963539661","-3","-1,56261835587669","-4,56567056193464","0,941815697915553"
"2257","1,68345826505259","2,3547561276892","-3","3,88756504775396","-2,69550765580376","-2,56008568389313"
"2265","-2,19194101149733","3,07430998847322","-3","-0,786099770940149","1,2692958173572","3,96692205281275"
"2277","-3,82273198665097","5,80609774231555","-3","3,13003458242279","7,25975466494369","-1,10130204231757"
"2285","0,380762916309374","-0,993277240455393","-3","-2,71038815709987","-2,03200963380192","-2,02294976743375"
"2298","-4,25834483087831","2,37300477743895","-3","0,153675690482526","-2,27975945619115","-3,00519922217967"
"2306","-1,49542460058352","-1,502931890685","-3","-3,32751030995409","2,11091554589314","1,31917835353313"
"2318","-3,66993363630221","3,26624853497295","-3","0,960978021503211","1,30114944552253","2,0723091935354"
"2326","-1,36634184180113","0,474706113205823","-3","0,300067375360881","-0,647281527826648","-0,530522653300872"
"2338","-3,64161609447353","-0,9005643509803","-3","3,46919252100284","1,55345127668938","6,97361949603509"
"2347","0,420495231460926","1,60189295126795","-3","-4,29223332022355","1,15003079731389","2,90021524954385"
"2355","-2,46900364069093","-0,66445499470459","-3","-1,02800666546963","2,76958846687634","-2,3429622546386"
"2367","1,45836210404908","-1,92971412322554","-3","-4,38424100147882","0,479703959110976","-2,30424531145817"
"2376","-5,02194641205604","2,38631920428039","-3","3,31875960794927","-2,59887857499959","5,79833423369787"
"2388","-3,4435646761724","1,29038924503238","-3","1,72403748481342","0,295490242498785","-1,68639941385045"
"2396","-3,09730704076764","4,64189158247145","-3","2,91383013370015","6,99577329390294","1,39140178843826"
"2408","0,539903079119583","1,55339123898923","-3","0,597597418729363","-2,10357028826489","-0,684780812696204"
"2417","1,11844128658713","-1,67461454206418","-3","2,56209689259808","1,15867729558169","1,61831640366136"
"2429","-1,5352667520403","-0,350777837520245","-3","0,487767986501997","2,77193237876837","-2,4068258530897"
"2437","-4,67867401186487","1,71705552715936","-3","2,52780242516136","0,480339351935613","0,454738598371172"
"2445","-1,58763435250297","-0,640332142358728","-3","-1,21068846302797","-0,869788545103343","0,10302008564695"
"2457","1,6517125709914","1,65640322160209","-3","1,30970795377429","-0,235784204342131","1,79679106209317"
"2466","-3,19890522598994","2,92802753596253","-3","-2,27878891292949","1,66500088211122","-0,592940714138755"
"2478","-5,82425976183224","2,19439189380436","-3","-6,46254827708609","1,18026991129986","-0,134329488134365"
"2486","0,941677580439584","0,250186651994538","-3","1,98205593025446","1,0488679666362","-1,80388414224375"
"2498","1,20658060398433","4,42400262533926","-3","0,61890106485431","1,01324723657951","-1,18211828395658"
"2507","-3,29655609132554","-2,07331386708995","-3","-1,49449479319008","-2,45424448218677","-1,04125851924223"
"2519","-0,503807199284136","1,35623968069096","-3","0,533340908898662","-3,12313759983639","2,53755711911604"
"2527","-2,67177256964681","-0,71591144684226","-3","0,166536802221","2,88229073164554","3,12178244963112"
"2539","-0,366745257969148","-0,149960401555914","-3","0,0520014610378711","-0,21866224765814","-1,29276666532354"
"2548","-4,42232950390578","-0,0314118766140723","-3","-5,04700622957156","5,1274779124391","-2,06632568038921"
"2556","0,249226156982276","-0,00657977694231365","-3","3,11180979429677","5,30563920851153","0,531878205785306"
"2568","-6,06782562927148","-0,00137825145382136","-3","1,65941697734646","0,896099994658399","0,120495903602675"
"2576","2,66887020631693","1,79024349259991","-3","1,20590431542986","1,70075234274117","1,80075017237983"
"2589","-1,19514126819577","2,95606276416249","-3","-0,623453882637847","-3,26787407601153","-0,592043785920483"
"2597","-1,04280913327822","0,40973217969374","-3","-0,19467476470383","-1,61478032513867","-0,134126290908098"
"2609","-4,57064107741498","0,876357893494942","-1,17157287525381","3,3147082642064","-1,1666560115376","-0,03038603282491"
"2617","-3,34455952775633","0,974100958962872","-3,68629150101524","-0,964975486773802","0,68374030565248","-1,78033596817897"
"2629","-1,29496286744677","-0,795957207268598","-3,11774900609144","1,38643233895988","-1,54356795048401","-1,17678349399665"
"2638","-0,0647075056004407","1,6238047803717","-3,02020253553339","6,183908090687","5,76831954144442","4,28030629287769"
"2646","-6,13669485476273","4,71173140384182","-3,00346620710888","-3,75680983605196","-1,43631116881513","-2,80375756867163"
"2658","-0,907487806173373","1,56802043328901","-3,0005947071199","1,51467628743248","-3,8471939837496","0,364814542041422"
"2666","-5,321579859073","-1,6715501968001","-3,00010203561049","1,16070873555336","-2,50074143442786","3,62955212834157"
"2679","1,05195302936162","1,44039623607639","-3,00001750654307","2,73792956628511","6,50884683442886","2,36917165252573"
"2687","-4,11110243940296","-0,698283357649349","-3,00000300364793","-1,14507582848461","-2,96448517705831","-3,23672115486628"
"2695","-3,24374819767205","-0,146267884351877","-3,00000051534451","-0,357552296466768","-1,53253699076891","-1,50672453530014"
"2707","0,507777537140177","-0,0306384131290114","-3,00000008841914","-1,79939437542568","0,584556479816139","-2,8882494672699"
"2719","-7,79173080694708","3,57464662258042","-3,00000001517033","0,438135383545489","-1,57045492156461","1,34567307777768"
"2728","3,29068835276818","-3,04175879918607","-3,00000000260282","-1,55093925116094","0,574277603193428","-1,46859263269498"
"2736","-2,83935476631235","0,36284945159889","-3,00000000044657","0,515716010120551","-1,57324134219485","0,667293387140133"
"2748","-2,18413352742346","0,0760052792927361","-3,00000000007662","0,161033391113766","-1,1553955320823","0,151173931883188"
"2757","-2,04039430915531","1,80645285116759","-3,00000000001315","1,73803094065552","0,686792821351641","3,58115229152322"
"2769","-3,78948641518155","-0,621606280849696","-3,00000000000226","1,23045168811583","1,9150951046348","0,584754694439856"
"2777","-3,1731936534047","-0,130206505143977","-3,00000000000039","1,07195901639065","-0,480851779403261","0,905927037870705"
"2789","-4,81861928328165","1,7632581206795","-3,00000000000007","-0,665278579379353","5,05640299373916","-0,794764109830084"
"2793","-4,17958467896687","1,15987800554491","-3,00000000000001","-0,20773461279157","3,55745427600217","-0,180052159541968"
"2810","-4,03939640511564","-0,7570428965278","-1,17157287525381","-5,12810935598711","-2,03563741937873","-0,0407904430443609"
"2818","-5,78926749989301","1,63195607574587","-3,68629150101524","1,39873724415924","1,17709268806895","1,7642110852982"
"2826","0,168729101078642","2,92290664590599","-3,11774900609144","-1,25098933281602","-0,680911108273677","2,94658251075631"
"2838","0,256390051765051","2,19331923218875","-3,02020253553339","0,609375992683606","-1,91350067683271","-1,33245784784658"
"2847","-0,72437931928636","2,04049415582804","-3,00346620710888","0,190278914440178","-1,24763378578113","-0,301865559901431"
"2859","-4,50078550830358","-1,57258216176017","-3,0005947071199","-1,62833294642393","0,661788671342169","-1,84183909157996"
"2867","-5,10985986596778","1,46112685344709","-3,00010203561049","0,491549668656553","1,90831692429612","-1,19071689895286"
"2879","-2,46285069803878","-0,693940960668377","-3,00001750654307","-1,53426053012736","1,24622856266773","2,5036976333948"
"2888","-1,10153791355082","-0,14535829197442","-3,00000300364793","0,520923975269529","2,79566597007081","6,66101580443457"
"2896","-1,80289979890033","-0,030447882807451","-3,00000051534451","0,16265958900618","2,21569089260996","4,60284760753249"
"2908","-3,7373860356137","-0,00637785127262926","-3,00000008841914","-3,32470506905349","0,3295521784619","-6,50413857878294"
"2916","0,399485692001522","-0,00133595452639566","-3,00000001517033","-2,41364189846542","2,54717130650461","-1,24695117113429"
"2929","-2,47361261030124","3,58078454435553","-3,00000000260282","-2,12916053857055","2,14832840909362","-1,0559462752711"
"2937","-3,88452371899632","2,33112347356721","-3,00000000044657","3,02291314797925","0,311291407303409","0,760777562963296"
"2949","-3,19404247048489","2,06935970821496","-3,00000000007662","-0,0560891155042923","-2,64453222237484","-3,37455157312926"
"2957","-3,04256808443148","3,80506081796043","-3,00000000001315","-3,39300980460131","0,283114350700384","1,23550234501962"
"2969","2,33253635256783","-0,41243005890533","-3,00000000000226","4,31602153103269","-1,65217052125708","-1,49355158354097"
"2978","-6,61079926756296","-1,08639082042894","-3,00000000000039","2,72318251463147","-1,1767918286757","-1,11181308688047"
"2990","0,769130405560956","1,56296828802762","-3,00000000000007","-2,83742855699509","-2,7768429065014","4,2950252037632"
"2994","-0,611896858012456","1,11792373331679","-3,00000000000001","-1,57374086833765","2,97616506374104","4,29338527207613"
"3006","-0,914859838287137","-0,765830965971395","-3","-2,8668997042602","1,53570320030777","-2,02734247757079"
"3019","-2,76194727933349","1,63011525810219","-3","1,10480463607838","-0,583698176725","3,08761392049177"
"3027","-2,1671522529988","1,13198886195814","-3","5,40822132668705","-3,61606576634149","-3,07395955019194"
"3039","1,52458077939849","6,39924399333937","-3","3,7519720915747","1,01974888682359","-1,46985123157434"
"3047","0,334455045732346","4,50256438035564","-3","4,92255277245466","0,276435785757451","0,667008254176247"
"3059","-7,04912853412912","2,31473886726579","-3","0,91257314960476","5,26169018338408","0,151109335602015"
"3068","-1,10765302672707","-2,51513672317529","-3","1,66044871621035","-8,48932052158369","-3,51267064466608"
"3080","-5,36549112235203","1,26369201546312","-3","0,206226478024651","5,15653177177984","4,75111590704826"
"3088","1,04231999202663","-0,735297203421297","-3","-0,935605355579333","1,12676183441281","-2,69709662775086"
"3096","-0,551965867887403","-0,154021093494673","-3","-0,292144707933194","1,03436287869763","2,16243043234025"
"3109","-2,68233738190718","3,54880192296808","-3","1,59652514165781","-2,44852040717564","3,03679827732087"
"3117","-2,14968782458394","4,11495633587918","-3","2,8740141407423","0,336249667495007","-1,31201965317502"
"3129","-0,252212870019818","-2,13804911594121","-3","-2,79033106968972","1,82006909045586","-3,84413948033618"
"3137","-0,835954131040366","1,34267973000799","-3","-1,55903458048758","1,2223061445075","4,67602233029374"
"3146","-0,964012422728599","1,07178037192132","-3","-2,86230763545349","-0,668654544408887","-2,7141089217072"
"3158","-0,992105221996271","6,386632252903","-3","1,10623851906371","3,27657521824146","2,15857633245361"
"3170","-8,12076772226098","4,49992262673024","-3","3,72092112849398","2,34605683623964","3,03592513899076"
"3178","1,43788093987527","-3,05741107080846","-3","-2,52588261061683","-3,09294350534063","2,23468669016644"
"3191","-4,02643946929051","-2,43096138734041","-3","-3,16420793315219","1,89047581362506","0,279715707053909"
"3195","-3,22517525098177","-1,29974034526627","-3","-2,36352633573121","-3,94536120371774","-0,936630987119396"
"3207","0,511851978992404","4,30881062261404","-3","6,32522780518508","-2,52735282173915","1,56126026936308"
"3219","-0,668337336002662","0,693089308500754","-3","-4,40043039394843","3,04379738823886","-4,19320387740342"
"3228","-4,48849129317549","0,935712090172556","-3","-1,0617914255868","-0,174880665645825","1,05003836460651"
"3240","0,234711908504957","-0,803998439469124","-3","2,35620136176514","3,41042853441182","0,237884012137562"
"3248","-0,729134963915638","-0,16841179082262","-3","3,11122461214841","-2,80441126909694","0,053892129219364"
"3260","-2,72120386829819","3,54578753514192","-3","5,72247804637529","0,239773984775157","-3,53469500099689"
"3269","-5,7194639834831","2,32379272675756","-3","2,85009940245623","-5,12175489600431","-2,34768196720261"
"3281","-0,815957746224808","-1,5132402310728","-3","-0,422302633952673","-1,84625222814135","1,46813752296523"
"3289","-1,74025062398356","-0,316975114314998","-3","-2,81961280226622","-3,68723949984088","3,87950765971311"
"3297","-1,94301745725221","-0,0663960824143412","-3","5,18281386242217","0,271537167379636","2,425798559373"
"3309","-0,206874539580727","3,56715654197285","-3","1,99384021339562","2,80252668266423","-1,45044037114071"
"3318","-2,60663294069274","4,11880103769042","-3","1,99807659388893","-1,96920264884015","-2,1020463311889"
"3330","-0,352455246003093","-0,346711582769108","-3","-3,0638443809028","2,19510197273966","4,0706899175031"
"3338","-0,85794481129611","-2,86315710719268","-3","-1,6444396777796","3,05288867468648","-1,0777936479431"
"3346","-0,968836630189434","-1,3902714353692","-3","-1,2012276226539","4,01433717901882","-2,0176239894801"
"3359","-4,55441335289044","2,49931508169533","-3","0,624914189632649","-1,91178459058285","2,31636354828894"
"3371","-3,34099956922785","3,10459043570853","-3","3,5706266108277","1,21066698708399","-0,475232645768459"
"3379","0,486443008749979","-1,34968824641788","-3","4,17817933978792","1,05710807323273","1,66578910595974"
"3391","-2,45453634111113","-0,282716238580718","-3","-3,38310278812874","-2,44235458948781","-0,622618935405049"
"3395","-2,09971395075131","-0,059219950806686","-3","-3,43187670706444","-3,11991446140174","3,40585112345311"
"3408","-2,02187475692291","3,56865971053127","-3","5,99163319144946","-2,30358889146037","0,545040578652718"
"3420","-2,00479877676926","0,538051519291658","-3","-4,50459600225401","3,10445580982681","-0,876522188142836"
"3428","-3,78167764205984","-0,887295527614989","-3","0,593430578835602","-1,88735503263903","1,57487779301487"
"3440","-3,17148060309813","1,60467234261421","-3","0,18529992597702","-2,96946395287467","-0,643214704665464"
"3445","-3,03761857274235","1,12665939021947","-3","-3,31763557699424","4,65286671026895","-3,69262310736201"
"3461","-1,22762766780793","2,81706325675411","-3","0,964061427299544","-0,73869059167662","-0,610008176409456"
"3469","-3,6111856600659","-1,40991593435949","-3","1,98877810632175","3,25758969150252","-4,45855231281503"
"3481","-1,35345399922544","-0,295332000360119","-3","-3,75449578400486","4,06982798382386","1,98992422729707"
"3490","-3,63878882284825","1,72866964513695","-3","0,827650923849908","-0,167824234168183","0,45081320358857"
"3498","-3,14013435551989","1,15263283338787","-3","-3,11706014896244","-1,04549416492714","1,87558287111511"
"3510","-4,81136689683197","-0,758560526858763","-3","2,71443945079038","-2,01233265894331","-2,34854266884691"
"3518","-2,3973687760625","-0,158894010863986","-3","-0,15241066564603","-3,00334316448836","0,467942532794104"
"3531","-1,0871728110222","3,54778120364773","-3","-0,0475905456670802","2,91476487238028","1,87946348509455"
"3539","-3,58037336321395","-1,25685404769235","-3","3,36063561589996","-1,93877687189932","2,97269270272279"
"3547","-3,12731945880371","-0,263270462457977","-3","-0,950634576189389","-1,25448571269615","-4,87344678906645"
"3559","-4,80855562771119","5,31644988902716","-3","-3,67233347540586","4,1177668082307","4,44283489583745"
"3571","2,94512267627617","1,69468948889172","-3","-4,20993751867157","-0,883746657723855","0,779967100017271"
"3580","-2,91516326770265","-1,64501710737029","-3","6,74868209331207","1,48934978579099","-6,1436562988467"
"3588","-3,98138893421476","1,44595406416109","-3","0,795037876959899","4,59048959565888","1,60816741671003"
"3596","-3,21529228579382","1,09341302032823","-3","-5,81499157144805","-1,7555999179954","-1,40912508501921"
"3609","-3,04722976457791","2,81009921252608","-3","-5,56673487318119","-2,20482969851524","0,68076563664065"
"3621","-3,01036103385618","-1,41137467743938","-3","-1,11372034329094","0,402309884280496","1,92767811755472"
"3629","-3,00227295273496","1,49489463183532","-3","3,33998644977741","1,837976840266","-2,33674059889017"
"3641","0,560751190737284","-0,686867698145358","-3","-5,02032611439709","2,95607840317288","0,470616267247502"
"3645","-0,657610067023932","-0,143876671177685","-3","4,80788864657968","0,530258063893155","1,88006921408561"
"3661","0,855736732344668","3,55092685287515","-3","-0,498726823169366","0,872661316046735","2,97282992936852"
"3670","-1,59289758727746","0,534337056467275","-3","1,53201944878208","0,965480747651916","2,22039260138119"
"3678","-2,91069187155922","0,902458603909901","-3","-0,521623757556119","-2,46719312775058","-5,04387881561978"
"3690","-3,98040802128326","0,979568217563061","-3","-1,85062602859471","2,06010561126665","0,857319722937055"
"3698","-3,21507709793116","0,995720199317582","-3","0,422138193851409","1,28737577596108","-3,35268014716132"
"3711","-3,04718255772116","-0,791428672378947","-3","-4,93143026898271","-4,10885089706891","1,24045727117832"
"3719","-3,01035067784773","-0,165778829262051","-3","-0,227597235140327","0,886163602659613","-1,49242905530371"
"3731","-4,78289559085875","1,75580686391785","-3","-2,44656356978708","-3,21761238120989","-1,11155878043814"
"3740","2,95075184917074","2,94884939903448","-3","-2,13944039855166","1,12776251256008","-4,57217756118495"
"3748","0,647321452556009","2,19875340382237","-3","-0,355792621811186","0,305716358542371","1,96418266310908"
"3760","-1,63861870804388","-1,53943194397297","-3","2,57665094886962","0,0828742672677094","2,2184335811576"
"3772","-8,26259667646565","-0,322461435006296","-3","-6,94642713492552","-1,70645204636496","-2,27087055207651"
"3781","1,40676720027833","-1,85807748189496","-3","-1,54453210643588","2,2663289877352","-3,06136516137867"
"3789","-0,472015228767487","5,98238915834065","-3","1,51771665431655","1,34327926539093","1,30645407658051"
"3797","-0,884173293278548","3,62471451986619","-3","2,16165809640306","-0,635860882989841","-1,47747761601681"
"3809","-2,75521541575965","-2,24073899457505","-3","3,05047807505277","1,55654721037474","2,4387325881184"
"3821","-5,72692526976938","3,11170169812857","-3","-2,73522984111888","4,60870562227652","-0,447510193773134"
"3830","2,74365525337257","4,02339790986682","-3","1,83366675437495","-1,7506618771733","1,67206956992109"
"3842","-4,73998511171349","1,42383672507178","-3","4,63581003105212","-0,474573297274643","-2,39464818483873"
"3846","-3,38170939052592","1,87931234169937","-3","-1,55245872687755","-1,857566166237","0,457497423838568"
"3858","-6,64498735185851","5,55578420457425","-3","1,20298948180621","0,496446851381544","1,87709716733959"
"3871","1,76163039149081","-2,83624206045202","-3","1,06338388565451","-3,32325766090024","-5,89510375919813"
"3879","-2,17479199422243","-4,17516579143476","-3","1,01979174942916","2,82804174246711","-0,108975596814583"
"3891","-5,5995948294165","8,28756594090351","-3","-5,74481170978112","-0,233368183740895","0,975311804721485"
"3899","-4,35091125970826","4,89810703967836","-3","2,89391858942677","-1,79217975008105","0,220954865091255"
"3911","3,04551845070667","4,18812451303078","-3","6,65462379120076","0,51417194582537","0,0500568660926197"
"3920","-8,23501366557095","-3,12272273825139","-3","1,45341590865225","1,86830065554952","1,78479235462878"
"3932","-2,1484315941716","1,13642230465956","-3","-6,60941166894814","1,23538086394799","-0,595658996411389"
"3940","-4,59381201428223","2,81910827304244","-3","-5,81479419218404","-0,66511022051818","3,41195884167653"
"3948","-4,13026756409164","2,17157681454181","-3","3,87206641451122","3,27753602140817","-3,00047988147833"
"3961","3,09392218129622","-1,54512456456091","-3","1,8968086798868","-4,56935385192178","-3,22665664064395"
"3969","-4,66314527286713","3,25741052805875","-3","-5,4709613588045","5,94808280080606","1,26900763501691"
"3981","-3,36485264396143","-1,31767735664131","-3","-2,08381486528308","5,52809059830292","7,38129934791223"
"3990","0,481210238332905","-0,276010987664239","-3","3,03707242827793","-2,50143296254011","2,99257427384343"
"3998","-0,675059370618391","-0,0578154165945242","-3","-1,73941578205898","-2,40701177135358","-2,32203850937552"
"4010","-4,48996594012447","3,56895391523407","-3","5,52010761677797","0,347501920385355","-5,84640923141418"
"4022","-1,5462365022763","0,538113145705884","-3","2,09916088601292","-3,36363398252857","1,67550812289791"
"4030","-1,90045559183638","-2,67781481077602","-3","-1,34453267043422","2,81709643981511","2,15303496321935"
"4042","-0,197537526523458","2,22961619302927","-3","-2,10758103913922","1,49258252558824","1,26121767778294"
"4047","-0,823959722638654","1,25756500874465","-3","7,09289518468736","2,86244814771703","2,83263039825106"
"4059","-8,08388078820195","1,05395157782218","-3","3,27801498912035","0,50487656696578","0,41517861308295"
"4071","-2,1152768055929","-0,779231073161584","-3","1,39906282441021","0,865780843670173","-0,905942146912992"
"4080","-2,80591376957891","-0,163223824890041","-3","-6,62638353195262","-0,765302212234611","1,56821276241688"
"4092","-2,95742231572858","-1,82472232873857","-3","-2,44459782927636","-3,66529539032195","-0,644724653514108"
"4096","-2,99065951667986","2,40831160533891","-3","1,23666927023324","-0,722514174832164","-3,69296518313976"
"4112","2,34392379929145","1,29499594507672","-3","5,44939633151378","0,804139257986581","-0,610085672966923"
"4121","0,514198494483481","1,06179215401038","-3","2,07708114089614","1,94690563645902","4,40869050804557"
"4129","-7,00969729887777","1,01294346705766","-3","0,336320814594538","1,25668927618844","2,54568383533897"
"4141","-4,66025261589211","1,00271123967364","-3","-2,58273106095782","1,06958389724718","0,350171464815382"
"4149","-4,14484297705119","1,00056791743164","-3","-6,55745484162723","-2,43897261549503","0,852782694078877"
"4161","1,31009978879198","-0,790413231491361","-3","5,32791702136991","0,338837904000662","-4,3537080016325"
"4170","-0,493221650864878","5,20603044864774","-3","1,35140104385604","0,0918529291349302","4,5605806394081"
"4182","-6,2307001839575","1,67156017074502","-3","1,10972570295002","-3,43293587703177","2,58009422934982"
"4190","0,852514676245678","-1,64986195494507","-3","2,72201000887704","-0,659525643572604","5,67832329468636"
"4198","-0,593604426124249","-0,345592967351871","-3","2,22544911902264","-2,63662124392118","-4,4870397185087"
"4211","-0,910846934394868","3,5086737824597","-3","3,75814488496337","3,01417666245562","1,756922540172"
"4219","-8,10294167810307","4,1065507822442","-3","-5,20200734676962","3,27492525484001","-0,601972845032522"
"4231","-3,900083200005","-2,1398098088369","-3","-1,31208548747031","-2,84114379810006","5,18398052788483"
"4239","3,14441889689029","1,34231092152641","-3","-2,78519727025125","1,95873423569734","-3,59903204631474"
"4247","0,689807178584541","1,07170311841708","-3","1,13031639013006","1,25989579905608","0,184646759730685"
"4260","-3,40992330804563","-0,775512696862966","-3","3,72843949354863","-0,658464657637983","0,041831340180981"
"4268","-2,30930205263217","3,41861943906477","-3","-2,52353498557393","1,55041972910294","-1,76397527221229"
"4280","-5,62910298558953","2,29715510441343","-3","-1,47572695125382","1,14920899868293","-2,94652908779113"
"4292","-0,796134794177072","0,271712236473013","-3","-1,14854672475014","-0,688469880521275","-0,440982124800503"
"4297","-1,73590196209351","0,84744715851592","-3","-1,04638402212831","-0,186631939344457","-0,873355660620167"
"4309","-1,94206346915859","0,968045090676572","-3","0,673264424249316","-0,0505925992827754","-0,971308987764961"
"4321","1,57395965161727","-0,797225716724605","-3","3,58572407161751","-1,74263254001805","0,779951964782363"
"4329","-3,21596227967742","1,62353906847641","-3","-0,880350240210981","0,527603313216727","0,176696498824147"
"4338","-4,04737674454644","2,92114355384259","-3","-5,33813497720865","1,87194166035629","-1,73342185043553"
"4346","-1,44914345765187","0,40241772924783","-3","1,33315630941538","-2,22146769681398","-1,16615519799254"
"4358","-1,87915579643101","-0,915706440318281","-3","-9,71020677097764","-1,3311181673342","-1,03764211524861"
"4370","-1,97348979196294","-0,191811020906504","-3","-3,78302387796022","0,639157540373265","-1,00852774308302"
"4379","-3,77480923069934","1,75035395779433","-3","-5,61999668811768","0,17326424100961","-1,00193194249605"
"4391","0,391275975210554","2,94770719074107","-3","-0,130351455197068","0,0469688540247908","-4,54734182858065"
"4395","-0,694788707687272","2,19851414795477","-3","0,271549557311653","3,470567993334","-1,57709500423414"
"4407","-2,71366915524604","0,25105013153581","-3","-0,602956020048245","-1,05919074523303","-3,67764382646132"
"4419","-2,15656123518083","-0,947413079226724","-3","-2,56377012694619","-0,287127772051362","0,393385348588963"
"4428","-3,81497054503644","1,59207965085042","-3","-0,488290457388914","-1,80675301829308","-2,45778351676993"
"4436","-1,39815932671178","1,12402162667777","-3","-4,21571349889851","2,23913917821891","1,4431942454275"
"4444","-0,0873462381420598","-0,76455365361511","-3","3,37138266929286","1,33590859163453","-4,9934035655879"
"4456","-2,58041140880398","-0,160149377989238","-3","1,74046914458866","-0,637858941548904","0,0953027105609749"
"4468","-3,90795271503252","-1,82407833108517","-3","-3,83203077102703","3,28492335843997","-2,52531351974198"
"4481","-3,19918220859955","0,617914310204842","-3","0,803440463741791","2,34831986856575","-2,11900868760462"
"4489","-3,04369561494309","0,12943315614547","-3","1,93862387814563","-1,36341225132506","-2,02696117117323"
"4497","-1,22896081948781","1,81764427142278","-3","-5,45790447663762","-0,369596811407532","-2,00610799737114"
"4506","-0,0502283003875483","-0,619262038579437","-3","4,67125389767373","-3,55802669425421","-2,00138375412723"
"4518","-4,35289356784158","1,66081673005695","-3","1,14635662492587","-2,42235332543369","-0,226861411116561"
"4526","-1,51616623826668","2,92895202390455","-3","-2,32979570331641","-0,38557468826049","2,7220570936734"
"4534","-1,89385892496217","-1,3864788395547","-3","-4,79072732178947","2,62439534612487","-0,3833236150822"
"4546","1,58453452784001","-0,290422683483384","-3","1,5040854823398","-2,01749088589591","-0,0868411694052716"
"4555","-1,43301750527997","-0,0608342029286067","-3","-2,90584205861324","-1,27582368186722","-1,79312576219811"
"4567","-1,0949932542036","-0,0127428071443002","-3","-0,595103125757121","2,38306467810715","0,59377108022262"
"4575","-4,58208897364091","-0,00266920788141814","-3","0,81417781778644","-0,353993551436607","-5,18583862067967"
"4587","-3,3470709110215","3,58050527069763","-3","-6,49676301644853","1,63295643060932","0,0517069482306169"
"4596","-1,29551380237665","-1,24999940909565","-3","0,283624375980635","-0,557334555755918","-4,30864212472349"
"4608","-0,0648283670002832","-0,261834636335883","-3","-0,599185632937526","-1,88000127140276","-1,52301808174867"
"4616","-6,1367213687432","-0,0548459273550729","-3","-2,5625928157704","7,40603623821731","-0,118488660891442"
"4624","-0,907493622680226","-0,0114884561856788","-3","1,19982509158322","3,19439805752699","-2,57374751121861"
"4637","0,0202935948524982","1,7881257301754","-3","2,06239579826064","-0,405137716613128","-2,12998130784847"
"4645","-2,55679791075042","1,16508696919843","-3","-0,356012645147357","-1,10982562911226","-0,255994920006733"
"4657","-5,68339741174526","2,825112597493","-3","-0,111165684994072","3,15698158393672","-2,60489926882571"
"4665","2,75320418114525","0,382302335312586","-3","-1,72245964624944","2,31363712909625","-2,13703867387861"
"4677","-4,73789031482371","2,66114441602714","-3","-1,22558951922242","-1,372814125121","1,51585832387573"
"4686","0,1799999756785","0,347956279744583","-3","2,30505506814911","3,08569008023546","-1,43003751841247"
"4694","-2,52176230907901","-0,927114360771079","-3","-3,65573764833575","4,02322905665069","-1,09742410724962"
"4706","-0,333836743552273","-0,194200612998606","-3","2,54623628715292","3,27737919789857","-2,79552330480176"
"4714","-2,63448528561888","3,54038560708752","-3","-1,89268038260547","-0,382643005377777","1,36667999743085"
"4727","1,42205955329537","-1,25840318709333","-3","-1,27874129631556","0,625190073210865","-3,23728563415657"
"4735","-3,24928537742174","1,52693723461822","-3","0,600710384665442","-0,830522090909914","1,2665996585972"
"4747","-4,05468700211404","1,11037638753599","-3","5,25081685377374","-5,41189312561956","0,286945523816244"
"4755","-1,45074714606387","1,02312029996195","-3","2,01507428813505","-0,195985755529959","-1,70844516264641"
"4767","-3,66013251569483","-0,785689233355551","-3","-1,37078888458651","0,946871747518206","0,612955294295713"
"4776","-3,1448166300596","3,41648778227173","-3","-2,11577959632919","0,256680089499336","-1,63458832578048"
"4784","-3,03176916125658","0,506176399026447","-3","-3,03615241848767","1,79849919310188","4,1765915584151"
"4796","-3,00696936261071","2,68709204463237","-3","-0,635792805224178","2,94537671518412","2,49310230002364"
"4805","0,559720915397993","0,353391472633629","-3","2,48922031231263","-2,93047854578364","-4,98209699940376"
"4817","-2,43846099374331","2,65508852099182","-3","-1,91048373870845","1,93451717452625","4,41822041619002"
"4825","-3,87681232994937","2,13721995659646","-3","3,77894336227363","-3,933422374106","0,774390740740719"
"4837","-1,41172587384442","0,238210971623394","-3","-0,820017116956424","-2,52411641737785","-0,824563384940117"
"4846","-3,65157222058876","0,840429721999659","-3","-1,94379997240698","-7,32883199731844","-3,73370727448742"
"4858","-3,14293871455006","0,966575163631107","-3","0,393044437130485","3,01328399761856","1,15413636630781"
"4866","-1,25073228339854","2,78353076470102","-3","-6,62826278583203","-4,36990566173379","-1,51198487714231"
"4874","-1,83562932721703","3,95465666376321","-3","0,242563300933627","-1,64243927327351","0,657462964221581"
"4886","-1,96394116886061","1,40943764692515","-3","-2,29975496969309","1,55476392577342","-3,39795728104382"
"4895","-3,77271450064664","1,87629619836149","-3","2,96964468392213","0,421468846930811","-0,543252245038634"
"4907","0,391735506804444","-1,60697634800339","-3","-3,44821816585564","-1,61466507813013","0,876927331411404"
"4915","-0,694687897902493","1,45392237864371","-3","0,923286743768097","2,29121080228204","0,198666066860713"
"4927","-2,71364704009042","-0,695450066213872","-3","-1,39944973521235","1,35002428276158","1,81845946062306"
"4936","-3,93718129364065","-0,14567440100521","-3","-1,12472900623291","-5,82078578735706","-2,36148385893373"
"4948","0,355655589285108","1,76001809443769","-3","2,3365489719982","-0,306829283479223","-6,62879756899638"
"4956","-0,702602933056425","1,15919932434989","-3","-0,270407749458273","-0,8120937476261","6,04516381989061"
"4964","-2,71538340163988","1,03334713352083","-3","-5,14767917257438","2,5087736152853","-2,40393275890447"
"4977","-0,376312388163733","-0,783547040946281","-3","-7,04611312716657","-3,77775166685769","4,00229817387213"
"4985","-2,64380338397943","1,62640431070926","-3","-0,575659263751332","-0,752999071230871","-1,09328765551502"
"4997","-2,14123442531949","1,13121153794181","-3","-1,55524665831882","-0,93304244141928","-3,79458620024653"
"5005","-2,03098331476922","1,02748459324866","-3","-0,173376917797772","-4,43968456919491","2,91379644754081"
"5017","-2,0067969674668","2,79628932941496","-3","0,945862698721916","1,79648047842101","-0,339885462420289"
"5026","-3,782115995324","0,376264788526315","-3","-6,45564413993644","-2,97084166727147","3,46990380494195"
"5034","-1,39095185691085","0,869347552424642","-3","-4,76677996312384","2,92357545019756","2,33300365621107"
"5046","-3,64701491875376","-0,817899673726023","-3","-0,863932767616239","-0,207470694757061","-1,47146286385539"
"5055","-1,36131404607566","1,6192085400188","-3","-1,64526065630341","-1,78515940143552","1,4400952177369"
"5067","-5,42113803130769","2,92023644753871","-3","-1,88923190601824","2,24499282368055","-0,673749417352245"
"5075","-0,750512463609256","0,402227719678652","-3","1,41008342875505","-0,391422375397667","-3,69954068314613"
"5087","-1,725893559218","0,87478595070469","-3","-2,93519439432388","3,35172792835285","1,16187673666311"
"5095","-3,72049278485083","-0,816760504358786","-3","-0,604268453309176","-1,09140617313593","0,263220763205441"
"5108","-1,37743325956561","-0,171085032581748","-3","-0,87643200582541","-2,02477858776843","-1,71381995792183"
"5116","-3,64404927524413","3,54522757705014","-3","2,4140802240717","-1,27779924822432","0,611737645581502"
"5124","-3,14128836773782","-1,25738895025843","-3","1,44154947552617","2,38252913720557","-1,63486418156945"
"5136","-1,25037023841803","1,52714968458491","-3","-3,92536905612018","3,10369684535565","-1,14382716266826"
"5145","-3,61617481354091","-0,680111302946103","-3","-0,913452540005867","-1,15864298820535","4,28777248133898"
"5157","-1,35454849521818","1,64807076802623","-3","-0,972975376560677","-5,50084086485156","-4,57551819468083"
"5165","-3,63902892800519","-0,654782228645896","-3","0,696186425701359","-3,67793347799867","4,51033000054204"
"5177","-1,35956211863624","1,65337639370082","-3","-6,53360607273691","-6,64161128042861","-0,978194099607566"
"5186","-1,85950388211981","2,92739351295659","-3","-3,10337580681276","3,19957731092042","-1,99505991852444"
"5198","-1,96917865149174","0,403726894484085","-3","-1,34453137842747","-2,59048707174558","-2,99888083479489"
"5206","-0,212613653922209","-0,915432212345816","-3","3,26791522653611","-2,16007054262747","1,32060977108128"
"5214","-4,38851686939214","5,17984299675863","-3","-1,66733464071722","-0,314474490856467","0,299181402701041"
"5226","2,03726871669679","3,45660693450931","-3","-2,89612455331983","0,914751558835856","1,8412310013372"
"5235","-1,3336989018417","-0,485419930091954","-3","-2,27981674574669","1,97689066384646","-4,12977708915645"
"5247","-2,85383013660715","-1,10167984875911","-3","-2,08737335776618","-3,92193567481476","-2,48249657917694"
"5255","-2,18730906308504","-0,230766463135454","-3","1,34821335051622","0,936832994900679","1,43759555243138"
"5267","-2,04109094257695","3,53272623860844","-3","2,10873033910971","0,253958762216013","2,09913636416983"
"5276","-2,00901432922707","2,3210568056019","-3","-0,341544588906712","-3,3889918689307","-2,29789708898264"
"5288","-0,221352609311641","0,276718873430561","-3","-0,106648004500284","2,810222367832","-1,29403589171197"
"5296","-0,829184158569286","-2,73256849603657","-3","-3,4087969222905","1,49071908693725","0,706838854515752"
"5304","-6,3044019893305","0,427614866682007","-3","0,935596108629066","-0,595892569763187","0,160132875440162"
"5317","-2,72490348389124","3,67063593265206","-3","-1,39560611056793","1,56738190920596","0,0362777705737496"
"5325","-1,15902576703875","2,34994444692745","-3","2,25196703575785","1,15380714401608","3,55512280464658"
"5337","-1,81551120193464","-1,50776228757106","-3","3,0786772282045","7,95736552590859","0,578857768212387"
"5345","-3,74015266328971","1,47470453041409","-3","-4,41417252832842","-1,11398195103981","-4,41576512505391"
"5357","2,1795036727801","-0,691096874435158","-3","-2,75383036659952","7,34260823759551","-0,773834499629813"
"5366","-4,86374591549423","3,43630183635675","-3","1,14011077068962","-4,73846729010917","4,37159355122725"
"5378","-3,40885942799701","-1,28020538640595","-3","0,356001946898181","-3,74234977541424","-8,10343285628696"
"5386","-4,87031848379886","3,31290256762763","-3","5,17440613780896","0,985515538076949","3,93763618066472"
"5394","1,15094853418761","0,484478631164512","-3","-1,38428097825297","-3,19067983861192","-0,107936695869613"
"5407","-0,528135471671453","2,6825470607579","-1,17157287525381","1,25550333175351","2,86398123203345","-0,0244528344256806"
"5415","-0,896484676617882","2,14297163673459","-3,68629150101524","4,45527730618886","-0,223625627346507","-0,0055397388870608"
"5427","-4,53854113656213","-1,55111642845619","-3,11774900609144","0,078917487405453","-1,78953871632562","-3,54815916736502"
"5435","-1,55689269036784","-0,324908958359645","-3,02020253553339","-2,66310578240875","5,70164124171066","-2,35073224614831"
"5448","-1,9027932940583","-0,0680579673360937","-3,00346620710888","-1,51930822132047","2,00344910248624","-0,306005586908009"
"5456","-1,97867527013292","-0,0142559532408882","-3,0005947071199","2,21334079575076","-1,45690058206785","-0,842777006105638"
"5464","-1,99532188546563","-0,00298616327758896","-3,00010203561049","1,37886817372753","1,33397795113322","4,35597476947594"
"5476","-1,99897373820287","3,58043887874553","-3,00001750654307","-5,63268935340856","1,09053548235267","0,760289118669043"
"5485","-1,99977486372586","4,1215832596605","-3,00000300364793","-2,13431476619373","2,75346034518609","-0,827758078152413"
"5497","-3,78057552068366","5,02546777890141","-3,00000051534451","-0,354192132503111","2,20424969838151","1,58592520092285"
"5505","0,390010994826126","-1,15679408782039","-3,00000008841914","0,889402773845513","3,78428624660741","-2,41416401284187"
"5517","-4,25631603282113","2,33875326183577","-3,00000001517033","0,277717856199294","-1,97414730662706","-1,32037592199924"
"5526","-5,05622935277522","0,280425711328814","-3,00000000260282","-4,97652581820267","-3,99299179464784","-2,8460325756948"
"5538","-2,45108549937902","0,849272350994804","-3,00000000044657","4,82156537968386","-0,811346841570235","1,35523722694248"
"5546","-1,09895692203566","4,54949179356635","-3,00000000007662","7,94428342064679","4,23789387443515","-1,46642589455217"
"5554","-5,36358341360248","-2,0470279260825","-3,00000000001315","-0,831633135026284","-0,851182346680182","2,44123633267827"
"5566","1,0427384958053","1,36174573913735","-3,00000000000226","-8,01067089144674","-1,95965818108595","-2,22039505114861"
"5575","-4,11312387853142","-0,714758104848285","-3,00000000000039","-1,87684442120037","2,19768930818799","-3,04993004140581"
"5587","0,317058168885299","-0,149718813536459","-3,00000000000007","6,47719523988295","-2,1331633033005","3,08249675478564"
"5595","-4,27232006557954","-0,0313612717011764","-3,00000000000001","-4,35297824806191","-1,30718041685254","-0,301666757952974"
"5607","-3,27911532892831","3,57449520697975","-3","0,640773536260758","-1,08327114743556","-0,0683419779021846"
"5616","0,500018869536877","-1,25125832396911","-3","0,200082862379838","0,706344459210447","-1,78893480875832"
"5628","-2,45155813542883","3,31896604534689","-3","-3,31301957451837","3,64931299211165","0,594720532026042"
"5636","-3,87968551658571","0,485748734551763","-3","2,65325071474436","-1,01073615525919","-1,63871937332627"
"5644","-3,1929810893955","0,892280914619534","-3","-1,85926490619022","1,4549251916701","2,40220360265866"
"5657","-3,04233524385944","-0,813095872614947","-3","-1,26830724467235","2,8522399142728","1,31766631589617"
"5665","0,551962522015207","1,62021478170803","-3","-1,08377949224396","-1,22680848975796","2,84541872005596"
"5677","1,12108682795803","1,12991503086881","-3","2,34933554246081","1,39635182489383","-3,12882837017236"
"5685","-1,5346863861639","-0,763319175157029","-3","-1,95416304749924","-0,621473856067906","7,38497872868467"
"5697","-4,67854669404849","-0,15989079449249","-3","3,76530440773653","-0,168470508720021","-7,64730462313298"
"5706","0,193018487828529","-0,0334919742559599","-3","-2,51202383984974","-1,7745871446661","-0,505933065830416"
"5718","-2,51890637180409","1,78351670147497","-3","5,27885915230082","-1,209976797955","0,885381914004735"
"5726","-2,11383513202955","-0,626410665851812","-3","-3,03941323949909","0,671996810967012","-3,34632271601827"
"5734","-2,0249725923371","3,4498515146823","-3","-3,32455893445301","1,91108416938437","1,24189753400887"
"5747","-0,224853454718061","0,513165026924159","-3","-0,725848336512314","1,24697871359237","2,05480138426921"
"5755","-2,61057706681956","-0,892508446622234","-3","2,46110028635399","1,06695153644143","1,23896306435646"
"5767","1,42730442094683","-0,186951788014929","-3","-0,231516343869176","-0,710768415487048","-0,719315489248996"
"5775","-3,24813478410852","3,54190400256807","-3","-1,76003938847405","4,99407668304074","-0,162959431143611"
"5787","-0,49318477065423","0,532447059790736","-3","0,450424059641813","-1,64619463688793","-0,0369181209018243"
"5797","-2,66944227340983","2,69259490235971","-3","0,140645844495685","4,74049927209936","-0,00836372366641727"
"5808","-3,92748386897052","0,354544144180002","-3","-3,33157890632065","-1,7149349628149","-1,77534685974661"
"5816","0,357782962695137","-0,925734415247804","-3","0,959707593870323","-0,464888366238223","0,597798853672734"
"5825","-4,26338606027122","1,59662063307638","-3","-3,0758251805394","-5,31277632609661","0,135430089562676"
"5837","0,284094389238638","1,12497281627122","-3","-2,33592863837472","-3,62695252649621","0,0306814057040588"
"5845","-4,27955149770713","-0,764354410015894","-3","-0,417146481206176","2,01679767977976","1,78040288429169"
"5857","2,0611730049199","1,63042454904171","-3","-2,50575071402545","0,546717979815919","1,1767986537031"
"5866","-4,88970471640889","-2,44901073536859","-3","-0,470173775669311","-1,58071226591144","-0,733398707459723"
"5878","1,92732058763759","4,06807547309766","-3","5,9164310591803","-1,15742076662251","-1,93960203050837"
"5886","-1,35781878255225","2,43319523631251","-3","0,535165769726211","0,686243816289023","2,33403926115871"
"5898","-1,07849652763537","-1,49032392719688","-3","-4,20838924345373","-1,5428892932784","-2,24468032521288"
"5906","-4,57847000276487","1,47835730553834","-3","0,685921752086703","2,31066794093669","2,26492440668614"
"5915","-3,34627699895977","1,1002004562745","-3","5,27742427954298","3,08421655318496","1,28656599897279"
"5927","-1,29533963784664","1,02098876994534","-3","-4,72760921260808","-6,35067710754056","-0,708531143211983"
"5935","-0,0647901596408316","4,58546085545682","-3","-1,1639536886064","-2,17939118182925","-3,70742041094987"
"5947","-4,35608807702621","3,33210301020354","-3","0,636553052654209","-0,319711972503265","1,16009160068362"
"5956","0,263757875967426","-0,51149949421477","-3","1,8865129387638","0,913331770716319","3,80972049537229"
"5968","1,0578619077854","-1,10714267789183","-3","2,96456343033809","0,247587998337171","0,636536346626506"
"5976","-3,32918126869272","1,55862144193109","-3","3,98893485780912","-1,66180108350384","0,917658063700307"
"5988","-4,07221417045431","-0,673518982918088","-3","3,30879695533669","4,00735085579849","-2,5655585457852"
"5997","-3,23521708017049","3,43998383876366","-3","-3,65456923631992","-0,913678458547713","-3,1281261147258"
"6005","0,509649051810103","-1,27943412543239","-3","-0,14114680489961","-1,97659976544472","-4,02902670536423"
"6017","-6,01069533327381","3,31306412197322","-3","-1,73182131296723","-1,26473882641066","0,313780286671826"
"6025","-4,44109646975166","-1,30601972031177","-3","2,14698314322035","-1,0717659871415","-0,702365802817265"
"6037","-2,31614066778782","-0,273569088134791","-3","1,358147859439","2,43838108973577","0,840880485138271"
"6046","-2,84997829743088","1,73322827465843","-3","-3,95141138329119","3,11883731629244","0,190499728653087"
"6058","-1,18646406551899","-0,63694447238932","-3","0,766163620578358","-2,88345646202859","1,81660939365143"
"6066","-0,0409055711598283","-0,133419362505832","-3","1,9269841067466","-1,51057154731751","1,18500116325161"
"6078","-2,57022348330389","3,55311732240115","-3","6,35269649851418","-2,86732465155145","2,81536370507205"
"6087","-2,12509282798469","0,534795889317573","-3","3,04688641798183","4,68055485818735","-1,36218519592855"
"6095","-0,246817340426669","2,69308690653228","-3","-0,360855481226433","0,997732958959767","-2,08205230441899"
"6107","-0,834770486250132","2,14517939512654","-3","-4,48817373282255","-0,729532340706674","-3,01858877926583"
"6115","-0,963752760546182","0,23987821776591","-3","-2,7769373958023","-1,9266810281582","-0,457307098343559"
"6128","-2,7726731685557","0,840778956394677","-3","-3,9303482403499","2,20662882780837","0,896398026015251"
"6136","-5,73075506586067","-0,823883874916602","-3","-3,29050316282647","1,32709561387391","1,97652918782058"
"6148","-2,59905963841195","-0,1725771493987","-3","-1,40296228248646","2,81758758933504","1,22123066070567"
"6156","-1,13141876210752","-0,0361493572108035","-3","-0,125825806386289","2,22163345369012","1,05011934701665"
"6168","-3,59007982271658","1,78296006529217","-3","6,02395442500294","-1,39775468512758","-0,762097641465501"
"6177","0,431801005717208","-0,626527263212927","-3","-4,49450363020824","-0,378906434389907","3,37425251208442"
"6185","-2,46652343544564","-0,131237292533248","-3","0,596581942886783","-0,10271479505645","2,31133405433931"
"6197","-5,66359344059823","1,76304220390446","-3","3,56177980816534","-0,0278441540336366","-1,47637206718399"
"6205","-0,803701140849642","-0,630699413979631","-3","-0,887826886011685","-0,00754805491675073","3,21243512342087"
"6218","-1,73756183007597","-0,132111223809366","-3","-0,277225781962861","-0,00204614343669624","0,501222585282058"
"6226","-1,94242760284668","1,76285914343563","-3","1,60118360715749","-0,000554673092566396","-0,886449063596321"
"6238","-1,98737005019148","2,9503266245671","-3","1,1877208251106","-0,000150362009866683","-0,200823195524765"
"6246","-1,99722930362373","-1,38200154880514","-3","-5,69237550847479","1,72887702573621","1,72795599737318"
"6259","-3,78001708820709","1,50104735670705","-3","-3,84069982271832","2,92650338392527","-0,608535155183276"
"6267","-1,39049140897312","1,10495329155824","-3","3,48848146553775","-2,93559477020302","3,40904177463134"
"6275","-0,085664087997831","-0,768547855976506","-3","1,77703348597928","1,93313025708436","-1,22768866145405"
"6287","-2,58004238696465","1,629546157108","-3","1,24263031358469","-5,66271612895922","1,49532175733538"
"6296","-2,12724685085923","2,92240184553124","-3","-5,67522990709771","1,46493837565616","1,11221411607958"
"6308","-3,80853969933683","0,402681300849789","-3","6,29114151351449","-1,33179904825325","-0,748030200412544"
"6316","0,383876350616587","2,66541315326934","-3","-1,03557804679941","-1,08994482053632","-0,169464689360072"
"6328","-0,696412000998732","0,348850442778015","-3","-2,01110931871976","0,704535345132133","-0,0383918736490418"
"6337","-0,933400355388305","-2,71745925431133","-3","0,372026954489476","0,19098700105685","-0,00869759929251235"
"6349","-2,76601460694169","4,01184415024996","-3","1,80391411733958","-1,67714460714972","-0,00197042306777334"
"6357","-2,16804452335901","2,42141658436965","-3","-0,436724084782079","0,545355927035681","1,7730056802526"
"6365","-2,03686478244025","0,297741016309346","-3","3,2391278632414","0,147836292008301","-0,598329243027965"
"6377","-0,227462304992545","0,85289934997547","-3","-2,67632355446354","5,22682914792535","-0,135550248170276"
"6386","-0,830524473609316","0,969187149270886","-3","-1,52343549799054","1,8747359889652","-0,0307086273872202"
"6398","-4,52407111108899","0,993545699696797","-3","-2,85119174829363","1,96604315457956","3,53994717521939"
"6406","-1,553718327227","-2,58241635195915","-3","2,79745740894857","-1,46704066923558","2,34887183637178"
"6418","-1,9020969178585","2,24959909909272","-3","3,24900772578646","-0,397688632347027","-3,2413200360835"
"6427","-7,3203972324636","3,05228297618796","-3","-2,67323854694362","-3,56564188726408","-3,28121847780385"
"6439","1,61346228812866","2,22041940851152","-3","5,22851952647716","1,03341790359214","1,25664676405192"
"6447","-0,426671475262403","0,255638578450253","-3","-3,05513189180908","0,280141213083502","-1,48876135929464"
"6459","-4,4354758232194","0,84408024460192","-3","0,046028746086768","1,80485908642125","-1,11072787151961"
"6468","-3,3149076379488","0,967339830598982","-3","-1,67337535992831","4,67601855534737","0,74836690603289"
"6476","0,492166928523271","-0,797373446007191","-3","-2,89801078039101","1,72542103414617","0,169540969319526"
"6488","-7,79515538561778","3,41404031585834","-3","-0,592657792930267","-3,26118683253398","0,0384091547155363"
"6496","1,50931217553992","-1,28486845830948","-3","4,19043724026427","0,115950253830144","3,5556056653002"
"6508","1,3311054943863","1,52139361226609","-3","2,68396856002043","1,76034983770135","-2,96793699172665"
"6517","-5,04986334225721","1,10921517711301","-3","-2,84967319545129","1,20611731726449","0,32762003450417"
"6529","1,89218577467368","-0,767655128151021","-3","0,110183649093513","-2,40196083373942","0,0742216388385999"
"6537","-4,92677630525739","-0,160799037062119","-3","1,72215300350778","0,348871139735553","0,0168147582312078"
"6549","-1,6420618154516","3,54738216198565","-3","-2,15000209285162","0,0945727608894945","-1,76964272693087"
"6558","-5,48272709848912","0,533594557836299","-3","0,328657398414567","3,48347256579228","4,1459952641411"
"6566","-0,764023570766794","-0,88822911756178","-3","3,47811981485063","-2,78461033136565","-1,06073337795919"
"6578","0,051767350407032","3,39500897748534","-3","-4,28944575425009","-3,21269390559482","-2,01375902072398"
"6586","-2,54989335279219","0,50167728086747","-3","4,03610755113804","-0,599821962384397","0,543787073429889"
"6599","-0,340007993799377","0,89561743230233","-3","-0,73971706694212","4,29523450695805","-1,65025824265837"
"6607","-2,63583910419742","-2,60292917148022","-3","1,45676974658457","0,893279465127381","2,3995894957605"
"6619","-2,13948726072531","2,24530232374991","-3","2,83037522949379","-4,21568339745905","1,31707409540399"
"6627","-3,81122494035316","1,2608507481641","-3","0,571538452232891","-0,871714574254364","1,07183247822365"
"6639","-1,39733763434718","2,84517202636727","-3","-0,821535935846821","0,763693683411772","-2,53063065216532"
"6648","-3,64841579925374","5,75810071564322","-3","3,11896956661757","-1,52189401184045","2,20014295360753"
"6656","-3,14224627433553","-1,00333107242724","-3","4,03714849330988","2,31635938830818","-4,04846633129458"
"6668","-1,25058037926414","0,580366631381966","-3","-3,42713996171716","-0,372076169067301","1,08282835527339"
"6676","-0,0549710932598018","-0,87843187383639","-3","-1,7578794745032","-1,82978101781469","0,245312516467224"
"6689","-2,57330910848083","-0,184003199168072","-3","-1,23664943387397","3,96181448333199","0,0555750414573217"
"6697","-3,90639464725974","-0,0385427468111104","-3","-6,13713806869133","0,802895226998487","-1,76086166521331"
"6709","-6,76009022728977","-0,00807346469225481","-3","0,395918009938042","-0,782349384417979","0,601080444430103"
"6718","1,73637968783083","1,78884106095817","-3","-3,93961757565602","-0,212081003090966","0,136173527137787"
"6730","-2,18033136961106","1,16523680796955","-3","3,45759419253416","-1,78640917402497","-5,28950639658322"
"6738","-2,03956021044293","-0,755920399929927","-3","3,45513680220368","-2,9420993260479","1,80167330427204"
"6750","-3,78930343470143","-0,158340989263126","-3","2,45436947698894","1,20244920148345","2,1816174232027"
"6758","0,38809630790274","-0,0331673399515999","-3","-2,92136598414041","-1,40295519468581","3,04114505027798"
"6767","-2,47611115746325","3,57411689382208","-3","-3,28769843474187","-1,10923398623654","0,462417174725619"
"6779","-3,88507183800492","0,539194623513924","-3","4,3489052241477","2,42822418159453","-2,66869242432587"
"6787","-1,41353780416767","-0,887056084079134","-3","-2,32979327752633","-2,07066939945998","0,395413270164034"
"6799","-1,87134480299248","1,60472249832682","-3","-1,41523070208795","2,16759614135482","-3,45732409534606"
"6808","-3,75240116454824","1,12666989622666","-3","0,558091285333054","3,04543233302235","-2,33015374911142"
"6820","0,396191746739757","-0,763998926397476","-3","3,5497610207117","-2,9033552473972","1,47210850439381"
"6828","-4,25496012981365","1,63049901141607","-3","2,48391608498406","1,94186981829833","0,333503126296015"
"6840","-5,05593190143089","-0,6584629459873","-3","2,15110379869972","-2,20251141695228","1,8490065165826"
"6849","-0,670395335989511","1,65260540190712","-3","-3,01606131960598","0,402938329178788","-0,581111411297819"
"6857","1,85293196281434","-0,65383236882638","-3","-1,62951931803233","5,29598277290572","-1,90510165963654"
"6870","-6,71601252374197","1,6535753587552","-3","2,17892715278915","1,89348230671699","5,88875939959183"
"6878","-1,0345756719593","1,13690299781947","-3","-0,319625488606649","3,70004273409898","1,88099037082252"
"6889","-0,00758504114877923","2,81920896278501","-3","4,96344007328169","-1,9969842244959","3,74649069102436"
"6898","-2,56291378903301","0,381065713890544","-3","-4,82565143060825","-3,99918247690003","-0,377788234314491"
"6910","-5,68473908309409","2,66088538364843","-3","-2,88231550513614","-2,54194281162279","0,687864935127889"
"6918","2,75290985187231","2,13843421271093","-3","1,09999102036145","-2,14691105712623","-2,61761770212559"
"6930","-6,51857979330853","-1,55206687272079","-3","2,03122240297711","1,41801059780836","0,406984142472465"
"6939","-2,77188875892047","-0,325108045836463","-3","-2,05349453344037","2,11331523824462","1,86565348828687"
"6947","-1,16933316597818","1,72243252215746","-3","5,42203587686844","4,75963553184303","2,96956407660878"
"6959","-1,81777238850491","4,73239074073046","-3","5,44403364457123","-1,70974746315979","0,446200653707814"
"6967","-0,179398891348984","1,57234789930365","-3","4,45090249304713","-0,463482127347642","-0,898914167995953"
"6980","-4,38123037786245","-1,67064373197943","-3","-0,922448557049009","5,06111159747128","-1,97709921456403"
"6988","-1,52238262851605","1,44058611127549","-3","-2,97578440149406","-3,35694045008511","2,32554435193664"
"7000","-0,114597736158691","-0,698243584907584","-3","-1,61694276702385","-3,36784242120015","1,30029932175205"
"7008","-4,36701461860879","1,64427263866811","-3","-1,19264165538265","-2,37079775166477","1,06803218806899"
"7020","-3,29988895502407","-0,655577814477381","-3","5,69083896904174","1,3573188970131","-2,53149160001232"
"7029","0,495461653441955","1,65320974408055","-3","0,464724172857883","0,367945011431195","-3,12040831886721"
"7037","-2,45255787511992","1,13682641331497","-3","-2,54263684668918","-1,62917443794828","3,06653004730505"
"7049","-2,09927992459637","2,81919292079672","-3","0,206056384215297","-2,8994757857064","-3,85218813341159"
"7057","-5,58302936234424","-1,40946983830052","-3","0,0643415322767931","2,94292147136182","1,12729477362662"
"7070","0,994597521044255","1,49529363431449","-3","-3,35540508567533","-1,9311441187144","0,255386291254699"
"7078","1,21818992071865","1,10374807194032","-3","2,64001575119514","-1,25241660906542","0,0578572342272141"
"7090","-5,07463420639588","1,0217318812228","-3","-0,175649619818217","5,84724549162622","3,5600115873489"
"7098","0,106126754149173","-0,78598006238555","-3","1,63290097393586","-3,14383353371651","0,579965311786885"
"7107","-0,757343343728436","-0,164637520869602","-3","1,19762463850652","-1,58115514033272","0,904842013171081"
"7119","-2,72739208415911","3,54657812319611","-3","-0,626039228886804","7,48704810901253","-4,34191407094174"
"7127","-2,15957170394655","-1,25710605431751","-3","-0,195482044418833","1,4874411486033","1,01634837890974"
"7139","-3,81563096689294","1,52720894217757","-3","-0,0610396727983257","-1,59678116054345","2,0037036913108"
"7148","-1,398304206816","2,90096549343383","-3","6,73193196037217","1,29605881425281","1,22738698807045"
"7160","-1,86800293120204","3,9792554589844","-3","1,47755554441721","-4,10649707982631","1,05151405020363"
"7168","-1,97104313114929","-2,16647408118012","-3","0,14911770674854","0,886801680648613","1,01167040115576"
"7180","-1,99364758428901","1,33672561484439","-3","0,734310243560383","1,96931394899209","-2,54426024585812"
"7189","-0,217981528257448","-0,719999015442048","-3","-2,45845803837157","4,7205993435628","-3,12330102908214"
"7201","-4,38969444730768","-0,150816615590925","-3","5,2955851846335","-1,720329479497","-2,2544815167172"
"7209","-3,30486434448666","-0,0315912258912412","-3","3,71680122318801","-0,466350723762773","-2,05765225943361"
"7221","2,27499508690476","1,78391484706866","-3","-3,5271690595722","1,60249839959914","-0,239608924207935"
"7229","-1,28154765797579","-0,626327267167002","-3","-3,47686169837823","1,16332659997265","2,71916917104013"
"7238","-2,8423894527891","1,65933679211106","-3","-4,14890105188739","-0,684642849910148","1,38947420754811"
"7250","-3,96542417201657","1,13810983263597","-3","0,0167491318553443","1,5433232867886","2,86168664887178"
"7258","-3,21179001464934","1,0289295639178","-3","-0,682517980048029","1,14728527939027","2,19521332186353"
"7270","-1,26583654355622","2,79659200425378","-3","2,47463027980519","-4,14682693901129","2,04422517290118"
"7279","-0,0583179156748281","0,376328189161366","-3","1,46045635569965","-0,853048813064104","3,78347119663999"
"7291","-0,793418407975361","-0,921171359094245","-3","-0,543969481426432","-0,960164146925279","-5,68976660404755"
"7299","-2,73530605462597","3,388108638358","-3","-1,85760352710379","-2,71811899496272","-1,06245689049433"
"7307","-2,16130783193018","2,29076407386634","-3","-1,26778847561542","-2,19466928692437","-1,01414947891165"
"7320","-0,254762010177501","0,270373521312884","-3","2,29187835671089","-0,323853595055079","-1,00320553508006"
"7328","0,944111561082124","2,63769893269661","-3","3,09113962074375","-0,816708735696458","4,31963001920763"
"7340","-5,1347601712153","0,343045205741749","-3","-1,03478525823131","-0,950312998302893","-1,02139678457936"
"7348","-5,2489381147182","-0,928143072677816","-3","-2,01086176884919","0,742387048619719","-0,231395321628266"
"7360","-4,27398591135312","-0,194416095026865","-3","-1,31564367867306","0,201247924634264","-0,0524221298518185"
"7369","-2,27948077399486","-0,0407239132825114","-3","0,589187539427778","-1,67436305327075","-1,7853282002243"
"7381","-2,84193602992971","3,57253403496979","-3","1,87172295926537","-1,18280782938373","-1,17791447380509"
"7389","0,595925117612167","2,32939525745056","-3","1,27219729751926","-2,77847373729154","4,28005007174945"
"7401","1,13073112632488","-1,51206668124878","-3","1,08499416929345","-0,482112597885315","-4,57726769054541"
"7406","0,248054242632641","-0,316729293405679","-3","1,02653960520447","-0,859609936537028","-2,58387464615086"
"7418","-7,06808271808743","-0,0663445908472835","-3","-5,74270467785479","-2,69086053700403","3,18808063727849"
"7430","-2,89243601251336","1,7766351358876","-3","6,2700723767485","-0,458362217593514","-2,05119902402348"
"7438","-2,97640314056157","1,16268005959932","-3","-1,04215692834407","-0,853171630869","2,30875719389842"
"7451","-2,99482343683637","-0,756455956406875","-3","-0,325415656971212","0,768720345554994","-4,02386000058651"
"7459","-2,99886439098995","-0,15845317110446","-3","-0,101611712134628","0,208386413064059","-2,45850128259329"
"7471","-2,99975087567119","1,75734135347493","-3","-0,0317284673362962","-5,13026350842948","1,44303163706995"
"7479","-1,21932043835387","1,15863863328759","-3","3,36558858267546","1,60927681077153","5,64727204888"
"7491","1,73251146906566","-0,757302505117946","-3","2,42640786017689","0,436246320476575","3,59973398823688"
"7500","-6,74242978039905","3,42243388801448","-3","-2,93009705683915","1,84717640451843","-3,95793981175408"
"7508","-4,60162077996483","2,29795410867399","-3","-1,6026767991338","1,22965445521368","-1,67011512512228"
"7520","1,20989411715596","0,271879602144127","-3","5,56280464709266","-4,12449812048042","-2,92526526627547"
"7529","-2,29582918907521","-0,943049975674745","-3","2,11249312206364","2,61083970490016","1,33728722533959"
"7541","-0,284272645011601","1,59299358058791","-3","2,03512621009894","1,43666999327689","0,302959645349054"
"7549","-2,62361215703947","-0,66631912637431","-3","0,323220300653471","-0,610544317726374","3,6155390298763"
"7557","-2,1368049730918","-0,139572406889443","-3","-0,899073792417512","-5,35226106387877","-1,1809071368652"
"7569","-0,249386693313937","1,7612962657701","-3","-0,28073765175656","-3,63765613662541","-0,267532060873459"
"7582","-0,835334138271084","1,15946706009725","-3","1,60008701854877","0,2849783352476","-1,83406090863466"
"7590","-2,74450132173309","2,82393540745192","-3","1,18737841304882","2,8061703442059","2,35794938326765"
"7602","-3,94394995445369","-1,40847644001597","-3","2,74625722825939","-1,9682149170031","-0,465811461165805"
"7606","-3,20707910623825","-0,295030472635224","-3","-2,830223429926","0,466451943069966","1,66792345577772"
"7619","0,515821822374636","-0,061799386422379","-3","0,11625687861798","-6,78922431945342","-4,16903955390158"
"7631","-4,22871627120144","3,56811940180674","-3","1,72404938199156","-1,29827353088921","1,05551274194258"
"7639","0,291700077337002","2,32847053391838","-3","1,22608591749687","3,37697892333486","3,78602837197887"
"7651","-2,49725808922177","2,06880400276173","-3","2,7583437266044","-0,0845610775156266","2,40462102075391"
"7656","-2,10908603808915","2,01441222364625","-3","-6,20194525805583","-0,0229230040940196","0,318213976948272"
"7672","-3,80455566940045","-3,36857767883596","-3","-0,624318169019204","-1,73513180489941","-0,927909283978332"
"7680","-1,39587456243152","0,294391417236506","-3","-0,882692571036287","-2,92819894330764","3,33668822861669"
"7692","-0,0868450177723912","5,43326210062159","-3","4,09987328075403","-3,98053601059885","0,529371868375736"
"7701","-4,36092636351433","-0,0713743050985043","-3","2,65568977629755","-3,26580587246109","-4,42697605295347"
"7709","-3,29855334351462","0,775581572668079","-3","-2,85850330417411","-1,34313745814435","2,77052983894086"
"7721","-3,06549516661106","-2,6280728198899","-3","0,107426429376391","3,36481711061489","-0,372342215247476"
"7729","-1,23374309809749","0,449503346919235","-3","-1,6542038062968","1,64105985757118","-0,0843533560647087"
"7741","-7,17377705308436","1,88468867271881","-3","0,483471439137591","-5,74189121944391","-0,0191100777403127"
"7750","-0,134997806794469","1,18531379711563","-3","-3,2245309051293","1,44347541684997","-1,7777814239579"
"7758","-1,59086497596698","1,03881727489047","-3","0,993133553711599","0,391300511561644","4,14415145922156"
"7770","-0,129621057295925","-2,57293341433459","-3","8,74884766242771","-3,3517609634713","-2,83460316364584"
"7782","-2,58968545106169","0,461053277340239","-3","-0,580406285984751","-0,637520568299827","0,357826536520322"
"7791","-0,348737388939568","0,0965758194167362","-3","-1,18123306358867","2,5560972992067","-1,69238721633247"
"7799","-4,41837902601624","1,81076171711857","-3","3,00665339431063","1,42183030075292","0,616593188704723"
"7807","-3,3111570265232","1,16982847976735","-3","2,31432960501678","2,84326847797759","3,6865920581743"
"7819","0,492989719242413","-0,754958592502979","-3","-4,65284165501093","5,68643065824107","0,608641854733476"
"7832","-6,01434997585562","1,63239267034134","-3","-6,20385115742705","0,999325783846158","-0,862113451051759"
"7840","-6,22252311727113","2,92299809841893","-3","-4,68815708340627","1,72873501819516","-1,96876208852054"
"7852","3,63493343096022","0,402806196635239","-3","0,848365320358513","-4,98920625660421","0,553981035029042"
"7856","0,797413848655158","0,874907123004816","-3","2,95265175756826","2,3764327090712","0,125503253693223"
"7872","-1,60569217513742","-0,816735122662678","-3","-1,76577631114416","3,10204421212073","0,0284325016410711"
"7881","0,647751134525298","1,61945247597744","-3","-9,67785489306157","0,56982679852145","0,00644132423487251"
"7889","-5,19977426647133","2,92028754426928","-3","-0,39742607490528","2,61230548242965","7,09526757067226"
"7901","-3,48257567774387","2,19277061470975","-3","1,87590288588467","2,16598512569724","2,92777436837123"
"7909","-3,10586508274939","2,04037923812723","-3","5,64899835049745","-1,41283995707401","2,98363743305945"
"7922","0,538025657889392","-3,36313842523001","-3","0,451659353154283","1,34592200289784","-0,550611056597664"
"7930","-0,662595482838325","2,08606295767793","-3","-5,9222122259147","1,09377330234674","-1,12473979207401"
"7942","-4,48723167362064","3,01802741910246","-3","-0,536970950999558","2,75433806059795","3,29209668553109"
"7950","-5,10688649226401","-1,36782041176793","-3","-0,855418221498895","2,20448763141844","-3,02763440417809"
"7959","-4,2428233238889","-0,286514343512501","-3","-4,33034990278449","0,326515173616355","2,08754778512478"
"7971","-0,492019568590382","-0,0600155315216389","-3","-3,4154045094764","-0,911487543897675","-2,3005224575131"
"7979","-5,23043647705032","-0,0125713218391375","-3","5,30902873810352","-0,247088061248429","0,4788214120054"
"7991","-0,708677292975959","1,78789890468052","-3","-3,71774065503677","-0,0669811786461023","-3,43842815392625"
"8000","-3,49734087486814","1,1650394565592","-3","-0,848620142209695","-0,0181574061901366","2,99448331372545"
"8008","-3,10910419919777","1,03457045321366","-3","5,79826039826861","-0,0049221498668387","1,4518460551565"
"8020","-1,24330983354715","2,79777358897025","-3","-6,25272498811127","-1,73025209348526","-0,671087289523804"
"8032","-0,0533761166385995","2,16710788503294","-3","-0,640174244786094","0,530959432070634","1,62141864291504"
"8041","-0,792334300366898","0,244471530481306","-3","-5,95088745686411","5,33068701689041","-0,632670971716533"
"8053","-2,73506822842176","2,63227329945198","-3","0,454075148810927","-1,55494556240092","-1,91678237103707"
"8057","-2,16125565878522","2,13244090214944","-3","-2,23370995760115","-2,15043587159262","0,565756932140552"
"8069","-2,0353754746632","0,237209913563639","-3","1,30251944446515","0,417055083299586","0,128171058742856"
"8082","-5,56901031788709","0,840220032562113","-3","-1,28103353983342","-3,34477935714918","1,80248896284698"
"8090","-0,782951959789951","0,966531240444245","-3","5,66323842024994","4,55112537960599","2,95525428446891"
"8102","-1,73300997661304","-0,797542819614546","-3","3,83160170663902","-0,766270856827415","-1,33049327551034"
"8110","-1,94142903958346","-0,167059546281826","-3","1,57192142225892","-1,93664018643983","-2,07487256562511"
"8122","-1,98715099028572","3,54607078684188","-1,17157287525381","-1,50916428378565","0,47501129093111","2,30339400218322"
"8131","-3,77780615731126","-1,25721232495159","-3,68629150101524","1,21650826123258","3,58660268472975","1,29528120598867"
"8143","-1,39000638580881","6,89878325763361","-3,11774900609144","1,0676051524991","2,43009976819325","1,06689534435794"
"8151","-3,64680750594564","1,02613739127989","-3,02020253553339","-7,4176298068742","0,387674611112806","-0,758297074086564"
"8159","-3,14189345484627","1,79600713397151","-3,00346620710888","3,37157767775252","-2,62382609438926","-1,9452427037909"
"8172","-3,03112788943099","0,166737869576264","-3,0005947071199","3,42827796750541","0,288727413713885","0,559309302824848"
"8180","0,5544211364019","0,825458407976522","-3,00010203561049","-4,30500897420035","3,53610443889896","3,67361451272143"
"8192","-6,00087345318584","2,75397134720941","-3,00001750654307","-1,03199588985516","-1,04142498048488","0,605701818746142"
"8200","0,902932935999077","-1,42313165835998","-3,00000300364793","0,677757148318902","-0,282311789213631","0,91067256540635"
"8208","-0,582543915851896","-0,29810026909881","-3,00000051534451","5,27487486512491","-0,0765297048011026","-2,56714109592524"
"8221","-2,68904544393221","1,72808978195206","-3,00000008841914","0,334838520830775","-1,74966362800145","-1,35503256266646"
"8233","-2,15115940629458","1,15251137071754","-3,00000001517033","-0,895445979130466","5,71245066892894","0,693020185310149"
"8241","-2,03316060836414","1,03194622253286","-3,00000000260282","-0,279604859552176","0,277461559743737","-1,61644979089656"
"8253","-2,0072746114452","-0,783840486700259","-3,00000000044657","-0,0873071958635725","4,26196825246713","-1,13965542068055"
"8258","-2,00159586854069","-0,164189348640563","-3,00000000007662","3,34823400970719","-1,84465621098748","2,51526550531884"
"8270","-0,219725183830714","-1,82492457488225","-3,00000000001315","-2,64225493450227","2,95778208303605","-0,430171820226131"
"8282","-6,17070187188011","2,4082692412825","-3,00000000000226","-3,20054543204558","-1,19819788500065","-3,6443586840647"
"8290","-2,69557300858908","-0,495545120740256","-3,00000000000039","2,68837099842679","1,40410765096952","-0,599073971484693"
"8303","-1,15259139137884","3,4772636335712","-3,00000000000007","1,52719733729276","1,10954639663724","-0,909171040365425"
"8311","-1,81409966019498","2,30943917529384","-3,00000000000001","-2,21087740296679","1,02969607971394","0,794029187797861"
"8323","-3,73984300619349","-1,5162468380362","-3","0,309648956887501","-0,720867707172764","-1,59356641102806"
"8331","0,398946693859389","3,26345948213648","-3","-3,27880733482944","3,26242115849007","2,41243291255194"
"8343","-4,25435576304126","0,474121896421522","-3","-5,77480609824069","-1,11561565001742","-0,453468330687504"
"8352","-3,27517440844172","0,889845466321386","-3","-4,55418687603335","-3,76025913255905","1,6707197663693"
"8360","-3,06036641062473","0,976926171279268","-3","4,2656936570223","-0,748257156308272","1,15195017098607"
"8372","0,548006933182798","-0,795365416237296","-3","2,01971960072771","-0,931756992624423","-4,28593223066395"
"8380","-4,2216556596204","1,62392874154188","-3","-0,36933837611887","-2,71041832068716","2,80248302414283"
"8393","0,293248999638229","-0,659839206016402","-3","-1,80307460318102","1,26525380131141","3,18180086355885"
"8401","-0,71629338427842","-0,13821507217548","-3","-2,93850963742861","-1,38592998472779","-1,27916961821697"
"8409","-0,937761835635127","-0,0289516082134686","-3","-2,29305157594924","0,624299031571957","-0,28979322207904"
"8421","-4,54759631703755","-0,00606442991312844","-3","8,03498162585248","-3,28859920885541","-0,0656520529935752"
"8434","-5,12012899134798","-0,00127030284121273","-3","-1,49106036392904","-5,80715189863939","-0,0148733363442697"
"8442","-0,684478578369475","3,58079829627013","-3","2,90990917878439","5,88361997986518","1,77008255202992"
"8454","-5,27265718964691","-1,24993802967126","-3","5,65961688581026","-3,86289084312167","-2,3724435471688"
"8458","-4,27918928555094","-0,261821779322395","-3","-3,92052084946938","0,952838998589332","2,23597991392574"
"8471","-2,28062226467794","-0,0548432342246391","-3","-5,28743453969236","1,9872154913327","3,05346075972145"
"8483","0,719063375397067","3,56957649176034","-3","3,03673555704465","-0,461301225317279","4,01211142415661"
"8491","-2,40350522723606","-1,25228863646473","-3","-6,80276476416384","3,33278501501903","-2,09106448403056"
"8503","-2,08851899555084","3,31875022804678","-3","1,87582262829795","-1,09654126001823","-7,56753462086991"
"8507","-2,01941886261797","2,2762357196859","-3","2,2734774276564","1,43166495391691","2,2855907381279"
"8524","-3,78488492470909","0,267330298807568","-3","-3,66559783190989","-2,34081888107894","5,8381520644857"
"8532","-4,95280911099212","0,846529283637956","-3","-2,52008636893295","-3,09238993678679","-1,67737876692773"
"8540","1,13285214542079","-0,822679366473157","-3","1,21309781754887","2,89062587621412","-0,380006678232804"
"8553","-0,532105368586318","3,40873954016666","-3","2,06654023440307","-1,94532052441889","-0,086089724246373"
"8561","-0,897355573110974","2,2950855836471","-3","-2,04246646750932","0,472658205695239","1,75394862716095"
"8573","-2,75810727958463","-1,51925345341665","-3","0,362235619905813","0,128129232769316","1,17080549665618"
"8581","-2,16630985270819","-0,318234690818916","-3","0,113108821736977","3,49256912847669","6,35905185728602"
"8593","-0,255859328935988","-0,0666599231437374","-3","0,0353184635957493","-2,78214441501521","0,987534151016925"
"8602","-0,836754073293377","-0,0139631079883037","-3","-5,05221553003795","1,97472791907665","1,77062796329483"
"8610","-4,52543773008051","-0,00292482162442079","-3","-1,9530606139166","1,26423140215332","3,72148831665713"
"8622","-5,11526794933943","3,58045172784717","-3","-1,98534307958358","-0,657289352752238","-0,383452470334735"
"8630","-4,24466200678937","2,33105375922271","-3","3,06782044708873","1,55073833335326","-4,63377451231323"
"8643","-2,27304783979127","2,06934510530402","-3","-3,41756258069317","-0,579622419574292","-2,59667614934194"
"8651","-2,84052480440967","2,01452556720974","-3","5,99610280702308","-7,07279647347561","1,41172840779122"
"8659","-1,1843902046364","0,212510446813732","-3","0,560043437821263","2,08269067423263","0,319824140730129"
"8671","-0,040450617742009","0,835046289401041","-3","-4,20062114012219","0,564580398625933","1,84590757079351"
"8683","-2,5701236778569","6,33704408353751","-3","0,688347358423239","1,88196549052879","1,19163860447452"
"8692","-3,90569584312984","-2,67259326605767","-3","-3,16055797546903","-0,489832628537369","-0,730036747412908"
"8704","-1,41806219714865","1,23070993855627","-3","-4,05013456001511","5,0539684452741","-1,93884038543755"
"8708","-1,87233734210999","1,04832630513374","-3","1,73533710440008","-1,62995904539349","-1,21269234074924"
"8720","1,58925582701571","1,01012280520941","-3","-2,83363326119348","1,28706487977855","2,49871914266606"
"8733","-4,99323158979641","2,79265259372987","-3","-0,57255577937159","-2,38001738929162","-0,433920364342994"
"8741","-1,65664044948004","-1,41502918243718","-3","-2,55427758890051","2,08373740343752","-3,64520790895423"
"8753","-0,144050557719351","-0,296403061227168","-3","2,89016946949831","-3,89297142410939","-0,599266361620844"
"8761","-0,812226014042039","-0,0620868995461416","-3","-0,097538603740472","-0,784233098099849","-4,4561187769694"
"8774","-4,52005688487409","1,77752698515197","-3","-3,40595249305701","-2,67042721677144","5,53737969081"
"8782","-1,55283770598972","1,16286687330988","-3","4,31198014978555","1,27609467829308","-0,745518123928202"
"8790","1,65934608845285","1,03411536696254","-3","-4,02907113951117","0,345926570406619","-0,168895583646382"
"8802","-3,19723062240962","2,79767826305074","-3","-4,32132959233524","1,82269232671985","-1,81171501943976"
"8810","-2,26264257557291","2,16708791732153","-3","-0,0370920366331493","-0,505900529001466","2,36301179808566"
"8823","-2,05761723866095","-1,54606484402238","-3","0,988417934822392","-0,137140635362933","-0,464664581595872"
"8831","-0,232014876944221","5,04774576169191","-3","0,308635545064635","-3,49501195944119","1,66818327896393"
"8843","-2,61214810446513","-1,94265975950756","-3","-3,27912377476776","-0,67635336541601","-0,622076540480078"
"8852","-2,13429004552624","3,17413970213502","-3","0,976086817220992","-2,64118294001165","-3,68783430013826"
"8860","-2,02945989082691","0,455412277885619","-3","5,36802892144734","-0,44489550462469","-0,608923282072128"
"8872","-2,00646276620231","0,885926403536488","-3","-6,38706565684525","6,06615010030604","-0,911402381236676"
"8880","-2,00141776991745","0,976105253787953","-3","-5,74536618989809","-1,35557460158244","-0,979928393354321"
"8888","-2,00031102340328","-0,795537372024824","-3","2,20599752074132","-2,09638995016705","-0,995452819173221"
"8901","-2,00006823078709","-0,166639469570969","-3","7,43981901427881","-4,75504738728181","-0,998969845621408"
"8909","-2,00001496813506","-0,0349056044321541","-3","1,69859474153167","3,43990901374738","-0,999766620663625"
"8921","-2,00000328363598","1,78322059146052","-3","-1,46961027777106","3,3903337231133","0,773504947113243"
"8929","-2,00000072034794","1,16405950054345","-3","-0,458888849678718","-2,80985861502958","1,94868801586102"
"8938","-3,78062506800046","-0,75616700793592","-3","4,919954800668","-1,4906204800223","-0,558528774526139"
"8950","-3,1712496945691","-0,158392645701598","-3","-1,46373393470406","0,595919300343988","-0,126533534637416"
"8958","2,3043068127592","3,54788622350934","-3","-3,83254981164216","0,161543123181775","-0,0286659096506207"
"8970","-1,27511739547766","-1,25683204941213","-3","2,49102632335766","-5,14296189115231","-0,00649420233499557"
"8978","-4,62160372334875","1,5272663373845","-3","-0,222171876901452","1,60583450507138","1,77198082744875"
"8987","-5,13636437277009","1,11044532397108","-3","-0,0693736282090368","2,16423095882953","-7,69236972333946"
"8999","-0,688040216630555","-0,767397451985035","-3","-1,70940999005564","-3,87115105291731","2,25730960475979"
"9007","-5,27343852436107","7,00138370544334","-3","-2,90926266819953","-2,50723576977394","0,511388805892003"
"9019","-2,49873578095013","-0,742903309719397","-3","1,09157671294451","1,32033297701795","1,88930614809175"
"9028","-4,67066002679323","0,634917864001914","-3","2,02859501807799","0,357918786359581","-0,571981613421669"
"9044","-0,585876283806415","2,71405923711095","-3","-2,05431493981086","3,55486098937143","-1,90303332287668"
"9048","-3,4704013924263","2,14957242324338","-3","-3,01695995232694","-6,22309377186775","-1,20458032504395"
"9056","-1,32256943783777","0,240798415736416","-3","-4,00529578020216","3,04194774985673","2,50055690298753"
"9069","-1,85138860943935","-0,949560483664375","-3","1,74933810616265","-3,63321764211861","-2,20695609906542"
"9077","1,59385145713126","-0,198902353161162","-3","2,23398237393858","1,01509931836715","-3,04688547470403"
"9089","-3,21159851305201","3,53940074388146","-3","4,76080941146513","-1,45374241575564","1,30973441954393"
"9097","-2,26579453287607","0,531922707680572","-3","-1,51342741173509","0,605916287645953","2,07016968989111"
"9106","-0,277683789604017","2,69248506747253","-3","1,21517709071048","-1,56466465757182","4,78934887311598"
"9118","-2,62216672629126","0,354521137306932","-3","2,75493742287132","4,0336828131805","-0,141530877623145"
"9126","-2,13648788159128","-0,925739234447077","-3","3,92347870328694","0,822377452955735","0,741388548932051"
"9138","-2,02994204131154","5,17768400743116","-3","-1,774885657699","0,951849686726929","-2,60549203850699"
"9146","-2,00656853800828","3,4561546957472","-3","2,82128414360475","-2,47088826592253","0,409731186398333"
"9159","-2,0014409736169","-0,485514659554188","-3","-4,49454405150964","-1,39873164737473","0,0928237498777904"
"9167","-0,219691203742863","0,688832500379022","-3","2,28431725237357","-4,56592463008681","0,0210290278782881"
"9179","-0,828819687573066","0,934820425905841","-3","3,08877865027142","-3,42449431536362","1,77821615812886"
"9187","-4,52369712349882","-0,804185214428624","-3","2,33997338609769","2,07168049985502","-0,597148820079491"
"9196","-5,11488610361387","3,41261346965789","-3","-2,95708640019279","4,0194313085868","-3,68218697681921"
"9208","-0,68332841940081","0,505364855255375","-1,17157287525381","0,07664365368814","-6,09715702127034","1,1658081828137"
"9216","0,0694698565026007","-0,894142331484413","-3,68629150101524","-1,66381579169127","-2,11066639560104","2,03756349968007"
"9228","-2,54600986392379","1,60323815761526","-3,11774900609144","2,16821800793391","-0,301081905309777","-2,31184629363776"
"9237","-3,9004058730274","1,12635897463135","-3,02020253553339","-5,38621323460894","-0,810535735628396","-1,29719605507489"
"9249","2,14434811046695","1,02646813744841","-3,00346620710888","4,69363963631763","-0,948639607778672","4,25302707708277"
"9257","-3,09083326016752","2,79607641464646","-3,0005947071199","1,1533466181308","2,47175846123029","0,736966532626228"
"9265","1,32194817529561","0,376220189736448","-1,1716749108643","-0,639865132354955","3,12788532804791","2,71386238940376"
"9278","-3,27124731998305","0,869338210413885","-3,68630900755831","-0,199799211380874","-4,60992149317417","-1,38518010832631"
"9286","-2,2788799952665","-0,817901630576539","-3,11775200973937","5,00085607625141","-2,70750329620676","-0,313809678587587"
"9298","-3,84180423404209","1,61920813012161","-3,0202030508779","7,00026731158062","-2,1917915598046","3,47581121964872"
"9306","-3,18467087962719","1,1297041697675","-3,00346629552802","3,93683967522876","3,13476207798869","-1,21256218226594"
"9318","-1,25988728086931","1,02716884814121","-3,00059472229022","-4,45846159768972","1,57869603003166","3,27220070530927"
"9327","1,72361211433677","1,00569099906844","-3,00010203821331","1,29558407322904","-2,30096137146876","4,06166650483281"
"9339","-4,9637571671698","-0,789340110810239","-3,00001750698964","-2,28319912385033","0,37625029756022","-3,85328995886435"
"9347","-1,65017449536287","-0,165341342848195","-3,00000300372455","0,287066349916784","-1,62692302259821","1,90049723286612"
"9355","-3,70388190840093","-0,0346336886729127","-3,00000051535766","0,0896370616668364","2,28788789155903","1,20400577911574"
"9368","-1,37378924704901","-0,00725464285235385","-3,0000000884214","0,0279893579536347","3,07804128696925","-0,727234989666122"
"9376","-0,0820000497221003","-0,00151961413675151","-3,00000001517071","-1,67900819619418","2,2922378186365","-1,93820565303509"
"9388","-0,798613678263987","1,79021388166858","-3,00000000260288","-1,2120217140469","0,350302688628551","-1,21254854344085"
"9396","-2,73644576751324","4,74658875353655","-3,00000000044658","-1,06620421885825","-2,63395695787015","0,725299644138852"
"9408","-2,16155785654743","3,3658541178363","-3,00000000007662","-2,70842033542873","0,285981116813806","1,93776720452271"
"9417","-2,03544176932449","1,28610246823258","-3,00000000001315","4,52978600911407","-3,38031117815533","-2,33445493717756"
"9429","-2,00777504133624","-1,73060293500139","-3,00000000000226","-0,585564947078492","-2,37417780990348","-1,30231799634439"
"9437","-3,78233056036716","1,42802658844371","-3,00000000000039","-0,182843866187828","-0,372515162859736","-1,06848951460811"
"9445","-4,95224874708465","-0,700874400625801","-3,00000000000007","-0,0570933754988425","-0,82990002122379","0,757935918125103"
"9458","-0,647649834670633","5,22478595128801","-3,00000000000001","-0,0178275246187549","2,50394665121896","3,71861296016638"
"9466","-1,70332806073429","1,67548884477269","-3","-0,00556668144518372","-0,321224598557274","-2,93100802739782"
"9478","-1,93491756661542","-1,6490390242078","-3","-0,00173820779804465","-0,0870782753030489","-1,4374658607825"
"9486","-3,76634744529122","1,44511160205682","-3","-1,68829069010285","-0,0236053716427997","2,44779716822198"
"9499","-1,38749262982783","2,88376874354879","-3","3,84832360139109","-1,73531678260516","-2,21890870747325"
"9507","1,69561867942121","0,394588909657844","-3","-0,798352993752731","0,529586484931818","2,27076291319582"
"9519","-3,18927331950047","2,66371805782416","-3","-7,00027909848152","0,143561476732438","1,28788870050469"
"9527","1,30035287841729","0,348495374850612","-3","1,81414836877415","-1,69000082327408","-0,70823148792521"
"9536","-5,05660970015394","4,44459513803196","-3","0,566471581401786","-1,18704695069509","-1,93390044915762"
"9548","-1,6705440281454","-2,06900039859316","-3","5,24012571661875","-2,77962288768117","-1,2115732084379"
"9556","-1,92772556651482","1,35714321348225","-3","-4,73925576604735","2,97541146028851","-4,59483562226745"
"9568","-1,98414478964761","4,65587438992389","-3","-2,85533828013489","-3,65125444679262","-1,58785462462009"
"9577","-0,215896851827495","1,55632018701722","-3","2,79616264580246","-2,44762571097915","3,4137269059078"
"9589","-2,60861221125411","5,48812774590302","-3","1,56085550219361","-2,12134336868481","1,54682482082157"
"9597","-3,91413926860882","-1,05988171864201","-3","-0,512619640220086","-0,30397624280998","-0,649570047291661"
"9609","0,360710435600844","-1,22201110043761","-3","1,52768138791544","-4,26915591145086","-1,92061082153444"
"9618","-6,04336875561306","1,53456020524178","-3","1,16476960508513","-5,07296338033273","4,1117937556443"
"9626","-2,66763929474472","2,90250534639457","-3","-5,69954207441102","6,0826454287523","0,704970416785368"
"9638","-1,14646343038947","2,18904581669793","-3","2,90805412672844","-0,351103011429911","-4,38719456626763"
"9646","-0,0321304282271964","0,249066820941178","-3","-0,0919540825191835","3,36265779079612","1,00609017667374"
"9658","-2,56829843553305","2,63323586487214","-3","1,65903507861336","2,36939229057713","2,00137971688522"
"9667","1,43657929949148","-1,44842185520374","-3","-0,481962864361429","-1,35769989251614","3,00031257199673"
"9679","-5,02672501676688","1,48713444071313","-3","4,91274989184599","1,36086949366711","4,00007081253711"
"9687","-1,66398807303697","1,10203898354087","-3","1,90951217985374","6,28457865984334","1,45311189141537"
"9699","1,63496246667544","-0,769158309689001","-3","-6,46699466465783","-2,29636250410651","1,87610363407133"
"9708","-3,2025797816322","1,6294182867069","-3","-2,3948283257074","-2,35142081749698","-3,34842469108003"
"9716","-2,26381604785893","-0,658689323023277","-3","-3,81103389267564","2,09148942542662","5,5617775624482"
"9728","-3,83849957922341","3,44309017511653","-3","0,122248851325222","4,75371894218641","-5,28689498776451"
"9736","0,377303899269303","0,511748743945573","-3","1,03817245674429","-6,89810470399019","-2,74463923749802"
"9748","-0,697853833104733","-0,892805112313392","-3","0,324171497470793","-4,05670685277126","4,92511182828611"
"9757","-0,933716657436361","1,60351826198395","-3","1,78897115187838","0,171381139421446","-0,884226137415551"
"9769","-4,54670890570602","1,1264176474795","-3","1,24635787445926","2,77537616488018","-3,74722374723015"
"9777","0,221940414514976","-0,764051764389637","-3","1,07692575598435","-3,70548045750951","-0,622377838047466"
"9789","-4,2931865315076","1,63048794355767","-3","1,02402022645613","-4,1912432042124","0,859001592541131"
"9798","-5,06431782174387","2,92259911947454","-3","1,00750036540585","-3,32292484496886","0,194605027924684"
"9806","1,10838991196095","2,19325481530123","-3","-5,74864971987178","-1,35862139566159","-3,50281678584608"
"9818","-4,09872159320195","-1,54058372125808","-3","6,26821602507913","-3,55505145425645","2,97989620280319"
"9826","-5,02165705839618","1,46782949664133","-3","5,7082551464937","-1,42154679078852","-2,0983627755652"
"9839","1,11774862076092","1,09799521922087","-3","-0,529837589700791","-5,30102719587425","-1,2488318071425"
"9847","-4,09666852561643","-0,770005348137541","-3","-4,54093874579707","2,56298581234281","4,26398389707142"
"9859","-3,24058175653571","3,41977305133066","-3","2,26983041309735","-1,0341379182618","4,28635292847162"
"9868","-3,05277764449862","-1,28366763477574","-3","1,39650717361414","-4,46708975486228","-2,0289356404187"
"9879","-3,01157810051324","1,5216451461396","-3","-0,563937745835703","0,0601336338180596","-0,459651158262739"
"9888","-1,22191503686835","-0,681264326548783","-3","-3,55158659009927","2,74521894478179","-0,104133015894322"
"9896","-0,0486826311911017","-0,142702945211442","-3","4,26650560168489","-3,71365554349575","-1,79704319413082"
"9908","-2,57192957654839","-0,0298916731412936","-3","6,08321692549374","2,72221182019134","4,13978774516687"
"9917","-2,12546710234379","-0,00626134325302132","-3","-2,10050292957954","-1,99097457956012","-1,06213967849904"
"9929","-3,80814926684603","1,78922064206404","-3","2,71960947679757","-2,99755336904671","-0,240625539683529"
"9937","0,383962001779404","2,95584850990274","-3","0,536951616792642","-2,27041897566212","-1,82796529210381"
"9949","-0,696393211267178","-1,38084489158737","-3","-0,83233574676899","1,38452979783016","-4,73447796949466"
"9957","-2,71402114336332","-0,289242552751778","-3","-0,259898558929919","2,10423918886682","1,92741384246247"
"9969","-3,93726336257982","1,72994518837994","-3","-3,45664972496789","-2,1584959685257","3,98355575666309"
"9978","-1,42498732456988","1,1529000186351","-3","2,6084019031132","-1,31404765182317","-1,09753371123367"
"9986","-3,65448145253554","1,03202763176027","-3","6,5654706152001","0,643785053508655","-2,0220960598479"
"9998","-3,14357692757029","-0,783823434087835","-3","3,11332557612075","-5,01223468109343","2,31535041002893"
"10007","-1,25087229143731","-0,164185776667217","-3","-0,340109716643029","-3,54548103203047","-5,79581839666539"
"10019","-1,83566004149314","-0,0343916347578814","-3","3,95704383069795","-1,41895241954453","-0,0864827040004519"
"10027","-5,52519772675584","-0,00720394034933287","-3","-1,76440487722275","1,61534723683686","2,75385959841329"
"10039","1,00728434130781","5,37008758213825","-3","1,13680885787014","-3,01994366739238","-2,14957089914873"
"10048","1,22097309305611","1,70592485889865","-3","-2,33277701333273","-2,27648858730524","4,05992332526947"
"10056","-5,07402364771379","-1,64266365904186","-3","3,64708141359884","4,84072000647449","2,46667135395046"
"10068","-1,67436421445905","1,44644703582389","-3","-7,61218300772354","-4,14560247667754","-1,44118072436104"
"10076","-0,147938710257219","-2,4875481018","-3","-3,44016368620667","-2,58163466930668","-2,09994857742944"
"10089","-2,59370388782914","0,478938751599859","-3","1,92580177170223","-0,428753027574186","-1,2491910672635"
"10097","-3,91086875381533","1,89085444241747","-3","0,601335587463371","6,07052603872106","0,716998356418717"
"10109","0,361427905078096","1,18660532737959","-3","0,187768281275541","0,374529423693265","1,93588656501911"
"10117","-2,48196154073375","2,82962000081489","-3","3,43412689654155","-0,89847173469301","-0,561428916644848"
"10129","-0,325105446413432","-1,40728570070435","-3","-0,927686771764544","-1,97247749307758","-0,127190555815139"
"10138","-2,63256985652301","1,49575114082933","-3","-1,97742004487622","-4,72145692409694","-0,0288147564347804"
"10146","-2,13877006922242","-0,686688287083773","-3","2,0702944310679","-0,00882078153541999","-0,00652792326501411"
"10158","-0,249817786454503","3,43722529348602","-3","-0,353546280711979","-0,731308943188762","-0,00147888746692566"
"10166","-4,39667852931575","-1,28001195186522","-3","-1,79814348871829","-0,927162633492079","3,54656911213175"
"10179","-1,52577156813185","3,31294308593688","-3","5,50176976887313","-2,70917287164259","-1,19653212858255"
"10187","-1,89596609506607","2,27501931035688","-3","0,405686923944084","1,26559142039559","-2,04452394582618"
"10199","-1,97717755273937","0,267075500211678","-3","-5,93656721204694","-3,11475624840175","0,536817343500864"
"10207","-0,214368413603517","-2,73458847228731","-3","-3,91694918736162","-2,3021905916611","0,12161485500091"
"10219","-0,827652000007058","2,21772393859531","-3","1,77692451255545","-0,353000708373483","3,57445574400567"
"10228","-2,74281605195983","-0,535458227635808","-3","-2,82064750695768","-4,28244557210605","-1,19021447001047"
"10236","-3,94358024824546","1,67837093064482","-3","1,11924698037626","0,110187387644408","-2,04309269338903"
"10248","-4,98762291187961","-0,648435319997438","-3","3,72498304745174","-4,15688351763297","-1,23631048473905"
"10257","-0,655410045257118","-0,13582632516739","-3","0,850881594224897","-1,58469275886281","-1,0535356498531"
"10269","-1,70503045763032","1,76208094929734","-3","-2,42205839295465","-0,158499807463772","-1,0121283903605"
"10277","-0,154666120113674","-0,630900765875201","-3","-3,13178860638751","4,41486909371172","-1,00274766166359"
"10289","-0,814554803997969","3,4489109832723","-3","6,08533632173157","0,925710273751288","-1,00062247704709"
"10298","-6,30119267335439","2,30350020778221","-3","0,587906787402267","-0,749056409656613","-1,00014102088306"
"10309","-0,943574529935987","0,273041331367771","-3","2,55907097291746","1,52586191641396","-1,00003194798837"
"10317","-3,54887147737309","2,63825775302121","-3","-1,20092479430031","-0,586365973749541","0,773444837758512"
"10325","-1,33978381978732","2,1336944525212","-3","1,31275667953435","3,29888218614601","5,4955785492294"
"10337","-3,63578992600334","-1,5530596998986","-3","-2,27783694200347","-2,83464950012584","1,79191606522329"
"10346","-4,92010138222863","1,46521618074173","-3","3,66423656453572","0,231576938166529","1,95285901645641"
"10358","-2,42122241358532","-0,693084378243409","-3","-2,54358248298626","1,7916941752653","0,215868232510765"
"10366","-1,09240570490122","1,64535332637953","-3","-6,54523061716197","2,94353199588405","0,82235657554783"
"10378","-1,80089641980568","-0,65535144519124","-3","3,64398612962785","-1,20206083017262","-0,813696824618087"
"10387","-1,95632163417039","7,02485373689156","-3","1,82559013906163","-0,325857310962192","-1,95779340229114"
"10399","-0,209793144589873","1,05254509823479","-3","-0,429955702154321","-3,5461696936431","0,556465968128707"
"10407","-4,38789811990344","0,0110065065530651","-3","-5,197498350889","2,76761425514912","1,89951828563842"
"10415","2,03740445492158","0,792837700713331","-3","-5,37392133754335","-0,249749000777262","1,20378400065312"
"10427","-4,89491894420456","-0,83392602466121","-3","2,32198194436325","-1,79662029822708","-2,50073730862549"
"10436","0,145551805971427","3,40638372732768","-3","-0,962704265096467","-2,94486738020197","0,433463153033606"
"10448","-2,52931937940972","0,504059924784506","-3","2,38714153262751","-3,9850545273727","-1,67525189784587"
"10456","-2,11611948651048","2,68664871141203","-3","-1,9423580488537","1,91972259661693","2,39392723505233"
"10468","1,53577609714114","0,353298608595712","-3","0,39349468074316","2,2493204375703","1,31579132199263"
"10477","-3,22433880037813","-0,925995314856542","-3","-1,56487840296715","1,33866854995875","-0,70191020693926"
"10489","-4,04921434452926","5,17763036682909","-3","3,88685934337421","-4,09494633834182","-1,93246837607013"
"10497","-1,44954658131353","1,66561126785692","-3","0,90142780252903","0,889932881221227","2,33565537576573"
"10509","-1,87924423172058","1,92995632522831","-3","-4,09402316595951","-3,21659059683299","-0,470862122293954"
"10518","-0,19288428248848","0,194795913064129","-3","7,47262452088086","1,12803950013099","-1,88012491203611"
"10526","-0,822938916809568","0,831335664845192","-3","-1,6666575334048","2,03470923114901","-1,19939047211463"
"10538","-4,52240702888315","2,75520244332327","-3","1,16733066820465","-0,448426517186363","2,50173265339708"
"10546","-1,55335326904328","0,367658408555483","-3","-0,635498583788098","-0,121560453004284","-2,20668973525042"
"10559","-5,46326665313472","-0,922987399034372","-3","-0,198435747557016","-1,76187066291332","2,27353109599232"
"10567","-2,5403793437893","1,59719604454139","-1,17157287525381","-6,81295369720118","3,98022377267841","-2,25838832444609"
"10579","-1,11854576719193","4,70615773027143","-3,68629150101524","0,184893181755605","-0,921032128293769","2,26181888791093"
"10587","-1,80663089832399","-0,223679263807727","-3,11774900609144","-2,31776258371888","4,93707793029186","-0,487589625369166"
"10595","-3,73820454588566","4,32474297062805","-3,02020253553339","1,27627383806524","1,79618958743865","-0,110462417630744"
"10608","2,17993104121099","-2,09410556939398","-3,00346620710888","3,77401500863457","0,215832835965215","-0,0250250314485066"
"10616","-3,08302725153216","-0,438647703528046","-3,0005947071199","0,866191925545393","0,787426229186314","1,76778270657399"
"10628","-2,2375892008054","1,69864961892962","-3,00010203561049","-0,729529779202838","-0,786542754590128","2,94739165414341"
"10636","-0,271496242341803","2,93687679621039","-3,00001750654307","-0,227797182864361","-0,213217751160504","-1,33227453809162"
"10649","-2,62080933255358","-1,3848188548702","-3,00000300364793","10,0553574450966","-0,0577995400054673","3,24508011956103"
"10657","-0,355565193243807","-0,290074970130059","-3,00000051534451","0,515302027785034","-0,0156684272611466","2,2820703169116"
"10669","-6,20050178617423","3,52030301564724","-3,00000008841914","3,22414791763835","1,72467035425405","0,290450369347881"
"10677","-0,921485457496048","2,31845454031881","-3,00000001517033","-1,99325314234801","-3,99030811470371","-2,70765114716555"
"10690","0,0172241348301491","2,06670597453659","-3,00000000260282","1,06535051362559","-4,26845491607529","-1,38686482314509"
"10698","-2,55747127381916","0,223440562361682","-3,00000000044657","-2,35509002916171","5,30073336426186","-2,86109549825108"
"10706","1,43895450906719","-0,953196395163912","-3,00000000007662","0,264618265999778","2,89477010753865","1,35182475310058"
"10718","-3,24557904497831","1,59086823233757","-3,00000000001315","-3,29286826122215","5,70039183399665","-3,2406510589274"
"10727","-4,0538739251006","1,12376787349721","-3,00000000000226","-0,715952858231835","-2,45472516212824","3,0392893041093"
"10739","-3,23119368719492","-0,764606806737639","-3,00000000000039","2,46419016991961","1,0634854549891","3,23544883479169"
"10747","0,510531684006329","-0,160160511857307","-3,00000000000007","1,45719640978856","2,74612756388509","-3,04046785718998"
"10759","-2,44925188580816","-0,0335484713611716","-3,00000000000001","-2,23273533740338","-1,25557366061229","0,311188317471915"
"10768","1,46269514705466","5,36456925097206","-3","0,302823771638274","-0,340363687504337","5,39085529397602"
"10780","-1,45974603040847","-1,87629543765692","-3","0,0945573491995582","-3,55010211431032","-1,77871292191824"
"10788","0,67976808316415","3,18804089116839","-3","-1,65822220320657","2,76654824584907","-0,402963720725956"
"10796","-6,97337545545539","0,458324129482271","-3","-2,89327917585461","-5,4367913355464","-1,86474267008462"
"10808","-1,09103468827327","0,886536342707919","-3","2,78431552261889","-0,202735217396517","0,577546418382465"
"10817","-1,8005956529095","-0,814299175501683","-3","1,55715621346928","-5,97062905635739","0,130841942381777"
"10829","-1,95625565340546","-0,170569463421064","-3","1,17397318034414","-1,07636691476517","0,0296419704829666"
"10837","-0,209778670053627","1,75480338028121","-3","-4,00892030787354","1,70821607388731","-1,76673674861823"
"10849","-4,38789494455075","-0,632425182305227","-3","-4,31503745346677","-2,99476857745197","0,599749456478507"
"10858","-1,52384466843328","-0,132472716717799","-3","-0,0351273032538018","-2,26966406819165","-1,63758008092914"
"10870","-3,6761682912453","5,34384780613035","-3","0,989031426884888","-0,344183346384255","0,629009631477648"
"10878","-3,14833447976462","3,49096066244447","-3","-1,37892082189139","-0,822219769692719","0,14250082649613"
"10886","-1,25191597987824","-0,47822393000169","-3","-1,11831881057662","-0,951806941598912","1,80573534198992"
"10899","-1,83588900073883","2,4808918654287","-3","2,33855056885379","-0,986935719038971","-0,590914406092079"
"10907","-3,74462304473691","2,10073136497921","-3","-0,269782746699054","0,732459280407304","-3,68077458326995"
"10919","-1,38272683750047","-1,55996440559387","-3","-0,0842402208044299","0,198556683249176","2,93958023314982"
"10927","-1,86458564440608","1,46376986717424","-3","-0,0263041832289417","-1,67509260094329","3,21285995171289"
"10939","-0,189668553576709","-0,6933873343762","-3","3,36728232661016","0,545912189420848","-1,27213324625909"
"10948","-4,38348328593819","1,64528986682245","-3","2,42693673522466","-5,03876627376103","-0,288199146616035"
"10960","-3,30350177040206","1,13516745398538","-3","2,13331187885401","-3,55267327490637","1,70816115700302"
"10968","-1,28595581823091","2,81884542222224","-3","2,04162690997821","0,308015677537223","-4,1599237862027"
"10976","-1,84335649334191","-1,40954262806523","-3","0,325250157639928","1,08349757175106","-2,48932625082303"
"10989","-3,74626122659898","-0,295253804708914","-3","0,789307965747811","-1,43520086580846","1,436048304495"
"10997","-1,38308621379394","-0,061846167302331","-3","4,30970683865214","4,0687781444583","-1,44811831265676"
"11009","-0,0840395726387382","3,56810960271836","-3","5,09670660111487","-4,35486218555568","0,671931801850156"
"11017","-4,36031091873558","2,32846848132482","-3","-0,720794888214802","0,819474317957497","-1,6212273204003"
"11030","2,04345639966134","0,278271380898509","-3","-2,9128176262037","-4,96460844634622","0,632714315435156"
"11038","-4,89359129828244","0,848821088121668","-3","-1,59728126116884","-3,53257040688037","1,91679219046657"
"11050","0,145843058415114","0,968332884699557","-3","-2,87425024062394","0,313465207505387","2,98114944344876"
"11058","-2,52925548587867","-0,79716543314143","-3","-0,585238515230337","1,08497484239898","-4,87153093200703"
"11070","-2,11610546986135","-0,166980495964499","-3","-2,55823779941144","-3,16371819021356","-0,877087297249022"
"11079","-2,02547064790334","1,75555515342764","-3","-3,86205883891403","1,14237226916618","2,57474976871975"
"11087","1,55566219427133","1,15826448187888","-3","3,48181206854143","2,03859458990891","-2,19014785932174"
"11099","-5,000601196004","-0,757380877793423","-3","5,15044681521256","-3,90520883793777","2,27727862365115"
"11108","-5,21950697745343","-0,158646912359955","-3","0,295985604819163","-4,24538601573703","4,83626897220287"
"11120","1,07434527695612","-0,0332314209921366","-3","-2,59532581365882","1,84915136042998","-3,67780537757603"
"11128","-4,10619013807103","1,78357127899603","-3","-1,4981437858498","-2,95656352797382","0,166800825028194"
"11140","-1,46204565115106","-0,626399233618103","-3","-4,53104228997398","-0,530389572598163","0,0377883807135291"
"11149","-0,101361306317352","1,65932171745629","-3","4,96066853302444","-2,60161475192034","0,00856087922052696"
"11161","-4,36411087562073","2,92863886689203","-3","1,23672694357777","-0,43416927260095","-1,77151262608974"
"11169","-5,07987685611872","2,19451994795418","-3","2,76166640901315","0,882304432420579","0,598667491349712"
"11177","2,88560155736832","-1,54031871669433","-3","-4,51315981247769","-1,48974074741899","-3,41127727339241"
"11189","-2,9282207185215","1,46788500656643","-3","0,590756511375778","0,596157780205642","3,00063428935849"
"11198","-2,20362850368959","2,88853903867415","-3","-4,87877885048496","1,89052555703334","3,22669162142873"
"11210","-0,264046111354678","2,18612032483263","-3","4,85208707258029","-3,9453477191645","-3,04245178570169"
"11218","-4,39979986937164","0,248454024572573","-3","-2,17267370433129","-0,798431380113887","3,85764301360319"
"11230","-3,30708122236169","0,842575311849064","-3","-3,05391772141831","-0,94535833228921","-2,89951105734984"
"11239","-4,84799088077494","-0,823507596277022","-3","-2,32908798894029","4,20156574285677","-1,43033028759037"
"11251","-0,624778255863028","-0,172498331136836","-3","-0,415010474267806","-2,58994804321428","-1,09749043349923"
"11259","-3,47893551604841","3,54493153649963","-3","2,55816005192552","-3,1599244215799","0,751365820141987"
"11267","-3,10506652194973","2,32361342259824","-3","-0,201209231264629","-2,31443488003941","3,71712451810461"
"11279","-1,24242406773736","0,277254402388909","-3","1,624919932382","-0,356319917173448","-1,15789315534868"
"11288","1,72744310828973","2,63914025577333","-3","2,88288047289129","-4,2833453505756","-5,58267451765352"
"11300","-4,96291674252648","-1,44718507538357","-3","3,96342918535427","8,75453240471855","3,50870875042559"
"11308","-5,21123994707922","3,27792569818209","-3","3,30083275634453","-3,35571976117158","-0,205109314947561"
"11320","-2,48509096245944","-1,313380088923","-3","-1,96930814281041","0,0903240582583241","-3,59337124061308"
"11329","-1,1064168735603","1,51542134349643","-3","-0,614920541851284","-3,43335032673362","-0,587522871995626"
"11341","-5,36521994113978","-0,682568012846428","-3","-0,192010211388783","-2,38855577971801","-2,68000623825956"
"11349","-2,51887033751866","-0,142976025522645","-3","3,31554027649166","3,08142279765847","4,93975430011722"
"11357","0,66679768296913","1,76058331723543","-3","7,47402396639248","-0,164681086365329","-0,880908915812795"
"11370","-2,41497101821771","-0,631214471580533","-3","-2,66622055364851","6,87102903134842","1,57388398896593"
"11378","-0,310409394505591","-0,132219111796067","-3","0,855215047159381","-2,13738623911668","-0,643439848910102"
"11390","-4,40997081878677","-0,0276956475354042","-3","2,64253853005486","1,14951039276312","1,62768211320356"
"11398","-3,30931247530528","1,78473084532809","-3","0,512886054221827","-0,68838817794679","1,14220007998641"
"11410","-1,28723054214217","-0,626156341800193","-3","5,91114145601665","5,00014356737846","-0,741236942525588"
"11419","-1,84363613601471","-0,131159596437949","-3","4,59675787356014","3,54220334615735","-0,16792569088525"
"11431","-0,185072753287353","-0,0274737131757026","-3","-0,876904912726799","-7,22652503381168","-1,81149529224774"
"11439","-0,82122526188783","-0,00575485847898189","-3","-4,64931123545197","6,22777095438101","0,589609501315999"
"11447","-0,960781275732281","-0,00120545759145506","-3","-4,51500084549398","-1,31176206266399","1,9070268842923"
"11460","-2,77202129880714","3,58081187926246","-3","3,27792957612934","-2,08451315012496","-0,56796701741498"
"11468","-3,94998715190182","-1,24993518447163","-3","0,023540291783511","3,89276113298002","-1,90212382448369"
"11480","-1,42777860699787","-0,261821183344665","-3","1,69509843593317","2,51309387811767","2,34252987094724"
"11489","-1,87446888039539","1,73568908252445","-3","-5,53394579979295","5,59692619677141","-4,01620887069659"
"11501","-5,53371141928383","1,15410317955145","-3","1,27201397495469","-4,21169064232193","1,09013621602122"
"11509","-6,11708299065326","1,0322796552402","-3","5,46043278868694","3,31612114925551","2,02042017266108"
