Timer,AX,AY,AZ,GX,GY,GZ,A
"0","0.742759795570698","-0.769676320272572","0.105621805792165","-1.95809199318569","-2.0855195911414","0","360"
"10","0.742759795570698","-0.769676320272572","0.105621805792165","-0.95809199318569","-1.0855195911414","0","360"
"10","-1.2572402044293","1.23032367972743","0.105621805792165","-0.95809199318569","-1.0855195911414","0","360"
"16","-1.2572402044293","1.23032367972743","0.105621805792165","1.04190800681431","-3.0855195911414","0","360"
"17","-0.257240204429302","-0.769676320272572","-0.894378194207835","1.04190800681431","-3.0855195911414","0","360"
"28","-0.257240204429302","-0.769676320272572","-0.894378194207835","-4.95809199318569","0.914480408858603","0","360"
"29","0.742759795570698","0.230323679727428","-0.894378194207835","-4.95809199318569","0.914480408858603","0","360"
"35","0.742759795570698","0.230323679727428","-0.894378194207835","-0.95809199318569","-2.0855195911414","0","360"
"37","0.742759795570698","-0.769676320272572","2.10562180579216","-0.95809199318569","-2.0855195911414","0","360"
"47","0.742759795570698","-0.769676320272572","2.10562180579216","1.04190800681431","-0.0855195911413969","0","360"
"50","0.742759795570698","0.230323679727428","0.105621805792165","1.04190800681431","-0.0855195911413969","0","360"
"55","0.742759795570698","0.230323679727428","0.105621805792165","-3.95809199318569","1.9144804088586","0","360"
"58","0.742759795570698","0.230323679727428","0.105621805792165","-3.95809199318569","1.9144804088586","0","360"
"68","0.742759795570698","0.230323679727428","0.105621805792165","-1.95809199318569","-1.0855195911414","0","360"
"70","-0.257240204429302","0.230323679727428","-1.89437819420784","-1.95809199318569","-1.0855195911414","0","360"
"76","-0.257240204429302","0.230323679727428","-1.89437819420784","5.04190800681431","-1.0855195911414","0","360"
"78","-0.257240204429302","-0.769676320272572","-0.894378194207835","5.04190800681431","-1.0855195911414","0","360"
"84","-0.257240204429302","-0.769676320272572","-0.894378194207835","2.04190800681431","-0.0855195911413969","0","360"
"91","-0.257240204429302","1.23032367972743","-0.894378194207835","2.04190800681431","-0.0855195911413969","0","360"
"97","-0.257240204429302","1.23032367972743","-0.894378194207835","-0.95809199318569","-0.0855195911413969","0","360"
"99","0.742759795570698","1.23032367972743","2.10562180579216","-0.95809199318569","-0.0855195911413969","0","360"
"105","0.742759795570698","1.23032367972743","2.10562180579216","3.04190800681431","-4.0855195911414","0","360"
"107","0.742759795570698","0.230323679727428","1.10562180579216","3.04190800681431","-4.0855195911414","0","360"
"117","0.742759795570698","0.230323679727428","1.10562180579216","-1.95809199318569","-2.0855195911414","0","360"
"119","-0.257240204429302","0.230323679727428","-0.894378194207835","-1.95809199318569","-2.0855195911414","0","360"
"126","-0.257240204429302","0.230323679727428","-0.894378194207835","-0.95809199318569","-5.0855195911414","0","360"
"128","0.742759795570698","1.23032367972743","0.105621805792165","-0.95809199318569","-5.0855195911414","0","360"
"138","0.742759795570698","1.23032367972743","0.105621805792165","0.0419080068143101","-2.0855195911414","0","360"
"140","0.742759795570698","-0.769676320272572","0.105621805792165","0.0419080068143101","-2.0855195911414","0","360"
"146","0.742759795570698","-0.769676320272572","0.105621805792165","0.0419080068143101","-2.0855195911414","0","360"
"148","-0.257240204429302","1.23032367972743","1.10562180579216","0.0419080068143101","-2.0855195911414","0","360"
"158","-0.257240204429302","1.23032367972743","1.10562180579216","4.04190800681431","-2.0855195911414","0","360"
"160","-0.257240204429302","-0.769676320272572","-0.894378194207835","4.04190800681431","-2.0855195911414","0","360"
"167","-0.257240204429302","-0.769676320272572","-0.894378194207835","1.04190800681431","-1.0855195911414","0","360"
"169","-3.2572402044293","-0.769676320272572","-1.89437819420784","1.04190800681431","-1.0855195911414","0","360"
"183","-3.2572402044293","-0.769676320272572","-1.89437819420784","4.04190800681431","-2.0855195911414","0","360"
"183","-0.257240204429302","-0.769676320272572","-0.894378194207835","4.04190800681431","-2.0855195911414","0","360"
"191","-0.257240204429302","-0.769676320272572","-0.894378194207835","-0.95809199318569","-1.0855195911414","0","360"
"191","0.742759795570698","-0.769676320272572","1.10562180579216","-0.95809199318569","-1.0855195911414","0","360"
"198","0.742759795570698","-0.769676320272572","1.10562180579216","-1.95809199318569","-2.0855195911414","0","360"
"201","-1.2572402044293","0.230323679727428","2.10562180579216","-1.95809199318569","-2.0855195911414","0","360"
"211","-1.2572402044293","0.230323679727428","2.10562180579216","-1.95809199318569","-2.0855195911414","0","360"
"211","0.742759795570698","-0.769676320272572","3.10562180579216","-1.95809199318569","-2.0855195911414","0","360"
"218","0.742759795570698","-0.769676320272572","3.10562180579216","-1.95809199318569","-1.0855195911414","0","360"
"218","0.742759795570698","0.230323679727428","3.10562180579216","-1.95809199318569","-1.0855195911414","0","360"
"229","0.742759795570698","0.230323679727428","3.10562180579216","-1.95809199318569","-1.0855195911414","0","360"
"230","0.742759795570698","-0.769676320272572","-0.894378194207835","-1.95809199318569","-1.0855195911414","0","360"
"237","0.742759795570698","-0.769676320272572","-0.894378194207835","-0.95809199318569","-3.0855195911414","0","360"
"238","0.742759795570698","0.230323679727428","0.105621805792165","-0.95809199318569","-3.0855195911414","0","360"
"248","0.742759795570698","0.230323679727428","0.105621805792165","0.0419080068143101","-3.0855195911414","0","360"
"251","-1.2572402044293","1.23032367972743","0.105621805792165","0.0419080068143101","-3.0855195911414","0","360"
"258","-1.2572402044293","1.23032367972743","0.105621805792165","1.04190800681431","-0.0855195911413969","0","360"
"259","1.7427597955707","-0.769676320272572","1.10562180579216","1.04190800681431","-0.0855195911413969","0","360"
"268","1.7427597955707","-0.769676320272572","1.10562180579216","-0.95809199318569","-1.0855195911414","0","360"
"271","0.742759795570698","-0.769676320272572","-0.894378194207835","-0.95809199318569","-1.0855195911414","0","360"
"277","0.742759795570698","-0.769676320272572","-0.894378194207835","0.0419080068143101","-0.0855195911413969","0","360"
"279","-0.257240204429302","1.23032367972743","0.105621805792165","0.0419080068143101","-0.0855195911413969","0","360"
"285","-0.257240204429302","1.23032367972743","0.105621805792165","2.04190800681431","1.9144804088586","0","360"
"291","0.742759795570698","0.230323679727428","0.105621805792165","2.04190800681431","1.9144804088586","0","360"
"297","0.742759795570698","0.230323679727428","0.105621805792165","-1.95809199318569","0.914480408858603","0","360"
"300","0.742759795570698","-0.769676320272572","2.10562180579216","-1.95809199318569","0.914480408858603","0","360"
"306","0.742759795570698","-0.769676320272572","2.10562180579216","-2.95809199318569","-1.0855195911414","0","360"
"308","0.742759795570698","0.230323679727428","0.105621805792165","-2.95809199318569","-1.0855195911414","0","360"
"318","0.742759795570698","0.230323679727428","0.105621805792165","-1.95809199318569","-1.0855195911414","0","360"
"320","0.742759795570698","-0.769676320272572","-2.89437819420784","-1.95809199318569","-1.0855195911414","0","360"
"327","0.742759795570698","-0.769676320272572","-2.89437819420784","0.0419080068143101","-1.0855195911414","0","360"
"328","0.742759795570698","-0.769676320272572","-0.894378194207835","0.0419080068143101","-1.0855195911414","0","360"
"338","0.742759795570698","-0.769676320272572","-0.894378194207835","-0.95809199318569","-3.0855195911414","0","360"
"341","-0.257240204429302","0.230323679727428","-1.89437819420784","-0.95809199318569","-3.0855195911414","0","360"
"347","-0.257240204429302","0.230323679727428","-1.89437819420784","2.04190800681431","-1.0855195911414","0","360"
"349","-1.2572402044293","0.230323679727428","0.105621805792165","2.04190800681431","-1.0855195911414","0","360"
"359","-1.2572402044293","0.230323679727428","0.105621805792165","-0.95809199318569","-2.0855195911414","0","360"
"361","0.742759795570698","1.23032367972743","0.105621805792165","-0.95809199318569","-2.0855195911414","0","360"
"367","0.742759795570698","1.23032367972743","0.105621805792165","-1.95809199318569","0.914480408858603","0","360"
"369","-0.257240204429302","0.230323679727428","-1.89437819420784","-1.95809199318569","0.914480408858603","0","360"
"379","-0.257240204429302","0.230323679727428","-1.89437819420784","0.0419080068143101","-1.0855195911414","0","360"
"381","0.742759795570698","0.230323679727428","0.105621805792165","0.0419080068143101","-1.0855195911414","0","360"
"388","0.742759795570698","0.230323679727428","0.105621805792165","1.04190800681431","0.914480408858603","0","360"
"390","-1.2572402044293","0.230323679727428","-0.894378194207835","1.04190800681431","0.914480408858603","0","360"
"398","-1.2572402044293","0.230323679727428","-0.894378194207835","-1.95809199318569","0.914480408858603","0","360"
"398","0.742759795570698","0.230323679727428","0.105621805792165","-1.95809199318569","0.914480408858603","0","360"
"409","0.742759795570698","0.230323679727428","0.105621805792165","-2.95809199318569","-2.0855195911414","0","360"
"410","-0.257240204429302","-0.769676320272572","0.105621805792165","-2.95809199318569","-2.0855195911414","0","360"
"417","-0.257240204429302","-0.769676320272572","0.105621805792165","2.04190800681431","-0.0855195911413969","0","360"
"418","-1.2572402044293","-0.769676320272572","-0.894378194207835","2.04190800681431","-0.0855195911413969","0","360"
"429","-1.2572402044293","-0.769676320272572","-0.894378194207835","1.04190800681431","0.914480408858603","0","360"
"431","0.742759795570698","2.23032367972743","1.10562180579216","1.04190800681431","0.914480408858603","0","360"
"437","0.742759795570698","2.23032367972743","1.10562180579216","1.04190800681431","-3.0855195911414","0","360"
"439","-1.2572402044293","0.230323679727428","0.105621805792165","1.04190800681431","-3.0855195911414","0","360"
"449","-1.2572402044293","0.230323679727428","0.105621805792165","-1.95809199318569","-0.0855195911413969","0","360"
"451","-2.2572402044293","0.230323679727428","0.105621805792165","-1.95809199318569","-0.0855195911413969","0","360"
"459","-2.2572402044293","0.230323679727428","0.105621805792165","-0.95809199318569","-0.0855195911413969","0","360"
"459","-0.257240204429302","0.230323679727428","1.10562180579216","-0.95809199318569","-0.0855195911413969","0","360"
"466","-0.257240204429302","0.230323679727428","1.10562180579216","2.04190800681431","-0.0855195911413969","0","360"
"472","0.742759795570698","0.230323679727428","0.105621805792165","2.04190800681431","-0.0855195911413969","0","360"
"479","0.742759795570698","0.230323679727428","0.105621805792165","3.04190800681431","-1.0855195911414","0","360"
"480","0.742759795570698","-0.769676320272572","-0.894378194207835","3.04190800681431","-1.0855195911414","0","360"
"486","0.742759795570698","-0.769676320272572","-0.894378194207835","1.04190800681431","-1.0855195911414","0","360"
"492","-1.2572402044293","2.23032367972743","-2.89437819420784","1.04190800681431","-1.0855195911414","0","360"
"499","-1.2572402044293","2.23032367972743","-2.89437819420784","3.04190800681431","0.914480408858603","0","360"
"500","-1.2572402044293","0.230323679727428","1.10562180579216","3.04190800681431","0.914480408858603","0","360"
"506","-1.2572402044293","0.230323679727428","1.10562180579216","1.04190800681431","-0.0855195911413969","0","360"
"509","-0.257240204429302","0.230323679727428","1.10562180579216","1.04190800681431","-0.0855195911413969","0","360"
"519","-0.257240204429302","0.230323679727428","1.10562180579216","3.04190800681431","-2.0855195911414","0","360"
"521","-0.257240204429302","-0.769676320272572","-2.89437819420784","3.04190800681431","-2.0855195911414","0","360"
"528","-0.257240204429302","-0.769676320272572","-2.89437819420784","3.04190800681431","-1.0855195911414","0","360"
"529","-0.257240204429302","1.23032367972743","1.10562180579216","3.04190800681431","-1.0855195911414","0","360"
"539","-0.257240204429302","1.23032367972743","1.10562180579216","3.04190800681431","0.914480408858603","0","360"
"541","-2.2572402044293","-0.769676320272572","0.105621805792165","3.04190800681431","0.914480408858603","0","360"
"548","-2.2572402044293","-0.769676320272572","0.105621805792165","2.04190800681431","1.9144804088586","0","360"
"550","0.742759795570698","-0.769676320272572","-0.894378194207835","2.04190800681431","1.9144804088586","0","360"
"560","0.742759795570698","-0.769676320272572","-0.894378194207835","1.04190800681431","-3.0855195911414","0","360"
"562","-0.257240204429302","-0.769676320272572","-0.894378194207835","1.04190800681431","-3.0855195911414","0","360"
"568","-0.257240204429302","-0.769676320272572","-0.894378194207835","1.04190800681431","-2.0855195911414","0","360"
"570","0.742759795570698","0.230323679727428","-0.894378194207835","1.04190800681431","-2.0855195911414","0","360"
"576","0.742759795570698","0.230323679727428","-0.894378194207835","2.04190800681431","1.9144804088586","0","360"
"582","-0.257240204429302","-0.769676320272572","1.10562180579216","2.04190800681431","1.9144804088586","0","360"
"588","-0.257240204429302","-0.769676320272572","1.10562180579216","4.04190800681431","-0.0855195911413969","0","360"
"591","-0.257240204429302","0.230323679727428","-0.894378194207835","4.04190800681431","-0.0855195911413969","0","360"
"597","-0.257240204429302","0.230323679727428","-0.894378194207835","1.04190800681431","-1.0855195911414","0","360"
"598","-0.257240204429302","1.23032367972743","-0.894378194207835","1.04190800681431","-1.0855195911414","0","360"
"609","-0.257240204429302","1.23032367972743","-0.894378194207835","1.04190800681431","-1.0855195911414","0","360"
"611","-1.2572402044293","1.23032367972743","1.10562180579216","1.04190800681431","-1.0855195911414","0","360"
"618","-1.2572402044293","1.23032367972743","1.10562180579216","0.0419080068143101","-1.0855195911414","0","360"
"619","-0.257240204429302","0.230323679727428","0.105621805792165","0.0419080068143101","-1.0855195911414","0","360"
"633","-0.257240204429302","0.230323679727428","0.105621805792165","2.04190800681431","-0.0855195911413969","0","360"
"633","0.742759795570698","1.23032367972743","-0.894378194207835","2.04190800681431","-0.0855195911413969","0","360"
"641","0.742759795570698","1.23032367972743","-0.894378194207835","-0.95809199318569","-0.0855195911413969","0","360"
"641","-0.257240204429302","-0.769676320272572","0.105621805792165","-0.95809199318569","-0.0855195911413969","0","360"
"651","-0.257240204429302","-0.769676320272572","0.105621805792165","2.04190800681431","-0.0855195911413969","0","360"
"652","0.742759795570698","0.230323679727428","0.105621805792165","2.04190800681431","-0.0855195911413969","0","360"
"658","0.742759795570698","0.230323679727428","0.105621805792165","1.04190800681431","1.9144804088586","0","360"
"660","-3.2572402044293","-0.769676320272572","0.105621805792165","1.04190800681431","1.9144804088586","0","360"
"669","-3.2572402044293","-0.769676320272572","0.105621805792165","-0.95809199318569","0.914480408858603","0","360"
"672","-0.257240204429302","-0.769676320272572","-1.89437819420784","-0.95809199318569","0.914480408858603","0","360"
"678","-0.257240204429302","-0.769676320272572","-1.89437819420784","0.0419080068143101","0.914480408858603","0","360"
"680","0.742759795570698","-0.769676320272572","-0.894378194207835","0.0419080068143101","0.914480408858603","0","360"
"686","0.742759795570698","-0.769676320272572","-0.894378194207835","0.0419080068143101","-1.0855195911414","0","360"
"689","0.742759795570698","0.230323679727428","0.105621805792165","0.0419080068143101","-1.0855195911414","0","360"
"698","0.742759795570698","0.230323679727428","0.105621805792165","0.0419080068143101","-2.0855195911414","0","360"
"701","0.742759795570698","1.23032367972743","0.105621805792165","0.0419080068143101","-2.0855195911414","0","360"
"706","0.742759795570698","1.23032367972743","0.105621805792165","0.0419080068143101","-2.0855195911414","0","360"
"709","-1.2572402044293","1.23032367972743","0.105621805792165","0.0419080068143101","-2.0855195911414","0","360"
"719","-1.2572402044293","1.23032367972743","0.105621805792165","-1.95809199318569","0.914480408858603","0","360"
"721","-0.257240204429302","1.23032367972743","-2.89437819420784","-1.95809199318569","0.914480408858603","0","360"
"727","-0.257240204429302","1.23032367972743","-2.89437819420784","4.04190800681431","0.914480408858603","0","360"
"730","-0.257240204429302","-1.76967632027257","1.10562180579216","4.04190800681431","0.914480408858603","0","360"
"740","-0.257240204429302","-1.76967632027257","1.10562180579216","1.04190800681431","1.9144804088586","0","360"
"742","0.742759795570698","1.23032367972743","2.10562180579216","1.04190800681431","1.9144804088586","0","360"
"748","0.742759795570698","1.23032367972743","2.10562180579216","2.04190800681431","-0.0855195911413969","0","360"
"750","-1.2572402044293","-0.769676320272572","-0.894378194207835","2.04190800681431","-0.0855195911413969","0","360"
"757","-1.2572402044293","-0.769676320272572","-0.894378194207835","2.04190800681431","-0.0855195911413969","0","360"
"762","0.742759795570698","-0.769676320272572","-0.894378194207835","2.04190800681431","-0.0855195911413969","0","360"
"769","0.742759795570698","-0.769676320272572","-0.894378194207835","0.0419080068143101","0.914480408858603","0","360"
"771","0.742759795570698","-0.769676320272572","-0.894378194207835","0.0419080068143101","0.914480408858603","0","360"
"777","0.742759795570698","-0.769676320272572","-0.894378194207835","3.04190800681431","-3.0855195911414","0","360"
"779","0.742759795570698","-0.769676320272572","1.10562180579216","3.04190800681431","-3.0855195911414","0","360"
"789","0.742759795570698","-0.769676320272572","1.10562180579216","3.04190800681431","-3.0855195911414","0","360"
"791","1.7427597955707","0.230323679727428","1.10562180579216","3.04190800681431","-3.0855195911414","0","360"
"798","1.7427597955707","0.230323679727428","1.10562180579216","1.04190800681431","-0.0855195911413969","0","360"
"799","1.7427597955707","0.230323679727428","1.10562180579216","1.04190800681431","-0.0855195911413969","0","360"
"809","1.7427597955707","0.230323679727428","1.10562180579216","1.04190800681431","-0.0855195911413969","0","360"
"812","0.742759795570698","0.230323679727428","1.10562180579216","1.04190800681431","-0.0855195911413969","0","360"
"819","0.742759795570698","0.230323679727428","1.10562180579216","3.04190800681431","0.914480408858603","0","360"
"820","0.742759795570698","-0.769676320272572","-1.89437819420784","3.04190800681431","0.914480408858603","0","360"
"831","0.742759795570698","-0.769676320272572","-1.89437819420784","4.04190800681431","0.914480408858603","0","360"
"832","-1.2572402044293","2.23032367972743","-1.89437819420784","4.04190800681431","0.914480408858603","0","360"
"839","-1.2572402044293","2.23032367972743","-1.89437819420784","2.04190800681431","0.914480408858603","0","360"
"840","-1.2572402044293","1.23032367972743","1.10562180579216","2.04190800681431","0.914480408858603","0","360"
"850","-1.2572402044293","1.23032367972743","1.10562180579216","2.04190800681431","0.914480408858603","0","360"
"853","-1.2572402044293","0.230323679727428","2.10562180579216","2.04190800681431","0.914480408858603","0","360"
"859","-1.2572402044293","0.230323679727428","2.10562180579216","3.04190800681431","-2.0855195911414","0","360"
"861","-0.257240204429302","0.230323679727428","-3.89437819420784","3.04190800681431","-2.0855195911414","0","360"
"867","-0.257240204429302","0.230323679727428","-3.89437819420784","2.04190800681431","-2.0855195911414","0","360"
"873","-1.2572402044293","-0.769676320272572","-1.89437819420784","2.04190800681431","-2.0855195911414","0","360"
"879","-1.2572402044293","-0.769676320272572","-1.89437819420784","2.04190800681431","-2.0855195911414","0","360"
"881","0.742759795570698","-0.769676320272572","1.10562180579216","2.04190800681431","-2.0855195911414","0","360"
"888","0.742759795570698","-0.769676320272572","1.10562180579216","2.04190800681431","-2.0855195911414","0","360"
"889","-1.2572402044293","1.23032367972743","0.105621805792165","2.04190800681431","-2.0855195911414","0","360"
"900","-1.2572402044293","1.23032367972743","0.105621805792165","2.04190800681431","0.914480408858603","0","360"
"900","-1.2572402044293","1.23032367972743","0.105621805792165","2.04190800681431","0.914480408858603","0","360"
"908","-1.2572402044293","1.23032367972743","0.105621805792165","2.04190800681431","0.914480408858603","0","360"
"910","0.742759795570698","-0.769676320272572","-1.89437819420784","2.04190800681431","0.914480408858603","0","360"
"920","0.742759795570698","-0.769676320272572","-1.89437819420784","3.04190800681431","-0.0855195911413969","0","360"
"922","0.742759795570698","-0.769676320272572","-1.89437819420784","3.04190800681431","-0.0855195911413969","0","360"
"929","0.742759795570698","-0.769676320272572","-1.89437819420784","0.0419080068143101","-0.0855195911413969","0","360"
"930","-0.257240204429302","-0.769676320272572","1.10562180579216","0.0419080068143101","-0.0855195911413969","0","360"
"941","-0.257240204429302","-0.769676320272572","1.10562180579216","2.04190800681431","-3.0855195911414","0","360"
"943","0.742759795570698","-0.769676320272572","3.10562180579216","2.04190800681431","-3.0855195911414","0","360"
"948","0.742759795570698","-0.769676320272572","3.10562180579216","-1.95809199318569","2.9144804088586","0","360"
"951","0.742759795570698","-0.769676320272572","3.10562180579216","-1.95809199318569","2.9144804088586","0","360"
"957","0.742759795570698","-0.769676320272572","3.10562180579216","-0.95809199318569","-1.0855195911414","0","360"
"963","-0.257240204429302","-0.769676320272572","0.105621805792165","-0.95809199318569","-1.0855195911414","0","360"
"969","-0.257240204429302","-0.769676320272572","0.105621805792165","-0.95809199318569","1.9144804088586","0","360"
"971","-0.257240204429302","-0.769676320272572","-0.894378194207835","-0.95809199318569","1.9144804088586","0","360"
"978","-0.257240204429302","-0.769676320272572","-0.894378194207835","-0.95809199318569","1.9144804088586","0","360"
"980","0.742759795570698","1.23032367972743","1.10562180579216","-0.95809199318569","1.9144804088586","0","360"
"990","0.742759795570698","1.23032367972743","1.10562180579216","3.04190800681431","-0.0855195911413969","0","360"
"992","0.742759795570698","0.230323679727428","-0.894378194207835","3.04190800681431","-0.0855195911413969","0","360"
"998","0.742759795570698","0.230323679727428","-0.894378194207835","-1.95809199318569","-3.0855195911414","0","360"
"1000","0.742759795570698","0.230323679727428","-0.894378194207835","-1.95809199318569","-3.0855195911414","0","360"
"1007","0.742759795570698","0.230323679727428","-0.894378194207835","-0.95809199318569","1.9144804088586","0","360"
"1012","-0.257240204429302","-0.769676320272572","4.10562180579216","-0.95809199318569","1.9144804088586","0","360"
"1019","-0.257240204429302","-0.769676320272572","4.10562180579216","2.04190800681431","-1.0855195911414","0","360"
"1020","0.742759795570698","1.23032367972743","0.105621805792165","2.04190800681431","-1.0855195911414","0","360"
"1031","0.742759795570698","1.23032367972743","0.105621805792165","0.0419080068143101","1.9144804088586","0","360"
"1033","-0.257240204429302","-0.769676320272572","0.105621805792165","0.0419080068143101","1.9144804088586","0","360"
"1039","-0.257240204429302","-0.769676320272572","0.105621805792165","3.04190800681431","0.914480408858603","0","360"
"1041","0.742759795570698","1.23032367972743","1.10562180579216","3.04190800681431","0.914480408858603","0","360"
"1048","0.742759795570698","1.23032367972743","1.10562180579216","0.0419080068143101","1.9144804088586","0","360"
"1049","0.742759795570698","1.23032367972743","1.10562180579216","0.0419080068143101","1.9144804088586","0","360"
"1060","0.742759795570698","1.23032367972743","1.10562180579216","-0.95809199318569","-1.0855195911414","0","360"
"1061","-1.2572402044293","1.23032367972743","-0.894378194207835","-0.95809199318569","-1.0855195911414","0","360"
"1068","-1.2572402044293","1.23032367972743","-0.894378194207835","-2.95809199318569","0.914480408858603","0","360"
"1070","-1.2572402044293","1.23032367972743","1.10562180579216","-2.95809199318569","0.914480408858603","0","360"
"1080","-1.2572402044293","1.23032367972743","1.10562180579216","1.04190800681431","-2.0855195911414","0","360"
"1082","-0.257240204429302","0.230323679727428","0.105621805792165","1.04190800681431","-2.0855195911414","0","360"
"1088","-0.257240204429302","0.230323679727428","0.105621805792165","1.04190800681431","-1.0855195911414","0","360"
"1090","-1.2572402044293","-1.76967632027257","-2.89437819420784","1.04190800681431","-1.0855195911414","0","360"
"1100","-1.2572402044293","-1.76967632027257","-2.89437819420784","-2.95809199318569","0.914480408858603","0","360"
"1101","-1.2572402044293","-1.76967632027257","-2.89437819420784","-2.95809199318569","0.914480408858603","0","360"
"1108","-1.2572402044293","-1.76967632027257","-2.89437819420784","-2.95809199318569","0.914480408858603","0","360"
"1111","-1.2572402044293","-0.769676320272572","0.105621805792165","-2.95809199318569","0.914480408858603","0","360"
"1121","-1.2572402044293","-0.769676320272572","0.105621805792165","-2.95809199318569","-2.0855195911414","0","360"
"1123","-0.257240204429302","0.230323679727428","-1.89437819420784","-2.95809199318569","-2.0855195911414","0","360"
"1129","-0.257240204429302","0.230323679727428","-1.89437819420784","3.04190800681431","-1.0855195911414","0","360"
"1131","0.742759795570698","0.230323679727428","-0.894378194207835","3.04190800681431","-1.0855195911414","0","360"
"1142","0.742759795570698","0.230323679727428","-0.894378194207835","0.0419080068143101","-1.0855195911414","0","360"
"1143","0.742759795570698","0.230323679727428","1.10562180579216","0.0419080068143101","-1.0855195911414","0","360"
"1150","0.742759795570698","0.230323679727428","1.10562180579216","0.0419080068143101","-0.0855195911413969","0","360"
"1150","0.742759795570698","0.230323679727428","1.10562180579216","0.0419080068143101","-0.0855195911413969","0","360"
"1158","0.742759795570698","0.230323679727428","1.10562180579216","1.04190800681431","1.9144804088586","0","360"
"1160","0.742759795570698","1.23032367972743","-1.89437819420784","1.04190800681431","1.9144804088586","0","360"
"1170","0.742759795570698","1.23032367972743","-1.89437819420784","-0.95809199318569","-2.0855195911414","0","360"
"1172","-0.257240204429302","-0.769676320272572","0.105621805792165","-0.95809199318569","-2.0855195911414","0","360"
"1179","-0.257240204429302","-0.769676320272572","0.105621805792165","2.04190800681431","-2.0855195911414","0","360"
"1180","0.742759795570698","-0.769676320272572","0.105621805792165","2.04190800681431","-2.0855195911414","0","360"
"1190","0.742759795570698","-0.769676320272572","0.105621805792165","2.04190800681431","-0.0855195911413969","0","360"
"1193","-1.2572402044293","-0.769676320272572","0.105621805792165","2.04190800681431","-0.0855195911413969","0","360"
"1199","-1.2572402044293","-0.769676320272572","0.105621805792165","-1.95809199318569","1.9144804088586","0","360"
"1201","-1.2572402044293","-0.769676320272572","0.105621805792165","-1.95809199318569","1.9144804088586","0","360"
"1207","-1.2572402044293","-0.769676320272572","0.105621805792165","-0.95809199318569","0.914480408858603","0","360"
"1213","-1.2572402044293","-0.769676320272572","1.10562180579216","-0.95809199318569","0.914480408858603","0","360"
"1219","-1.2572402044293","-0.769676320272572","1.10562180579216","-0.95809199318569","-1.0855195911414","0","360"
"1221","0.742759795570698","1.23032367972743","-0.894378194207835","-0.95809199318569","-1.0855195911414","0","360"
"1232","0.742759795570698","1.23032367972743","-0.894378194207835","0.0419080068143101","-0.0855195911413969","0","360"
"1233","-0.257240204429302","-0.769676320272572","-0.894378194207835","0.0419080068143101","-0.0855195911413969","0","360"
"1242","-0.257240204429302","-0.769676320272572","-0.894378194207835","-1.95809199318569","-1.0855195911414","0","360"
"1243","-1.2572402044293","0.230323679727428","0.105621805792165","-1.95809199318569","-1.0855195911414","0","360"
"1252","-1.2572402044293","0.230323679727428","0.105621805792165","-0.95809199318569","-1.0855195911414","0","360"
"1252","-1.2572402044293","0.230323679727428","0.105621805792165","-0.95809199318569","-1.0855195911414","0","360"
"1260","-1.2572402044293","0.230323679727428","0.105621805792165","-0.95809199318569","0.914480408858603","0","360"
"1262","-0.257240204429302","-0.769676320272572","1.10562180579216","-0.95809199318569","0.914480408858603","0","360"
"1268","-0.257240204429302","-0.769676320272572","1.10562180579216","-0.95809199318569","0.914480408858603","0","360"
"1270","-0.257240204429302","-0.769676320272572","-1.89437819420784","-0.95809199318569","0.914480408858603","0","360"
"1281","-0.257240204429302","-0.769676320272572","-1.89437819420784","1.04190800681431","-3.0855195911414","0","360"
"1283","-1.2572402044293","0.230323679727428","-0.894378194207835","1.04190800681431","-3.0855195911414","0","360"
"1288","-1.2572402044293","0.230323679727428","-0.894378194207835","2.04190800681431","-0.0855195911413969","0","360"
"1291","0.742759795570698","0.230323679727428","-1.89437819420784","2.04190800681431","-0.0855195911413969","0","360"
"1301","0.742759795570698","0.230323679727428","-1.89437819420784","1.04190800681431","-0.0855195911413969","0","360"
"1301","0.742759795570698","0.230323679727428","-1.89437819420784","1.04190800681431","-0.0855195911413969","0","360"
"1309","0.742759795570698","0.230323679727428","-1.89437819420784","1.04190800681431","1.9144804088586","0","360"
"1311","-0.257240204429302","1.23032367972743","0.105621805792165","1.04190800681431","1.9144804088586","0","360"
"1321","-0.257240204429302","1.23032367972743","0.105621805792165","-0.95809199318569","-0.0855195911413969","0","360"
"1324","0.742759795570698","0.230323679727428","-1.89437819420784","-0.95809199318569","-0.0855195911413969","0","360"
"1329","0.742759795570698","0.230323679727428","-1.89437819420784","0.0419080068143101","-0.0855195911413969","0","360"
"1332","0.742759795570698","-1.76967632027257","-0.894378194207835","0.0419080068143101","-0.0855195911413969","0","360"
"1337","0.742759795570698","-1.76967632027257","-0.894378194207835","4.04190800681431","0.914480408858603","0","360"
"1344","0.742759795570698","1.23032367972743","1.10562180579216","4.04190800681431","0.914480408858603","0","360"
"1350","0.742759795570698","1.23032367972743","1.10562180579216","-0.95809199318569","-0.0855195911413969","0","360"
"1350","0.742759795570698","1.23032367972743","1.10562180579216","-0.95809199318569","-0.0855195911413969","0","360"
"1358","0.742759795570698","1.23032367972743","1.10562180579216","-0.95809199318569","-4.0855195911414","0","360"
"1360","-1.2572402044293","-0.769676320272572","-0.894378194207835","-0.95809199318569","-4.0855195911414","0","360"
"1371","-1.2572402044293","-0.769676320272572","-0.894378194207835","0.0419080068143101","-2.0855195911414","0","360"
"1373","0.742759795570698","2.23032367972743","1.10562180579216","0.0419080068143101","-2.0855195911414","0","360"
"1379","0.742759795570698","2.23032367972743","1.10562180579216","-1.95809199318569","-1.0855195911414","0","360"
"1381","0.742759795570698","0.230323679727428","-1.89437819420784","-1.95809199318569","-1.0855195911414","0","360"
"1392","0.742759795570698","0.230323679727428","-1.89437819420784","1.04190800681431","-1.0855195911414","0","360"
"1393","0.742759795570698","-0.769676320272572","1.10562180579216","1.04190800681431","-1.0855195911414","0","360"
"1400","0.742759795570698","-0.769676320272572","1.10562180579216","-0.95809199318569","-0.0855195911413969","0","360"
"1401","0.742759795570698","-0.769676320272572","1.10562180579216","-0.95809199318569","-0.0855195911413969","0","360"
"1408","0.742759795570698","-0.769676320272572","1.10562180579216","0.0419080068143101","-1.0855195911414","0","360"
"1414","0.742759795570698","0.230323679727428","-0.894378194207835","0.0419080068143101","-1.0855195911414","0","360"
"1420","0.742759795570698","0.230323679727428","-0.894378194207835","2.04190800681431","1.9144804088586","0","360"
"1422","-0.257240204429302","-0.769676320272572","-0.894378194207835","2.04190800681431","1.9144804088586","0","360"
"1433","-0.257240204429302","-0.769676320272572","-0.894378194207835","-0.95809199318569","1.9144804088586","0","360"
"1434","-1.2572402044293","-0.769676320272572","0.105621805792165","-0.95809199318569","1.9144804088586","0","360"
"1440","-1.2572402044293","-0.769676320272572","0.105621805792165","-1.95809199318569","-1.0855195911414","0","360"
"1443","-1.2572402044293","-0.769676320272572","-0.894378194207835","-1.95809199318569","-1.0855195911414","0","360"
"1450","-1.2572402044293","-0.769676320272572","-0.894378194207835","-2.95809199318569","-0.0855195911413969","0","360"
"1451","-1.2572402044293","-0.769676320272572","-0.894378194207835","-2.95809199318569","-0.0855195911413969","0","360"
"1457","-1.2572402044293","-0.769676320272572","-0.894378194207835","-1.95809199318569","-1.0855195911414","0","360"
"1463","0.742759795570698","0.230323679727428","3.10562180579216","-1.95809199318569","-1.0855195911414","0","360"
"1470","0.742759795570698","0.230323679727428","3.10562180579216","-2.95809199318569","-0.0855195911413969","0","360"
"1471","-2.2572402044293","2.23032367972743","-3.89437819420784","-2.95809199318569","-0.0855195911413969","0","360"
"1482","-2.2572402044293","2.23032367972743","-3.89437819420784","-0.95809199318569","0.914480408858603","0","360"
"1483","-0.257240204429302","-0.769676320272572","1.10562180579216","-0.95809199318569","0.914480408858603","0","360"
"1490","-0.257240204429302","-0.769676320272572","1.10562180579216","-0.95809199318569","1.9144804088586","0","360"
"1492","0.742759795570698","-1.76967632027257","-0.894378194207835","-0.95809199318569","1.9144804088586","0","360"
"1502","0.742759795570698","-1.76967632027257","-0.894378194207835","0.0419080068143101","-0.0855195911413969","0","360"
"1502","0.742759795570698","-1.76967632027257","-0.894378194207835","0.0419080068143101","-0.0855195911413969","0","360"
"1510","0.742759795570698","-1.76967632027257","-0.894378194207835","-2.95809199318569","0.914480408858603","0","360"
"1512","-0.257240204429302","0.230323679727428","-1.89437819420784","-2.95809199318569","0.914480408858603","0","360"
"1523","-0.257240204429302","0.230323679727428","-1.89437819420784","-2.95809199318569","0.914480408858603","0","360"
"1524","0.742759795570698","-0.769676320272572","-1.89437819420784","-2.95809199318569","0.914480408858603","0","360"
"1531","0.742759795570698","-0.769676320272572","-1.89437819420784","-0.95809199318569","-0.0855195911413969","0","360"
"1532","-1.2572402044293","1.23032367972743","0.105621805792165","-0.95809199318569","-0.0855195911413969","0","360"
"1539","-1.2572402044293","1.23032367972743","0.105621805792165","-0.95809199318569","-0.0855195911413969","0","360"
"1545","0.742759795570698","-0.769676320272572","0.105621805792165","-0.95809199318569","-0.0855195911413969","0","360"
"1551","0.742759795570698","-0.769676320272572","0.105621805792165","0.0419080068143101","3.9144804088586","0","360"
"1551","0.742759795570698","-0.769676320272572","0.105621805792165","0.0419080068143101","3.9144804088586","0","360"
"1559","0.742759795570698","-0.769676320272572","0.105621805792165","-0.95809199318569","0.914480408858603","0","360"
"1561","0.742759795570698","2.23032367972743","-0.894378194207835","-0.95809199318569","0.914480408858603","0","360"
"1571","0.742759795570698","2.23032367972743","-0.894378194207835","0.0419080068143101","0.914480408858603","0","360"
"1573","-0.257240204429302","0.230323679727428","1.10562180579216","0.0419080068143101","0.914480408858603","0","360"
"1580","-0.257240204429302","0.230323679727428","1.10562180579216","0.0419080068143101","2.9144804088586","0","360"
"1582","0.742759795570698","-0.769676320272572","1.10562180579216","0.0419080068143101","2.9144804088586","0","360"
"1592","0.742759795570698","-0.769676320272572","1.10562180579216","1.04190800681431","0.914480408858603","0","360"
"1594","-0.257240204429302","-0.769676320272572","1.10562180579216","1.04190800681431","0.914480408858603","0","360"
"1600","-0.257240204429302","-0.769676320272572","1.10562180579216","-1.95809199318569","1.9144804088586","0","360"
"1602","-0.257240204429302","-0.769676320272572","1.10562180579216","-1.95809199318569","1.9144804088586","0","360"
"1609","-0.257240204429302","-0.769676320272572","1.10562180579216","2.04190800681431","-0.0855195911413969","0","360"
"1614","-0.257240204429302","0.230323679727428","2.10562180579216","2.04190800681431","-0.0855195911413969","0","360"
"1621","-0.257240204429302","0.230323679727428","2.10562180579216","3.04190800681431","0.914480408858603","0","360"
"1623","0.742759795570698","0.230323679727428","-0.894378194207835","3.04190800681431","0.914480408858603","0","360"
"1630","0.742759795570698","0.230323679727428","-0.894378194207835","1.04190800681431","1.9144804088586","0","360"
"1635","-0.257240204429302","0.230323679727428","-2.89437819420784","1.04190800681431","1.9144804088586","0","360"
"1642","-0.257240204429302","0.230323679727428","-2.89437819420784","0.0419080068143101","0.914480408858603","0","360"
"1643","0.742759795570698","1.23032367972743","1.10562180579216","0.0419080068143101","0.914480408858603","0","360"
"1651","0.742759795570698","1.23032367972743","1.10562180579216","0.0419080068143101","-2.0855195911414","0","360"
"1651","0.742759795570698","1.23032367972743","1.10562180579216","0.0419080068143101","-2.0855195911414","0","360"
"1658","0.742759795570698","1.23032367972743","1.10562180579216","0.0419080068143101","0.914480408858603","0","360"
"1664","-0.257240204429302","-0.769676320272572","-0.894378194207835","0.0419080068143101","0.914480408858603","0","360"
"1670","-0.257240204429302","-0.769676320272572","-0.894378194207835","-0.95809199318569","-1.0855195911414","0","360"
"1672","0.742759795570698","1.23032367972743","-0.894378194207835","-0.95809199318569","-1.0855195911414","0","360"
"1682","0.742759795570698","1.23032367972743","-0.894378194207835","1.04190800681431","-0.0855195911413969","0","360"
"1684","-0.257240204429302","1.23032367972743","0.105621805792165","1.04190800681431","-0.0855195911413969","0","360"
"1691","-0.257240204429302","1.23032367972743","0.105621805792165","1.04190800681431","-2.0855195911414","0","360"
"1692","0.742759795570698","1.23032367972743","-0.894378194207835","1.04190800681431","-2.0855195911414","0","360"
"1702","0.742759795570698","1.23032367972743","-0.894378194207835","3.04190800681431","-1.0855195911414","0","360"
"1703","0.742759795570698","1.23032367972743","-0.894378194207835","3.04190800681431","-1.0855195911414","0","360"
"1708","0.742759795570698","1.23032367972743","-0.894378194207835","0.0419080068143101","-1.0855195911414","0","360"
"1713","-0.257240204429302","1.23032367972743","-0.894378194207835","0.0419080068143101","-1.0855195911414","0","360"
"1724","-0.257240204429302","1.23032367972743","-0.894378194207835","-1.95809199318569","-0.0855195911413969","0","360"
"1725","0.742759795570698","-0.769676320272572","-1.89437819420784","-1.95809199318569","-0.0855195911413969","0","360"
"1731","0.742759795570698","-0.769676320272572","-1.89437819420784","-0.95809199318569","-0.0855195911413969","0","360"
"1733","0.742759795570698","-0.769676320272572","-1.89437819420784","-0.95809199318569","-0.0855195911413969","0","360"
"1740","0.742759795570698","-0.769676320272572","-1.89437819420784","2.04190800681431","-1.0855195911414","0","360"
"1745","0.742759795570698","-0.769676320272572","2.10562180579216","2.04190800681431","-1.0855195911414","0","360"
"1752","0.742759795570698","-0.769676320272572","2.10562180579216","-0.95809199318569","2.9144804088586","0","360"
"1752","0.742759795570698","-0.769676320272572","2.10562180579216","-0.95809199318569","2.9144804088586","0","360"
"1760","0.742759795570698","-0.769676320272572","2.10562180579216","-1.95809199318569","-1.0855195911414","0","360"
"1762","0.742759795570698","0.230323679727428","1.10562180579216","-1.95809199318569","-1.0855195911414","0","360"
"1772","0.742759795570698","0.230323679727428","1.10562180579216","2.04190800681431","-0.0855195911413969","0","360"
"1774","0.742759795570698","-0.769676320272572","0.105621805792165","2.04190800681431","-0.0855195911413969","0","360"
"1781","0.742759795570698","-0.769676320272572","0.105621805792165","2.04190800681431","-1.0855195911414","0","360"
"1782","-0.257240204429302","2.23032367972743","1.10562180579216","2.04190800681431","-1.0855195911414","0","360"
"1792","-0.257240204429302","2.23032367972743","1.10562180579216","0.0419080068143101","-2.0855195911414","0","360"
"1795","-1.2572402044293","-0.769676320272572","-0.894378194207835","0.0419080068143101","-2.0855195911414","0","360"
"1801","-1.2572402044293","-0.769676320272572","-0.894378194207835","-0.95809199318569","-0.0855195911413969","0","360"
"1803","-1.2572402044293","-0.769676320272572","-0.894378194207835","-0.95809199318569","-0.0855195911413969","0","360"
"1809","-1.2572402044293","-0.769676320272572","-0.894378194207835","2.04190800681431","-3.0855195911414","0","360"
"1815","-2.2572402044293","2.23032367972743","-0.894378194207835","2.04190800681431","-3.0855195911414","0","360"
"1821","-2.2572402044293","2.23032367972743","-0.894378194207835","1.04190800681431","-1.0855195911414","0","360"
"1823","0.742759795570698","0.230323679727428","-2.89437819420784","1.04190800681431","-1.0855195911414","0","360"
"1830","0.742759795570698","0.230323679727428","-2.89437819420784","0.0419080068143101","-2.0855195911414","0","360"
"1831","0.742759795570698","-0.769676320272572","-0.894378194207835","0.0419080068143101","-2.0855195911414","0","360"
"1845","0.742759795570698","-0.769676320272572","-0.894378194207835","0.0419080068143101","-0.0855195911413969","0","360"
"1845","0.742759795570698","2.23032367972743","1.10562180579216","0.0419080068143101","-0.0855195911413969","0","360"
"1853","0.742759795570698","2.23032367972743","1.10562180579216","-0.95809199318569","0.914480408858603","0","360"
"1853","0.742759795570698","2.23032367972743","1.10562180579216","-0.95809199318569","0.914480408858603","0","360"
"1861","0.742759795570698","2.23032367972743","1.10562180579216","0.0419080068143101","-0.0855195911413969","0","360"
"1864","0.742759795570698","-1.76967632027257","1.10562180579216","0.0419080068143101","-0.0855195911413969","0","360"
"1871","0.742759795570698","-1.76967632027257","1.10562180579216","-0.95809199318569","-0.0855195911413969","0","360"
"1873","0.742759795570698","-1.76967632027257","1.10562180579216","-0.95809199318569","-0.0855195911413969","0","360"
"1883","0.742759795570698","-1.76967632027257","1.10562180579216","-4.95809199318569","0.914480408858603","0","360"
"1885","-1.2572402044293","-0.769676320272572","0.105621805792165","-4.95809199318569","0.914480408858603","0","360"
"1891","-1.2572402044293","-0.769676320272572","0.105621805792165","-0.95809199318569","0.914480408858603","0","360"
"1893","0.742759795570698","-0.769676320272572","0.105621805792165","-0.95809199318569","0.914480408858603","0","360"
"1903","0.742759795570698","-0.769676320272572","0.105621805792165","-1.95809199318569","-0.0855195911413969","0","360"
"1903","0.742759795570698","-0.769676320272572","0.105621805792165","-1.95809199318569","-0.0855195911413969","0","360"
"1910","0.742759795570698","-0.769676320272572","0.105621805792165","-1.95809199318569","-0.0855195911413969","0","360"
"1914","-0.257240204429302","0.230323679727428","0.105621805792165","-1.95809199318569","-0.0855195911413969","0","360"
"1920","-0.257240204429302","0.230323679727428","0.105621805792165","-3.95809199318569","0.914480408858603","0","360"
"1922","-0.257240204429302","0.230323679727428","0.105621805792165","-3.95809199318569","0.914480408858603","0","360"
"1932","-0.257240204429302","0.230323679727428","0.105621805792165","3.04190800681431","-1.0855195911414","0","360"
"1934","-4.2572402044293","1.23032367972743","2.10562180579216","3.04190800681431","-1.0855195911414","0","360"
"1941","-4.2572402044293","1.23032367972743","2.10562180579216","-1.95809199318569","-1.0855195911414","0","360"
"1942","0.742759795570698","0.230323679727428","1.10562180579216","-1.95809199318569","-1.0855195911414","0","360"
"1952","0.742759795570698","0.230323679727428","1.10562180579216","1.04190800681431","0.914480408858603","0","360"
"1952","0.742759795570698","0.230323679727428","1.10562180579216","1.04190800681431","0.914480408858603","0","360"
"1961","0.742759795570698","0.230323679727428","1.10562180579216","0.0419080068143101","-0.0855195911413969","0","360"
"1963","0.742759795570698","-0.769676320272572","4.10562180579216","0.0419080068143101","-0.0855195911413969","0","360"
"1973","0.742759795570698","-0.769676320272572","4.10562180579216","-2.95809199318569","-1.0855195911414","0","360"
"1975","-0.257240204429302","0.230323679727428","1.10562180579216","-2.95809199318569","-1.0855195911414","0","360"
"1982","-0.257240204429302","0.230323679727428","1.10562180579216","1.04190800681431","-0.0855195911413969","0","360"
"1983","-0.257240204429302","1.23032367972743","-3.89437819420784","1.04190800681431","-0.0855195911413969","0","360"
"1990","-0.257240204429302","1.23032367972743","-3.89437819420784","2.04190800681431","-0.0855195911413969","0","360"
"1996","-3.2572402044293","2.23032367972743","2.10562180579216","2.04190800681431","-0.0855195911413969","0","360"
"2002","-3.2572402044293","2.23032367972743","2.10562180579216","-0.95809199318569","0.914480408858603","0","360"
"2004","-3.2572402044293","2.23032367972743","2.10562180579216","-0.95809199318569","0.914480408858603","0","360"
"2010","-3.2572402044293","2.23032367972743","2.10562180579216","1.04190800681431","-0.0855195911413969","0","360"
"2012","0.742759795570698","2.23032367972743","0.105621805792165","1.04190800681431","-0.0855195911413969","0","360"
"2022","0.742759795570698","2.23032367972743","0.105621805792165","0.0419080068143101","-2.0855195911414","0","360"
"2024","-1.2572402044293","-0.769676320272572","0.105621805792165","0.0419080068143101","-2.0855195911414","0","360"
"2030","-1.2572402044293","-0.769676320272572","0.105621805792165","-0.95809199318569","-1.0855195911414","0","360"
"2032","0.742759795570698","1.23032367972743","-3.89437819420784","-0.95809199318569","-1.0855195911414","0","360"
"2043","0.742759795570698","1.23032367972743","-3.89437819420784","0.0419080068143101","-1.0855195911414","0","360"
"2043","0.742759795570698","2.23032367972743","0.105621805792165","0.0419080068143101","-1.0855195911414","0","360"
"2052","0.742759795570698","2.23032367972743","0.105621805792165","1.04190800681431","-1.0855195911414","0","360"
"2052","0.742759795570698","0.230323679727428","2.10562180579216","1.04190800681431","-1.0855195911414","0","360"
"2059","0.742759795570698","0.230323679727428","2.10562180579216","-1.95809199318569","-2.0855195911414","0","360"
"2061","1.7427597955707","0.230323679727428","2.10562180579216","-1.95809199318569","-2.0855195911414","0","360"
"2072","1.7427597955707","0.230323679727428","2.10562180579216","-0.95809199318569","0.914480408858603","0","360"
"2074","0.742759795570698","1.23032367972743","-1.89437819420784","-0.95809199318569","0.914480408858603","0","360"
"2081","0.742759795570698","1.23032367972743","-1.89437819420784","1.04190800681431","0.914480408858603","0","360"
"2081","-1.2572402044293","-0.769676320272572","-0.894378194207835","1.04190800681431","0.914480408858603","0","360"
"2092","-1.2572402044293","-0.769676320272572","-0.894378194207835","-0.95809199318569","0.914480408858603","0","360"
"2094","0.742759795570698","-0.769676320272572","2.10562180579216","-0.95809199318569","0.914480408858603","0","360"
"2100","0.742759795570698","-0.769676320272572","2.10562180579216","-1.95809199318569","-1.0855195911414","0","360"
"2100","-0.257240204429302","0.230323679727428","-0.894378194207835","-1.95809199318569","-1.0855195911414","0","360"
"2108","-0.257240204429302","0.230323679727428","-0.894378194207835","0.0419080068143101","0.914480408858603","0","360"
"2110","0.742759795570698","-0.769676320272572","3.10562180579216","0.0419080068143101","0.914480408858603","0","360"
"2120","0.742759795570698","-0.769676320272572","3.10562180579216","-2.95809199318569","0.914480408858603","0","360"
"2122","0.742759795570698","-0.769676320272572","3.10562180579216","-2.95809199318569","0.914480408858603","0","360"
"2129","0.742759795570698","-0.769676320272572","3.10562180579216","-1.95809199318569","2.9144804088586","0","360"
"2131","0.742759795570698","-0.769676320272572","-3.89437819420784","-1.95809199318569","2.9144804088586","0","360"
"2137","0.742759795570698","-0.769676320272572","-3.89437819420784","2.04190800681431","-0.0855195911413969","0","360"
"2139","0.742759795570698","-0.769676320272572","0.105621805792165","2.04190800681431","-0.0855195911413969","0","360"
"2150","0.742759795570698","-0.769676320272572","0.105621805792165","1.04190800681431","-3.0855195911414","0","360"
"2151","-0.257240204429302","-0.769676320272572","3.10562180579216","1.04190800681431","-3.0855195911414","0","360"
"2157","-0.257240204429302","-0.769676320272572","3.10562180579216","-1.95809199318569","-0.0855195911413969","0","360"
"2159","-1.2572402044293","1.23032367972743","0.105621805792165","-1.95809199318569","-0.0855195911413969","0","360"
"2170","-1.2572402044293","1.23032367972743","0.105621805792165","-0.95809199318569","-0.0855195911413969","0","360"
"2171","0.742759795570698","-0.769676320272572","-0.894378194207835","-0.95809199318569","-0.0855195911413969","0","360"
"2178","0.742759795570698","-0.769676320272572","-0.894378194207835","-0.95809199318569","0.914480408858603","0","360"
"2180","0.742759795570698","-1.76967632027257","-0.894378194207835","-0.95809199318569","0.914480408858603","0","360"
"2186","0.742759795570698","-1.76967632027257","-0.894378194207835","0.0419080068143101","-0.0855195911413969","0","360"
"2188","0.742759795570698","1.23032367972743","-3.89437819420784","0.0419080068143101","-0.0855195911413969","0","360"
"2199","0.742759795570698","1.23032367972743","-3.89437819420784","-1.95809199318569","4.9144804088586","0","360"
"2200","0.742759795570698","0.230323679727428","1.10562180579216","-1.95809199318569","4.9144804088586","0","360"
"2207","0.742759795570698","0.230323679727428","1.10562180579216","0.0419080068143101","2.9144804088586","0","360"
"2208","0.742759795570698","-0.769676320272572","2.10562180579216","0.0419080068143101","2.9144804088586","0","360"
"2219","0.742759795570698","-0.769676320272572","2.10562180579216","1.04190800681431","-0.0855195911413969","0","360"
"2221","-0.257240204429302","2.23032367972743","0.105621805792165","1.04190800681431","-0.0855195911413969","0","360"
"2227","-0.257240204429302","2.23032367972743","0.105621805792165","-0.95809199318569","0.914480408858603","0","360"
"2229","0.742759795570698","-0.769676320272572","0.105621805792165","-0.95809199318569","0.914480408858603","0","360"
"2235","0.742759795570698","-0.769676320272572","0.105621805792165","0.0419080068143101","0.914480408858603","0","360"
"2237","-1.2572402044293","-0.769676320272572","3.10562180579216","0.0419080068143101","0.914480408858603","0","360"
"2248","-1.2572402044293","-0.769676320272572","3.10562180579216","1.04190800681431","-2.0855195911414","0","360"
"2249","-2.2572402044293","2.23032367972743","1.10562180579216","1.04190800681431","-2.0855195911414","0","360"
"2257","-2.2572402044293","2.23032367972743","1.10562180579216","2.04190800681431","-2.0855195911414","0","360"
"2257","0.742759795570698","1.23032367972743","0.105621805792165","2.04190800681431","-2.0855195911414","0","360"
"2268","0.742759795570698","1.23032367972743","0.105621805792165","0.0419080068143101","-0.0855195911413969","0","360"
"2270","-1.2572402044293","-0.769676320272572","0.105621805792165","0.0419080068143101","-0.0855195911413969","0","360"
"2278","-1.2572402044293","-0.769676320272572","0.105621805792165","0.0419080068143101","-0.0855195911413969","0","360"
"2279","-2.2572402044293","0.230323679727428","-0.894378194207835","0.0419080068143101","-0.0855195911413969","0","360"
"2285","-2.2572402044293","0.230323679727428","-0.894378194207835","1.04190800681431","-0.0855195911413969","0","360"
"2291","0.742759795570698","1.23032367972743","1.10562180579216","1.04190800681431","-0.0855195911413969","0","360"
"2299","0.742759795570698","1.23032367972743","1.10562180579216","0.0419080068143101","0.914480408858603","0","360"
"2299","0.742759795570698","0.230323679727428","1.10562180579216","0.0419080068143101","0.914480408858603","0","360"
"2306","0.742759795570698","0.230323679727428","1.10562180579216","0.0419080068143101","0.914480408858603","0","360"
"2307","0.742759795570698","2.23032367972743","-0.894378194207835","0.0419080068143101","0.914480408858603","0","360"
"2317","0.742759795570698","2.23032367972743","-0.894378194207835","0.0419080068143101","0.914480408858603","0","360"
"2319","-0.257240204429302","1.23032367972743","1.10562180579216","0.0419080068143101","0.914480408858603","0","360"
"2325","-0.257240204429302","1.23032367972743","1.10562180579216","0.0419080068143101","0.914480408858603","0","360"
"2327","-0.257240204429302","-0.769676320272572","1.10562180579216","0.0419080068143101","0.914480408858603","0","360"
"2337","-0.257240204429302","-0.769676320272572","1.10562180579216","-0.95809199318569","-0.0855195911413969","0","360"
"2340","0.742759795570698","2.23032367972743","-1.89437819420784","-0.95809199318569","-0.0855195911413969","0","360"
"2346","0.742759795570698","2.23032367972743","-1.89437819420784","0.0419080068143101","-1.0855195911414","0","360"
"2348","-1.2572402044293","0.230323679727428","0.105621805792165","0.0419080068143101","-1.0855195911414","0","360"
"2358","-1.2572402044293","0.230323679727428","0.105621805792165","2.04190800681431","0.914480408858603","0","360"
"2360","-0.257240204429302","-0.769676320272572","2.10562180579216","2.04190800681431","0.914480408858603","0","360"
"2367","-0.257240204429302","-0.769676320272572","2.10562180579216","0.0419080068143101","0.914480408858603","0","360"
"2372","0.742759795570698","0.230323679727428","-0.894378194207835","0.0419080068143101","0.914480408858603","0","360"
"2379","0.742759795570698","0.230323679727428","-0.894378194207835","-2.95809199318569","-3.0855195911414","0","360"
"2380","-0.257240204429302","2.23032367972743","-2.89437819420784","-2.95809199318569","-3.0855195911414","0","360"
"2387","-0.257240204429302","2.23032367972743","-2.89437819420784","-1.95809199318569","-2.0855195911414","0","360"
"2389","0.742759795570698","-0.769676320272572","1.10562180579216","-1.95809199318569","-2.0855195911414","0","360"
"2396","0.742759795570698","-0.769676320272572","1.10562180579216","3.04190800681431","-1.0855195911414","0","360"
"2397","0.742759795570698","2.23032367972743","1.10562180579216","3.04190800681431","-1.0855195911414","0","360"
"2407","0.742759795570698","2.23032367972743","1.10562180579216","0.0419080068143101","-0.0855195911413969","0","360"
"2409","0.742759795570698","1.23032367972743","-0.894378194207835","0.0419080068143101","-0.0855195911413969","0","360"
"2416","0.742759795570698","1.23032367972743","-0.894378194207835","2.04190800681431","-0.0855195911413969","0","360"
"2417","0.742759795570698","0.230323679727428","1.10562180579216","2.04190800681431","-0.0855195911413969","0","360"
"2428","0.742759795570698","0.230323679727428","1.10562180579216","-0.95809199318569","-2.0855195911414","0","360"
"2430","-0.257240204429302","-0.769676320272572","-0.894378194207835","-0.95809199318569","-2.0855195911414","0","360"
"2436","-0.257240204429302","-0.769676320272572","-0.894378194207835","0.0419080068143101","-4.0855195911414","0","360"
"2438","0.742759795570698","1.23032367972743","2.10562180579216","0.0419080068143101","-4.0855195911414","0","360"
"2448","0.742759795570698","1.23032367972743","2.10562180579216","-0.95809199318569","-2.0855195911414","0","360"
"2450","0.742759795570698","0.230323679727428","1.10562180579216","-0.95809199318569","-2.0855195911414","0","360"
"2457","0.742759795570698","0.230323679727428","1.10562180579216","1.04190800681431","-2.0855195911414","0","360"
"2458","-1.2572402044293","1.23032367972743","-0.894378194207835","1.04190800681431","-2.0855195911414","0","360"
"2465","-1.2572402044293","1.23032367972743","-0.894378194207835","-0.95809199318569","-0.0855195911413969","0","360"
"2470","-0.257240204429302","-0.769676320272572","0.105621805792165","-0.95809199318569","-0.0855195911413969","0","360"
"2479","-0.257240204429302","-0.769676320272572","0.105621805792165","-2.95809199318569","0.914480408858603","0","360"
"2479","0.742759795570698","0.230323679727428","-0.894378194207835","-2.95809199318569","0.914480408858603","0","360"
"2485","0.742759795570698","0.230323679727428","-0.894378194207835","-2.95809199318569","-1.0855195911414","0","360"
"2487","-1.2572402044293","-1.76967632027257","-0.894378194207835","-2.95809199318569","-1.0855195911414","0","360"
"2497","-1.2572402044293","-1.76967632027257","-0.894378194207835","0.0419080068143101","-1.0855195911414","0","360"
"2499","0.742759795570698","0.230323679727428","0.105621805792165","0.0419080068143101","-1.0855195911414","0","360"
"2506","0.742759795570698","0.230323679727428","0.105621805792165","0.0419080068143101","-0.0855195911413969","0","360"
"2507","0.742759795570698","-0.769676320272572","1.10562180579216","0.0419080068143101","-0.0855195911413969","0","360"
"2518","0.742759795570698","-0.769676320272572","1.10562180579216","0.0419080068143101","0.914480408858603","0","360"
"2520","0.742759795570698","-0.769676320272572","2.10562180579216","0.0419080068143101","0.914480408858603","0","360"
"2526","0.742759795570698","-0.769676320272572","2.10562180579216","-1.95809199318569","-0.0855195911413969","0","360"
"2528","0.742759795570698","0.230323679727428","-2.89437819420784","-1.95809199318569","-0.0855195911413969","0","360"
"2538","0.742759795570698","0.230323679727428","-2.89437819420784","-0.95809199318569","-1.0855195911414","0","360"
"2540","-0.257240204429302","-0.769676320272572","-1.89437819420784","-0.95809199318569","-1.0855195911414","0","360"
"2547","-0.257240204429302","-0.769676320272572","-1.89437819420784","-1.95809199318569","2.9144804088586","0","360"
"2548","-1.2572402044293","-0.769676320272572","2.10562180579216","-1.95809199318569","2.9144804088586","0","360"
"2554","-1.2572402044293","-0.769676320272572","2.10562180579216","-1.95809199318569","1.9144804088586","0","360"
"2557","0.742759795570698","1.23032367972743","-0.894378194207835","-1.95809199318569","1.9144804088586","0","360"
"2567","0.742759795570698","1.23032367972743","-0.894378194207835","0.0419080068143101","0.914480408858603","0","360"
"2569","-0.257240204429302","1.23032367972743","1.10562180579216","0.0419080068143101","0.914480408858603","0","360"
"2575","-0.257240204429302","1.23032367972743","1.10562180579216","2.04190800681431","-3.0855195911414","0","360"
"2577","-0.257240204429302","-0.769676320272572","-2.89437819420784","2.04190800681431","-3.0855195911414","0","360"
"2587","-0.257240204429302","-0.769676320272572","-2.89437819420784","-0.95809199318569","0.914480408858603","0","360"
"2589","-0.257240204429302","-0.769676320272572","0.105621805792165","-0.95809199318569","0.914480408858603","0","360"
"2596","-0.257240204429302","-0.769676320272572","0.105621805792165","-0.95809199318569","-0.0855195911413969","0","360"
"2597","0.742759795570698","-0.769676320272572","2.10562180579216","-0.95809199318569","-0.0855195911413969","0","360"
"2608","0.742759795570698","-0.769676320272572","2.10562180579216","1.04190800681431","0.914480408858603","0","360"
"2610","-0.257240204429302","0.230323679727428","0.105621805792165","1.04190800681431","0.914480408858603","0","360"
"2616","-0.257240204429302","0.230323679727428","0.105621805792165","0.0419080068143101","-2.0855195911414","0","360"
"2618","0.742759795570698","0.230323679727428","1.10562180579216","0.0419080068143101","-2.0855195911414","0","360"
"2629","0.742759795570698","0.230323679727428","1.10562180579216","0.0419080068143101","0.914480408858603","0","360"
"2630","-0.257240204429302","1.23032367972743","1.10562180579216","0.0419080068143101","0.914480408858603","0","360"
"2637","-0.257240204429302","1.23032367972743","1.10562180579216","-0.95809199318569","-1.0855195911414","0","360"
"2639","-2.2572402044293","0.230323679727428","2.10562180579216","-0.95809199318569","-1.0855195911414","0","360"
"2646","-2.2572402044293","0.230323679727428","2.10562180579216","2.04190800681431","-0.0855195911413969","0","360"
"2647","0.742759795570698","0.230323679727428","1.10562180579216","2.04190800681431","-0.0855195911413969","0","360"
"2657","0.742759795570698","0.230323679727428","1.10562180579216","0.0419080068143101","-0.0855195911413969","0","360"
"2659","0.742759795570698","0.230323679727428","-1.89437819420784","0.0419080068143101","-0.0855195911413969","0","360"
"2668","0.742759795570698","0.230323679727428","-1.89437819420784","-0.95809199318569","-1.0855195911414","0","360"
"2668","-1.2572402044293","0.230323679727428","-0.894378194207835","-0.95809199318569","-1.0855195911414","0","360"
"2682","-1.2572402044293","0.230323679727428","-0.894378194207835","-0.95809199318569","-1.0855195911414","0","360"
"2682","0.742759795570698","-0.769676320272572","-0.894378194207835","-0.95809199318569","-1.0855195911414","0","360"
"2696","0.742759795570698","-0.769676320272572","-0.894378194207835","-1.95809199318569","-1.0855195911414","0","360"
"2696","-1.2572402044293","1.23032367972743","0.105621805792165","-1.95809199318569","-1.0855195911414","0","360"
"2704","-1.2572402044293","1.23032367972743","0.105621805792165","-2.95809199318569","-1.0855195911414","0","360"
"2704","0.742759795570698","-0.769676320272572","-0.894378194207835","-2.95809199318569","-1.0855195911414","0","360"
"2713","0.742759795570698","-0.769676320272572","-0.894378194207835","-1.95809199318569","-1.0855195911414","0","360"
"2713","0.742759795570698","1.23032367972743","1.10562180579216","-1.95809199318569","-1.0855195911414","0","360"
"2721","0.742759795570698","1.23032367972743","1.10562180579216","-0.95809199318569","-2.0855195911414","0","360"
"2721","-1.2572402044293","0.230323679727428","-0.894378194207835","-0.95809199318569","-2.0855195911414","0","360"
"2728","-1.2572402044293","0.230323679727428","-0.894378194207835","0.0419080068143101","-2.0855195911414","0","360"
"2729","0.742759795570698","-0.769676320272572","-1.89437819420784","0.0419080068143101","-2.0855195911414","0","360"
"2735","0.742759795570698","-0.769676320272572","-1.89437819420784","-1.95809199318569","0.914480408858603","0","360"
"2737","-2.2572402044293","-0.769676320272572","0.105621805792165","-1.95809199318569","0.914480408858603","0","360"
"2746","-2.2572402044293","-0.769676320272572","0.105621805792165","-4.95809199318569","-1.0855195911414","0","360"
"2749","0.742759795570698","0.230323679727428","-0.894378194207835","-4.95809199318569","-1.0855195911414","0","360"
"2754","0.742759795570698","0.230323679727428","-0.894378194207835","-0.95809199318569","-0.0855195911413969","0","360"
"2757","0.742759795570698","-1.76967632027257","1.10562180579216","-0.95809199318569","-0.0855195911413969","0","360"
"2766","0.742759795570698","-1.76967632027257","1.10562180579216","0.0419080068143101","-1.0855195911414","0","360"
"2770","-0.257240204429302","-0.769676320272572","0.105621805792165","0.0419080068143101","-1.0855195911414","0","360"
"2775","-0.257240204429302","-0.769676320272572","0.105621805792165","0.0419080068143101","-2.0855195911414","0","360"
"2778","0.742759795570698","0.230323679727428","-1.89437819420784","0.0419080068143101","-2.0855195911414","0","360"
"2790","0.742759795570698","0.230323679727428","-1.89437819420784","0.0419080068143101","-1.0855195911414","0","360"
"2790","-2.2572402044293","-0.769676320272572","1.10562180579216","0.0419080068143101","-1.0855195911414","0","360"
"2797","-2.2572402044293","-0.769676320272572","1.10562180579216","1.04190800681431","-1.0855195911414","0","360"
"2798","0.742759795570698","0.230323679727428","-0.894378194207835","1.04190800681431","-1.0855195911414","0","360"
"2809","0.742759795570698","0.230323679727428","-0.894378194207835","-0.95809199318569","-1.0855195911414","0","360"
"2810","0.742759795570698","0.230323679727428","1.10562180579216","-0.95809199318569","-1.0855195911414","0","360"
"2817","0.742759795570698","0.230323679727428","1.10562180579216","0.0419080068143101","0.914480408858603","0","360"
"2819","0.742759795570698","0.230323679727428","3.10562180579216","0.0419080068143101","0.914480408858603","0","360"
"2825","0.742759795570698","0.230323679727428","3.10562180579216","0.0419080068143101","0.914480408858603","0","360"
"2827","0.742759795570698","0.230323679727428","-2.89437819420784","0.0419080068143101","0.914480408858603","0","360"
"2837","0.742759795570698","0.230323679727428","-2.89437819420784","1.04190800681431","-0.0855195911413969","0","360"
"2839","-0.257240204429302","0.230323679727428","-0.894378194207835","1.04190800681431","-0.0855195911413969","0","360"
"2845","-0.257240204429302","0.230323679727428","-0.894378194207835","1.04190800681431","-0.0855195911413969","0","360"
"2847","0.742759795570698","0.230323679727428","0.105621805792165","1.04190800681431","-0.0855195911413969","0","360"
"2857","0.742759795570698","0.230323679727428","0.105621805792165","2.04190800681431","4.9144804088586","0","360"
"2860","-1.2572402044293","-0.769676320272572","3.10562180579216","2.04190800681431","4.9144804088586","0","360"
"2867","-1.2572402044293","-0.769676320272572","3.10562180579216","0.0419080068143101","-2.0855195911414","0","360"
"2868","0.742759795570698","-0.769676320272572","1.10562180579216","0.0419080068143101","-2.0855195911414","0","360"
"2878","0.742759795570698","-0.769676320272572","1.10562180579216","1.04190800681431","-0.0855195911413969","0","360"
"2880","0.742759795570698","-0.769676320272572","-3.89437819420784","1.04190800681431","-0.0855195911413969","0","360"
"2887","0.742759795570698","-0.769676320272572","-3.89437819420784","3.04190800681431","0.914480408858603","0","360"
"2889","0.742759795570698","-0.769676320272572","0.105621805792165","3.04190800681431","0.914480408858603","0","360"
"2897","0.742759795570698","-0.769676320272572","0.105621805792165","1.04190800681431","-3.0855195911414","0","360"
"2901","0.742759795570698","1.23032367972743","3.10562180579216","1.04190800681431","-3.0855195911414","0","360"
"2908","0.742759795570698","1.23032367972743","3.10562180579216","3.04190800681431","0.914480408858603","0","360"
"2909","-1.2572402044293","0.230323679727428","-1.89437819420784","3.04190800681431","0.914480408858603","0","360"
"2916","-1.2572402044293","0.230323679727428","-1.89437819420784","1.04190800681431","-2.0855195911414","0","360"
"2917","0.742759795570698","0.230323679727428","0.105621805792165","1.04190800681431","-2.0855195911414","0","360"
"2928","0.742759795570698","0.230323679727428","0.105621805792165","-0.95809199318569","0.914480408858603","0","360"
"2929","-0.257240204429302","0.230323679727428","-0.894378194207835","-0.95809199318569","0.914480408858603","0","360"
"2935","-0.257240204429302","0.230323679727428","-0.894378194207835","-0.95809199318569","0.914480408858603","0","360"
"2937","-1.2572402044293","-1.76967632027257","-1.89437819420784","-0.95809199318569","0.914480408858603","0","360"
"2947","-1.2572402044293","-1.76967632027257","-1.89437819420784","1.04190800681431","1.9144804088586","0","360"
"2950","-1.2572402044293","0.230323679727428","1.10562180579216","1.04190800681431","1.9144804088586","0","360"
"2955","-1.2572402044293","0.230323679727428","1.10562180579216","0.0419080068143101","-0.0855195911413969","0","360"
"2958","0.742759795570698","0.230323679727428","3.10562180579216","0.0419080068143101","-0.0855195911413969","0","360"
"2968","0.742759795570698","0.230323679727428","3.10562180579216","-1.95809199318569","-1.0855195911414","0","360"
"2970","-0.257240204429302","0.230323679727428","-0.894378194207835","-1.95809199318569","-1.0855195911414","0","360"
"2976","-0.257240204429302","0.230323679727428","-0.894378194207835","-1.95809199318569","-1.0855195911414","0","360"
"2978","0.742759795570698","-0.769676320272572","-0.894378194207835","-1.95809199318569","-1.0855195911414","0","360"
"2984","0.742759795570698","-0.769676320272572","-0.894378194207835","-1.95809199318569","0.914480408858603","0","360"
"2991","0.742759795570698","0.230323679727428","0.105621805792165","-1.95809199318569","0.914480408858603","0","360"
"2997","0.742759795570698","0.230323679727428","0.105621805792165","-0.95809199318569","-1.0855195911414","0","360"
"2999","0.742759795570698","-0.769676320272572","0.105621805792165","-0.95809199318569","-1.0855195911414","0","360"
"3006","0.742759795570698","-0.769676320272572","0.105621805792165","1.04190800681431","1.9144804088586","0","360"
"3007","0.742759795570698","-0.769676320272572","0.105621805792165","1.04190800681431","1.9144804088586","0","360"
"3017","0.742759795570698","-0.769676320272572","0.105621805792165","-2.95809199318569","0.914480408858603","0","360"
"3019","0.742759795570698","-0.769676320272572","0.105621805792165","-2.95809199318569","0.914480408858603","0","360"
"3025","0.742759795570698","-0.769676320272572","0.105621805792165","-2.95809199318569","0.914480408858603","0","360"
"3028","1.7427597955707","0.230323679727428","-0.894378194207835","-2.95809199318569","0.914480408858603","0","360"
"3038","1.7427597955707","0.230323679727428","-0.894378194207835","-1.95809199318569","-1.0855195911414","0","360"
"3040","-0.257240204429302","1.23032367972743","3.10562180579216","-1.95809199318569","-1.0855195911414","0","360"
"3046","-0.257240204429302","1.23032367972743","3.10562180579216","4.04190800681431","0.914480408858603","0","360"
"3048","0.742759795570698","0.230323679727428","1.10562180579216","4.04190800681431","0.914480408858603","0","360"
"3059","0.742759795570698","0.230323679727428","1.10562180579216","2.04190800681431","-0.0855195911413969","0","360"
"3060","-0.257240204429302","0.230323679727428","0.105621805792165","2.04190800681431","-0.0855195911413969","0","360"
"3067","-0.257240204429302","0.230323679727428","0.105621805792165","-1.95809199318569","0.914480408858603","0","360"
"3069","-0.257240204429302","1.23032367972743","2.10562180579216","-1.95809199318569","0.914480408858603","0","360"
"3075","-0.257240204429302","1.23032367972743","2.10562180579216","-1.95809199318569","0.914480408858603","0","360"
"3081","-0.257240204429302","0.230323679727428","-1.89437819420784","-1.95809199318569","0.914480408858603","0","360"
"3088","-0.257240204429302","0.230323679727428","-1.89437819420784","1.04190800681431","-0.0855195911413969","0","360"
"3089","0.742759795570698","2.23032367972743","-0.894378194207835","1.04190800681431","-0.0855195911413969","0","360"
"3096","0.742759795570698","2.23032367972743","-0.894378194207835","-0.95809199318569","-1.0855195911414","0","360"
"3097","-0.257240204429302","1.23032367972743","-0.894378194207835","-0.95809199318569","-1.0855195911414","0","360"
"3108","-0.257240204429302","1.23032367972743","-0.894378194207835","-1.95809199318569","-1.0855195911414","0","360"
"3110","0.742759795570698","0.230323679727428","3.10562180579216","-1.95809199318569","-1.0855195911414","0","360"
"3116","0.742759795570698","0.230323679727428","3.10562180579216","-1.95809199318569","-1.0855195911414","0","360"
"3118","0.742759795570698","0.230323679727428","1.10562180579216","-1.95809199318569","-1.0855195911414","0","360"
"3129","0.742759795570698","0.230323679727428","1.10562180579216","-1.95809199318569","-1.0855195911414","0","360"
"3130","0.742759795570698","-0.769676320272572","-1.89437819420784","-1.95809199318569","-1.0855195911414","0","360"
"3136","0.742759795570698","-0.769676320272572","-1.89437819420784","1.04190800681431","-2.0855195911414","0","360"
"3138","-1.2572402044293","-0.769676320272572","-0.894378194207835","1.04190800681431","-2.0855195911414","0","360"
"3149","-1.2572402044293","-0.769676320272572","-0.894378194207835","1.04190800681431","-2.0855195911414","0","360"
"3150","-1.2572402044293","-0.769676320272572","2.10562180579216","1.04190800681431","-2.0855195911414","0","360"
"3157","-1.2572402044293","-0.769676320272572","2.10562180579216","2.04190800681431","-0.0855195911413969","0","360"
"3159","0.742759795570698","0.230323679727428","1.10562180579216","2.04190800681431","-0.0855195911413969","0","360"
"3185","0.742759795570698","0.230323679727428","1.10562180579216","-0.95809199318569","-0.0855195911413969","0","360"
"3186","-1.2572402044293","-0.769676320272572","0.105621805792165","-0.95809199318569","-0.0855195911413969","0","360"
"3192","-1.2572402044293","-0.769676320272572","0.105621805792165","-0.95809199318569","-0.0855195911413969","0","360"
"3193","-1.2572402044293","1.23032367972743","-2.89437819420784","-0.95809199318569","-0.0855195911413969","0","360"
"3200","-1.2572402044293","1.23032367972743","-2.89437819420784","-1.95809199318569","-0.0855195911413969","0","360"
"3200","0.742759795570698","-0.769676320272572","-0.894378194207835","-1.95809199318569","-0.0855195911413969","0","360"
"3206","0.742759795570698","-0.769676320272572","-0.894378194207835","0.0419080068143101","-0.0855195911413969","0","360"
"3206","0.742759795570698","-0.769676320272572","1.10562180579216","0.0419080068143101","-0.0855195911413969","0","360"
"3213","0.742759795570698","-0.769676320272572","1.10562180579216","2.04190800681431","-0.0855195911413969","0","360"
"3213","-1.2572402044293","0.230323679727428","0.105621805792165","2.04190800681431","-0.0855195911413969","0","360"
"3219","-1.2572402044293","0.230323679727428","0.105621805792165","1.04190800681431","-1.0855195911414","0","360"
"3220","-0.257240204429302","0.230323679727428","-0.894378194207835","1.04190800681431","-1.0855195911414","0","360"
"3226","-0.257240204429302","0.230323679727428","-0.894378194207835","1.04190800681431","-1.0855195911414","0","360"
"3228","-0.257240204429302","0.230323679727428","-0.894378194207835","1.04190800681431","-1.0855195911414","0","360"
"3238","-0.257240204429302","0.230323679727428","-0.894378194207835","-0.95809199318569","0.914480408858603","0","360"
"3241","-0.257240204429302","-0.769676320272572","0.105621805792165","-0.95809199318569","0.914480408858603","0","360"
"3247","-0.257240204429302","-0.769676320272572","0.105621805792165","1.04190800681431","0.914480408858603","0","360"
"3249","-0.257240204429302","-0.769676320272572","-0.894378194207835","1.04190800681431","0.914480408858603","0","360"
"3255","-0.257240204429302","-0.769676320272572","-0.894378194207835","0.0419080068143101","1.9144804088586","0","360"
"3257","0.742759795570698","-0.769676320272572","1.10562180579216","0.0419080068143101","1.9144804088586","0","360"
"3267","0.742759795570698","-0.769676320272572","1.10562180579216","1.04190800681431","-1.0855195911414","0","360"
"3269","-0.257240204429302","1.23032367972743","2.10562180579216","1.04190800681431","-1.0855195911414","0","360"
"3276","-0.257240204429302","1.23032367972743","2.10562180579216","1.04190800681431","-1.0855195911414","0","360"
"3278","-0.257240204429302","-0.769676320272572","0.105621805792165","1.04190800681431","-1.0855195911414","0","360"
"3288","-0.257240204429302","-0.769676320272572","0.105621805792165","3.04190800681431","-0.0855195911413969","0","360"
"3290","0.742759795570698","1.23032367972743","1.10562180579216","3.04190800681431","-0.0855195911413969","0","360"
"3296","0.742759795570698","1.23032367972743","1.10562180579216","2.04190800681431","0.914480408858603","0","360"
"3298","-1.2572402044293","-0.769676320272572","1.10562180579216","2.04190800681431","0.914480408858603","0","360"
"3309","-1.2572402044293","-0.769676320272572","1.10562180579216","-0.95809199318569","1.9144804088586","0","360"
"3310","-0.257240204429302","0.230323679727428","3.10562180579216","-0.95809199318569","1.9144804088586","0","360"
"3317","-0.257240204429302","0.230323679727428","3.10562180579216","-1.95809199318569","-0.0855195911413969","0","360"
"3318","0.742759795570698","-0.769676320272572","0.105621805792165","-1.95809199318569","-0.0855195911413969","0","360"
"3329","0.742759795570698","-0.769676320272572","0.105621805792165","-0.95809199318569","-3.0855195911414","0","360"
"3331","-0.257240204429302","1.23032367972743","-0.894378194207835","-0.95809199318569","-3.0855195911414","0","360"
"3337","-0.257240204429302","1.23032367972743","-0.894378194207835","-1.95809199318569","-1.0855195911414","0","360"
"3339","-0.257240204429302","2.23032367972743","2.10562180579216","-1.95809199318569","-1.0855195911414","0","360"
"3346","-0.257240204429302","2.23032367972743","2.10562180579216","0.0419080068143101","-1.0855195911414","0","360"
"3351","-1.2572402044293","-1.76967632027257","3.10562180579216","0.0419080068143101","-1.0855195911414","0","360"
"3358","-1.2572402044293","-1.76967632027257","3.10562180579216","0.0419080068143101","-1.0855195911414","0","360"
"3360","-1.2572402044293","1.23032367972743","2.10562180579216","0.0419080068143101","-1.0855195911414","0","360"
"3366","-1.2572402044293","1.23032367972743","2.10562180579216","3.04190800681431","0.914480408858603","0","360"
"3367","0.742759795570698","-0.769676320272572","0.105621805792165","3.04190800681431","0.914480408858603","0","360"
"3378","0.742759795570698","-0.769676320272572","0.105621805792165","2.04190800681431","-1.0855195911414","0","360"
"3380","-0.257240204429302","-0.769676320272572","0.105621805792165","2.04190800681431","-1.0855195911414","0","360"
"3386","-0.257240204429302","-0.769676320272572","0.105621805792165","-1.95809199318569","-1.0855195911414","0","360"
"3388","-1.2572402044293","-0.769676320272572","-0.894378194207835","-1.95809199318569","-1.0855195911414","0","360"
"3399","-1.2572402044293","-0.769676320272572","-0.894378194207835","0.0419080068143101","2.9144804088586","0","360"
"3400","-1.2572402044293","0.230323679727428","1.10562180579216","0.0419080068143101","2.9144804088586","0","360"
"3407","-1.2572402044293","0.230323679727428","1.10562180579216","1.04190800681431","-0.0855195911413969","0","360"
"3409","0.742759795570698","-0.769676320272572","0.105621805792165","1.04190800681431","-0.0855195911413969","0","360"
"3419","0.742759795570698","-0.769676320272572","0.105621805792165","1.04190800681431","0.914480408858603","0","360"
"3421","0.742759795570698","-0.769676320272572","-0.894378194207835","1.04190800681431","0.914480408858603","0","360"
"3428","0.742759795570698","-0.769676320272572","-0.894378194207835","-1.95809199318569","-2.0855195911414","0","360"
"3429","0.742759795570698","2.23032367972743","-2.89437819420784","-1.95809199318569","-2.0855195911414","0","360"
"3435","0.742759795570698","2.23032367972743","-2.89437819420784","-2.95809199318569","-1.0855195911414","0","360"
"3441","0.742759795570698","0.230323679727428","-1.89437819420784","-2.95809199318569","-1.0855195911414","0","360"
"3448","0.742759795570698","0.230323679727428","-1.89437819420784","1.04190800681431","-2.0855195911414","0","360"
"3450","-1.2572402044293","-0.769676320272572","-0.894378194207835","1.04190800681431","-2.0855195911414","0","360"
"3456","-1.2572402044293","-0.769676320272572","-0.894378194207835","-0.95809199318569","-1.0855195911414","0","360"
"3458","-1.2572402044293","-0.769676320272572","-0.894378194207835","-0.95809199318569","-1.0855195911414","0","360"
"3468","-1.2572402044293","-0.769676320272572","-0.894378194207835","0.0419080068143101","-3.0855195911414","0","360"
"3470","0.742759795570698","1.23032367972743","2.10562180579216","0.0419080068143101","-3.0855195911414","0","360"
"3476","0.742759795570698","1.23032367972743","2.10562180579216","-0.95809199318569","1.9144804088586","0","360"
"3478","0.742759795570698","-0.769676320272572","-0.894378194207835","-0.95809199318569","1.9144804088586","0","360"
"3488","0.742759795570698","-0.769676320272572","-0.894378194207835","0.0419080068143101","-1.0855195911414","0","360"
"3491","0.742759795570698","1.23032367972743","2.10562180579216","0.0419080068143101","-1.0855195911414","0","360"
"3500","0.742759795570698","1.23032367972743","2.10562180579216","-0.95809199318569","-0.0855195911413969","0","360"
"3500","0.742759795570698","0.230323679727428","0.105621805792165","-0.95809199318569","-0.0855195911413969","0","360"
"3510","0.742759795570698","0.230323679727428","0.105621805792165","-0.95809199318569","0.914480408858603","0","360"
"3511","0.742759795570698","-0.769676320272572","2.10562180579216","-0.95809199318569","0.914480408858603","0","360"
"3518","0.742759795570698","-0.769676320272572","2.10562180579216","0.0419080068143101","-1.0855195911414","0","360"
"3519","0.742759795570698","0.230323679727428","1.10562180579216","0.0419080068143101","-1.0855195911414","0","360"
"3527","0.742759795570698","0.230323679727428","1.10562180579216","2.04190800681431","-0.0855195911413969","0","360"
"3531","-0.257240204429302","-0.769676320272572","-1.89437819420784","2.04190800681431","-0.0855195911413969","0","360"
"3538","-0.257240204429302","-0.769676320272572","-1.89437819420784","0.0419080068143101","-1.0855195911414","0","360"
"3540","0.742759795570698","-0.769676320272572","0.105621805792165","0.0419080068143101","-1.0855195911414","0","360"
"3546","0.742759795570698","-0.769676320272572","0.105621805792165","0.0419080068143101","0.914480408858603","0","360"
"3552","-0.257240204429302","1.23032367972743","2.10562180579216","0.0419080068143101","0.914480408858603","0","360"
"3559","-0.257240204429302","1.23032367972743","2.10562180579216","1.04190800681431","-0.0855195911413969","0","360"
"3560","0.742759795570698","-0.769676320272572","1.10562180579216","1.04190800681431","-0.0855195911413969","0","360"
"3567","0.742759795570698","-0.769676320272572","1.10562180579216","-0.95809199318569","-0.0855195911413969","0","360"
"3568","0.742759795570698","-0.769676320272572","-1.89437819420784","-0.95809199318569","-0.0855195911413969","0","360"
"3579","0.742759795570698","-0.769676320272572","-1.89437819420784","0.0419080068143101","0.914480408858603","0","360"
"3581","-1.2572402044293","0.230323679727428","-1.89437819420784","0.0419080068143101","0.914480408858603","0","360"
"3587","-1.2572402044293","0.230323679727428","-1.89437819420784","1.04190800681431","0.914480408858603","0","360"
"3589","0.742759795570698","-0.769676320272572","1.10562180579216","1.04190800681431","0.914480408858603","0","360"
"3599","0.742759795570698","-0.769676320272572","1.10562180579216","-1.95809199318569","0.914480408858603","0","360"
"3601","-0.257240204429302","-0.769676320272572","2.10562180579216","-1.95809199318569","0.914480408858603","0","360"
"3608","-0.257240204429302","-0.769676320272572","2.10562180579216","0.0419080068143101","0.914480408858603","0","360"
"3609","-1.2572402044293","1.23032367972743","1.10562180579216","0.0419080068143101","0.914480408858603","0","360"
"3620","-1.2572402044293","1.23032367972743","1.10562180579216","-0.95809199318569","-0.0855195911413969","0","360"
"3621","-1.2572402044293","0.230323679727428","0.105621805792165","-0.95809199318569","-0.0855195911413969","0","360"
"3628","-1.2572402044293","0.230323679727428","0.105621805792165","-4.95809199318569","-1.0855195911414","0","360"
"3630","-2.2572402044293","0.230323679727428","-0.894378194207835","-4.95809199318569","-1.0855195911414","0","360"
"3636","-2.2572402044293","0.230323679727428","-0.894378194207835","0.0419080068143101","0.914480408858603","0","360"
"3642","-2.2572402044293","-0.769676320272572","0.105621805792165","0.0419080068143101","0.914480408858603","0","360"
"3648","-2.2572402044293","-0.769676320272572","0.105621805792165","0.0419080068143101","-0.0855195911413969","0","360"
"3650","-0.257240204429302","-0.769676320272572","0.105621805792165","0.0419080068143101","-0.0855195911413969","0","360"
"3657","-0.257240204429302","-0.769676320272572","0.105621805792165","2.04190800681431","-0.0855195911413969","0","360"
"3658","-2.2572402044293","-0.769676320272572","2.10562180579216","2.04190800681431","-0.0855195911413969","0","360"
"3669","-2.2572402044293","-0.769676320272572","2.10562180579216","0.0419080068143101","-1.0855195911414","0","360"
"3671","-1.2572402044293","-0.769676320272572","-0.894378194207835","0.0419080068143101","-1.0855195911414","0","360"
"3677","-1.2572402044293","-0.769676320272572","-0.894378194207835","0.0419080068143101","-0.0855195911413969","0","360"
"3679","-1.2572402044293","0.230323679727428","-1.89437819420784","0.0419080068143101","-0.0855195911413969","0","360"
"3689","-1.2572402044293","0.230323679727428","-1.89437819420784","2.04190800681431","0.914480408858603","0","360"
"3691","-0.257240204429302","-0.769676320272572","1.10562180579216","2.04190800681431","0.914480408858603","0","360"
"3698","-0.257240204429302","-0.769676320272572","1.10562180579216","-0.95809199318569","-0.0855195911413969","0","360"
"3699","0.742759795570698","2.23032367972743","1.10562180579216","-0.95809199318569","-0.0855195911413969","0","360"
"3711","0.742759795570698","2.23032367972743","1.10562180579216","-0.95809199318569","-0.0855195911413969","0","360"
"3712","-0.257240204429302","-0.769676320272572","-0.894378194207835","-0.95809199318569","-0.0855195911413969","0","360"
"3718","-0.257240204429302","-0.769676320272572","-0.894378194207835","-1.95809199318569","2.9144804088586","0","360"
"3720","0.742759795570698","-0.769676320272572","2.10562180579216","-1.95809199318569","2.9144804088586","0","360"
"3727","0.742759795570698","-0.769676320272572","2.10562180579216","-1.95809199318569","-0.0855195911413969","0","360"
"3732","-2.2572402044293","0.230323679727428","-2.89437819420784","-1.95809199318569","-0.0855195911413969","0","360"
"3739","-2.2572402044293","0.230323679727428","-2.89437819420784","-1.95809199318569","-1.0855195911414","0","360"
"3740","-1.2572402044293","1.23032367972743","-0.894378194207835","-1.95809199318569","-1.0855195911414","0","360"
"3747","-1.2572402044293","1.23032367972743","-0.894378194207835","-2.95809199318569","-2.0855195911414","0","360"
"3748","-0.257240204429302","-0.769676320272572","0.105621805792165","-2.95809199318569","-2.0855195911414","0","360"
"3759","-0.257240204429302","-0.769676320272572","0.105621805792165","-1.95809199318569","0.914480408858603","0","360"
"3761","0.742759795570698","0.230323679727428","1.10562180579216","-1.95809199318569","0.914480408858603","0","360"
"3767","0.742759795570698","0.230323679727428","1.10562180579216","-0.95809199318569","-0.0855195911413969","0","360"
"3769","0.742759795570698","0.230323679727428","2.10562180579216","-0.95809199318569","-0.0855195911413969","0","360"
"3779","0.742759795570698","0.230323679727428","2.10562180579216","0.0419080068143101","-2.0855195911414","0","360"
"3781","0.742759795570698","-0.769676320272572","-1.89437819420784","0.0419080068143101","-2.0855195911414","0","360"
"3789","0.742759795570698","-0.769676320272572","-1.89437819420784","-0.95809199318569","2.9144804088586","0","360"
"3789","0.742759795570698","0.230323679727428","2.10562180579216","-0.95809199318569","2.9144804088586","0","360"
"3800","0.742759795570698","0.230323679727428","2.10562180579216","0.0419080068143101","2.9144804088586","0","360"
"3802","0.742759795570698","0.230323679727428","2.10562180579216","0.0419080068143101","2.9144804088586","0","360"
"3808","0.742759795570698","0.230323679727428","2.10562180579216","1.04190800681431","-0.0855195911413969","0","360"
"3810","0.742759795570698","1.23032367972743","2.10562180579216","1.04190800681431","-0.0855195911413969","0","360"
"3816","0.742759795570698","1.23032367972743","2.10562180579216","0.0419080068143101","-0.0855195911413969","0","360"
"3822","0.742759795570698","-0.769676320272572","-0.894378194207835","0.0419080068143101","-0.0855195911413969","0","360"
"3829","0.742759795570698","-0.769676320272572","-0.894378194207835","0.0419080068143101","-0.0855195911413969","0","360"
"3831","-0.257240204429302","0.230323679727428","-0.894378194207835","0.0419080068143101","-0.0855195911413969","0","360"
"3837","-0.257240204429302","0.230323679727428","-0.894378194207835","0.0419080068143101","-2.0855195911414","0","360"
"3839","-0.257240204429302","1.23032367972743","-0.894378194207835","0.0419080068143101","-2.0855195911414","0","360"
"3849","-0.257240204429302","1.23032367972743","-0.894378194207835","0.0419080068143101","-0.0855195911413969","0","360"
"3851","-1.2572402044293","-0.769676320272572","1.10562180579216","0.0419080068143101","-0.0855195911413969","0","360"
"3857","-1.2572402044293","-0.769676320272572","1.10562180579216","3.04190800681431","-1.0855195911414","0","360"
"3859","0.742759795570698","1.23032367972743","1.10562180579216","3.04190800681431","-1.0855195911414","0","360"
"3869","0.742759795570698","1.23032367972743","1.10562180579216","-0.95809199318569","-2.0855195911414","0","360"
"3872","-1.2572402044293","0.230323679727428","2.10562180579216","-0.95809199318569","-2.0855195911414","0","360"
"3878","-1.2572402044293","0.230323679727428","2.10562180579216","1.04190800681431","-0.0855195911413969","0","360"
"3880","-1.2572402044293","-0.769676320272572","-0.894378194207835","1.04190800681431","-0.0855195911413969","0","360"
"3890","-1.2572402044293","-0.769676320272572","-0.894378194207835","-1.95809199318569","-2.0855195911414","0","360"
"3892","0.742759795570698","-0.769676320272572","-0.894378194207835","-1.95809199318569","-2.0855195911414","0","360"
"3898","0.742759795570698","-0.769676320272572","-0.894378194207835","-2.95809199318569","1.9144804088586","0","360"
"3900","-1.2572402044293","1.23032367972743","-0.894378194207835","-2.95809199318569","1.9144804088586","0","360"
"3911","-1.2572402044293","1.23032367972743","-0.894378194207835","1.04190800681431","-1.0855195911414","0","360"
"3912","0.742759795570698","1.23032367972743","0.105621805792165","1.04190800681431","-1.0855195911414","0","360"
"3919","0.742759795570698","1.23032367972743","0.105621805792165","0.0419080068143101","-1.0855195911414","0","360"
"3921","0.742759795570698","0.230323679727428","0.105621805792165","0.0419080068143101","-1.0855195911414","0","360"
"3928","0.742759795570698","0.230323679727428","0.105621805792165","2.04190800681431","-1.0855195911414","0","360"
"3933","-1.2572402044293","-0.769676320272572","0.105621805792165","2.04190800681431","-1.0855195911414","0","360"
"3939","-1.2572402044293","-0.769676320272572","0.105621805792165","2.04190800681431","1.9144804088586","0","360"
"3941","-1.2572402044293","0.230323679727428","-0.894378194207835","2.04190800681431","1.9144804088586","0","360"
"3948","-1.2572402044293","0.230323679727428","-0.894378194207835","0.0419080068143101","2.9144804088586","0","360"
"3949","0.742759795570698","1.23032367972743","1.10562180579216","0.0419080068143101","2.9144804088586","0","360"
"3960","0.742759795570698","1.23032367972743","1.10562180579216","-0.95809199318569","0.914480408858603","0","360"
"3962","0.742759795570698","-0.769676320272572","2.10562180579216","-0.95809199318569","0.914480408858603","0","360"
"3968","0.742759795570698","-0.769676320272572","2.10562180579216","1.04190800681431","-1.0855195911414","0","360"
"3970","-1.2572402044293","2.23032367972743","0.105621805792165","1.04190800681431","-1.0855195911414","0","360"
"3980","-1.2572402044293","2.23032367972743","0.105621805792165","1.04190800681431","-1.0855195911414","0","360"
"3982","-0.257240204429302","-0.769676320272572","0.105621805792165","1.04190800681431","-1.0855195911414","0","360"
"3988","-0.257240204429302","-0.769676320272572","0.105621805792165","2.04190800681431","1.9144804088586","0","360"
"3990","-1.2572402044293","0.230323679727428","0.105621805792165","2.04190800681431","1.9144804088586","0","360"
"4000","-1.2572402044293","0.230323679727428","0.105621805792165","2.04190800681431","-1.0855195911414","0","360"
"4003","0.742759795570698","0.230323679727428","1.10562180579216","2.04190800681431","-1.0855195911414","0","360"
"4009","0.742759795570698","0.230323679727428","1.10562180579216","-0.95809199318569","-0.0855195911413969","0","360"
"4011","0.742759795570698","0.230323679727428","1.10562180579216","-0.95809199318569","-0.0855195911413969","0","360"
"4017","0.742759795570698","0.230323679727428","1.10562180579216","0.0419080068143101","-0.0855195911413969","0","360"
"4023","0.742759795570698","-0.769676320272572","0.105621805792165","0.0419080068143101","-0.0855195911413969","0","360"
"4029","0.742759795570698","-0.769676320272572","0.105621805792165","4.04190800681431","-2.0855195911414","0","360"
"4031","0.742759795570698","0.230323679727428","0.105621805792165","4.04190800681431","-2.0855195911414","0","360"
"4037","0.742759795570698","0.230323679727428","0.105621805792165","1.04190800681431","-0.0855195911413969","0","360"
"4039","0.742759795570698","0.230323679727428","0.105621805792165","1.04190800681431","-0.0855195911413969","0","360"
"4050","0.742759795570698","0.230323679727428","0.105621805792165","2.04190800681431","3.9144804088586","0","360"
"4052","0.742759795570698","-0.769676320272572","0.105621805792165","2.04190800681431","3.9144804088586","0","360"
"4058","0.742759795570698","-0.769676320272572","0.105621805792165","2.04190800681431","-1.0855195911414","0","360"
"4060","-0.257240204429302","-0.769676320272572","0.105621805792165","2.04190800681431","-1.0855195911414","0","360"
"4070","-0.257240204429302","-0.769676320272572","0.105621805792165","-0.95809199318569","-0.0855195911413969","0","360"
"4072","0.742759795570698","-0.769676320272572","0.105621805792165","-0.95809199318569","-0.0855195911413969","0","360"
"4079","0.742759795570698","-0.769676320272572","0.105621805792165","-0.95809199318569","-1.0855195911414","0","360"
"4080","0.742759795570698","0.230323679727428","0.105621805792165","-0.95809199318569","-1.0855195911414","0","360"
"4090","0.742759795570698","0.230323679727428","0.105621805792165","0.0419080068143101","2.9144804088586","0","360"
"4093","-1.2572402044293","1.23032367972743","0.105621805792165","0.0419080068143101","2.9144804088586","0","360"
"4099","-1.2572402044293","1.23032367972743","0.105621805792165","-0.95809199318569","-0.0855195911413969","0","360"
"4101","-0.257240204429302","-0.769676320272572","1.10562180579216","-0.95809199318569","-0.0855195911413969","0","360"
"4112","-0.257240204429302","-0.769676320272572","1.10562180579216","3.04190800681431","-3.0855195911414","0","360"
"4113","-0.257240204429302","-0.769676320272572","0.105621805792165","3.04190800681431","-3.0855195911414","0","360"
"4119","-0.257240204429302","-0.769676320272572","0.105621805792165","0.0419080068143101","-0.0855195911413969","0","360"
"4121","-0.257240204429302","-0.769676320272572","2.10562180579216","0.0419080068143101","-0.0855195911413969","0","360"
"4129","-0.257240204429302","-0.769676320272572","2.10562180579216","0.0419080068143101","0.914480408858603","0","360"
"4129","-2.2572402044293","-0.769676320272572","-0.894378194207835","0.0419080068143101","0.914480408858603","0","360"
"4141","-2.2572402044293","-0.769676320272572","-0.894378194207835","2.04190800681431","-2.0855195911414","0","360"
"4142","-1.2572402044293","-0.769676320272572","1.10562180579216","2.04190800681431","-2.0855195911414","0","360"
"4148","-1.2572402044293","-0.769676320272572","1.10562180579216","0.0419080068143101","0.914480408858603","0","360"
"4150","-3.2572402044293","0.230323679727428","0.105621805792165","0.0419080068143101","0.914480408858603","0","360"
"4160","-3.2572402044293","0.230323679727428","0.105621805792165","-0.95809199318569","-1.0855195911414","0","360"
"4162","0.742759795570698","-0.769676320272572","1.10562180579216","-0.95809199318569","-1.0855195911414","0","360"
"4168","0.742759795570698","-0.769676320272572","1.10562180579216","-1.95809199318569","-2.0855195911414","0","360"
"4170","-1.2572402044293","-0.769676320272572","0.105621805792165","-1.95809199318569","-2.0855195911414","0","360"
"4181","-1.2572402044293","-0.769676320272572","0.105621805792165","2.04190800681431","0.914480408858603","0","360"
"4183","-1.2572402044293","2.23032367972743","-0.894378194207835","2.04190800681431","0.914480408858603","0","360"
"4188","-1.2572402044293","2.23032367972743","-0.894378194207835","-1.95809199318569","0.914480408858603","0","360"
"4191","-1.2572402044293","0.230323679727428","-2.89437819420784","-1.95809199318569","0.914480408858603","0","360"
"4200","-1.2572402044293","0.230323679727428","-2.89437819420784","-0.95809199318569","-0.0855195911413969","0","360"
"4203","-0.257240204429302","-0.769676320272572","0.105621805792165","-0.95809199318569","-0.0855195911413969","0","360"
"4210","-0.257240204429302","-0.769676320272572","0.105621805792165","1.04190800681431","1.9144804088586","0","360"
"4211","-3.2572402044293","0.230323679727428","2.10562180579216","1.04190800681431","1.9144804088586","0","360"
"4217","-3.2572402044293","0.230323679727428","2.10562180579216","0.0419080068143101","-0.0855195911413969","0","360"
"4219","-0.257240204429302","1.23032367972743","-0.894378194207835","0.0419080068143101","-0.0855195911413969","0","360"
"4230","-0.257240204429302","1.23032367972743","-0.894378194207835","3.04190800681431","0.914480408858603","0","360"
"4232","0.742759795570698","0.230323679727428","-2.89437819420784","3.04190800681431","0.914480408858603","0","360"
"4239","0.742759795570698","0.230323679727428","-2.89437819420784","2.04190800681431","-2.0855195911414","0","360"
"4240","0.742759795570698","-0.769676320272572","0.105621805792165","2.04190800681431","-2.0855195911414","0","360"
"4251","0.742759795570698","-0.769676320272572","0.105621805792165","0.0419080068143101","-1.0855195911414","0","360"
"4252","-1.2572402044293","1.23032367972743","1.10562180579216","0.0419080068143101","-1.0855195911414","0","360"
"4259","-1.2572402044293","1.23032367972743","1.10562180579216","-1.95809199318569","-2.0855195911414","0","360"
"4261","0.742759795570698","0.230323679727428","1.10562180579216","-1.95809199318569","-2.0855195911414","0","360"
"4270","0.742759795570698","0.230323679727428","1.10562180579216","2.04190800681431","-0.0855195911413969","0","360"
"4273","-0.257240204429302","-0.769676320272572","-0.894378194207835","2.04190800681431","-0.0855195911413969","0","360"
"4282","-0.257240204429302","-0.769676320272572","-0.894378194207835","0.0419080068143101","0.914480408858603","0","360"
"4283","-1.2572402044293","-0.769676320272572","-0.894378194207835","0.0419080068143101","0.914480408858603","0","360"
"4291","-1.2572402044293","-0.769676320272572","-0.894378194207835","1.04190800681431","0.914480408858603","0","360"
"4293","0.742759795570698","-0.769676320272572","-0.894378194207835","1.04190800681431","0.914480408858603","0","360"
"4299","0.742759795570698","-0.769676320272572","-0.894378194207835","-0.95809199318569","-1.0855195911414","0","360"
"4301","-0.257240204429302","-0.769676320272572","-0.894378194207835","-0.95809199318569","-1.0855195911414","0","360"
"4307","-0.257240204429302","-0.769676320272572","-0.894378194207835","4.04190800681431","-0.0855195911413969","0","360"
"4310","0.742759795570698","-0.769676320272572","1.10562180579216","4.04190800681431","-0.0855195911413969","0","360"
"4319","0.742759795570698","-0.769676320272572","1.10562180579216","4.04190800681431","-0.0855195911413969","0","360"
"4322","-1.2572402044293","-1.76967632027257","1.10562180579216","4.04190800681431","-0.0855195911413969","0","360"
"4328","-1.2572402044293","-1.76967632027257","1.10562180579216","0.0419080068143101","-0.0855195911413969","0","360"
"4330","0.742759795570698","0.230323679727428","0.105621805792165","0.0419080068143101","-0.0855195911413969","0","360"
"4340","0.742759795570698","0.230323679727428","0.105621805792165","0.0419080068143101","0.914480408858603","0","360"
"4343","0.742759795570698","-0.769676320272572","0.105621805792165","0.0419080068143101","0.914480408858603","0","360"
"4350","0.742759795570698","-0.769676320272572","0.105621805792165","0.0419080068143101","1.9144804088586","0","360"
"4351","-0.257240204429302","-0.769676320272572","0.105621805792165","0.0419080068143101","1.9144804088586","0","360"
"4361","-0.257240204429302","-0.769676320272572","0.105621805792165","3.04190800681431","0.914480408858603","0","360"
"4363","1.7427597955707","1.23032367972743","3.10562180579216","3.04190800681431","0.914480408858603","0","360"
"4369","1.7427597955707","1.23032367972743","3.10562180579216","-0.95809199318569","0.914480408858603","0","360"
"4371","-1.2572402044293","-0.769676320272572","0.105621805792165","-0.95809199318569","0.914480408858603","0","360"
"4382","-1.2572402044293","-0.769676320272572","0.105621805792165","0.0419080068143101","0.914480408858603","0","360"
"4383","0.742759795570698","0.230323679727428","-0.894378194207835","0.0419080068143101","0.914480408858603","0","360"
"4390","0.742759795570698","0.230323679727428","-0.894378194207835","-0.95809199318569","-1.0855195911414","0","360"
"4392","0.742759795570698","0.230323679727428","2.10562180579216","-0.95809199318569","-1.0855195911414","0","360"
"4399","0.742759795570698","0.230323679727428","2.10562180579216","1.04190800681431","-3.0855195911414","0","360"
"4404","0.742759795570698","1.23032367972743","-0.894378194207835","1.04190800681431","-3.0855195911414","0","360"
"4411","0.742759795570698","1.23032367972743","-0.894378194207835","2.04190800681431","-4.0855195911414","0","360"
"4411","0.742759795570698","1.23032367972743","-0.894378194207835","2.04190800681431","-4.0855195911414","0","360"
"4418","0.742759795570698","1.23032367972743","-0.894378194207835","2.04190800681431","-4.0855195911414","0","360"
"4420","-1.2572402044293","-0.769676320272572","2.10562180579216","2.04190800681431","-4.0855195911414","0","360"
"4430","-1.2572402044293","-0.769676320272572","2.10562180579216","0.0419080068143101","-1.0855195911414","0","360"
"4433","-0.257240204429302","-0.769676320272572","1.10562180579216","0.0419080068143101","-1.0855195911414","0","360"
"4439","-0.257240204429302","-0.769676320272572","1.10562180579216","-0.95809199318569","1.9144804088586","0","360"
"4441","-1.2572402044293","0.230323679727428","3.10562180579216","-0.95809199318569","1.9144804088586","0","360"
"4451","-1.2572402044293","0.230323679727428","3.10562180579216","3.04190800681431","-2.0855195911414","0","360"
"4453","0.742759795570698","0.230323679727428","-0.894378194207835","3.04190800681431","-2.0855195911414","0","360"
"4459","0.742759795570698","0.230323679727428","-0.894378194207835","2.04190800681431","-0.0855195911413969","0","360"
"4461","0.742759795570698","0.230323679727428","1.10562180579216","2.04190800681431","-0.0855195911413969","0","360"
"4472","0.742759795570698","0.230323679727428","1.10562180579216","2.04190800681431","-0.0855195911413969","0","360"
"4473","0.742759795570698","1.23032367972743","0.105621805792165","2.04190800681431","-0.0855195911413969","0","360"
"4480","0.742759795570698","1.23032367972743","0.105621805792165","0.0419080068143101","0.914480408858603","0","360"
"4482","-0.257240204429302","1.23032367972743","-0.894378194207835","0.0419080068143101","0.914480408858603","0","360"
"4492","-0.257240204429302","1.23032367972743","-0.894378194207835","-0.95809199318569","-1.0855195911414","0","360"
"4494","-0.257240204429302","-0.769676320272572","-1.89437819420784","-0.95809199318569","-1.0855195911414","0","360"
"4500","-0.257240204429302","-0.769676320272572","-1.89437819420784","0.0419080068143101","2.9144804088586","0","360"
"4502","-0.257240204429302","-0.769676320272572","2.10562180579216","0.0419080068143101","2.9144804088586","0","360"
"4508","-0.257240204429302","-0.769676320272572","2.10562180579216","2.04190800681431","0.914480408858603","0","360"
"4511","-0.257240204429302","-0.769676320272572","2.10562180579216","2.04190800681431","0.914480408858603","0","360"
"4521","-0.257240204429302","-0.769676320272572","2.10562180579216","2.04190800681431","0.914480408858603","0","360"
"4523","-1.2572402044293","-1.76967632027257","-0.894378194207835","2.04190800681431","0.914480408858603","0","360"
"4529","-1.2572402044293","-1.76967632027257","-0.894378194207835","2.04190800681431","-3.0855195911414","0","360"
"4531","-2.2572402044293","1.23032367972743","-0.894378194207835","2.04190800681431","-3.0855195911414","0","360"
"4542","-2.2572402044293","1.23032367972743","-0.894378194207835","1.04190800681431","-1.0855195911414","0","360"
"4543","0.742759795570698","2.23032367972743","-0.894378194207835","1.04190800681431","-1.0855195911414","0","360"
"4550","0.742759795570698","2.23032367972743","-0.894378194207835","-1.95809199318569","-2.0855195911414","0","360"
"4551","-0.257240204429302","-0.769676320272572","-0.894378194207835","-1.95809199318569","-2.0855195911414","0","360"
"4562","-0.257240204429302","-0.769676320272572","-0.894378194207835","-1.95809199318569","-1.0855195911414","0","360"
"4564","-1.2572402044293","0.230323679727428","0.105621805792165","-1.95809199318569","-1.0855195911414","0","360"
"4571","-1.2572402044293","0.230323679727428","0.105621805792165","-1.95809199318569","-1.0855195911414","0","360"
"4572","-0.257240204429302","1.23032367972743","-0.894378194207835","-1.95809199318569","-1.0855195911414","0","360"
"4582","-0.257240204429302","1.23032367972743","-0.894378194207835","-1.95809199318569","0.914480408858603","0","360"
"4584","-0.257240204429302","0.230323679727428","-1.89437819420784","-1.95809199318569","0.914480408858603","0","360"
"4591","-0.257240204429302","0.230323679727428","-1.89437819420784","-1.95809199318569","0.914480408858603","0","360"
"4592","-0.257240204429302","-0.769676320272572","-1.89437819420784","-1.95809199318569","0.914480408858603","0","360"
"4599","-0.257240204429302","-0.769676320272572","-1.89437819420784","1.04190800681431","0.914480408858603","0","360"
"4605","0.742759795570698","0.230323679727428","1.10562180579216","1.04190800681431","0.914480408858603","0","360"
"4612","0.742759795570698","0.230323679727428","1.10562180579216","0.0419080068143101","-0.0855195911413969","0","360"
"4612","0.742759795570698","0.230323679727428","1.10562180579216","0.0419080068143101","-0.0855195911413969","0","360"
"4619","0.742759795570698","0.230323679727428","1.10562180579216","0.0419080068143101","0.914480408858603","0","360"
"4621","0.742759795570698","-0.769676320272572","1.10562180579216","0.0419080068143101","0.914480408858603","0","360"
"4632","0.742759795570698","-0.769676320272572","1.10562180579216","-0.95809199318569","-0.0855195911413969","0","360"
"4633","-0.257240204429302","-0.769676320272572","-2.89437819420784","-0.95809199318569","-0.0855195911413969","0","360"
"4639","-0.257240204429302","-0.769676320272572","-2.89437819420784","1.04190800681431","-0.0855195911413969","0","360"
"4641","-0.257240204429302","-0.769676320272572","-0.894378194207835","1.04190800681431","-0.0855195911413969","0","360"
"4652","-0.257240204429302","-0.769676320272572","-0.894378194207835","1.04190800681431","-0.0855195911413969","0","360"
"4654","-0.257240204429302","-0.769676320272572","1.10562180579216","1.04190800681431","-0.0855195911413969","0","360"
"4660","-0.257240204429302","-0.769676320272572","1.10562180579216","-2.95809199318569","-0.0855195911413969","0","360"
"4662","-0.257240204429302","-0.769676320272572","1.10562180579216","-2.95809199318569","-0.0855195911413969","0","360"
"4668","-0.257240204429302","-0.769676320272572","1.10562180579216","-2.95809199318569","-0.0855195911413969","0","360"
"4674","0.742759795570698","0.230323679727428","0.105621805792165","-2.95809199318569","-0.0855195911413969","0","360"
"4681","0.742759795570698","0.230323679727428","0.105621805792165","-0.95809199318569","-2.0855195911414","0","360"
"4682","0.742759795570698","0.230323679727428","-1.89437819420784","-0.95809199318569","-2.0855195911414","0","360"
"4689","0.742759795570698","0.230323679727428","-1.89437819420784","2.04190800681431","-1.0855195911414","0","360"
"4694","0.742759795570698","-0.769676320272572","-1.89437819420784","2.04190800681431","-1.0855195911414","0","360"
"4701","0.742759795570698","-0.769676320272572","-1.89437819420784","1.04190800681431","-0.0855195911413969","0","360"
"4703","-0.257240204429302","-0.769676320272572","-0.894378194207835","1.04190800681431","-0.0855195911413969","0","360"
"4709","-0.257240204429302","-0.769676320272572","-0.894378194207835","2.04190800681431","-0.0855195911413969","0","360"
"4711","-0.257240204429302","-0.769676320272572","-0.894378194207835","2.04190800681431","-0.0855195911413969","0","360"
"4718","-0.257240204429302","-0.769676320272572","-0.894378194207835","-0.95809199318569","1.9144804088586","0","360"
"4723","0.742759795570698","1.23032367972743","0.105621805792165","-0.95809199318569","1.9144804088586","0","360"
"4730","0.742759795570698","1.23032367972743","0.105621805792165","1.04190800681431","-1.0855195911414","0","360"
"4732","0.742759795570698","1.23032367972743","-3.89437819420784","1.04190800681431","-1.0855195911414","0","360"
"4742","0.742759795570698","1.23032367972743","-3.89437819420784","3.04190800681431","-2.0855195911414","0","360"
"4744","-0.257240204429302","-0.769676320272572","1.10562180579216","3.04190800681431","-2.0855195911414","0","360"
"4751","-0.257240204429302","-0.769676320272572","1.10562180579216","1.04190800681431","0.914480408858603","0","360"
"4752","-1.2572402044293","0.230323679727428","2.10562180579216","1.04190800681431","0.914480408858603","0","360"
"4763","-1.2572402044293","0.230323679727428","2.10562180579216","1.04190800681431","1.9144804088586","0","360"
"4763","-1.2572402044293","0.230323679727428","2.10562180579216","1.04190800681431","1.9144804088586","0","360"
"4769","-1.2572402044293","0.230323679727428","2.10562180579216","1.04190800681431","-3.0855195911414","0","360"
"4773","-1.2572402044293","-0.769676320272572","-2.89437819420784","1.04190800681431","-3.0855195911414","0","360"
"4783","-1.2572402044293","-0.769676320272572","-2.89437819420784","-1.95809199318569","-1.0855195911414","0","360"
"4785","0.742759795570698","0.230323679727428","-0.894378194207835","-1.95809199318569","-1.0855195911414","0","360"
"4792","0.742759795570698","0.230323679727428","-0.894378194207835","-2.95809199318569","0.914480408858603","0","360"
"4793","0.742759795570698","2.23032367972743","-1.89437819420784","-2.95809199318569","0.914480408858603","0","360"
"4800","0.742759795570698","2.23032367972743","-1.89437819420784","0.0419080068143101","-0.0855195911413969","0","360"
"4801","0.742759795570698","1.23032367972743","-0.894378194207835","0.0419080068143101","-0.0855195911413969","0","360"
"4813","0.742759795570698","1.23032367972743","-0.894378194207835","-0.95809199318569","-3.0855195911414","0","360"
"4813","0.742759795570698","1.23032367972743","-0.894378194207835","-0.95809199318569","-3.0855195911414","0","360"
"4819","0.742759795570698","1.23032367972743","-0.894378194207835","-0.95809199318569","0.914480408858603","0","360"
"4822","-0.257240204429302","0.230323679727428","1.10562180579216","-0.95809199318569","0.914480408858603","0","360"
"4832","-0.257240204429302","0.230323679727428","1.10562180579216","1.04190800681431","-2.0855195911414","0","360"
"4834","0.742759795570698","-0.769676320272572","-0.894378194207835","1.04190800681431","-2.0855195911414","0","360"
"4840","0.742759795570698","-0.769676320272572","-0.894378194207835","-1.95809199318569","-0.0855195911413969","0","360"
"4842","-2.2572402044293","0.230323679727428","0.105621805792165","-1.95809199318569","-0.0855195911413969","0","360"
"4852","-2.2572402044293","0.230323679727428","0.105621805792165","1.04190800681431","-0.0855195911413969","0","360"
"4855","0.742759795570698","0.230323679727428","3.10562180579216","1.04190800681431","-0.0855195911413969","0","360"
"4861","0.742759795570698","0.230323679727428","3.10562180579216","0.0419080068143101","-1.0855195911414","0","360"
"4863","0.742759795570698","0.230323679727428","3.10562180579216","0.0419080068143101","-1.0855195911414","0","360"
"4868","0.742759795570698","0.230323679727428","3.10562180579216","0.0419080068143101","-0.0855195911413969","0","360"
"4875","-1.2572402044293","1.23032367972743","1.10562180579216","0.0419080068143101","-0.0855195911413969","0","360"
"4881","-1.2572402044293","1.23032367972743","1.10562180579216","-0.95809199318569","-1.0855195911414","0","360"
"4883","-0.257240204429302","1.23032367972743","-1.89437819420784","-0.95809199318569","-1.0855195911414","0","360"
"4889","-0.257240204429302","1.23032367972743","-1.89437819420784","-0.95809199318569","-1.0855195911414","0","360"
"4891","0.742759795570698","-0.769676320272572","0.105621805792165","-0.95809199318569","-1.0855195911414","0","360"
"4901","0.742759795570698","-0.769676320272572","0.105621805792165","2.04190800681431","-1.0855195911414","0","360"
"4904","-0.257240204429302","-0.769676320272572","-1.89437819420784","2.04190800681431","-1.0855195911414","0","360"
"4910","-0.257240204429302","-0.769676320272572","-1.89437819420784","0.0419080068143101","-2.0855195911414","0","360"
"4912","-0.257240204429302","-0.769676320272572","-1.89437819420784","0.0419080068143101","-2.0855195911414","0","360"
"4918","-0.257240204429302","-0.769676320272572","-1.89437819420784","-1.95809199318569","-0.0855195911413969","0","360"
"4924","0.742759795570698","-0.769676320272572","1.10562180579216","-1.95809199318569","-0.0855195911413969","0","360"
"4931","0.742759795570698","-0.769676320272572","1.10562180579216","0.0419080068143101","-1.0855195911414","0","360"
"4932","0.742759795570698","-0.769676320272572","-1.89437819420784","0.0419080068143101","-1.0855195911414","0","360"
"4942","0.742759795570698","-0.769676320272572","-1.89437819420784","0.0419080068143101","-0.0855195911413969","0","360"
"4945","0.742759795570698","0.230323679727428","-0.894378194207835","0.0419080068143101","-0.0855195911413969","0","360"
"4951","0.742759795570698","0.230323679727428","-0.894378194207835","-2.95809199318569","-0.0855195911413969","0","360"
"4953","-0.257240204429302","0.230323679727428","1.10562180579216","-2.95809199318569","-0.0855195911413969","0","360"
"4963","-0.257240204429302","0.230323679727428","1.10562180579216","0.0419080068143101","-0.0855195911413969","0","360"
"4963","-0.257240204429302","0.230323679727428","1.10562180579216","0.0419080068143101","-0.0855195911413969","0","360"
"4970","-0.257240204429302","0.230323679727428","1.10562180579216","1.04190800681431","2.9144804088586","0","360"
"4973","-0.257240204429302","0.230323679727428","1.10562180579216","1.04190800681431","2.9144804088586","0","360"
"4981","-0.257240204429302","0.230323679727428","1.10562180579216","1.04190800681431","1.9144804088586","0","360"
"4985","0.742759795570698","0.230323679727428","-0.894378194207835","1.04190800681431","1.9144804088586","0","360"
"4993","0.742759795570698","0.230323679727428","-0.894378194207835","-2.95809199318569","0.914480408858603","0","360"
"4994","-0.257240204429302","-0.769676320272572","2.10562180579216","-2.95809199318569","0.914480408858603","0","360"
"5000","-0.257240204429302","-0.769676320272572","2.10562180579216","-1.95809199318569","-1.0855195911414","0","360"
"5002","-1.2572402044293","-0.769676320272572","0.105621805792165","-1.95809199318569","-1.0855195911414","0","360"
"5013","-1.2572402044293","-0.769676320272572","0.105621805792165","1.04190800681431","-0.0855195911413969","0","360"
"5013","-1.2572402044293","-0.769676320272572","0.105621805792165","1.04190800681431","-0.0855195911413969","0","360"
"5020","-1.2572402044293","-0.769676320272572","0.105621805792165","3.04190800681431","0.914480408858603","0","360"
"5022","-1.2572402044293","0.230323679727428","-0.894378194207835","3.04190800681431","0.914480408858603","0","360"
"5032","-1.2572402044293","0.230323679727428","-0.894378194207835","-1.95809199318569","2.9144804088586","0","360"
"5035","0.742759795570698","0.230323679727428","-1.89437819420784","-1.95809199318569","2.9144804088586","0","360"
"5041","0.742759795570698","0.230323679727428","-1.89437819420784","-0.95809199318569","0.914480408858603","0","360"
"5043","0.742759795570698","1.23032367972743","-0.894378194207835","-0.95809199318569","0.914480408858603","0","360"
"5053","0.742759795570698","1.23032367972743","-0.894378194207835","-2.95809199318569","1.9144804088586","0","360"
"5055","0.742759795570698","-0.769676320272572","1.10562180579216","-2.95809199318569","1.9144804088586","0","360"
"5061","0.742759795570698","-0.769676320272572","1.10562180579216","2.04190800681431","-2.0855195911414","0","360"
"5061","0.742759795570698","-0.769676320272572","1.10562180579216","2.04190800681431","-2.0855195911414","0","360"
"5070","0.742759795570698","-0.769676320272572","1.10562180579216","1.04190800681431","-2.0855195911414","0","360"
"5076","0.742759795570698","1.23032367972743","0.105621805792165","1.04190800681431","-2.0855195911414","0","360"
"5082","0.742759795570698","1.23032367972743","0.105621805792165","2.04190800681431","0.914480408858603","0","360"
"5084","0.742759795570698","0.230323679727428","-1.89437819420784","2.04190800681431","0.914480408858603","0","360"
"5090","0.742759795570698","0.230323679727428","-1.89437819420784","-2.95809199318569","1.9144804088586","0","360"
"5092","0.742759795570698","0.230323679727428","0.105621805792165","-2.95809199318569","1.9144804088586","0","360"
"5103","0.742759795570698","0.230323679727428","0.105621805792165","0.0419080068143101","1.9144804088586","0","360"
