Timer,AX,AY,AZ,GX,GY,GZ
"1007","8.07111555855842","-16.4151963899128","-13.8796263815057","1.01570686567542","-2.98945986930854","-1.15275743512808"
"1008","8.43341931732598","-17.9752897031864","-14.2710535504634","-7.80614417333028","-2.99876172614833","0.339699532492172"
"1014","10.2032655345986","27.9766187228456","-47.33394541417","-4.8905948727642","-3.00153154898798","0.163090277595237"
"1018","9.80502005948053","12.08248746327","-37.1067404934835","32.704677574947","-1.35302264783688","0.0725783673095887"
"1027","3.0384530473389","40.6236374734594","-8.37723459940636","20.8567531490216","-1.77483362563806","0.0168573676488947"
"1027","4.72152144033549","28.9047047284901","-15.7354834096875","12.7026510863323","1.3749108967127","-0.0212464239892585"
"1035","5.29785868122808","-16.3925896723251","-36.7667985347009","13.7174314200289","0.480793675339215","-0.0491054380448258"
"1039","5.495219431873","-2.36120478549083","-31.3609870452376","-24.679325234143","1.81575604454329","1.10295715349642"
"1047","8.87792245323194","-29.5321008040575","-2.17897020992164","-12.0275079552316","1.28447155114874","1.05745613796136"
"1047","8.03629748842206","-18.5116236287503","-10.4167492805372","-0.164574927115614","-2.19985109373421","-1.29916021760253"
"1056","7.74809088120799","56.8907565915205","-26.4799969198831","-2.27639177418315","-1.42322365314947","-1.27931839737923"
"1056","7.64939722043613","32.4846242821036","-22.752713153453","30.5836657173885","0.498348517532506","-3.56934821163697"
"1069","0.985363138553134","19.9938289168934","-33.8993275542205","19.5838680473836","0.173027332712744","-3.50925930848757"
"1069","2.7033269085221","21.244968668252","-29.8642522922873","9.87967755278599","1.70769683906518","-1.15920255670748"
"1076","6.60674623573307","-17.6381326932408","-6.24886219939689","11.5170679491506","1.24653114365443","-1.16110580585906"
"1076","5.94343572685441","-4.19517078019886","-12.9673266794558","-14.4323460332146","-3.86206454335234","-3.45863475428638"
"1088","7.37385057821538","-10.1364120392485","-21.6904200149468","-5.75006359219865","-2.65573190498548","-3.41638347228964"
"1088","6.8636827841558","-6.44390619371024","-20.0107043894634","12.1725839942727","-7.17885606123837","-1.08645516986647"
"1097","8.34653992787144","31.7472184469748","-24.7659313914705","7.53608235448545","-5.76695985115465","-1.09900532654867"
"1097","7.85433050702382","19.1519726124373","-23.0307899096232","18.7030268263417","-1.97344762937295","-5.69567863234531"
"1105","6.02821864814966","9.26040935236919","-36.4413075098264","14.4217626412619","-2.64151621904966","-5.61904381702401"
"1109","6.40288369775033","11.083564383933","-32.0084153287158","1.08367373520151","0.421704313341744","-0.96877040006275"
"1117","13.1614216041924","-8.09443268528409","-10.0212153019793","4.83634496922727","-0.502775323124783","-0.998471050288635"
"1117","11.4758197862964","-1.31495125521952","-16.1727674292687","-1.2761678136232","-7.42293639397665","-1.02382068907942"
"1125","7.5834825073155","19.7562355358265","-29.9470859805065","1.23566257437813","-5.85265833920739","-1.04546066222299"
"1129","8.25058796010544","13.3933900218355","-26.610962414571","21.1691088465058","-3.6524293141356","-3.35595038752833"
"1137","10.1365913316097","28.0124751877769","-23.9895692002022","15.0221619293257","-3.87991192732679","-3.32909663536505"
"1138","9.78243557112941","22.2297100322518","-24.2922961709183","13.5256088858079","0.986894025188997","-4.45213238737737"
"1146","14.6338362583772","-5.74184504286058","-17.4367927129127","13.1612538584686","-0.30433285451258","-4.41124589458867"
"1146","13.2951531122077","3.10243039432913","-19.6132747312426","-6.24936200204514","-4.05547714335978","-3.23038401829497"
"1158","4.54893687252885","5.04879781661838","-27.1282311673608","0.0248746826059752","-3.37253284553538","-3.2218635427358"
"1158","6.55387680989207","5.47713659569112","-25.1271592222693","1.55241805213179","0.165038735544399","-2.06865310810518"
"1166","13.8706871250708","28.7104801275333","-22.860880792975","1.92431807169761","-0.592892587820585","-2.08373453497544"
"1166","12.3762604793474","20.8234623364639","-23.2580659169262","19.5802336793726","-4.1567926921382","-0.950687323880884"
"1178","3.57671133287248","20.8676885670143","-37.2357681057283","13.8787927192936","-3.4081055164226","-0.982982531785405"
"1178","5.56338791442652","19.8774214722099","-32.9537432245281","8.97762945745942","6.74811803389647","-1.01056478048814"
"1187","11.2163847741024","-7.03944436769982","-9.27266618770165","9.78437841835001","4.31404648385982","-1.03412194693343"
"1187","10.152200750366","2.03693745091324","-15.9736583808363","-9.34111716026202","-1.4872516708756","-1.0542414727216"
"1195","3.15754351125816","5.81431385368984","-21.2240908032519","-2.99746428715219","-0.524132213549462","-1.07142504227959"
"1199","4.76228846900978","5.64560437876475","-20.6206706449028","5.57312805526725","-0.185973541029433","-1.08610111067024"
"1207","3.65425905177723","28.7475549797367","-30.864205131752","3.65974865368982","-0.0672434220076708","-1.09863559803235"
"1207","4.27482472671168","20.8316214315788","-27.58891666418","13.7331349725399","1.62333592324735","-4.54710464358229"
"1215","12.7751283454996","8.40998026177482","-14.5796649728232","10.185630033441","1.21691137521501","-4.49236897726348"
"1219","10.6859779279076","11.6763388373332","-18.1192911968375","-2.97381577587926","-0.574679703803244","0.138063360091698"
"1228","6.65544920005768","-10.7439094197923","-12.1247812500161","0.822348410620625","-0.203721154862189","0.0928186453860048"
"1228","7.27523228187447","-2.67795304125288","-14.530281772875","-1.76650109940336","1.57541753823335","-1.0917447157647"
"1236","2.51479318989015","16.8964202892895","-39.4462226057335","-0.396789707005864","1.20008686051709","-1.10345562842959"
"1236","3.88462528478691","11.20416972935","-32.0736959076236","12.2324443395675","4.36608993244898","-2.25937841001086"
"1248","6.0112708314956","13.5113294282671","-14.5065929003629","8.30719330101919","3.47769803864497","-2.2466280900528"
"1248","5.73952073634423","12.0190680788645","-18.8338612161299","12.6211521396911","-5.07868463171053","-1.08981760983323"
"1256","5.64646245437388","-11.4484138225292","-16.5168721896244","10.6714407328106","-3.08289660497253","-1.10180972052146"
"1256","5.61459551486666","-3.6129230670026","-17.900568634525","-2.09900175408448","-5.67994459884814","-1.11205193358422"
"1268","7.26124231894947","8.79101498714796","-28.6726628223353","1.79187027908428","-4.59178818730384","-1.12079959560442"
"1268","6.82512113751822","5.52076047146137","-25.5379676933843","9.76530167631373","-5.85862035981296","-1.12827079268195"
"1277","9.99089419202524","19.0405057139036","-16.0341262898303","7.70653578579554","-5.30341490996218","-1.13465178756166"
"1277","9.07498360658949","14.0158078609726","-18.5061681609369","15.9879887218198","-5.1084779927716","-3.43194298233949"
"1285","7.10377924122167","16.4698764673304","-26.0997415373718","13.0042146243923","-5.04003413708902","-3.39401193139707"
"1289","7.4287587171207","15.0099454895357","-24.1195811715989","3.49509067254569","-5.01600297127287","-1.06977449193286"
"1297","10.855163583139","-8.45042143873276","-28.7948918859443","6.17997251989823","-5.00756544353974","-1.08469130506788"
"1298","10.0285039272845","-0.613364884854483","-27.0384932070914","-3.70558163627619","-3.35571067806063","-4.53519341105935"
"1305","11.4029813889256","6.45113037686601","-21.3692828252473","-0.112346548778421","-3.77573172483599","-4.48219599092532"
"1309","10.8736583582051","5.00582002102964","-22.8613108525848","9.54515849564694","-2.2743120706855","-2.14509068152099"
"1318","10.6923966301504","17.1472531927508","-26.7261937117345","6.89640192783417","-2.74715204574679","-2.14901730685943"
"1318","10.6303252443415","12.8192289982498","-25.7542266540093","22.0603627803291","-1.26427752484766","-1.00645030312921"
"1326","10.6090694780107","8.30689867988091","-16.8256564251402","16.7522234831049","-1.74362883928049","-1.03060742303087"
"1326","10.6017906393571","9.31386620450697","-19.4507165738686","6.67720302021474","-1.91193278426501","0.0946811328746742"
"1338","7.28417938927661","11.3153995537386","-27.0849917867881","9.22431010599395","-1.97102559791645","0.0557668478228777"
"1338","8.14809440278929","10.7558787465495","-25.1156578367805","4.5748244513741","-0.342881256335146","-3.41523099816039"
"1346","15.0741713898353","40.891539661585","-34.9958684079234","6.44284755276673","-0.771227215881378","-3.37973857210277"
"1347","13.4459417652967","30.5235208872645","-31.6239382133769","-0.128506983047202","0.727269497163492","-1.05758391829043"
"1358","1.2854543586636","-10.916618842086","-28.9930206757348","2.27161249689809","0.253403254927755","-1.07427958763006"
"1359","4.12120902379847","1.96361340337743","-29.293214240282","-16.4659565985556","1.73591744550365","-1.08853901399832"
"1367","5.09228672325554","-29.020476034106","-13.7670034086268","-10.0278580491037","1.25643961631417","-1.10071769556091"
"1367","5.42482321168198","-16.8391716659526","-18.6371353672559","-20.756180653116","2.7369835354138","3.47256335529788"
"1375","3.88113788640798","-21.2781378768096","-19.9325578339014","-16.3681283502731","2.25681392870715","3.37850824971672"
"1379","4.35251726460908","-18.2550250489486","-20.2771315295107","0.509033848177843","3.73711495938302","-3.57734619027623"
"1387","7.82905540981265","26.9085021909075","-25.570805926334","-4.38200461460067","3.25686007267677","-3.51819780958107"
"1388","7.01956342717617","11.8476790878293","-23.9788878434164","33.0710272730918","-5.15622254546129","-1.1758390936144"
"1396","8.39991979816671","33.4522383584624","-18.3534281979204","20.189448111222","-3.11012076474262","-1.17527889056804"
"1399","7.87260994504466","24.2067725920366","-19.8570936279563","1.24442789441875","0.906065926171002","-0.0288797799212179"
"1408","15.9798343102734","-38.34547543231","-21.9910652573257","5.63201980842708","0.316180060675567","-0.0497639758631002"
"1408","13.7560775736145","-18.1114033039811","-21.5586874111713","-28.4305082409086","0.10906658197163","-1.21352138909306"
"1416","9.67945416900748","-1.19896948871422","-17.9756643995883","-16.7234674463428","0.0363474415921291","-1.20746256089175"
"1420","10.2834525592877","-4.47703540339153","-19.0226042880469","10.7182822346308","0.0108151903324574","2.23547411751991"
"1428","17.1205235262988","46.4195024309394","-15.8330698810857","3.39932805426089","0.00185061991832789","2.17601522829558"
"1428","15.461814621505","28.6203479780487","-16.9846751016392","26.2089553061121","-3.29908147870388","-3.60437064495759"
"1437","1.63333053013797","-7.33545176692967","-27.6950345789972","17.7622515270146","-2.45806420723041","-3.54127883819744"
"1437","4.89789530948049","2.7517239703041","-24.5439184307451","-12.3988016591794","-0.513884269864586","-0.0496314706910268"
"1449","20.9338490864634","-12.8276737159835","-20.2377292488437","-3.74189678423177","-0.831267693323896","-0.0674875663689209"
"1449","17.4252116834503","-6.25624537579079","-21.092311781874","-15.6865597165701","-2.59159574649809","-0.0827380889091845"
"1457","-0.35188182378236","7.64943848461254","-31.7236652146752","-10.5946410626484","-2.20966050796992","-0.0957632452449595"
"1457","3.56051854064913","3.70967448051258","-28.5515339879839","15.2365723136836","-0.426667814468496","-1.25280841505683"
"1469","4.90028350408487","34.8813714483918","-29.4417750387889","7.52551241955348","-0.80064532290629","-1.2410167983807"
"1469","5.35907350256469","23.7413540333565","-28.6785731928717","10.9177675504607","-0.931951711582901","1.06089548347514"
"1478","20.4342159114509","-7.1891053532324","-12.8695063077573","8.74365555778342","-0.978054397755967","1.02691122249431"
"1478","16.5965576292994","2.00400142707533","-17.6644004515612","-12.8641060186953","-2.64313369097296","-0.148034685730833"
"1486","-6.26588402462819","-13.7721547956689","-32.8118637709611","-6.12479263053299","-2.22775587792165","-0.151531720033338"
"1490","-1.09491363647284","-7.24402727849289","-28.8409875120278","-0.970946018417994","2.86476333030735","0.991402187983665"
"1498","-0.981722463193891","35.1309933535128","-29.5187677365805","-1.71617597776131","1.65278611620183","0.96755843404557"
"1498","0.0570387969031077","21.4565011650581","-28.6990527345626","17.4242971905778","-2.0705330035952","-4.78240928770912"
"1506","25.2761429867674","18.4471437223851","-12.8749537286154","11.0842908037306","-1.37781907422915","-4.69333796597676"
"1510","18.91218967309","17.7848718008422","-17.6658494290067","2.51458624514729","-4.43238643770184","-3.47134333686533"
"1518","-8.13047679884929","-0.160166222998539","-27.6102290865013","4.42818178908284","-3.50486860686349","-3.42766296174123"
"1519","-2.39098535680902","5.89065358136027","-25.2553674389327","-14.4278377968321","0.118574628691154","-2.24443580267817"
"1527","6.20468724087015","12.5620501610631","-29.8310101231626","-8.0185775380625","-0.609206494235624","-2.23386592306591"
"1527","5.14819503936424","11.0302302348433","-28.0481004161662","5.83759929743378","-5.81141291494358","1.21292355118712"
"1539","19.7044432114247","14.2529795380954","-18.9038248766502","2.21106321278439","-4.63794772744303","1.15675525532317"
"1539","15.6890944442839","12.9622127928263","-21.4715088581699","8.35428521506316","-0.928150477330739","-0.0371375789333751"
"1547","-3.91907697685271","9.11829437481866","-25.622508993251","5.84993138028714","-1.62561203947254","-0.0568167914524242"
"1547","0.366287858016872","10.2723598903172","-24.7266472136754","-7.05554591733828","-0.22160389088965","-1.21954505322552"
"1559","18.409364419745","1.6266904648302","-19.2863338806528","-3.19754984026646","-0.728645797144774","-1.21260724802185"
"1559","14.5880474680747","4.72403044104908","-20.8392469891566","4.76787748391367","-4.20445669135056","2.23108014649127"
"1568","8.30679514897989","14.3053103873511","-26.4543315728277","2.70716289918291","-3.42484071430283","2.17226242838808"
"1568","9.15583895847112","11.4138710358468","-24.9479064458687","0.448918332982757","-3.15111152954959","-2.46165518105877"
"1576","4.47390806141041","12.557478577994","-21.0791940546934","0.899119737991028","-3.05500310079546","-2.41938850795431"
"1580","5.87062455440136","11.8091532889104","-22.0501424825612","-2.50434731332705","-1.37236640553352","-1.23736876258933"
"1588","9.66403575202382","2.74482305702971","-20.5744015572123","-1.33296500643367","-1.7815796792608","-1.22783011008014"
"1588","8.96305398663077","5.7500279838213","-21.1818643598869","-1.0477769642847","-6.87193447016996","-0.0737626911805949"
"1596","8.72300932815998","4.63145693121924","-23.0774520957575","-0.978344278724975","-5.65919731244365","-0.0880975434119771"
"1600","8.64080827685582","5.38529202243026","-22.5816657313231","-2.71797717909399","-3.58450365496928","-1.24626129743933"
"1609","8.61265929458495","16.2307639276259","-20.7157831796898","-2.14151311436855","-3.85606270430569","-1.23542504043986"
"1609","8.60301993851451","12.6175364049803","-21.2194709240794","6.78152034333985","-2.30251689737971","-3.51801132271804"
"1617","6.9421596911751","11.8223702673649","-30.0234819935021","3.95394725030111","-2.75705497801653","-3.46752112463387"
"1617","7.37341361171503","11.6473773607607","-27.3652899430215","-2.00407320833079","0.381137763616628","3.45112542753375"
"1629","9.17865182882608","0.929291760838711","-17.9881951653331","-0.454629683088396","-0.517018551728894","3.36019855837721"
"1629","8.79683879556102","4.57055329897727","-20.4939507896013","-10.6166208574403","-10.7257218702174","-0.155222161049474"
"1637","16.9538871878265","7.15181803322123","-21.1604649947963","-7.09068790651027","-8.31007637169842","-0.157670394261561"
"1638","14.7471922238756","6.71987921841573","-21.3377533071218","0.793894391876881","-0.8663554614277","-2.45160268526764"
"1649","0.731055424676209","15.5244676978124","-28.320937613874","-1.28650295098306","-2.25280761699417","-2.4108028789112"
"1650","3.93136028687597","12.4621011766275","-26.1784178457319","-0.0364651811459293","-1.09070938174447","-0.0841153013495686"
"1658","14.9726308357629","13.568092627212","-18.6724951405854","-0.732127458018144","-1.68268772505309","-0.096939493947001"
"1658","12.7536108110479","12.8114891319948","-20.6759699975811","-4.41456971502442","-0.241643604470634","3.32986958638463"
"1666","8.67860944920585","3.74533710805801","-22.9428875853403","-3.31110749899302","-0.735681895201645","3.25663644872331"
"1670","9.28316329288123","6.7501411114802","-22.5458724732577","0.470618882037383","-4.2069271196661","-0.243672420058234"
"1678","4.5175090905347","10.9712692063633","-27.6422892165599","-0.608671340973214","-3.42570810074527","-0.233213933736209"
"1678","5.88555531959644","9.90021655400499","-25.997901919613","-6.14104991830661","-3.15141607562195","-1.37020220935674"
"1686","11.3267079929968","7.88457993472515","-13.4224590111091","-4.48797841945578","-3.05511002927122","-1.34128041358274"
"1690","10.1899799062704","8.44099702295345","-17.0774754644456","-5.84205414521511","1.92538061983632","0.975262400454506"
"1699","18.0885146892967","6.78351909132816","-24.9857121527393","-5.1717212426932","0.674069314254731","0.953773774848579"
"1699","15.7932941543489","7.41875647485498","-23.0892501193881","3.77416578716874","-3.06306030854599","-0.210499869272584"
"1707","-1.56827607958699","7.55855372082471","-22.5848039265513","0.952156689300685","-2.37519535334099","-0.204881943215952"
"1711","2.48641634884599","7.58931902287954","-22.4506246195087","-8.51758349924239","2.81299619290232","-1.34600444138808"
"1719","15.4778232797926","5.81616044343384","-20.6809271220428","-5.82311316973258","1.63461027484395","-1.32061359971215"
"1719","12.9266092450673","6.42593988573009","-21.2101994463129","-3.41057264141095","-7.02359153490766","-0.153007153437259"
"1727","-1.20750489215077","10.119992833026","-35.2230359452944","-3.82320871604846","-5.06355299360827","-0.155778602006058"
"1728","1.95239973253908","8.93294629245749","-30.9503565551699","-0.410595903386651","0.571308514306316","0.98777501380072"
"1739","-3.59575780141133","10.451641049555","-22.8778256645987","-1.57975155741339","-0.450248133878654","0.964460539487189"
"1740","-1.49567252976734","9.78586153156155","-24.7305865410658","-5.37747184824905","0.839967729403632","3.23638943406745"
"1748","-2.43407728292831","2.51962634598814","-14.8193683135076","-4.30207554765543","0.292972473802724","3.17679698125529"
"1748","-1.75542522605716","4.92053962053153","-18.1830506792274","-2.28371935153993","-6.49465091840546","-0.311861660314821"
"1760","-46.2771293445688","10.7886980814664","-41.619854760673","-2.7923246561087","-4.87783786205555","-0.291452955541215"
"1760","-34.523171092421","9.08010884069806","-34.8538875982598","-1.15961396093569","2.2854068142911","-1.41994295508204"
"1768","4.31060826798032","14.0438854928095","-29.586172269408","-1.76210960747917","0.800477288949026","-1.38376295722148"
"1768","-3.39112669302749","12.1362681572575","-30.1849952904564","-7.17840643168234","-11.2631389152731","2.084899590107"
"1777","38.7255882797391","18.8361736490156","2.60184911603012","-5.49707334162461","-8.49876764271707","2.04741263421679"
"1780","26.1480639569494","16.3106277039787","-7.6770699737659","-1.57465688681671","-15.7726369820725","-0.276445506181252"
"1789","-7.9950598926813","5.07525384332127","-39.8893074890566","-2.61969430742943","-13.3265486294494","-0.261204749738172"
"1789","-1.68705376218638","8.6026753019894","-31.4575468165956","-13.4133451346436","-0.925462145043515","0.897732718366941"
"1797","38.5969288384807","-13.7601206183718","-29.214754978249","-10.0411978253816","-3.57134499843841","0.88755727458193"
"1801","29.3918024323725","-5.68152065388723","-28.6181873780106","-14.4898168588783","-7.7981194516447","2.02478729098771"
"1809","70.9936950462654","24.5752099197427","-4.18341058105985","-12.572890203049","-7.28217257430298","1.99607196102576"
"1809","58.2398746150604","15.233835050962","-11.683923688481","14.2418678393439","-10.3988042136068","3.11746744354822"
"1817","50.5573292478248","22.0777161542056","-15.4130166156565","5.77026450523636","-9.49307762887642","3.07522816522385"
"1821","49.9265133408942","18.5838550477731","-15.4049303459432","8.97735558394649","-0.930608614788979","0.747311164383525"
"1830","43.0802589657786","-12.4438371662421","-15.4027794523849","6.75816302857694","-2.92425967928285","0.759085331949646"
"1830","44.735823098239","-2.27212849921381","-15.4022073291113","-23.6432598786084","6.26910775609002","5.35282401646341"
"1838","35.3573995333225","33.7850217142768","-44.8801690637425","-14.0448760942713","3.49696999507478","5.27624135338055"
"1838","38.1458459769009","22.7201502631936","-35.7211093557809","4.10080811053908","10.768112460409","1.77307172411351"
"1850","50.7036387969241","-22.4332046962337","-5.54075363289037","-0.481392404724268","8.32106668127752","1.78108689398756"
"1850","48.0039376598184","-8.37014297051448","-13.5129812466587","-5.11006222929848","2.51521317460285","0.64201183225012"
"1858","60.3399249393792","-42.6537843435898","29.4506338531548","-4.23697124717939","3.4767332127158","0.669151347099629"
"1859","56.5642685665801","-29.1986152525653","14.8786675740885","-16.3201662983271","8.76100716998363","2.98417195180834"
"1871","23.7777028481184","107.257160040476","-82.6337396601227","-12.2619750649969","7.61635652777024","2.96138323865279"
"1871","31.5502496405371","62.2871017242002","-54.5713865618803","22.1002500059691","13.8100299931781","4.0878405221884"
"1879","224.831209781528","34.5912104388443","74.2734803829412","11.4661742940527","11.9846765348434","4.04992442356905"
"1879","176.018469360149","38.4961514470802","38.5453516115108","24.6860068126639","-19.9851725515264","-4.00390350272715"
"1887","66.4796792746802","19.7762948365077","70.6580695915408","18.904544544823","-12.2100332325952","-3.88251160054988"
"1891","84.9691436894556","26.6565996375619","55.1998373895725","-28.1729932009523","28.4444007132148","-4.92475393677313"
"1900","-258.444332626579","-96.4242845181686","-188.20487351836","-13.634623396237","19.718486145291","-4.81491159092802"
"1900","-165.043070149126","-53.510802224292","-114.948895585117","-52.2519631259383","62.8237341777087","4.44626771043717"
"1908","-7.08417033948665","27.1303703694937","24.1831660261711","-37.6538496370321","49.9583193451153","4.35604968253044"
"1911","-28.9926204174065","4.87714367460269","-7.80863789761631","25.6225123196636","-2.37670331446322","-7.18021019976302"
"1920","-48.0978799034025","131.694611983947","-47.5303639834277","7.0279539714142","8.24806643320496","-7.03309150926281"
"1920","-47.6402975734829","85.6034430292339","-40.0960769502659","60.466597192942","-16.0526637664762","-18.3666470020306"
"1928","-82.2923489159223","105.718914357587","-81.4687739389086","40.4769200787832","-7.58483763450849","-18.0464026788479"
"1928","-73.1586202520162","93.1457437067579","-67.473634102881","-6.54671539405286","-12.8561799670988","-17.7728886163568"
"1940","80.8070397503799","-169.490897389633","52.4274282746683","6.00477761014771","-9.70698893168573","-17.539285904412"
"1940","42.5311419968645","-81.2895724489802","17.3203074200351","-91.0620196244715","-23.4413142207487","-24.2152945694353"
"1949","41.026833682786","112.554024570068","-2.42199168289781","-57.6941760076658","-19.2635417984178","-23.9171356920185"
"1949","33.5116973506943","57.2133543180719","-1.67331095277126","61.0914955755194","-11.201124529315","-31.6839289221686"
"1961","-91.7211820471153","207.008035164764","-126.322649361425","27.0113903996108","-12.3703476196765","-31.3173866140805"
"1961","-60.6060119363844","148.973481447253","-87.4785381132628","45.0622094864177","11.9525133978999","-27.5665684404906"
"1969","34.5846137900311","-328.359735468008","42.5001975508545","34.45691284181","5.492457566848","-27.3630721032921"
"1969","16.1817545006822","-172.406873538101","8.07367026079672","-140.265726046074","-14.9135330070018","-16.8759842093372"
"1977","-6.69572618122798","121.783461482161","-25.3596491218957","-84.8041927877195","-11.078233742118","-16.9191790267472"
"1981","-4.52990576774253","40.52618553031","-20.2526880437953","46.3866195370989","18.2995382561038","-6.64278495308239"
"1990","-114.844716567853","270.053974383178","-154.146793289865","11.3267049342161","11.6143006720714","-6.8659290109868"
"1990","-85.6209931988637","181.566355403647","-111.76172807204","116.965835749784","9.26706217564064","-12.7861150062515"
"1998","-22.5717032010528","-323.8278437054","5.28682401303357","77.6850366582466","8.44292862917014","-12.8424235964416"
"2002","-32.9810627143293","-162.050386642438","-24.5790454649636","-140.906301716106","-24.8242767055145","-7.16091233643725"
"2010","29.7567229378971","-76.6098647915282","-49.8632336265693","-75.1251658348863","-16.5046491752596","-7.3084509083335"
"2010","11.2406916708896","-85.8068945024384","-46.5886582503114","-67.8925907445389","9.50092822308183","10.9002698891531"
"2018","49.6541518779348","38.5440751047137","-2.36747561996069","-61.1317276022725","4.63168709649757","10.451962261377"
"2022","35.8084825485921","-5.08989837425471","-15.6049373627597","84.5503398088858","-25.109109866858","-0.244213899823876"
"2030","74.1637052406704","13.7864009828346","5.1500803296249","38.0185070645338","-18.5513331490426","-0.379597053212215"
"2031","61.298093018259","1.94052467368304","-3.32922404185067","21.4201242150925","-19.5466317149615","-2.78706631406367"
"2039","63.5226216355484","-57.6241397179633","11.7554048236207","20.3790350849133","-17.8960887207899","-2.84323608879684"
"2039","60.2843906837009","-38.7325874494749","5.76781502099086","-39.5966954626526","-0.82764749667893","12.0057589529523"
"2051","45.9150140198723","-39.9148944161304","-85.9931921918481","-20.1985560769523","-4.83478608948075","11.6879789449155"
"2051","48.994355189649","-37.1750857432082","-58.4010052275747","12.628764527648","11.8960917613781","11.4165696030955"
"2059","53.3639654923182","0.806377998372589","42.5746934614841","4.62099664275574","6.77043206372062","11.1847644896075"
"2059","52.8602977288159","-11.8350080934016","15.4335526830028","39.5586836118001","4.97077339628874","9.84086387680875"
"2067","-45.108179645727","88.6188803533295","-78.4861439393905","27.0647114775787","4.33889935269142","9.69306611871615"
"2071","-19.6565697084685","52.725855345633","-53.46815389286","22.266356585087","17.3081817758223","18.7342003282954"
"2080","63.6492666942326","-31.7101064587815","55.4928591701436","22.0981355617092","13.8617969004913","18.4560463320397"
"2080","47.1765723035261","-7.29200234080215","25.4757585062032","-18.3431750959621","9.35396001102291","15.9266394429116"
"2088","-69.5208238097221","5.20142767077751","-102.155051491576","-5.18913071653722","9.77122369842524","15.7663252582197"
"2092","-42.482757168613","3.95086772834725","-67.103991707527","-1.98660995040261","6.61994362973283","12.1916422656361"
"2100","41.3663465150008","78.4326792158394","-38.7065709691242","-1.2069152069695","7.51350488357115","12.138579348852"
"2100","25.0796889305897","52.8239565411426","-42.153047341467","34.1136550343867","-5.36389714096804","10.9473387547328"
"2108","72.5443740325672","29.3889313055162","19.354454271052","22.7129007421624","-1.88525234877826","10.9299247657389"
"2108","56.7982121311076","34.2315648278341","-0.284962456678144","-2.89774238465313","-8.90833474433528","2.89360726784797"
"2121","-46.3899149978584","56.6564369340365","-47.1250765261607","3.86701816488704","-6.37419316077067","3.02995446528699"
"2121","-22.7257253680811","49.5914981300032","-35.5842329969287","0.244374325031127","-3.83554421394506","-2.58319747328676"
"2129","43.392432245785","78.2955060229959","-27.3124258496362","2.36239523245675","-3.9442049814928","-2.3772746167674"
"2129","31.0339777847604","67.6124221173466","-28.1121805771491","6.39112893564083","-5.63124889975411","1.23636180047773"
"2141","197.530552489114","-25.5149989347788","53.1734049675191","5.37197581235158","-5.22358303602632","1.32269403276825"
"2141","151.545749438","4.99036815323814","27.7948260344429","-30.0068936419306","-13.3249098278379","-5.47909530738142"
"2149","-121.123014556099","-34.5744463456239","-27.5078935276803","-18.6203330406092","-11.1693481711101","-5.28836310686796"
"2149","-59.4958860913735","-17.2815096383036","-14.2180463522741","-24.6308147527327","-20.3058675483109","-3.97954202077049"
"2161","-54.9678449376675","-34.8349874652644","-185.81771285039","-21.0941435923142","-17.513769995454","-3.8617049619433"
"2162","-43.417259535958","-26.6979966662905","-130.462074263775","-27.2592443626505","3.25326441078217","-3.76106276366318"
"2170","648.42525660541","42.730024808935","290.019722681294","-24.760217194489","-1.45526957887789","-3.67510634065443"
"2170","470.340264529483","20.0091101509804","167.865063055082","10.9789465710531","-74.010840420681","-12.7690579573326"
"2178","409.35672228617","15.0088986120112","135.372742142739","-0.319895760476393","-56.4856611536284","-12.5360142176532"
"2178","388.473477824131","13.908497690181","126.730002508399","-3.07074380053645","-50.3324354955414","-12.3369763725967"
"2186","73.016168586836","51.0448431512344","88.0169509606895","-3.74047302743133","-48.1719904911059","-12.166982259821"
"2190","150.990759373059","38.2174711411244","98.7195386619421","52.3056624990097","-9.48891903989949","-26.9187622852384"
"2198","-181.997947040528","-176.417025859116","-238.298958106398","33.9508128199082","-18.90699418994","-26.517952939514"
"2202","-79.0268194761184","-104.65182713001","-131.943619913819","-72.3970670019206","22.3063386372649","0.180545059035914"
"2211","312.609939494937","238.648562100044","66.2788440569794","-40.2888219435811","9.77665777884402","-0.016819198908173"
"2211","231.722289762851","130.198978683284","21.0046912009431","148.451671337443","-49.036055229576","-34.5630035192326"
"2219","71.4183224026425","-91.2397489110635","2.02604311590788","91.4029644688863","-36.6856525427098","-34.0681860720888"
"2223","96.5237260005279","-28.9719631533389","0.977849899633174","-68.2788604691919","53.3930679198727","-24.4782074875148"
"2227","105.120836981077","-15.2686371412046","0.699037527959793","-24.155448200518","33.0204016864407","-24.2876048382558"
"2227","108.064837340351","-12.2529342137637","0.624875305393221","-13.4130377306116","25.8674013843628","-24.1248150520005"
"2235","97.4700673875791","-116.605084290323","144.527704827252","-10.7976601618672","23.3559277885522","-23.9857796576232"
"2239","100.84198737117","-80.5699531252301","99.8048931991572","-85.692011609588","40.6119451598205","8.21874587940012"
"2251","247.861891785964","59.075085022154","-76.8217115971798","-60.9260017695024","35.6706659995498","7.72396602722884"
"2252","210.207484904022","15.8068905685418","-28.8032049127955","54.0089059095614","-84.7844997147744","-21.3466315457067"
"2260","462.522579336446","105.960852289189","230.198347627432","19.9912828864635","-55.0772377819927","-21.175228543768"
"2260","388.925526831228","69.8011134083224","157.091025055239","41.5703884103996","-41.3490043390031","-15.2992335158063"
"2272","-536.331817968054","-135.728724942779","-273.314620980184","29.824098338816","-38.5289156554927","-15.2806675181229"
"2272","-310.177553898709","-69.9598560304454","-150.799638713118","-27.4883391068616","105.914867982036","-6.09744546061131"
"2276","-232.733138422654","-55.4860435897449","-118.2114743928","-10.4417868665992","69.6301948888788","-6.2542451604587"
"2280","-206.213021664701","-52.3007790408317","-109.543241054178","-6.29158515176916","56.8903662075338","-6.38816454574688"
"2288","177.476955437941","51.6360942393949","-72.5574150528768","-5.28116533015292","52.4173140619811","-6.50254232691242"
"2289","82.8680044770329","16.5095727469254","-82.7194331754792","-54.2182066511986","-15.1089004342961","-0.87062676362926"
"2301","197.992834106692","19.4588232317728","79.3081746858584","-38.1325568345518","1.18212465021595","-1.06052399580553"
"2301","148.416256760865","14.1078673625944","27.4064326434302","-30.7032247796234","23.3909520964757","-25.2870450085154"
"2309","285.592239497417","-111.664761014711","112.439299001674","-30.8944586314999","21.1886427674788","-24.97841626019"
"2313","239.566873577844","-69.3436532233261","78.0574716547907","-101.202504082299","17.1176104011284","3.93319349949065"
"2321","-62.9518489096105","465.049082214676","11.6899148400301","-78.3198992413657","17.6882395268102","3.62600228979309"
"2321","6.45344006420198","287.653358376282","27.0365894507903","262.74976529561","-10.1425770190648","-20.7006970866697"
"2329","30.2206330359669","248.613726448878","31.1187020604604","154.78754834329","-2.91419144001051","-20.4776286098628"
"2330","38.359486286333","240.022240543526","32.2045166607351","128.502762328081","-0.376249491810215","-20.2871104308087"
"2338","-210.802459096321","24.5400095727069","-350.722144834191","122.103394147541","0.514841507969769","-20.1243927888108"
"2338","-144.125640149055","97.1186467462821","-231.578070832085","-56.8648690609099","40.4011252586942","-45.1956733727611"
"2350","-78.1962434173158","32.9942801519885","-142.66432439181","0.563012518947686","30.4055072305297","-44.6085363275891"
"2350","-81.6193372794201","63.8823747731433","-152.013863642328","70.7537563274209","48.3315683156517","-14.3131377307542"
"2358","190.705747279587","26.1817165832169","96.9301932004782","55.8425928976148","41.62554667311","-14.4384634737403"
"2362","118.96092900224","42.8848997980704","18.1476441672144","55.7253533246541","-15.1424346515393","-38.6098353111144"
"2370","-15.0063303609037","71.479791689807","42.2761882635252","53.6968098473638","-2.07411089415176","-38.254104791119"
"2370","5.11783290879038","63.7726945304318","22.6942193097738","-39.8935355030415","9.10984754470428","-8.15634572824694"
"2379","12.0091646631555","62.0765869252403","17.4855467852236","-9.67930509974462","9.03662164363316","-8.4504713153826"
"2379","14.3690368582018","61.7033230427565","16.1000747965752","-2.32326329934704","9.0109114647847","-8.70167790484081"
"2387","220.714511196025","-194.688615659947","-44.9586860005658","-0.532340603421222","9.00188442262133","-8.91622826477982"
"2387","167.37559164031","-107.113013607812","-26.1999072229201","-68.601267449386","-27.276915298141","-9.09947129613994"
"2399","3.24495490799984","163.129832461421","11.7359295483371","-46.1735204739901","-18.0146817931217","-9.25597538474454"
"2403","35.0399513200552","81.6024116943237","2.8266079245998","1.44369436764535","6.67295955134704","-19.7029281696966"
"2411","201.738428828854","-32.4555718433023","19.5308617833964","-10.9632841283099","2.34098090756924","-19.6254547845892"
"2412","164.822765507373","-3.55641192751617","12.9740813760185","36.9556560340324","-5.77557935567844","-3.5163972273333"
"2420","143.893544691511","-168.069744686335","44.176149041519","19.6221364361438","-4.62536628830732","-3.75798386468381"
"2423","141.726528499604","-108.27433755412","33.475689958078","15.4020688385866","-4.22151760575942","-3.96431802220649"
"2432","119.436182625878","-77.3158188026308","-30.0607949873229","14.3746392719958","-4.07972321737846","-4.14054376477034"
"2432","124.803061870656","-80.5027505339909","-11.9610742300906","-107.076566907525","-32.0611069482408","-8.87473714310561"
"2440","139.901374261071","173.325763683251","37.9375044304483","-67.6454203067418","-24.885586669553","-8.91811393323423"
"2440","137.071650322689","86.1860265650582","25.2101919879201","15.729159395223","12.2605318360189","-5.51739919545757"
"2452","-47.8864489377921","42.0901007187138","-90.8856233967305","-5.97223014236023","4.3028206482386","-5.61291897217407"
"2452","-0.223622542434252","46.3858717931752","-56.7663323406304","76.5711472151018","22.9444065487111","-10.2781830518826"
"2461","180.19644183988","-98.6229424739172","18.2014250846006","46.6673908090219","16.4896111895485","-10.2626887516365"
"2461","142.979607785211","-48.5351589170478","0.142346206995568","-58.9791440804027","-10.5101015295986","-12.5412966953794"
"2469","35.7541681907229","-73.110879157292","-89.6275761069902","-28.7001476055816","-4.98990898450825","-12.487408680516"
"2473","56.0358178747106","-58.5192793812118","-64.5057739017163","-9.03257742906619","11.7883037692405","-9.00362208158533"
"2477","62.9810793807458","-55.3080932704964","-57.8235428542237","-11.2442552908027","8.67926372120515","-9.02819189735603"
"2481","65.3594193155538","-54.6014047376492","-56.0461141726659","-11.7827166245116","7.58765577220365","-9.04917646957051"
"2489","-41.5674974796203","137.786462470661","-57.3073367546905","-11.9138119403873","7.20438379888949","-9.0670989593089"
"2489","-13.1836214511759","72.1254284874131","-56.6428135101613","82.9072788327393","7.06981405188233","-26.2712159795136"
"2502","42.9478333094075","103.953504658791","0.756166350227801","51.9926891832973","7.02256557542062","-25.9648970134332"
"2502","34.169525730918","84.9579371885175","-16.9760896327058","37.4399872326218","23.4948991146976","-15.3899904357244"
"2510","75.9175784658909","-93.6554883222137","-61.5749050228813","37.896945347093","19.278462514417","-15.3581811290412"
"2510","63.2138092030311","-34.9631009204981","-50.43789106371","-30.4967522804025","-6.93534517418646","-8.45548954040669"
"2522","82.0693528290602","61.6100529900856","-68.2836003897794","-8.14807491600116","-1.1392153091366","-8.5600432144023"
"2522","74.526257635212","35.8629913426041","-61.0304394878978","-43.1073579481157","-20.5397490899353","-14.3789436119929"
"2530","75.2583138174766","101.393978045732","57.0773016706096","-28.6186436523547","-14.3514261873001","-14.34874626504"
"2530","73.5089996197736","75.8154395408256","21.4931693886078","11.7961003548437","-2.28530456315907","-9.73927272350195"
"2542","104.403590768949","-166.544225578877","-29.5881321740963","0.635587983722043","-4.04879616345071","-9.80241657016912"
"2543","95.9831549560998","-86.8805288199955","-19.1754160982161","34.8056988829108","-12.9124330926809","-7.56450511992839"
"2551","86.4694179983455","-35.5302160752535","56.4225780417343","22.1248505125755","-11.0245244068874","-7.65315116939577"
"2551","87.2115276343579","-43.2295078871684","34.5311379070808","-45.9543402015292","-7.06388053215803","-16.8962271517874"
"2559","31.1086385919519","109.929936229472","-132.554461661291","-25.5290920964359","-7.67326790896239","-16.7905474530295"
"2563","45.8967282338307","56.6358689044145","-83.9981115197518","-39.8782125087927","-1.29165938118754","-8.67884403536237"
"2571","79.1392801906773","2.189097915342","-72.816454455089","-32.3716898584828","-3.0510273890918","-8.75080567565018"
"2571","73.5228816267351","14.2069494561973","-68.842208603244","30.9346705576827","-6.96653964004471","-15.6877905431587"
"2579","71.5995983950216","16.8517285442242","-67.7850858377447","11.3474157190333","-6.34130620191448","-15.6125260503974"
"2580","70.9409880155628","17.4337673887452","-67.5038982658137","6.57864737958154","-6.12178191773043","-15.5482442015519"
"2588","-13.8200732916","-245.867653513611","78.2274586211292","5.41762958190193","-6.04470524778995","-15.4933424020525"
"2588","8.15429292220478","-155.812627245644","32.9910230193364","-79.1788196286412","12.1201720940244","-12.0086899506018"
"2600","65.4059895906072","316.107859154145","-84.8159744810763","-51.7749098898072","7.49800068182022","-12.0325202596174"
"2604","55.0112983905214","165.96381289085","-55.1518464012797","109.472194969327","-5.66712535460983","-21.2202384567151"
"2612","38.191258755189","-267.562571972192","-40.3253603052446","60.7298701675493","-3.28950268296081","-21.0672788168303"
"2612","40.431393279281","-137.969102240586","-40.3816143547513","108.585190267394","-7.40137787131281","-33.5417663281519"
"2620","57.7740998232963","-145.047936663983","51.505777593632","86.2361815495502","-5.84508897556299","-33.1959684785853"
"2624","53.7129477004346","-126.605781939984","22.9472081221197","-94.8586889770372","2.94579748540757","-22.5873438018401"
"2629","52.3222440866486","-122.547200837831","15.3508200112997","-38.9485572162695","1.032345548894","-22.5267365631428"
"2629","51.8460106231174","-121.65402534889","13.3302316765874","-76.2760969161945","0.360517810537761","-12.1616872971589"
"2637","50.0253695816127","232.748432704359","-47.8974658127447","-56.3639650721441","0.124633908040973","-12.3091127862807"
"2637","50.4019080615247","111.742091272874","-29.1836230631911","173.320657516017","0.0418132498864711","-25.0401530324955"
"2653","53.8459688269121","-244.174768377707","-1.66377917979553","101.240323915419","0.0127342777966387","-24.9134715752711"
"2653","53.0253552688925","-137.501702628808","-7.34368511500067","85.4479796598351","-9.89082928001414","-19.0756722950252"
"2661","-38.4214198732117","-117.585926106909","-67.8107298643636","80.6031309604067","-7.36804685718221","-19.089728496617"
"2662","-14.736513918394","-111.203043768258","-49.894558583049","-194.59620933485","13.3044289289721","0.378917489354347"
"2669","49.7311784676106","142.95157866572","-17.384869862324","-105.597017352547","8.562694678224","0.0066859440911686"
"2673","37.8075376044579","56.8836084676894","-24.7375105073353","-52.3113537084621","16.7911889037686","4.27245328006725"
"2678","33.7243981562884","37.9425550726768","-26.693263649474","-57.3382756622629","13.6802767141986","3.91575706172215"
"2678","32.3261651883098","33.77418090413","-27.2134808799435","153.978854263163","-7.19869597083665","-11.28585829788"
"2686","60.0258621457791","68.4554256860877","-22.1498350745651","84.4267190647058","-2.52946437453486","-11.2692440207276"
"2690","52.5113646569203","56.0877575246233","-23.8029392214044","25.3364676783706","-9.13452255706631","-7.8172921513693"
"2702","16.7869083787211","-113.947343889346","-38.1147074544857","34.9501883195407","-6.45360944699718","-7.86905135219167"
"2702","24.5534019885134","-57.3671172091788","-33.921541902515","-108.501813891561","-3.86342788478417","2.40002805847908"
"2710","95.1728981222666","191.815116511969","38.2880867738501","-60.4270431802229","-3.9539951534639","2.17063669797967"
"2711","78.3558849953998","113.652868385764","16.4953641310384","-6.56573156236128","2.60977511728642","-7.19264694778093"
"2723","16.2400383630077","19.9146817210297","-110.681823124912","-17.4525046359525","0.914365502829571","-7.18963413168259"
"2723","28.9690468385196","42.2856370870827","-74.5101027312244","76.5065156550372","-9.57425960027139","-14.0625848644235"
"2727","33.3279769035016","47.2088327789401","-64.8886674901979","44.3820438931983","-7.25689680009677","-13.9326301396408"
"2731","34.8206517923555","48.2922847560114","-62.3294301885234","-17.8917231752672","8.39677771843113","-9.23795588196678"
"2739","90.0312625827912","-115.222758644766","-23.5005427953416","-2.05307024614513","4.89290361951287","-9.22833155661477"
"2739","75.9376205873001","-59.2076571013681","-35.172318937905","-93.04995471506","2.01377410447","-4.63642900793583"
"2752","-43.260209933046","220.109004185108","3.33922764178256","-61.2043130066499","2.00288951750184","-4.71457987671389"
"2752","-15.0783937008814","131.578465860235","-10.4169590306958","18.5669410895192","8.59463699260149","-8.21908887807736"
"2760","-3.77023460717512","37.3384496395404","-53.9581666276005","-3.01172426885689","6.90905039045284","-8.21221763824911"
"2764","-0.897861142424547","58.5989669367883","-42.5398360823611","70.7788459739166","24.4550430574167","-8.20634905422208"
"2772","66.3881299182878","-121.834841587392","-32.5666098669443","43.7441064467363","19.6155764608006","-8.20133681780723"
"2772","49.4295891137073","-57.5430674658287","-33.913798523404","-47.1516320733004","8.02304869295021","-8.19705597020198"
"2780","43.6222952059752","-43.3943205662012","-34.272141678623","-21.2813650867363","9.95282275025038","-8.19339978667379"
"2780","41.6336416467211","-40.2805934749064","-34.3674585566836","-104.56631295358","-5.85854153276357","-9.33619776862399"
"2788","-17.0619310867772","-103.672801382104","-15.3187384974507","-73.843101396472","-1.41003352682887","-9.31223792303951"
"2788","-2.16168175954912","-81.6235799590273","-21.2519066055859","-22.4497121595245","6.74744109456705","-17.3132188833022"
"2801","-10.319705263102","298.793857122153","-21.0960828637662","-34.9373325806014","5.61159337402095","-17.146691478873"
"2804","-5.11334421690409","171.512654853407","-22.0546347926041","74.4407754989282","10.1594653287547","-17.0044638620058"
"2813","91.1504078699231","-404.716401444374","21.0405643404257","37.0702783636985","8.756258261662","-16.8829901918368"
"2813","67.115030679822","-223.527633288015","7.50359853246123","63.1026952280946","-4.92755684132162","-19.0710833444983"
"2821","116.89891714462","-167.633900646628","111.411271794477","49.4406209029772","-1.73204990294141","-18.9398885159554"
"2825","98.9469440887882","-164.333318072516","77.0500166054845","-120.756618171602","-15.4501133211172","-15.3900757640626"
"2829","92.7994585851564","-163.606955981867","67.9101529771297","-67.1933183037442","-11.2666312304476","-15.3582540062126"
"2830","90.6943095912364","-163.44710484199","65.4790104974545","-108.605298675098","-13.0955629590856","-18.7688376584148"
"2837","128.097285797437","288.69007183018","-77.3562065864452","-87.6875762834556","-11.7377150003318","-18.6817467176885"
"2838","117.905585659808","134.192295311381","-33.3494172038353","193.181448377482","3.57906645413219","-28.9206500190064"
"2854","-97.7520623681259","-129.419022643317","-71.9301004404935","104.562613751044","-0.0430933989139429","-28.6654858667295"
"2854","-43.6020097179714","-58.4321956904009","-53.1923036554903","35.5607183807615","28.3651994485579","-31.8853173924956"
"2862","9.74991619444236","88.90469268466","-4.85800774817579","45.7613222063327","20.3395702545754","-31.635309000144"
"2862","7.019784922373","47.32925043066","-17.0014089209329","-143.21776239488","19.1706022063454","-17.6707341621128"
"2870","11.0575549870117","187.693753144472","-15.0294521582126","-80.2271436424566","17.7601685053119","-17.7438792003993"
"2874","9.44025163334497","134.583891886557","-17.5049248732476","35.2313493049019","17.2649543505245","-12.0767476029943"
"2878","8.88642120530681","122.895958319942","-18.1633840275098","6.34119982881279","17.0910808399001","-12.2365675477366"
"2878","8.69676714793684","120.323784568741","-18.3385297502634","67.8124724471993","-1.10778261952494","-28.4159556008903"
"2886","-19.5466868906831","-67.1348342223186","-4.51306373154334","43.7784419545724","3.50245600456252","-28.2344367875651"
"2887","-12.2183939356366","-3.38901623343358","-8.83558241386339","-72.7347931448072","5.12114635627666","-8.59875422052307"
"2903","28.414976358738","23.099085507529","-117.493758875373","-38.1014341695962","5.68948102794478","-8.82832327166541"
"2903","19.3294945050995","21.9283451990696","-84.3961057047178","-138.574803888227","5.88902771621537","4.72665437649049"
"2911","89.1508670565401","62.6090692625495","75.266231233826","-101.036334021935","5.95909009809133","4.30368083765682"
"2911","69.0605439632916","48.5617117480322","30.7353429754187","34.5735645991614","-12.1541255873629","-9.80861995977172"
"2923","-38.93031927161","-107.603607358553","-26.1937491273744","-4.41046678309711","-7.51381536900959","-9.86164461245313"
"2923","-14.9107817643144","-55.9710455686231","-15.3365061495991","21.2291144800248","-5.88456664852806","-11.0528525259925"
"2927","-6.68551548462436","-44.6082225865759","-12.4485522709944","7.47139929081501","-5.31252485212146","-11.0702386031781"
"2931","-3.86884987017378","-42.1075962057534","-11.6803758912247","-111.809546618219","8.07946171137829","-9.93916703984005"
"2936","-29.4252584759709","-89.6153675848179","-2.80601261710728","-74.8500223273758","4.78149152115049","-9.97314217737791"
"2940","-22.1768119091457","-73.0704443375111","-5.44549145256334","-69.3648265973606","11.8680101634709","-11.1480802934588"
"2952","0.196062996619398","-202.924073099988","-148.336124611056","-66.0293853653724","9.35614153559415","-11.1515706726519"
"2952","-4.14255495194777","-156.501074628746","-104.344075532949","33.1487525343532","-9.6636100485535","-24.9055995669295"
"2960","62.3316587889776","-167.643874313758","-11.1441703221437","1.29494187420713","-5.34159157870767","-24.6526315864445"
"2964","44.0951324231417","-158.096079975378","-33.353620060894","-43.3475574992313","-2.17520526255034","-27.8743388171809"
"2973","47.7955603354953","214.230369746324","-1.11303744755045","-33.2163463805593","-2.06346259634984","-27.625932425706"
"2973","43.0627373125149","88.1685768206626","-14.5372585138676","-71.150128223298","-16.8642594436063","-27.4137736570326"
"2981","41.4420262723113","60.4260479172609","-18.1080113629175","-57.3855938021896","-13.0609334138343","-27.2325732343795"
"2981","40.8870289138459","54.3207253441484","-19.0578076934464","162.019631478791","-11.7255562998061","-38.5370202235983"
"2989","198.165112540988","327.086207129004","164.494263144336","92.4366468006985","-11.2566950918235","-38.1919149287063"
"2989","157.023523320116","233.113945007752","107.317884020003","101.843834652601","-11.0920743041513","-43.6267708876829"
"3001","13.6453418381634","-492.418546849862","-226.94788266162","89.1341351546857","-11.03427467545","-43.2685691172993"
"3005","42.5468227251883","-256.087116196535","-131.86033671179","-186.223466733123","-7.71619621107096","-23.48198528563"
"3013","27.5804748202305","-127.540499348092","-28.5373851216208","-98.2628055647668","-8.55119326123256","-23.5826726831864"
"3014","37.4553887641244","-142.25113307313","-46.0541723571535","-192.779108510292","47.217970501251","-4.18801661251246"
"3022","4.3706553362263","495.285970395968","75.8689687836687","-149.790314356212","32.7989541913015","-4.62344141633286"
"3022","15.0410973814003","275.589317742554","35.2997073302843","73.2168573161335","24.4385417446086","-9.57901135970325"
"3030","18.6950905990839","227.240483454499","24.5085556349358","6.51081267139592","23.503136428904","-9.81146130198438"
"3030","19.9463664486085","216.600313252627","21.6381815945844","176.46331165514","23.1747084053388","-20.3232778720677"
"3038","48.5533629545279","-22.4718521036786","7.00262772665336","111.840426674096","23.059394792243","-20.3012033062227"
"3038","41.3495617219638","57.9153276002679","11.1096684694147","-86.5727097787561","27.9655841461443","-13.4068259586885"
"3050","40.5402466124204","-105.946566419195","-62.3601743533786","-30.8789319136051","26.6881850825362","-13.5184806542956"
"3054","39.2631042120662","-40.0077965944783","-38.9026602289265","-229.860566113879","24.5907881310007","-3.3005567487113"
"3063","23.9077246664742","221.913554650691","15.8890689669984","-157.305196314651","24.8543758786225","-3.5736389696011"
"3063","27.6494183585431","140.554815247565","2.46330177828749","53.578428345626","29.8936004237265","-18.7038413408391"
"3071","-87.0984273754402","81.7117564818367","-40.9900164500486","-5.07924926806272","28.662911042197","-18.6262347052025"
"3075","-56.3927554155254","91.7621131308537","-29.5483079217093","173.8588765778","41.4219447799551","-32.3110003139938"
"3079","-45.8778848402531","93.9739038991262","-26.5048901231096","107.423657670598","37.9017399689931","-31.9988759918552"
"3083","-42.2771656194179","94.4606546258373","-25.695361382372","-29.9519134865803","36.6657688993417","-20.2730905266426"
"3087","-170.333761463458","-44.2666975715577","-240.496863075623","5.60224227720754","36.231809920518","-20.2583393310039"
"3087","-136.185546676556","3.20345283080755","-173.632623159004","-103.429633546425","36.0794435747953","-3.05693084759365"
"3104","929.715930702809","-801.557289564679","1179.33797631315","-62.9748417290854","36.025946575213","-3.3655631190114"
"3104","658.723936235693","-520.661689225213","769.21908962912","-9.21217449886578","-18.4062820190167","-8.21284217907639"
"3112","-34.1112222737447","-303.990915061053","-166.990982393618","-21.1229638134529","-4.51785745622474","-8.35280311443539"
"3116","90.6338486944015","-343.307988495695","60.9834119142744","-122.388880157526","-90.3306000761037","-21.0774680394452"
"3124","-216.393387572424","457.907221291997","-1057.50148346084","-91.0433659292798","-65.4601161074829","-20.9453415520477"
"3124","-110.531997033363","179.231352493968","-675.010970756221","95.7548935734377","124.650253987869","-3.64368525607372"
"3132","-74.2807525763226","117.902910581604","-573.271057413953","39.2333249881121","81.3994717455642","-3.86669794117792"
"3132","-61.8668524944109","104.406306790179","-546.20892221562","294.222612617614","118.978341494704","9.6938793638039"
"3136","-362.606746894316","-562.477466725014","-134.987014280334","203.303024179298","100.17257260748","9.27568837621669"
"3140","-281.592314855969","-336.239161387448","-258.604742333401","-196.488008659364","2.88064641169829","-40.3560679794937"
"3153","52.798798608659","1532.63686724868","-7.10913069300807","-78.8222617490743","23.7207004579316","-39.7455260486031"
"3153","-17.6920877594407","921.922047619596","-104.212983247871","199.25325232095","-25.0245334420403","-54.1210432811105"
"3161","69.2254423526721","-508.266900269637","-502.853398039757","124.954301722591","-8.13936116346899","-53.3988756548388"
"3165","31.9895387399549","-95.0098315203476","-393.889077118086","470.468465367026","-63.219861419561","-41.3228806721049"
"3173","219.803131452694","-911.827841794473","-111.740319579912","347.588318710057","-45.5590500390594","-41.0090227603553"
"3174","163.118142120085","-581.585694930926","-182.690640730149","-411.29135741491","-55.8471257433696","7.38770421726022"
"3181","143.706896954333","-508.909017153654","-201.562950723903","-181.050344969274","-49.4593485019188","6.72234920134264"
"3182","137.059697346091","-492.91499718102","-206.582858720459","-558.859901275859","-99.9811037273792","51.9909093353353"
"3190","280.648647834072","1121.4406801117","697.233377269091","-403.842482055995","-85.7196817931302","50.6538516236562"
"3190","241.819342824603","571.713344400036","415.642439644776","364.617962318427","-24.6500488471591","46.0741362877112"
"3202","97.5754221344972","683.905084910557","85.8421521194033","135.70951074832","-37.2080295304401","45.1626960031853"
"3202","127.180438715593","577.595219261347","145.117485601991","429.529711545172","-49.8616948627613","7.71479279063799"
"3214","130.688162776848","-1405.50245385815","-406.13586409057","302.064006809797","-49.304494391669","7.73131206052877"
"3214","135.88935011989","-740.924491320599","-225.765561205876","-473.740916827113","5.30458837778666","29.517913230807"
"3222","-11.5098924424891","288.174608173667","63.2386621424882","-238.620572904821","-8.5217413195458","29.1253993362159"
"3223","28.0146136337858","18.6493460747859","1.11184895985421","-450.12769867409","37.7393884613034","44.8330504644305"
"3231","41.5494115853218","-40.6653138268425","-15.4134670401109","-348.621820399955","22.9820280601329","44.2486308861989"
"3231","46.1842767303885","-53.7187428518188","-19.8090903613315","290.879099459017","39.2362046583518","-7.81693918127894"
"3239","-5.27045586605797","596.642566987873","230.452674922888","96.5737981186919","31.943171472852","-7.28506727656235"
"3239","9.10935153749977","372.768148634341","152.020627505186","451.514694860859","55.7648078014946","-50.3757912734505"
"3255","-53.9263506581043","-961.608919423861","-269.397319453103","308.929607246683","48.1287681149045","-49.1786886954655"
"3255","-34.5123381288706","-533.266446573829","-150.491669457343","-5.07397185997553","68.5321876457276","-51.5940300654919"
"3263","-27.8641908628509","-439.000744351077","-118.863563335357","77.4778306333627","61.6959856677999","-50.6569232460903"
"3264","-25.5875949245238","-418.255608907412","-110.450699044221","-413.576193345517","-13.2555181053288","-23.5003846513124"
"3272","-91.1103695039268","928.376352439434","20.1035623511707","-242.129591807981","4.4284306234545","-23.3065458958351"
"3276","-73.5480316835586","470.730824661958","-19.1698789509183","12.1522801657499","15.5840783177322","-13.9736269957633"
"3280","-67.5339731271637","370.016373540624","-29.6163511692055","-46.9395376844903","16.500912295805","-14.0025737140377"
"3283","-65.4745149451329","347.85205629288","-32.3950427783271","469.148029318438","1.98278921991645","-34.6538682585276"
"3288","-79.6873067847481","-64.6294343012366","-36.6021695284056","292.796164811732","5.88536419181592","-34.2917124221014"
"3288","-75.5543446044035","73.5954036980643","-35.7212370523196","32.0504321387569","5.60669609079971","-15.6476721570788"
"3300","80.0139683020406","-371.226412177573","-6.00880100114787","92.5685402217481","6.5088535704389","-15.7241824181945"
"3304","40.286884066925","-202.118737817196","-15.1054921121026","-403.849869178711","-21.2055608124186","27.7554565540042"
"3313","-18.0713870599056","-127.524552526008","-149.309660261133","-233.709296054538","-13.9363055358153","26.8905182242522"
"3313","-11.0556319478319","-132.108544999549","-109.00706969779","-71.0853266968278","-22.9262599122104","43.3406020520704"
"3325","69.252136838489","237.107910052176","127.134020446951","-100.492436182186","-19.0827022567325","42.3902789092627"
"3325","49.7527821941556","110.361697882437","59.9459680636178","219.063941050437","-27.6265532148556","16.3683731784088"
"3329","9.92422352023424","82.4685482380464","42.0743963512104","110.864038459183","-24.626365207263","16.1436009186733"
"3333","16.2853055964501","76.3300784268742","37.3206780316279","26.5556579555799","-5.43516092121588","17.097548226599"
"3337","101.341565735862","-366.443243321442","70.7363548312296","39.0297017147532","-9.69698102456286","16.9122949206237"
"3341","80.4682876050384","-215.884755068793","59.6247009442486","-231.953132147556","-52.4156460551677","25.921439120318"
"3354","189.349582254974","-387.443066553088","-50.8393399882694","-141.927377609848","-42.4144989479147","25.6159631173024"
"3354","156.634964669231","-310.198054043853","-18.2220346659549","-102.444081572511","-22.4140961897075","-2.14703329493076"
"3362","263.118862559444","352.915596208379","104.898392244445","-102.831366894978","-25.3918004660204","-1.85883514725003"
"3366","228.583278844741","135.847596550554","71.6476007828562","190.41605224323","8.18944255998357","-30.2607073811931"
"3374","-46.7950442815138","-31.1779992414872","-74.1834163075735","94.8108964688174","-1.01992391385712","-29.5181598782658"
"3374","17.9042209653718","-0.935468029838405","-33.9734896520934","159.361454337301","13.8844115896145","-34.6135686556504"
"3382","40.0598800655643","5.72003223538434","-23.2779186051148","125.077115321594","8.11743878090345","-33.9654520580007"
"3382","47.6468785931491","7.18471399334904","-20.4329683767519","-101.080456672073","53.9104863794087","-23.0986231822438"
"3386","-16.0573982181044","-282.621399807129","8.06787653488868","-32.1414173801873","40.9887787124783","-22.8174890698081"
"3390","2.12766717840917","-183.399284461153","-0.351089700409705","-117.236480644432","18.3140523234747","-16.8477749666246"
"3403","-104.35906213503","315.457619009747","-108.364887060139","-79.9539648902317","21.3527809389803","-16.7491654423548"
"3403","-72.824448014765","157.24149358437","-76.095833366342","146.933551673228","22.4197020015252","-20.1027070426115"
"3415","-18.9291711019317","136.662165646807","53.8679877481458","78.1722267462522","22.7943062185301","-19.9668976633963"
"3415","-26.4732368987425","124.133254968398","18.4374932878277","93.0490697337516","39.4147554933335","-14.121302413495"
"3423","-4.19324167191091","60.8584163536798","-49.9430086529924","78.6710279108513","35.2503234705992","-14.1287002384128"
"3423","-11.5636653990435","80.9334673394923","-34.131763957186","-118.048580300323","7.40588270602793","-2.6758120399769"
"3431","-14.0875981655007","85.3514013485667","-29.926078817939","-55.942491270212","13.6294847167788","-2.89413676380186"
"3431","-14.9518953681358","86.3236599456845","-28.8073947528462","-3.93468683103745","-15.5143140018046","2.64899986255038"
"3439","-41.7688153108798","138.155570408635","-26.7758255868236","-12.2727199930628","-6.74692659404484","2.38327837387427"
"3440","-34.952019078363","120.562264227315","-27.2354418020378","106.898344200639","-11.913090651407","-15.0324786535822"
"3452","32.0271433788381","-120.040083838615","-58.5698172519398","66.9120677972878","-8.72697071204691","-14.9069170467385"
"3456","15.9635319847286","-39.9896527804239","-48.9045511525662","-95.6418383802611","-27.3950068311792","-11.3619155131573"
"3460","157.985479544712","-123.828844682941","35.1646598068185","-48.2176711153381","-21.9494983478675","-11.3342029175022"
"3460","117.619569018176","-85.2794088912812","10.526506581214","-85.854690501395","-20.0375383039644","0.148672366016759"
"3472","-70.2470907165057","224.012221474875","-124.343572946433","-67.017905455101","-19.3662343806146","-0.0440410077557579"
"3472","-29.5802736899216","123.078300783086","-86.2181103475845","127.27416660821","-0.992719265303322","-20.8352052704681"
"3480","98.7172924294618","191.642070118933","78.2496036097592","66.5770627768846","-5.54163634546529","-20.5925092716756"
"3480","73.6515956627167","155.730958737609","32.9969134379203","99.2260783915056","-8.78768851436549","-35.2821961177428"
"3489","-39.3581564970301","-67.5434552059242","-51.8682803517822","80.1748998705653","-8.92740247613456","-34.828354269933"
"3489","-15.0572906262096","4.32034945318238","-32.4418532252274","-121.195517744869","9.16135800221486","-18.3978481817422"
"3501","52.9364501598033","-191.676086306771","-51.550647597276","-58.2217278971891","4.51246137196025","-18.3648922676307"
"3501","40.220271638352","-115.809193157319","-42.6334588537968","-78.0206948637501","-7.0131558103373","-11.4612213852722"
"3513","135.319295464321","13.0224352592794","27.3647149343885","-62.8410072353279","-5.05988893019365","-11.5649386647233"
"3513","107.885067959715","-21.6254757209535","6.98376011009658","97.1864911892397","-20.8630047018458","-18.5290453677986"
"3525","7.32470928965789","-0.771605739067876","-40.0535981240862","47.1472375630983","-16.4116005799297","-18.4769450746534"
"3525","27.888753685137","-12.1822763531102","-28.5652202209478","47.2602999070065","19.7780597247854","-17.2865266375032"
"3530","34.9307186225887","-14.6934326041081","-25.5093886813792","40.2878263843233","11.4845286830272","-17.2698148357968"
"3533","37.3421737442865","-15.2460649541441","-24.6965579687273","-21.1319757461721","10.2214982290173","-8.08817640877472"
"3542","39.8255133678855","38.0301905521875","-34.8843906513747","-2.0854141033104","8.77803849156578","-8.24632865471686"
"3542","39.675909827884","19.7547426464212","-31.5942858771382","21.8736245021511","4.9734440717934","-17.5487684440206"
"3550","18.0764080744039","58.4511478917314","-32.4531467548271","16.7067596549128","5.63762161624968","-17.493790146718"
"3550","23.6798604357559","42.9670996012936","-31.6815979931369","41.796877827075","20.7108500361644","-25.4682788879858"
"3558","-100.375799469842","-279.047802049797","-43.6144180990301","32.9053888031216","17.0031768335281","-25.2791250264514"
"3562","-66.8575015390959","-170.913902785406","-39.7884682863612","-41.2773825024633","14.0524918807357","-17.0961280503314"
"3571","22.5258155048155","-245.012883051887","-64.7808917873175","-18.3381293528504","14.0164836274799","-17.1071993347556"
"3574","6.13429759672995","-206.319910375921","-56.4287089664176","-58.4232406714724","18.9505177051103","-13.6788931317557"
"3579","-45.8904861327649","-26.9315179455717","-40.3350306960061","-42.1824749957462","17.6828951388423","-13.7508476078657"
"3579","-35.7058874155084","-83.4533577002349","-44.0542201184781","104.051059061136","4.04668480021525","-20.687826356598"
"3587","143.483023319907","183.556704480981","201.185451947331","58.6534879426244","7.25890613866078","-20.6125566379163"
"3587","98.8445921976892","85.3178421393174","124.41756138616","186.367304220538","-19.6444269998211","-28.5697148952587"
"3599","10.6259674227581","489.101391074076","-149.167161421727","138.46087034778","-12.0903948403321","-28.3657594253265"
"3599","24.4163233202657","338.962389454818","-75.938864420118","118.01474887253","16.9441606850819","-29.3374859234984"
"3608","-126.671876052005","-23.3657201751191","-231.595304907039","118.036878437958","11.1384171493227","-29.1674174567225"
"3608","-84.4106187808508","81.8964161896156","-171.998875035679","-87.4725836544179","17.3444372210293","-9.54151439418668"
"3620","-53.3630525447302","-318.561585568635","-98.9244029103653","-20.5064972557314","14.5234187514276","-9.77943591815368"
"3620","-52.731103467824","-168.690727876869","-112.487082991001","-197.42183445196","10.2351528320933","10.643931972212"
"3628","17.1027938663411","357.331850708613","211.632601463247","-130.494141711684","10.7295095812333","10.0871086878199"
"3628","-0.983240232043428","196.094099139073","108.846265628989","98.3412617674972","-15.4791945001419","15.3411406845318"
"3636","-3.86151500781563","155.270578906294","-74.554814022749","33.0541748860793","-8.68127271921677","14.8285009024974"
"3640","-6.84715332202757","149.286511143079","-33.3382722547079","152.412559171045","-44.2189924728308","5.22330062977438"
"3648","-50.9661001141877","-181.317296251783","-142.021410696302","104.471888245742","-33.6965600734628","5.01969745103767"
"3648","-40.0742213773373","-69.0735649781463","-101.930397245081","-165.410847946231","-8.56645317398667","19.7427726673387"
"3661","142.672009474642","-161.847311313604","17.9759658441596","-84.1172605251594","-12.7430787475103","19.3174471369826"
"3661","97.251749401386","-116.264110721701","-13.1297450566832","-74.8645173837688","-35.6451239086704","22.3919473440385"
"3669","50.204378101452","100.239202712718","113.848866952","-66.6118184267573","-30.6862086679715","22.0178144738741"
"3669","53.0934452167592","31.8852760489791","69.6243268731764","107.53805038893","-17.4028492751734","-10.3875029618001"
"3677","-50.3434591458183","7.94292205874807","40.52082854801","51.9370689124057","-19.7389593031593","-10.0642153233533"
"3677","-22.7644609561409","7.67390729881085","42.779493013641","34.8872226968746","-7.36804728336512","-18.9554672504779"
"3689","-48.1290367482722","-54.6828144365824","-46.7880658213056","32.7362190215299","-11.0245246240995","-18.5493018922651"
"3689","-35.8148988261033","-33.4057126670214","-18.6124362866282","-41.5620318769584","-0.7660960396402","-6.74319792035155"
"3697","54.5950483666741","-133.739060746271","-177.582550920985","-17.6508937149243","-4.16428261361615","-6.65984834694085"
"3698","33.5550903644617","-96.8195083145924","-123.867536168188","-24.1251807848681","-15.2507658451649","-16.9019470728133"
"3710","-11.77371155996","37.6803778145651","-55.8254944553712","-18.7014289857518","-13.1433156467277","-16.6495120666541"
"3710","-4.2961364132465","-3.72011473877516","-68.7267673038327","63.4197631186005","-33.8389733188828","-27.8931190692934"
"3718","66.2244222912902","83.2850155180939","132.454371277035","37.4132202993659","-28.105378407172","-27.4960515983794"
"3718","49.3735289658522","48.4323105460078","67.9672060414437","74.9950234410035","-26.0922689954958","-15.6977179441109"
"3726","-84.0289712390964","-9.07577022408481","0.52785788532357","59.1447952920196","-25.3854507486919","-15.6210048385222"
"3730","-52.7114114704631","6.26837619873918","11.5894431812668","4.34627585633045","-0.403897142835836","-9.82588249542241"
"3739","4.42465588668344","-90.0308551679693","-127.656798727967","20.0048736697355","-6.63268092392858","-9.87638818763285"
"3739","-4.00963149107764","-55.2235111469439","-82.69536599832","-20.0962693655567","-50.0419620781119","1.53968247164614"
"3747","-73.2002480236722","-184.617971267426","-167.84030142641","-4.85940681681358","-40.2832956203711","1.28991264801221"
"3750","-56.8939284229576","-136.093923151986","-134.488283701141","-27.4978549304164","-26.9635988266588","5.66027201125546"
"3759","-41.3646255355179","-16.8395167828732","-52.7885890368082","-18.0094753952428","-28.2869505128186","5.39290568328194"
"3759","-42.0467608035948","-51.595095386264","-73.0570177189646","68.614376804236","-40.2938354910324","10.8941568883769"
"3767","814.677827064714","262.923385935","564.868202108828","41.7040643185438","-37.5095454473089","10.5926619264558"
"3767","591.055160472327","151.139742899355","363.552035899102","184.458063823013","-67.8609131339008","-5.70772783288581"
"3779","952.073332636689","-156.469312172792","561.434256323183","134.213355402911","-59.5175125079384","-5.62955407779267"
"3780","811.700633826685","-65.1651056660635","469.069600963664","-106.369196234723","-45.0458341830095","-20.45975597436"
"3788","-492.798665447874","634.861217092648","-947.906159270395","-34.9421031951349","-46.9647162653205","-20.1259251291543"
"3788","-181.512266612894","406.916621522187","-521.812216455764","61.4919114551604","262.35329889581","45.4766701102978"
"3796","46.0866851009273","579.243796023925","63.1757397622141","39.9700088046239","182.957240595638","44.5064918276095"
"3800","51.0258203676191","492.167987870659","-53.2213838395154","122.557084546129","82.5294114243133","58.5748510795411"
"3808","-434.605264817016","-942.038516749605","840.043332838618","92.6639670719482","91.2684257404334","57.5903461657292"
"3809","-306.905094200708","-462.665595220063","544.64576178232","-489.001552854475","219.65257470738","13.2045160455498"
"3816","-1098.58527077919","-880.468740719558","414.051786288427","-303.615481831527","188.729239971526","13.295495231188"
"3820","-865.688753047827","-678.415043964563","409.314663906436","-441.160732315042","161.382895709505","61.5018660918996"
"3829","730.731280216375","1097.92212954083","-1043.3089875716","-370.64788715889","161.781383245419","60.6739318479195"
"3829","362.410410230485","515.842203216294","-592.697144954306","403.586892805971","-57.3813785301969","58.820889656498"
"3837","-363.754112659993","-487.981764868537","-554.335729273737","161.084277274241","-1.33111516371711","58.2382445912984"
"3840","-250.422371231752","-216.89418251869","-497.131849759367","35.2954933779646","-138.296202251027","16.4874759738737"
"3849","-20.99365079831","-1105.93792577751","440.575563760828","42.6706010669158","-91.3857010963925","16.8290067676396"
"3849","-57.4279283234108","-768.590559072124","157.999452257698","-461.416541648466","35.5607208562885","18.2666218178222"
"3857","-762.764310441298","-115.873263293957","49.8899727994983","-296.14301997878","13.1325890727867","18.4944591414196"
"3857","-586.300166737892","-297.229197763695","40.1335756962607","235.925347841765","-26.0710544465241","1.5002405021588"
"3869","1078.64577212607","718.357615219239","389.541799729747","85.464214200915","-20.8357561661253","1.98582934041604"
"3869","680.790958488835","348.858692422761","279.482045967164","431.757626784801","-203.673538398195","-26.2474555813744"
"3878","9.15762669400738","-554.784514703225","-724.30487694774","298.067198273718","-155.86929444465","-25.360921136936"
"3878","102.16306519798","-291.650064765952","-429.305472150298","-266.712215649597","-117.649255856634","-72.7324177945842"
"3886","732.390830651663","-728.562133604573","209.246557155484","-101.215005605505","-117.229905417522","-71.1914347362502"
"3890","587.206442677334","-546.713754303386","56.0971180667055","-275.220123513415","-57.7225460047168","-24.038486820079"
"3898","201.004859024441","1346.21199792912","422.851968226246","-195.583900572387","-72.8290529793837","-23.7661278448668"
"3898","271.753733780328","721.789821983005","285.406300774892","475.47985201839","86.7561643050493","-5.19878122445129"
"3906","-318.97348994257","730.326876554759","-134.368806657812","267.8589270072","42.7877653906974","-5.34079394348805"
"3910","-150.262510382993","650.205633612787","-25.0261723567781","326.216255717192","12.5100907293871","-21.5049732129357"
"3918","466.108486367038","-588.458098993718","130.640724838323","278.424095652887","10.8793655451124","-21.3104648915509"
"3919","340.17897737075","-175.051908790597","99.0470763812693","-462.174447353327","28.444620479181","28.1302487186275"
"3927","15.2705054017169","-443.618930861192","-108.767393007342","-227.482658648122","23.6119170131655","27.3565411243438"
"3931","74.0086337832158","-300.722710042626","-49.0446493172117","-440.850658857891","68.0841015019564","86.2836073924321"
"3939","-321.924437070592","857.419723092326","-242.973610503734","-338.797834326541","55.6986286059424","84.6119976836083"
"3940","-206.508019215701","479.293140166834","-173.557414677485","407.985014465988","82.6789469141256","76.3087864379607"
"3947","-253.177830571141","397.858421837381","78.9977328839219","178.798874300008","73.1519448417062","75.2171851975416"
"3948","-217.159471579208","378.93701222894","11.1757097841869","275.819304318523","94.5403251733303","47.9286961085137"
"3960","-32.4391496018098","-406.615925380709","95.4419014635017","212.440172008434","87.0499505321359","47.6221611610434"
"3960","-73.1834006069472","-140.493246661069","58.8561437894473","-380.891021945405","-17.8112994294503","33.6093081597163"
"3968","-52.327142679542","-306.198466176121","-235.252521544107","-196.345108842418","7.37110664066905","33.6412198158106"
"3968","-66.1851119473225","-216.665358603645","-149.483455725092","-221.676527156029","4.67059771873875","57.7328086108321"
"3976","15.2624415826902","317.437788115","-222.039827499053","-187.843785745477","10.722428200179","57.3089370421058"
"3980","-8.84660442162273","145.978334234137","-186.339336196705","266.553672152832","11.198380291377","26.0070594640243"
"3988","-254.133507653466","-21.689723800812","-39.8567153638691","123.182559590244","12.3654907428567","26.2727722957279"
"3988","-195.129716714097","14.411420183751","-79.8933197902116","93.5466354575012","-7.01143518535746","-13.6075107101191"
"3997","91.942634125806","154.070985829988","164.356196749134","83.3313897337485","-1.81482338353083","-12.6684367862535"
"4000","29.2478794486019","110.805988455741","82.3249314528748","-82.5136003665035","-49.4570214166269","-3.84494857283893"
"4009","301.166649430491","286.397251825097","-19.2591436734139","-29.8906896810424","-36.1845647346024","-3.30898951942162"
"4009","217.282692521141","221.039774560609","-0.279826950555762","126.957081250493","-8.44001080698308","22.359016400459"
"4017","95.7340919104442","-163.568760840933","-52.45367701136","83.1436821955114","-12.6986838568755","22.2815301406611"
"4021","110.110908881087","-40.209897241114","-33.3315715148977","-90.8812091308103","-37.2784288044263","9.61022354577171"
"4029","-25.8584283152146","-235.553345149259","-130.55161494258","-40.2498002820311","-31.9085669032042","9.7879222809265"
"4029","12.5801420996883","-153.542748392776","-97.4114950309061","-106.967107606007","47.4747704084611","34.0040248092634"
"4037","-12.3807932908217","435.862644841638","63.9961444770994","-78.2102915274351","28.3468726293512","33.6864978486057"
"4038","2.07156751692813","244.573604666468","18.9294950070414","120.253476463869","23.2798124201234","54.0418763795684"
"4045","65.0352203880994","15.5839002084483","88.440383178978","59.5720254959544","20.5007284852099","53.4269847874802"
"4050","51.596535240646","70.1899358908516","59.9298136460243","37.7721994847757","-5.20841359253247","38.0048500916192"
"4058","-120.418910300584","-323.616706936938","-65.5662624651354","36.4647523236484","0.764908262293064","37.8331233580127"
"4058","-78.3239930219472","-182.282078874367","-30.9473777719202","-192.203395583924","42.4356024787284","52.5834235877619"
"4066","-75.5118971406886","-94.2207117561215","-174.331576102488","-117.875588189037","33.0665047328878","52.1813503791193"
"4070","-67.5489211707997","-106.84096975934","-124.470812052814","-68.1618612401513","-6.4986880305781","62.1512338306728"
"4078","135.742605702731","187.629843136132","-12.3698009761733","-74.0584169819897","1.60966752062531","61.6663053807231"
"4079","84.3578903613824","85.4342921953187","-39.5516832093523","214.334625276543","30.8388502658126","26.8745184230099"
"4086","-77.4459880498738","91.4228940378877","-77.9940023563476","119.547609207654","25.1014418485832","27.1595717299399"
"4091","-45.8542149824254","76.7408108773413","-70.2194016506603","64.8528255778549","13.1936397793479","6.77645812200014"
"4099","-91.3929249150003","-15.4867443081996","39.3570054969498","69.5366792033107","15.0127185968987","7.36766175764893"
"4099","-72.9872308051626","14.2166570472471","6.50359553581001","-52.2805790306213","9.05584206747563","19.3318031007637"
"4107","75.8657304656974","-50.4436545198808","84.4651436799661","-11.9385524960269","10.9643367570671","19.5501291290045"
"4107","40.8390367835783","-24.6735057771276","55.2023930724521","-5.62984322411931","11.6344239677808","18.5906762278918"
"4119","-112.048071212725","55.7547766774335","-162.396113312836","-2.09390706121626","11.8696967575931","18.771227320432"
"4119","-79.4028333982737","31.4546990636112","-99.2758579018029","33.8977054944064","-2.88772771015318","13.1958290157303"
"4128","26.2571057619281","124.003061702394","-63.412219215971","22.6603250577359","0.930826696709167","13.4339964712218"
"4128","5.439365075811","89.370260723457","-64.8727316448041","33.9767381275569","-4.32401852613541","36.5558234319592"
"4136","86.1611692269525","-165.661558607271","90.7993849184244","28.7318639891471","-2.16903522820543","36.3036983088598"
"4140","60.8035971262598","-82.7866338966741","42.2071247783185","-51.5892408771872","-6.35908081846846","39.5261254066817"
"4148","58.7503707566825","175.742155245164","79.5681035203416","-26.1444437390281","-4.83023815396183","39.2783338388173"
"4148","54.0472625633159","97.6368117360352","60.505873512904","45.042293962737","-20.7823725424153","36.7748588727094"
"4156","49.1216084092133","377.696264652986","-46.8709472887543","25.3736180169477","-16.3832900066275","36.6366926079025"
"4160","49.4348641491771","272.329193131174","-16.4324620988368","124.220720163358","9.89464607915709","34.2268463490674"
"4169","94.2962378284115","-405.872948848611","-79.4303037416751","89.2863146045071","4.12103218914715","34.1686464294481"
"4169","82.6585962448591","-187.125486747373","-55.1873074753652","-138.786061602221","16.9339023649415","37.5567010384657"
"4177","52.1524451406519","-233.321785349794","86.5136897526908","-69.3132059477414","12.4325999427549","37.4503685072432"
"4181","57.7058986189152","-190.488245142759","46.2052054887394","-168.330602197396","4.25658879447185","31.6299488244333"
"4189","-28.2430181198908","174.923994741669","4.27129816182871","-126.437656921501","5.38592819740731","31.6588485812581"
"4189","-4.67542190422086","55.3405856164996","11.1171598085009","150.755368806508","35.462509094363","14.4947214748329"
"4197","1.73752196134742","158.958586519269","-84.1662621183839","66.2415651059654","28.0226287064121","14.835195000369"
"4197","4.93357469196233","108.761890504109","-53.5110138646382","126.466306139074","36.9526752897364","0.229017920514705"
"4209","-3.91732294050027","-254.710907259162","-12.4107959299924","95.1287915489069","33.0880835458862","0.754183734937175"
"4210","-0.948230168383839","-136.70068341199","-20.4784133685236","-133.824412609877","0.40224216350741","4.6404789692692"
"4218","-54.6309502957106","-100.050495591885","-62.5064996678284","-63.5660058143556","7.92599106299354","4.959683466068"
"4218","-40.0140964129588","-97.9848567387721","-50.6856889967275","-85.1045137370368","27.0565601958187","1.7945474759463"
"4226","-59.872081418777","210.397469066332","-63.1474928767379","-68.3483396588829","23.7734506223384","2.09127019567622"
"4230","-51.6722629127518","105.263436925375","-57.4622492033078","167.594073257041","2.83401810720466","-12.552273543841"
"4238","58.8770454417176","-85.1868392551647","-21.2698784641821","93.037278949509","7.48202179067447","-12.0590218217107"
"4238","31.7336235700385","-33.0993979216528","-31.6429503696452","13.4066701756981","-5.72605881340394","-15.0755076712379"
"4246","-5.73989651153888","-190.729736204017","-50.0081782956576","29.0195774411652","-1.36351782187689","-14.6518259364665"
"4250","-1.57235346516109","-130.419582464019","-45.8932058601097","-141.076440711332","11.7104499706467","-1.68484093630499"
"4259","61.1844783023958","-29.9305470493093","0.285523457498151","-83.4884973121322","9.30082093622079","-1.61000685210129"
"4259","45.6749691996946","-56.8158372330565","-13.4312439838482","32.4111822249879","-8.03414125343423","-2.69201325910688"
"4267","-1.07510083260526","295.033247863561","5.46227490359349","2.62844528109778","-4.12058022800641","-2.6161325848779"
"4271","7.91577432504394","171.464983414748","-2.51217567624799","127.117744441429","5.49796266548334","-20.8860549128265"
"4279","7.67949686928677","80.1937589532294","-2.89931939343781","82.4262605314396","3.87510728830039","-20.4900182482356"
"4279","9.59858586136665","96.1076208466128","-4.00229702799241","6.55367015287424","3.30531024405446","-10.9844062899411"
"4287","8.59820062275313","-96.1824055614993","-0.827668285988499","25.0815151822062","3.10525010548871","-10.8658594337812"
"4288","9.25562804127157","-28.4998396678724","-1.98323831353901","-110.930617615332","4.68389973164388","-0.451325137137321"
"4299","2.85052056091346","-63.4428937983105","-97.6609807479209","-64.0445153008","4.23817579562968","-0.556486483576481"
"4300","4.65715132722285","-43.1328422488967","-68.1106191068605","-22.7683604908906","2.43278639827229","-10.959588492816"
"4308","93.1264601732529","240.785681376012","-9.96422659826602","-29.7191513570302","2.79890025118205","-10.8446630658134"
"4308","70.4219486945331","146.267878916389","-23.4976758251271","79.2504316932783","-2.01923120344415","-14.1842695905151"
"4316","-20.2309661980389","-22.2668539334622","-23.6294692311189","42.7804739015518","-0.710914331980166","-14.0365585510664"
"4320","-1.2742102153311","23.6435601674124","-25.664525393976","-39.8731664163038","22.8329377975306","-11.6185602973361"
"4328","-14.673358261549","-153.145453158087","6.74029062086835","-17.9962549417301","17.0993659353512","-11.5533979272381"
"4329","-7.26177136349377","-87.051565772864","-3.64024546116396","-107.523047944834","18.3840491853259","-8.0599821343486"
"4336","26.7698848041742","-67.1664388538402","-2.93338509804047","-75.3194936194687","16.8351113865053","-8.07632785442873"
"4341","19.4237076070863","-65.7903016000717","-4.7453649780622","-0.730712641340467","11.3445905211674","-9.23620904915567"
"4349","-12.9279902795209","-15.6494383346499","-137.01184875391","-20.5711175302917","12.416826282637","-9.22683962278777"
"4349","-6.0065270596984","-32.6148947501177","-96.1938471315618","41.3468942662749","11.1444042470492","-22.9698852227266"
"4357","120.680613865536","-13.2094189228778","-92.2725590217241","18.4216281546931","11.6976470528438","-22.7075366373826"
"4357","89.0634420322383","-21.9388389039268","-87.2295226607332","4.05749228096722","0.349648879823847","-22.4834701288709"
"4370","33.4823346617727","17.0784399203439","103.11862161827","5.56035922467768","3.36527916456363","-22.2920995515498"
"4370","41.4491035638275","2.66500655876008","44.7499524893785","9.43932580785347","15.9663362156983","-24.420495199379"
"4377","-33.7280398088848","102.72891901467","11.8842106155282","8.383709958875","13.3906645711765","-24.2383139648789"
"4378","-12.471750411105","66.7500716499698","13.1421435076908","43.2574503040436","20.7307878058672","-26.3745580406258"
"4390","-165.975988606808","144.268773342056","-198.072072284166","31.7479095443121","18.3079617070855","-26.1990799863183"
"4390","-121.542081265216","113.328381747873","-132.253638355881","23.676152736502","37.2439961829214","-13.4440806235423"
"4398","-384.796073804046","-12.7359487266778","-334.965226991269","24.7109800450799","31.8925839904188","-13.5502990941344"
"4398","-306.944944787333","26.5209639293196","-261.885151214762","-71.646622764655","18.4714158894895","2.40187104291815"
"4410","-920.103457971091","-708.850107818646","90.4829458143247","-40.1061166717768","20.7591402167725","2.02629010013507"
"4410","-744.073863981755","-452.683862037292","-7.78950156529248","-158.897852860747","-34.4999597900386","15.4565620071937"
"4419","-720.260479093456","-487.085517971508","529.622863745247","-115.819224190878","-19.9018561600202","14.9270798704105"
"4419","-690.105807852699","-443.656320448057","347.570951762222","33.4352573727759","-141.7410552404","-7.29763229036555"
"4427","-633.367960810681","108.779564528838","134.41572650237","-9.2268253404378","-107.5197381011","-7.27929994454375"
"4431","-641.938615016026","-74.6453876270819","172.717864918711","247.380194653869","-243.904675210422","-29.036135069625"
"4439","1017.65846240347","1638.21831235411","-1022.22868005927","157.854463902429","-201.790478922306","-28.6181986105831"
"4439","582.971981122327","1030.16972325732","-645.076453785856","378.460407402119","-365.084226383157","-40.8663748931734"
"4447","-43.2594343577465","-59.4660018170185","-797.921467196748","294.169752970054","-314.417921027312","-40.327289297106"
"4451","30.2934663396014","237.736912202457","-692.577216562305","11.9240728557641","-334.553112836492","-30.6995022007971"
"4459","1966.64688909362","-627.76031593662","1012.22812799007","92.2077430605227","-318.622734035955","-30.4766080825167"
"4460","1476.73303340024","-295.231047077352","498.694925881976","-661.122526319006","-273.456040301126","55.6578101398639"
"4468","1124.97752252934","1034.57892283672","897.906605847898","-404.53043964636","-281.597665642295","54.223437827441"
"4471","1115.52213318711","621.231364708049","695.09423763452","332.450470222018","-40.4201950272546","49.5606081008188"
"4480","-301.613893501579","-1274.58252764758","-305.620151982057","127.877922343893","-103.740924263334","48.5781815317597"
"4480","66.1011100443523","-677.795947221592","-25.8034739160507","-143.251571899064","30.6714461610891","40.8635873722298"
"4488","216.885068691595","-1548.56070121633","-506.256256872238","-83.2615237115124","-17.1353335096472","40.2747118284779"
"4488","253.519627025728","-1177.19066137411","-314.053477664387","-853.828295822767","393.142438946913","75.2953056250116"
"4500","14.1157697024421","-388.831069097721","-724.174608773868","-594.432656747654","278.194130399143","74.2056715136182"
"4500","84.134154766233","-612.33608487281","-567.264081461351","438.329059794124","77.8923407858962","24.0004494530396"
"4509","-2247.28052520677","1636.36547315386","-98.961284215064","137.768141820277","104.564837002464","24.1212061690698"
"4509","-1624.65170722189","840.239189613437","-220.395878205704","872.599834380817","198.023262722602","34.5376278613891"
"4517","-405.29976447431","97.237591551933","90.6366602974716","591.504031991702","179.837237081581","34.4340785006164"
"4521","-594.74408028556","252.724580741034","-24.6307686638932","-135.633787054548","491.688194050291","4.55170215759142"
"4529","-245.227681876383","-158.039543293235","-431.570586469126","62.3351874929387","408.181471161948","5.02978167749421"
"4529","-375.539055683622","1.56323706527395","-322.813851135395","-330.357558945753","-288.939758727838","-46.1283298538391"
"4537","103.625782852349","-470.592640632719","-543.582253238515","-174.963643196728","-128.704401256737","-44.8214163549533"
"4541","-48.2886935348028","-289.50039713807","-458.305168847217","71.8969222373921","-97.1779152011924","-28.8082400406804"
"4550","-196.44882882331","-1463.55893306916","422.711281120099","12.9982921536359","-71.1087227010621","-28.1317168674474"
"4550","-189.184883354447","-1039.93502079116","162.055753193341","-537.085173813399","45.2223704108584","-17.2406265221598"
"4558","-9.33856370550012","-143.959700333341","349.356121131578","-366.010046807005","21.0671147676425","-16.938771189665"
"4562","-54.7518712854014","-397.781628788748","251.176763918939","102.47892063757","-127.569826034454","1.65376766032353"
"4572","596.035620322055","2221.59303456349","-54.1133660555336","-26.4614332437802","-94.7574027745376","1.53327110427522"
"4572","416.891718543638","1295.0411051517","25.6815050950636","1050.52134360199","-58.5033235342937","26.6406118457519"
"4578","-75.4198658069231","-1427.46570121988","-599.878093319705","681.726609764296","-60.7742365907565","26.0842730363801"
"4578","15.9926302650979","-611.610152624049","-393.272754675117","-330.243215314989","-73.1138176770964","-3.03890077053597"
"4590","241.230428529269","-1920.08485889617","220.033038654386","-51.6202447696922","-70.446339803889","-2.91240204419413"
"4591","201.361008850026","-1372.0420306582","61.1682699688475","-1194.04002566938","3.04149277182867","65.9508770728971"
"4599","197.653454495908","750.986500491822","124.68571479405","-783.176769505889","-15.1563622074798","64.7655815478769"
"4599","190.383837135466","93.2032441320474","80.5809294924306","727.352512205738","14.7298607583672","84.3798168698606"
"4607","8.87801586033838","1336.78902678144","245.718035638232","292.110233937508","3.22314423207667","83.1319301696594"
"4611","54.7230426079062","830.466036431416","187.643399302982","955.508204527069","51.9476003788975","33.937468494129"
"4619","171.533363563296","-2463.47418431407","206.876069209459","679.020946596555","37.0551328708818","33.9214947800056"
"4620","150.533966979674","-1400.37448645397","191.991830528058","-1174.69173144684","-48.9694493108096","-13.0748948037663"
"4627","-32.3583702761257","-1321.27104115796","-358.179388011986","-609.001851334133","-30.1733438468122","-12.2135405406427"
"4631","11.0118570237589","-1216.86267684271","-189.521245491994","-613.556908123397","86.9018968592113","36.6507917633535"
"4639","-426.650113498479","3058.36524595203","-494.928663331106","-533.66589510396","61.0079171778367","36.3848087993425"
"4639","-303.523367591978","1610.21838998676","-374.164989966567","-514.215403616911","51.9163411238923","36.1576382430713"
"4648","-158.591084372986","-570.282419942287","247.519616232818","-509.479932068994","48.7242186243095","35.9636165626661"
"4648","-170.960377635291","-4.14713818423545","72.8835556249384","875.824275413533","83.8790700421476","-5.45523684796333"
"4660","-147.017617807188","-1038.29111337397","170.354089901088","425.094347180649","74.2222096160265","-4.83022413104903"
"4660","-155.818643326643","-614.876081476859","113.280598876589","-880.843451310666","-28.1019256516213","-15.7556202057021"
"4668","-31.2004031441926","1156.77840065582","-559.089106938729","-517.790753167909","-4.02871903707607","-15.0867753531389"
"4668","-65.5260507135648","603.667950349843","-358.934943192045","320.64045625872","-59.8832295465304","32.467217986363"
"4680","-14.2932932105699","-676.789410927505","60.1801370416212","97.767284610012","-40.4941791379445","32.0821015749345"
"4681","-34.7491139116586","-307.580781099102","-39.3380600715691","134.845886531472","9.18466545301009","24.8776576849149"
"4689","-23.520865917044","-945.420082416801","228.971905515378","91.8731475933591","0.62729109141755","24.7244909503248"
"4689","-30.675857261817","-681.789934707945","130.340558438709","81.4108832997817","-2.37726907228928","24.5936744056319"
"4697","112.739204688704","372.987692973962","81.5631939248606","78.863710909716","-3.43219332777715","24.4819466965366"
"4701","73.8503531736817","45.1135270074556","81.5887418172455","-540.057517503062","-48.322677051828","2.61402996465372"
"4709","246.179875256665","195.449113648377","-128.219273425525","-338.741826406095","-37.084072244747","2.93709391747169"
"4709","193.192510556313","103.533597541566","-63.0267995740167","579.756962953244","-49.6270342282178","-10.5380316660937"
"4717","120.348024194337","-788.859602300395","-12.7399110614465","308.377270270574","-44.0309649572004","-10.0468581280614"
"4721","128.403110198698","-495.249353431525","-18.3639356853664","-412.88196293121","-4.14161931806475","-17.6488015228711"
"4730","139.449295866744","-19.4706612633273","0.94819186179623","-215.4817712843","-13.1361622935838","-17.1414643750282"
"4730","138.231958978679","-145.765628812436","-5.91491161962134","-42.7080239168512","33.1725528010782","14.2316994303798"
"4738","137.815093331146","-173.559472658934","-7.74045115659196","-71.6440398046627","19.431899970737","14.026870693176"
"4738","137.672341583624","-179.676088156405","-8.22603244063732","-78.6888838919205","14.6074507445043","13.8519306990155"
"4750","-140.846511519467","-74.2264294919063","73.1431211347432","-80.4040415143863","12.9135493976118","13.7025180630022"
"4751","-68.2226914309645","-111.02003098321","47.7867707378539","75.5101902071108","30.4566226935428","-31.1159976424872"
"4758","67.7031332325183","-188.534466935774","-31.7861299954324","24.4695090615489","25.6161310832323","-30.3945662790971"
"4759","47.2496623571535","-166.593136576567","-10.9519883790872","-219.819906697987","37.1077354066441","4.59921293254022"
"4773","-27.7143706463046","347.29524129996","-175.342903006853","-147.295297258515","33.1425263493157","4.48667703798291"
"4773","-12.3851035929998","174.387105579321","-121.069784727973","191.808052387292","33.3992031396778","21.5793722464904"
"4779","-138.082927114966","111.416053320726","-68.4853515252758","91.3671108625071","32.4893243411915","21.1778902122109"
"4779","-102.126972777028","111.557958835334","-76.4982446572782","89.7484591015897","23.9253974528176","-2.08342035736751"
"4787","-40.0874118419213","-178.539259488667","65.2929356394475","76.3543775759422","25.9185366464011","-1.95042530385322"
"4791","-48.8425436419689","-79.3812077695068","20.008439467453","73.0934166887887","26.6183431955502","-1.83683697536574"
"4799","-12.0592325977784","-59.3393378242986","21.8351205406861","72.2994939485707","26.86405067439","-1.73982352992061"
"4800","-23.4631312825373","-53.9287059958187","14.321005465728","-186.104761879247","30.248105034776","8.65631952535679"
"4807","111.866694674171","255.189755335737","-55.3039601285109","-102.016591235743","29.4362726307467","8.535450599497"
"4811","74.2091296082304","150.217725183213","-34.8237344254663","78.3006352835181","-13.7199673842641","4.99445698782712"
"4820","-21.5643188255062","57.6992028708919","-90.0663661568413","31.2011761181676","-2.87245623019336","4.97016747550172"
"4820","-4.36104172878323","76.3385708365437","-69.7605360210997","33.786506295719","-20.4994110659357","-17.968990751154"
"4828","23.0783312548709","-200.788249133759","-45.2852475625873","26.4159380767059","-13.6883709114501","-17.5608520348945"
"4832","19.4746882525748","-103.775790517274","-49.7749848394983","-152.788776233897","13.4364221039804","2.26838191091005"
"4840","18.2406543640445","-82.426173994328","-50.9692248698","-95.4184617066492","7.96014621598573","2.2041210949926"
"4840","17.8180709846501","-77.7277452339689","-51.286884715357","-81.4509230292999","6.03738349890918","2.14923725928273"
"4848","50.8245480509272","156.476957639589","35.3289549401846","-78.0503466456618","5.36228667365894","2.10236210870732"
"4848","42.1273078456214","77.0185912145915","8.36818788301053","128.292417096159","-11.3636678743828","-15.126482781165"
"4861","24.2309851095732","-56.1632741161515","-23.0792893051741","61.5292086686754","-7.23627956711989","-14.8412833778682"
"4861","27.1025565381839","-20.4727235742115","-17.4441075102983","8.38756879833975","27.1907240007","-12.3058591520936"
"4869","46.319052092488","-210.190405959821","-69.699394642172","16.4495551865415","19.2783105786482","-12.1404056844468"
"4869","41.8995615152286","-140.941742069827","-52.5989508609111","-134.406385336632","21.4468780302544","4.04379384427179"
"4881","38.7285889046899","185.785469002483","-54.9863742074171","-84.1341983411186","19.2082787943311","3.86638441285608"
"4881","38.6427189507259","82.6886117893425","-51.6214128196621","58.0889613434659","21.7200738992255","-6.59842319363729"
"4889","38.6133135870063","59.9999963515781","-50.7263556388461","18.7150131627525","20.601984540582","-6.53619924285641"
"4890","38.6032439948432","55.0068929302145","-50.4882764264529","9.12892062297985","20.2094147400223","-6.48305505159273"
"4898","-14.442103119218","89.5066388249776","-36.5528953439697","6.79506348070584","20.0715804541308","-6.4376656954103"
"4898","-0.606986801063087","77.0990280448413","-40.8461773558605","104.592937999126","16.7254012040962","-15.5662648060417"
"4910","-166.597892444293","-12.8480528904962","3.0960126217435","72.4030845209793","17.5505318515995","-15.3628127753803"
"4910","-120.439927746087","16.3572144255357","-11.2156592971795","-125.139963265928","32.6802721478452","-4.87576272272345"
"4918","37.9165393847845","295.113599450147","-34.0965418363745","-65.2343511587227","28.9924407010122","-4.91898985960475"
"4922","6.14423252278803","203.459760638839","-29.1827032689068","149.595676507218","-8.57801563044466","-19.8528777507401"
"4930","-77.6685081673327","154.810554236438","-156.192151005039","87.8988013062791","0.230707272642792","-19.6076029720899"
"4931","-62.3693984154261","160.104280880941","-115.975813023089","34.2340880428425","-11.5165127109466","-19.3981188492535"
"4938","-57.1303611727892","161.269275928477","-105.278536606231","43.1687255066147","-6.64105228413707","-19.2192027863708"
"4939","-55.336301801046","161.525657406389","-102.433132760908","45.3439775576395","-4.92924051113956","-19.0663942721787"
"4951","-107.763841801772","-80.4882816809834","-37.5180264709392","45.8735705606766","-4.3282101899704","-18.9358836761297"
"4951","-93.7171632079019","2.25149930787798","-57.2510431885438","-140.19043409376","4.12727761506356","6.38583708995504"
"4959","-12.6592796831299","96.9970676288717","-20.8837325841135","-79.4901017509598","2.09606462264588","6.01259583205515"
"4959","-30.9017645412651","74.8478076240137","-35.2102716576632","31.8977172479058","-69.5194781598644","1.11013557099168"
"4971","68.9350646542984","46.834321981467","-4.34090103193985","4.01651000462507","-51.6642477883054","0.923045511505703"
"4971","39.1232543479599","53.6693697220487","-16.1298552985863","-15.0672876388713","-65.1818460535772","4.20101771400439"
"4980","80.2988178837813","-208.255946049592","50.0946298999672","-12.7134828688041","-57.9279791010123","4.00066607288294"
"4980","63.3990050416546","-117.89807912327","27.709899198007","-105.236889347652","-47.1366290240114","6.1213911796042"
"4988","57.6118219761524","-98.0129444073816","21.755710829507","-74.7628989957192","-48.3477027501424","5.93265869436192"
"4988","55.6300551869871","-93.6368054377503","20.1719366220078","-67.3436153051681","-48.7729200795578","5.77146617656911"
"5000","45.0060616202071","31.9212941328197","-14.9294707227866","-65.537295560193","-48.9222171647261","5.63379497619769"
"5000","47.3679742501261","-10.4470252004867","-4.26620986488641","-10.6448713414372","-32.4857136793331","-5.94299368065738"
"5008","24.9709584118832","-121.227018453157","-65.5881018642376","-28.2806068313518","-36.7147304879831","-5.83048977947794"
"5012","31.3013095235968","-88.6064683515351","-44.8993142231594","-9.73926944965053","-15.11507893746","-14.9017677433301"
"5021","-188.643872407335","-61.8484150018148","-209.328892034342","-18.2251431259105","-21.5312746236129","-14.6493589050461"
"5021","-129.962045697196","-66.9597468238908","-155.066057903171","-92.3091621742745","-7.29512758996267","-6.41233715967615"
"5029","166.945407538817","101.008664919469","209.636845950199","-69.3458665214338","-12.2967065259088","-6.37726700444622"
"5032","101.61859181845","42.973620037921","104.645374531326","36.3674613845401","-9.1061226273712","5.11189221875148"
"5037","79.2480339198622","30.2017970083533","76.7183466730357","5.10472652602208","-10.9858840032979","4.92454582807767"
"5041","71.5874453058966","27.391090756096","69.2899443994249","-2.50658712798749","-11.6458827258889","4.76453714502907"
"5049","1088.36314231244","352.499566297099","473.071607186318","-4.35965902978651","-11.8776133696825","4.62787703346318"
"5049","821.548483185714","241.046472541371","346.474823780243","98.8248803539011","-120.78586655649","-8.09396872611613"
"5061","-372.096665836949","-1059.69029076364","-1183.64685518257","64.9464795053511","-93.0243945438392","-7.95943444774816"
"5062","-115.849298613062","-628.944566656623","-727.648968568383","-496.610862622846","391.603850381164","54.0351837516245"
"5070","431.044156119931","56.7864911170968","-153.780837393653","-318.329197886631","273.760566376213","52.9835067938011"
"5070","341.322711772061","-124.304075907711","-262.135759943862","120.296624368041","126.855773928367","40.6260846962763"
"5082","-760.184892421802","1847.16307756906","1782.91457103179","2.08570488313068","139.27636784004","40.0718656980392"
"5082","-491.385883525231","1151.02557641269","1130.88425535889","702.268669671423","280.495393799352","35.0148360866493"
"5090","-399.338173480044","997.825988350664","957.44856059089","457.737190238043","247.078483404405","34.695731537338"
"5090","-367.817294889963","964.111221162588","911.31582796079","398.202866172362","235.345548332937","34.4231909321708"
"5098","-637.150792858446","-760.940024032444","491.55325549731","383.708471625818","231.226024302609","34.1904196300218"
"5099","-560.381533694244","-175.573558658544","614.899224016161","-304.869873970639","81.379322035704","-19.8666562129549"
"5111","-500.941431111733","649.200839185117","-2066.01206182394","-82.5131011998667","118.766988711281","-19.0356882609388"
"5111","-500.586723145989","439.709661485119","-1214.11649929353","-399.006838341709","-270.435630441808","46.9915015141712"
"5119","369.753396722815","213.833913225048","449.973566918294","-265.061296750995","-163.087672961554","46.383960655326"
"5123","142.793241896514","265.125239968451","63.6103736013074","868.898273374765","173.052526639427","9.19561166588116"
"5131","-999.080239547577","-1969.85759039435","626.698926318769","517.975270421023","110.073944245564","9.43381083720459"
"5131","-748.104148302755","-1199.71221447153","392.476708131987","-593.279146120517","-108.256503793587","-29.324050364948"
"5139","-662.159729943433","-1030.22564875245","330.175167597934","-279.828282399826","-65.9140086524269","-28.4263391596902"
"5139","-632.728866587143","-992.926592162221","313.603375293325","-203.514650540828","-51.0472319102437","-27.6596225595216"
"5148","-73.9984008101611","-249.60742701063","1002.79806995328","-184.935118366688","-45.8273918898319","-27.0047857461555"
"5151","-213.666371282323","-499.024528932772","786.119240496421","-3.00143805918576","-47.2924503532052","-32.1751064120238"
"5160","782.768020838706","-552.134039330406","-1022.86264411838","-59.7073508235194","-45.8068436835133","-31.5909705111884"
"5164","493.987671839359","-564.821895682891","-494.039703588548","-178.905363049008","-178.845510755124","-50.5727231997729"
"5172","-24.2649744911737","-1954.17891273955","125.209504446861","-147.925647489525","-144.556413238257","-49.7846461449172"
"5172","51.2642471923041","-1480.93592529901","13.925644246765","-927.311894229285","-3.90364835630295","2.45486356724989"
"5180","111.93726986123","3875.78192424743","306.850129507997","-669.063469336327","-32.5193773845588","2.07154992072326"
"5180","111.714179795237","2103.63950130921","198.766079724837","1145.07798738587","-16.1843040838844","23.5166620547552"
"5188","111.637784685773","1713.64257005583","170.016446744757","589.753986057886","-26.4489338129847","22.8324894270078"
"5189","111.611623894059","1627.81560467294","162.369237020959","454.553237536192","-30.0529245087378","22.2481517157232"
"5196","280.673718043398","172.524784456048","-66.8197473423746","421.636881756298","-31.3183134489985","21.7490809447198"
"5200","236.567453164566","659.257662231866","3.21751859332892","770.200020007702","45.7353360972233","-5.03334010778833"
"5210","-232.707584423907","627.538920024508","-411.654713210914","652.062185312939","25.7894669687071","-4.90765279698458"
"5213","-119.406438071872","698.558548715764","-272.007946846472","-1085.8106594484","106.177609495906","67.3926952652272"
"5221","-289.45999554846","2173.72978405297","-63.1961793641365","-535.918086617726","81.4025065806537","66.1429293411672"
"5221","-221.693248025892","1678.37200660126","-106.653648444147","1561.76887592963","84.2460227828495","52.4704028958787"
"5232","-32.7312242819642","-954.581313413476","384.648899251377","954.477663632651","78.2444032608987","51.7929804347921"
"5235","-68.0229441341542","-116.017650836433","225.332084760816","-372.011615123067","34.9148812308106","7.66942309537561"
"5239","-80.1082639769827","68.5257870004759","182.95487967507","-23.9624383630181","44.7015517324115","7.98440404639849"
"5239","-84.2467688816793","109.138422592155","171.682827088393","60.7745964271024","48.1377272556432","8.25342277143131"
"5253","-241.474539182193","-2035.63816209182","149.610462923339","81.4049140502133","49.3441949940354","8.48318610849428"
"5253","-201.315720632538","-1297.64101887352","154.739361960514","-1174.76606436122","-26.081249956384","10.971263535008"
"5268","-45.0136050689114","1353.11157582112","-339.822301726172","-762.596995756791","-6.5637056316921","11.0962790792497"
"5268","-77.4894054377063","538.465015173273","-185.372390250195","1017.00039096141","-3.00872979834156","26.1000207599527"
"5275","-106.843592692525","-671.393929301802","294.413946578373","494.266192864768","0.239449645550123","25.9144066602964"
"5275","-105.895659953247","-358.648644209211","169.033897166375","-353.180393146659","-36.544612031019","-6.32990078692553"
"5284","356.888006587249","1078.94298207286","-58.5251063186161","-149.502130523232","-26.4597798970871","-5.86909784264739"
"5284","236.363950848485","626.315027224853","-7.05427639164012","98.5746551946853","-50.9500863588983","17.4428774910184"
"5291","195.091613641392","526.704797761725","6.63661946717877","45.9721295334706","-42.5488219152608","17.3531541661423"
"5292","180.958287243646","504.783487539008","10.2783060240685","33.1653701884383","-39.599073148231","17.2765233274028"
"5308","-143.790490975165","265.008600968862","-451.732818899264","30.0474004168366","-38.5633935970197","17.2110745106761"
"5309","-61.9976769604241","344.241132201344","-307.624682230692","329.656148124655","-20.0619433873865","27.4684619031317"
"5311","123.479645552503","-74.4047313836313","400.033703020436","231.599739355858","-24.5659414688349","27.2290846313476"
"5311","91.9946223104609","78.4635076660489","202.266091537166","-468.540164150583","43.1061459981185","46.5052885447766"
"5321","-43.1040803235924","667.443242007787","43.8868233510229","-253.998200896001","24.8663380391095","45.9686961998211"
"5327","-14.3673692344729","485.060526708228","62.7589992998315","520.171571061333","6.91995474274193","34.0511972322118"
"5334","84.9814534341727","-119.314129838964","-29.3255036100183","297.653128496633","7.61884110011698","33.872707493595"
"5334","65.0025298506154","64.680611481022","2.18063566656804","13.3717901991749","16.1086869144817","7.36408807995521"
"5341","58.160934070246","105.172494950851","10.5610575941173","75.159853317907","14.089537284233","7.72362371574826"
"5341","55.8180934949664","114.083579121908","12.790193670334","90.2029495344964","13.3805982700843","8.03069567686468"
"5351","-7.97144529375502","-547.86891492684","-179.09161487243","93.8653841919272","13.1316843123207","8.2929594969611"
"5351","8.18442293491165","-320.545378608866","-119.130890160741","-393.560284597713","14.6931809856186","30.2894460122591"
"5361","-210.053661768389","649.705268951947","25.1347566885856","-234.230313466364","14.2414345155107","30.0761908561311"
"5361","-149.787255556736","346.22917662295","-10.4915479616119","359.626359172845","35.5184225414444","8.12156162856282"
"5373","-92.6832821533339","42.7123540471749","32.0522947578529","188.208380593532","29.9889372022626","8.37056622967095"
"5373","-95.1285598058009","108.917141734571","13.3686718384737","-29.179242017302","-18.1214917266267","-1.7300499582838"
"5381","92.9958424474457","-419.391496334924","-54.0252878936859","17.8949539006632","-7.01343452480155","-1.35677763849842"
"5381","43.417286939059","-230.656839873253","-35.9516295811132","-223.585583138052","-49.2822938987761","13.8589950270011"
"5389","26.4395736631473","-189.121839137152","-31.1441575800522","-138.37711615838","-36.1232165549558","13.8544722124278"
"5389","20.6257143216763","-179.981195237985","-29.8654022422406","-117.63202232399","-31.5029629692495","13.8506093699095"
"5397","15.3196938111917","5.36309426440626","-95.4175165260602","-112.581363235143","-29.8807562872394","13.8473101958931"
"5401","15.50269664499","-56.8480260182259","-74.8539396662824","-28.7944681569847","18.5066892424753","20.7200163562503"
"5410","63.6345851128222","41.5966533501164","88.4104437670402","-55.3954742295006","6.49589470655158","20.5898527472458"
"5414","51.1169007723977","0.261459945187502","40.8376757392296","117.29496191216","-27.4012490446457","-17.336698845074"
"5422","89.9268795207059","32.1031577259363","-49.8466633162631","57.3386628382086","-21.3027977527868","-16.7289832709219"
"5422","77.2169942623818","16.1105879751374","-28.9680898367994","-1.17189638315508","-14.2149075977775","-12.7721839916877"
"5430","-1.725557530243","-40.8067846122888","-94.508803934444","9.58295774842576","-14.7262946769671","-12.3927634462433"
"5434","16.2413029226139","-23.3326405236315","-70.9421947015354","6.93175335234223","-8.31027748856779","-18.94423211122"
"5438","22.3938864763103","-19.487090367704","-64.673634563473","9.28628364821036","-10.057564350243","-18.539706191862"
"5439","24.5007812498597","-18.640796785213","-63.0062395718493","9.85952423867129","-10.6710502487588","-18.1942089587276"
"5446","89.8670819423685","129.279565269662","13.7335711631931","9.999087010545","-10.8864498811449","-17.8991269073898"
"5450","73.2511611008812","78.8325285781317","-9.85415340838416","38.137660203859","5.5268444898986","-18.7930240744014"
"5463","75.8489908988975","-183.239401674714","28.9558441388004","28.9883566422822","1.28967878212806","-18.5564831832744"
"5463","71.7385934498003","-99.9138003253605","13.2790434237811","-87.4140751887292","16.2909000537309","10.2935578263885"
"5471","42.1525174559701","-204.391372156704","-16.9009810312287","-50.7537397371076","11.5579445857433","9.93378201886733"
"5471","49.0210420623876","-158.383842666762","-9.92866530242382","-101.550575060256","-1.64607858743874","17.6479495015768"
"5483","-125.985745204905","323.422293024682","-108.646464692654","-79.9177159398142","0.71788699938158","17.2364606294684"
"5483","-78.9151849615751","164.453790237627","-76.9047378306794","92.2201128950782","29.5790623910004","21.4686990933593"
"5487","-62.7963112397983","129.469452945986","-68.4616511840698","39.1292744867295","22.7124437525324","21.0833665578311"
"5491","-57.2765534821794","121.770419274047","-66.2158467124941","26.2036291422314","20.3015209684241","20.7542619974289"
"5500","-0.686905775820229","114.736298828539","-25.7363236509143","23.0567150496962","19.455027377187","20.4731805893171"
"5500","-14.3083094594975","116.188293796716","-37.9690417664564","108.360880182938","20.8067092304817","9.91982888864329"
"5512","30.7539482678581","-292.87586346193","-4.8087220955064","80.1292729598623","20.2812951582217","9.90642915726737"
"5512","16.1850975503511","-152.898969929929","-16.9882992675819","-158.6069812939","-11.2321351798737","6.45722276506733"
"5520","14.5112493732772","127.095945009472","21.388175640988","-84.7303834828701","-3.29674371687491","6.51132682122883"
"5520","11.9380556985853","48.7146705585559","7.59606080909635","-66.7441784955076","-0.510566547840963","6.5575359781966"
"5533","6.08421153836569","95.5426835606103","33.4055645992174","-62.3652062711109","0.467681753259534","6.5970022648147"
"5533","7.07961727992129","69.848165293402","23.2707196600482","121.380777169992","-17.3266628487478","-8.26625888115989"
"5541","63.7775022351842","42.8344006940818","-7.16918839568783","62.1160928409949","-12.5743945327118","-7.96066325810719"
"5541","49.1931633864706","48.8894579180555","0.734000036782269","-6.76530697041498","-4.31026732274365","3.75954618005192"
"5553","22.650621345269","-56.5737479294721","-90.8001666483054","7.46463304396512","-5.4086684965524","3.7695350061448"
"5553","26.5613757275115","-19.7831277785735","-61.1476416236896","10.9290943976294","-5.79432562351026","3.77806625621359"
"5561","36.1883737391376","-47.285166386675","12.6319859685948","11.7725619357149","-5.92973281636463","3.78535262070321"
"5561","34.4850492931786","-33.3375640503958","-5.7431274830147","-47.7443491270609","2.26718609543202","14.1048616292512"
"5573","-39.0308492093645","21.3498416451782","-19.3008180356184","-28.2345042547768","0.145187569582324","13.9185411467868"
"5573","-20.2056820216289","4.38494679441398","-17.9070728736525","-21.7280451862533","-3.89764705413639","20.6349325874994"
"5582","55.858312932051","-116.823854775732","-41.8124398127775","-21.1439642998041","-3.31711748345384","20.3712638047817"
"5582","39.9057175750831","-77.4983816316951","-34.1711072307062","17.6420555957739","0.184495496734474","17.8542284373764"
"5590","41.0731376500067","7.69296203285198","-56.4146577806476","5.08500945607779","-0.586061168845994","17.7044805138815"
"5594","37.4729097510967","-16.5589045392264","-48.3312931747471","7.29744709996922","-2.50550184383632","17.5765839051371"
"5602","135.693605725838","141.857445620476","69.9972766059033","4.83609341238572","-2.17943227447851","17.4673500530305"
"5602","109.328365692525","84.7202702010254","34.4718832576373","49.9068119239213","-2.06494673285179","3.62300784243527"
"5611","-7.44152160104278","118.424199373432","-23.5298209459656","34.8798562450711","-2.02474997586101","3.79884108467544"
"5614","17.5717211124252","99.8414525119395","-10.9578855995212","45.2736486320173","4.58493255322628","-1.78058663853068"
"5622","-33.53486377693","206.10753700878","-63.102049470204","39.8041506584627","2.90564308691255","-1.54586062616501"
"5622","-15.0358364427379","167.493607063673","-44.9720476460941","38.4725312465624","2.31603159854946","-1.34538598675083"
"5631","-33.5644074091584","-13.6573194901871","-104.307836582445","38.1483314266295","2.10901445577368","-1.17416473758806"
"5635","-24.9093434819138","43.476637840072","-83.0907588353199","-11.1136401587261","25.1208211211607","8.13943701745508"
"5639","-21.9454976773181","56.0501577449898","-77.4471583284607","4.89290121879863","19.2004439914727","8.09399192456468"
"5639","-20.930556363509","58.8172232553572","-75.9459984109344","-35.1235304944549","8.87729247996953","18.3684640844162"
"5647","49.0344930850805","-220.022699056816","-20.058485502678","-19.8660438881877","10.2527543348836","18.1436785596167"
"5651","30.9933708033353","-124.387244369363","-37.1927815666643","-133.839404063355","-7.40212552363545","21.3894558437077"
"5663","-193.982475884696","302.483174503035","-182.204932278463","-94.5876799714121","-2.60089006010534","21.1616071876892"
"5663","-139.023353334802","168.424920520865","-139.777192653422","-20.0394688694843","0.73375303998533","28.9884509258332"
"5672","-410.275999609018","-234.862513086265","-312.296408515118","-38.8897510149859","0.904571961228326","28.6731965164122"
"5672","-328.163934857493","-113.614330933423","-252.185363897391","112.852714933761","9.20900922440542","23.8202616250442"
"5684","641.448279853403","-286.283199709095","1241.17748035305","60.7963639201862","7.12476122129491","23.6754701609781"
"5684","405.48292671597","-212.282588513216","786.401990023269","-83.6177105491943","8.04185795055223","15.5303621923284"
"5688","324.678795422978","-195.99720935649","665.434757008339","-43.7771686648832","7.36385768815393","15.5737936955192"
"5692","297.00817536287","-192.413271737701","633.25828361775","-225.540030300593","-39.0431773981165","27.0700941733251"
"5700","914.090060439639","304.975674796024","281.366230526173","-160.792529540364","-27.3370454754276","26.8888469807253"
"5700","747.403988511228","135.436494804998","385.765302403237","188.713143524488","-204.605083520487","3.81563444096141"
"5713","-140.113329273816","-1804.61837671907","-871.364209426435","83.8047810152981","-156.845259408915","4.10928013699093"
"5713","56.9646545590974","-1162.56794722994","-464.752235652672","221.621452569276","46.2484114689914","-27.7257014167882"
"5721","678.076988958366","1789.23674221902","591.905490099653","162.174688352905","4.5561663055093","-26.9153016806429"
"5725","556.771106756517","859.842979078786","325.969364574106","-568.965557224608","98.7445881173919","28.7810353309619"
"5733","-1049.50497647077","1552.39476133589","229.222036686448","-338.971024735515","65.8148697365464","28.3501264877523"
"5734","-655.559218740377","1200.80523710709","218.48789576414","270.333304253637","-90.849529486227","-23.5843332313684"
"5741","-520.656173413108","1123.43062334285","215.632686207393","103.676255683515","-57.8556088145373","-22.9404826859146"
"5741","-474.45988551952","1106.4027244932","214.87321959782","1199.58101444855","92.2357631903459","-47.6008375937608"
"5750","-82.3744280447433","303.467202187033","320.445615324731","819.393079727914","60.9340019475492","-46.6627374153903"
"5750","-175.108425165022","575.764480306165","287.527165156233","-137.384839318668","204.93958679585","-50.4452080385962"
"5762","600.367082169164","-902.169584968741","-196.346758056032","121.675308424295","161.501058726825","-49.6757380793003"
"5763","378.921426804818","-363.419825915177","-51.0539792315199","-726.895972272756","-69.7554328881591","-5.47356487270086"
"5770","-326.783118753819","134.268208151964","6.66700005104229","-414.491530991448","-19.9513713787681","-5.72140163519993"
"5774","-188.445049182094","30.7948486157152","11.0203937567153","-129.404739917908","-79.9627184805662","43.3415141744939"
"5783","-86.3730111025604","-79.1931512082357","397.127854914258","-178.996705230738","-54.0331654720765","42.2451372813955"
"5783","-84.4193950031741","-54.398306420828","277.829852308133","242.794177893487","57.3022222837512","20.6821726700009"
"5791","-83.7503974164861","-48.941683266375","246.097383020911","98.4845766186471","34.3929359451037","20.2656899308155"
"5791","-83.5213054412844","-47.7408394415799","237.656758827152","98.4812974005043","42.83823159643","31.3691871527206"
"5799","-65.2097022953498","1454.78361394501","-685.345948835367","78.4804990328012","35.8034400602069","30.8524548117397"
"5799","-69.9390648262656","941.445483086652","-399.858484109108","328.308939019829","31.6845781897492","44.1621722247679"
"5811","236.747446365059","-2286.40125895812","154.665117933364","244.132876050248","31.2384140075052","43.5297269844201"
"5815","155.769377706226","-1246.75631149759","26.1646802600567","-141.720598801583","-94.2340512930512","28.0926000801124"
"5823","-157.061012040232","1445.46117124326","229.54334293534","-27.661574691176","-62.2884019565157","27.9080688109026"
"5823","-92.1868572094932","653.939824733661","146.640704383438","-897.482940726362","-56.0187148475036","33.4800677289124"
"5832","49.3729636668573","1456.93012085693","-40.141478534783","-598.25210519052","-50.8173793290774","33.2389969274542"
"5835","25.8488021737204","1084.64489685958","5.17571242086597","208.832018855171","-90.2134574068722","0.947325056558896"
"5840","17.7931727833248","1002.71576236641","17.2297815483356","-12.6730026637773","-79.045724384707","1.36767502478519"
"5840","15.0345977372243","984.685546160877","20.4360831629263","980.29491774792","37.0000281838443","-6.29475731829155"
"5848","105.255713171052","-179.796169649933","-23.7952363165941","626.045689867711","9.74458727427552","-5.83908253189783"
"5848","81.1510914966545","215.93532179875","-9.56047090774806","-173.354921108152","-54.2384537063042","-43.2652816499061"
