Timer,AX,AY,AZ,GX,GY,GZ
"1003","4.94881216363452","-1.66727246000765","-26.2352029956882","-1.0944673853552","1.04650780445416","0.0404218001038268"
"1004","5.06618659733861","-1.83279319193579","-26.7465677149127","2.41130855057445","2.70860155822576","1.54032301434724"
"1012","-6.71187644468554","-0.123672037015965","-14.4182541982171","1.26147745008217","2.30192646638323","1.37120398261686"
"1012","-3.40623892750105","-0.694259884297675","-18.6623364298474","0.97477133541339","-2.68229682515988","2.54531363882205"
"1024","4.37376718401696","-2.58621748330949","-39.1501058976136","0.902985624345238","-1.62797221172696","2.43731804528015"
"1024","2.82643353568105","-2.06214125437864","-32.7356773633025","-2.61409300095994","2.00183952148937","-2.37513282224595"
"1032","2.33860949427628","5.06348192513151","-27.7476374210217","-1.4949452846758","1.421747862319","-2.30654323281768"
"1032","2.18481286628429","2.85594908218232","-28.63121090556","7.53309482466406","-0.41398037497311","2.34844004578884"
"1044","8.87524104363404","-4.69315160643471","-14.619538426667","4.79416844519101","-0.132118399845505","2.30530337097643"
"1044","6.98453937138873","-2.59214555884437","-19.4834362648853","-1.14044563804175","-1.63065260527788","-2.26011620746575"
"1052","8.07318481126841","3.18171040764935","-24.1244358468574","0.373229620803299","-1.21688086547624","-2.22194990938004"
"1053","7.41640320569319","1.63413739407706","-23.1631875621903","-2.74677002931654","-1.0550128948715","0.054740750763469"
"1061","-6.26849259696235","4.74173709674754","-37.1574748137166","-1.52817428027034","-0.991689961981652","0.0531082777409616"
"1065","-2.5829441100732","3.52346107763096","-32.2896858020244","2.27612294028056","0.641880911111821","2.28391573749257"
"1073","25.5346657913782","-2.02834208351147","-15.2145601047276","1.22890959200857","0.280935682261961","2.25622496890896"
"1073","18.3993342794566","-0.424911166871817","-20.3927937386002","-2.53246488767007","0.139733500941345","1.11971728744205"
"1081","-10.8058923497287","3.47533095174039","-37.5374033645442","-1.47450153428866","0.0844950480787953","1.1109781256515"
"1085","-4.01345490907573","2.45644598813026","-32.3747216713249","4.03911517681656","0.0628857029106652","-0.00670004772086619"
"1093","3.18219083716638","2.20014309006681","-24.1144894558536","2.42000108044867","0.054432102666694","-0.00149315564013728"
"1094","2.45076965028931","2.13566949598906","-26.2656786056654","-1.48460600365306","0.0511250447003904","-2.21389362244709"
"1102","12.3285474029349","-3.12589196379164","-14.3139040490867","-0.462515271592967","0.0498313198876643","-2.18636868790825"
"1105","9.44272479863167","-1.44945006764523","-18.6388496556013","3.2925672461291","0.049325213279278","0.0532344975047243"
"1114","-1.57546521386672","-1.02773718369523","-24.9353998916401","2.23302807019287","0.0491272238022789","0.0519224365652759"
"1114","0.950818416150741","-0.921654320401121","-23.3446980919183","0.218116477118468","0.0490497700951887","-2.16320600483297"
"1122","6.80146935725174","4.35037404846877","-30.0933833736549","0.713481649975466","0.049019470117468","-2.14140285018489"
"1122","5.64601024156236","2.67656512780943","-27.6038787505296","-2.66155387168632","1.65780648693377","-3.22856126912861"
"1134","0.227540588893793","2.25551457500767","-35.9275726796379","-1.50683188434422","1.28716578551695","-3.19986118356782"
"1134","1.51925395457567","2.14959832266458","-32.7905875741779","0.531918254175987","1.1421707243735","-2.06787945613226"
"1142","5.295951681382","2.12295484141095","-23.2075688479775","0.042523447612842","1.08544849263903","-2.05630798041787"
"1143","4.48663515146206","2.11625261132247","-26.0626910120527","-1.8295954262802","2.67205756170165","2.37886646958327"
"1151","5.91621002343889","0.366118990904949","-24.9255471037245","-1.29846780140841","2.29274082206698","2.34300008277577"
"1155","5.36691359900517","0.925868781183597","-25.671030772815","-6.41409650456251","0.535552814768717","1.20484212951663"
"1163","-6.59936629061997","2.81512281019113","-34.7187820042929","-4.69530626841373","0.848138881045828","1.18746218233154"
"1163","-3.3719879547256","2.29036908440936","-31.7438559017591","0.983814607193287","-3.85597370727287","0.0658802379155524"
"1171","6.06915574624484","5.6552613736021","-25.7494679587187","-0.593848953214679","-2.69622786652097","0.0632422479481733"
"1175","4.04567506459175","4.50170790701219","-27.4077999304793","-2.73852485460671","5.80146036766903","-2.15113527876844"
"1183","1.72300123212142","-1.0338141445103","-24.22661030609","-2.27565916684984","4.12576560555683","-2.13076977245079"
"1184","1.99072940663738","0.573712323372451","-25.5145942585191","1.33936537783958","3.47023192142165","0.0994038405764357"
"1192","2.07513635019768","-4.26725360624718","-31.1314096504015","0.244748667358275","3.21378640356721","0.093214475348304"
"1196","2.10174741619427","-2.48500991976827","-29.3885691308054","-8.77714766397091","-3.32173085355642","-1.01828667878473"
"1204","2.11013711499872","1.46021296974291","-20.1175888037493","-6.03668257920541","-1.87843258835867","-1.0120045253212"
"1204","2.11278214417712","0.45264302436378","-23.042551616727","-5.35033280133155","0.294986193824265","0.0995694058871992"
"1212","5.48307393884225","1.94763410437481","-18.3686808646527","-5.17843642498061","0.145230076938806","0.0933637428284942"
"1212","4.54562938265524","1.3237026107037","-20.3225719014413","7.11146428149302","1.69544418502085","-2.12408635961922"
"1224","10.9889960371373","2.9151988414365","-27.8646103873851","3.18947124712516","1.30188969553162","-2.10659567497444"
"1224","9.02040302867441","2.31554344437242","-25.5526746235495","-1.29189211690629","1.14793073460629","0.120935240616308"
"1233","-8.4475268301456","2.16469872529605","-35.6922914496401","-0.414250057743994","1.08770181514974","0.112466477104957"
"1233","-3.95465947456901","2.12675338304676","-31.9617474547288","-1.94399440026572","-0.544658676390004","1.21083912709415"
"1245","15.9938299630845","-1.37968717413","-22.2458779700487","-1.32711903685762","-0.18323994491826","1.19284583680521"
"1245","11.2830112385386","-0.261740505751752","-25.0712653860774","-4.67172231810964","1.56694634136553","-2.14106818067217"
"1253","4.74363961735706","-1.72896606267253","-25.7036455388963","-3.50937857285442","1.25162119391703","-2.12177955809617"
"1253","5.68196503885279","-1.09805008666197","-25.8451852992174","2.03038021872293","-0.480533230220426","0.107348040646675"
"1261","-4.13058179782582","4.30600128047877","-27.6530441385125","0.417813409246203","-0.158153997927909","0.100319071469615"
"1265","-1.2241937739422","2.66540305413368","-27.0576803461287","1.7634957682979","-4.85843548863708","0.0940347760366413"
"1274","9.80047992004751","-1.24418858825301","-32.2529635516924","1.10052206115539","-3.69719091817196","0.0884162556730594"
"1274","7.27624040712266","-0.227655519237945","-30.4157754085137","-4.31416945018516","1.58348588037146","0.0833929725877175"
"1282","4.7956918105006","-3.46883956326057","-24.6760367572917","-2.67027952680087","0.649292610060665","0.0789018634383418"
"1286","5.01364664184323","-2.28416699796583","-26.3913645085203","-0.509017225614564","-1.32496372293659","-1.03105326894638"
"1294","1.71290359754804","1.51073547694638","-33.8800075959699","-0.967728847743006","-1.09729503091633","-1.02341996628106"
"1294","2.67227486151535","0.465352079336776","-31.5561208373546","-1.0826132232843","2.20936695902532","-3.22847460182897"
"1302","-5.44890788347592","3.69927875565553","-27.4836282804942","-1.11138602760583","1.50293686535118","-3.19992657945563"
"1303","-3.00928172100236","2.51278058252355","-28.5721201981509","-1.11859217957058","-6.81741373642669","0.143415606238379"
"1314","9.55296441609584","-1.28258112831433","-16.3824920168772","-1.12039696111215","-5.07234429215914","0.132565751006077"
"1315","6.51347698673474","-0.237313252577015","-20.6542010616799","-1.1208489688451","-4.38967115398539","0.122865326769331"
"1323","7.23994353035096","-1.72282132994605","-30.4911944796687","-1.12096217423086","-4.12260865104895","0.114192562217165"
"1323","6.46897740269676","-1.09650436475825","-27.6929171056192","0.628559364948326","0.808263112431978","0.106438586803295"
"1335","2.85645620609258","-0.938952865798882","-28.8427840539097","0.0667272242932346","-0.262774282804353","0.0995060639349109"
"1335","3.71753284360581","-0.899320417367757","-28.1001480643658","-0.0739836963036651","4.14463128872857","1.19924732852697"
"1343","2.30427643526545","2.60754453531898","-26.1577514540245","-0.10922476163706","2.86881332779102","1.18248270962221"
"1344","2.85871759891703","1.48970462462489","-26.72300291005","5.13059878416687","-2.45668471055002","0.061554784865551"
"1352","3.03351684853824","-4.03683359829754","-23.2971592535579","3.44291315983732","-1.54002555988701","0.0593772246686137"
"1356","3.08862599207099","-2.42704722729704","-24.5303845724165","-9.22661712828547","-2.79022633470962","0.0574303538487851"
"1364","3.10600030979543","3.22324127948652","-30.1349438493078","-5.39970236383892","-2.27930629029479","0.0556897332872543"
"1364","3.11147792924365","1.64458458212199","-28.389360157633","-4.4412511457878","-2.07943379168317","0.0541335129417433"
"1372","1.42847591733121","-2.24942552362885","-27.9986624163472","-4.2012069342161","-2.00124344441072","0.0527421575577519"
"1376","1.89787410043913","-1.22897288259273","-27.9112161794388","4.60666162202326","1.24694244818522","1.15743751563984"
"1384","5.41531965354432","-4.46917094909674","-24.3392852768364","1.81259325776029","0.517636439163252","1.14510220529754"
"1384","4.52426841776818","-3.28425035884878","-25.5398132478921","1.11281853271929","-4.59406550614021","1.1340736894023"
"1393","0.873887862648573","5.75605748356256","-31.1370541819313","0.937559876893453","-3.59376908233446","1.12421352698976"
"1393","1.72302854032784","3.03016808696762","-29.3898324937308","-0.855883563957478","0.0151457491950675","-1.09648067421642"
"1405","7.0449248564197","-6.39777406647791","-21.8940508833933","-0.305051668342464","-0.573042691365184","-1.0819160667138"
"1405","5.72276471320087","-3.76939498837356","-24.2163398929109","-1.91664565178994","4.02325393675889","0.0370448837734"
"1413","5.30592589230308","2.13712289866505","-19.4075782760406","-1.32026953983398","2.82133037056857","0.0374638860456471"
"1413","5.17450867820944","0.622921301801444","-21.3312779467851","-1.17090707787608","2.35113651354387","0.0378384995061892"
"1425","0.0788897944136178","-3.2548749725127","-37.7474555448658","-1.13349923306996","2.16719614545164","0.0381734266755028"
"1425","1.4723886620357","-2.230343704218","-32.4217356946543","2.3749693486819","2.09523846563847","2.25035148409098"
"1433","10.3353632515381","5.02117016999689","-24.1250121668592","1.25366568571946","2.0670885399979","2.22817293317606"
"1434","8.12960258516459","2.84530546268316","-26.2680338060729","4.47193484460771","-1.16152148312007","-2.21541326042306"
"1441","2.3800032563976","2.29796160130895","-23.1953277560901","3.27795070469675","-0.424557371841535","-2.18824901766029"
"1446","3.5673210203386","2.16027597150989","-24.5075925766835","-5.76883221011641","-0.136256178888664","-1.05802323040837"
"1454","7.31110583583099","0.377193170229911","-12.3680494003025","-3.03459997288516","-0.0234724264833383","-1.0475327781556"
"1454","6.49141281769607","0.928654516920245","-16.6509685053144","1.14928857060804","1.62944757508233","0.0677856282517458"
"1462","9.60244523006961","-4.17796706645081","-37.1475468439976","0.197143910360065","1.27607174716082","0.0649479774017908"
"1466","8.5832636953665","-2.46254968164012","-30.7351050912483","-0.0413208231254532","1.13783072403456","0.0624109453126312"
"1474","-5.21588631463777","3.2143105539763","-29.2998679720693","-0.101044341505013","1.08375067960311","0.060142684641199"
"1475","-1.56635887203809","1.64233803721081","-28.978632213883","1.63354778831599","1.06259450512199","2.26999333240319"
"1483","8.00787622242549","-2.24999064726099","-11.1449398769005","1.06797657546701","1.05431818576277","2.2457339378693"
"1487","6.0263554045755","-1.22911504076549","-17.1533906042568","2.67587909531373","2.6598793504807","-1.0937733488578"
"1495","3.71691030255996","-2.72075905057078","-25.6029234260884","2.07857845589837","2.28797669207842","-1.07949555392217"
"1495","3.98880911285935","-2.09598559355308","-23.4941036680633","-1.57011533702275","0.533689081734687","-2.17266964383866"
"1503","-0.979655903139566","1.55807294980666","-24.7982854937085","-0.483931093414849","0.847409786577274","-2.15003363023504"
"1503","0.453930898305739","0.477259931463771","-24.090188366046","1.53765375974943","0.970137680752774","-1.02385635502502"
"1515","2.59062826586615","0.205378886243061","-25.7078808932751","1.04395990560613","1.01814897161198","-1.01698551783877"
"1515","2.26426709538114","0.13698657277552","-25.0699539462587","-2.57878555670024","-0.571867827362652","-1.01084257237011"
"1523","5.53083275895757","-1.62866533254809","-17.8224554471051","-1.48610255087396","-0.193884195519609","-1.00535040627616"
"1524","4.56068635617425","-1.0728192031698","-20.2003153531666","0.537109917993153","-4.87241318230286","1.21143853384738"
"1536","0.885369384446498","0.815452850798797","-33.165784781404","0.0438237003792487","-3.70265900772599","1.19338239400207"
"1536","1.72664833179781","0.290452106896922","-29.0677250575881","-0.0797198863534055","-3.24504985304538","-1.03463950121576"
"1544","3.67660817835871","3.65528225810322","-33.4790324530271","-0.110661391057507","-3.06603263472834","-1.02662630501587"
"1545","3.29137407294972","2.50171316055734","-31.4663743053455","1.63113919721193","-2.99600089666939","0.0864772838848331"
"1552","11.593565644621","-1.28536516422156","-18.582644585604","1.06737334356362","-2.968604401619","0.0816594520305396"
"1556","9.2110063255796","-0.238013583327611","-22.69899934714","-2.57292165862296","0.259710878600875","-1.02858728720145"
"1565","-3.33324828768494","0.0254501589611346","-23.6203246982721","-1.48463393696416","-0.477368536432395","-1.02121525834903"
"1565","-0.288088651655501","0.0917250801691057","-23.826536371418","-1.21207215897411","2.45188290405926","-3.22650282738191"
"1573","2.35669098082899","3.60529200925962","-38.0821253128802","-1.14380903209818","1.59780937704253","-3.19816376372736"
"1573","2.19051344113656","2.48913799642092","-33.2728210249735","0.622837366916123","-0.345104021858953","1.25093029975517"
"1585","12.2464961537644","0.459919182545435","-21.539323357398","0.06529414926512","-0.105173938609228","1.22869042967238"
"1585","9.41685641488644","0.949464439000727","-24.9131238471903","5.17430706434105","-0.0113130189693645","-2.10901127943109"
"1593","1.78583712707465","-0.675836964335869","-23.8920708781153","3.45385990335015","0.0254054788376457","-2.09311918872584"
"1597","3.37999763895045","-0.0846853375867308","-24.6635381009971","1.2734238336973","0.03976979666424","-0.972971389932798"
"1605","-2.85632548450542","-1.68442742058971","-28.3885670506804","1.72733338343257","0.0453891340267838","-0.971491270591559"
"1605","-0.822457643950466","-1.08684628696981","-27.2223055897182","-5.15718448649949","0.047587425151728","-0.970167954064847"
"1614","16.6660514799329","-4.4334186712135","-25.185092835285","-2.8814127341295","0.0484473991234315","-0.968984828771449"
"1614","12.1796721709277","-3.27525678964213","-25.7291224767903","1.18765433117822","0.0487838219127589","-0.96792704294952"
"1626","5.71105980067106","0.512976860711257","-18.7461703134186","0.206752619258306","0.0489154308880337","-0.966981318222547"
"1626","6.67169356573199","-0.534084095329523","-21.1832411621283","-1.7884642124195","1.65776578666968","1.24574282735182"
"1634","-1.44909114920978","0.950972928491124","-19.9525287211461","-1.28816648443345","1.28714986352765","1.22405251449102"
"1634","0.990660500616709","0.324542499727195","-20.6770698169657","-4.66196664712789","1.1421644956733","1.20466005830283"
"1646","3.44457251965418","0.166962458739603","-33.2724922930762","-3.50693526399835","1.08544605596447","1.18732202544807"
"1646","3.21821994644189","0.127322830494454","-29.0916084061708","0.281442254210733","1.06325773826999","1.17182077174632"
"1655","11.5705022661084","1.86579904795015","-21.0511228503157","-0.769758185240367","1.05457764331959","1.15796171009045"
"1655","9.20373510994478","1.30311681066352","-23.2514958484738","0.716518442103533","1.05118198036823","1.1455708677962"
"1663","0.0339172020337912","-0.586874882254471","-21.9678055319427","0.0887565847120452","1.04985359318525","1.13449270272463"
"1667","2.14293905223452","-0.0623067175564269","-22.6804890832551","-0.0684664405961553","-2.16826381378519","-3.29916906977231"
"1675","-10.6699789818782","5.31499260866153","-35.2732575956065","-0.107842964346383","-1.4271949792152","-3.26313179489262"
"1675","-6.70952114550521","3.66766484378902","-31.0917796967089","-1.8672547104731","0.471510856328617","-2.1249729787388"
"1683","-10.5150902724348","-0.243619629769781","-24.8273405015676","-1.30789957322129","0.21428672434775","-2.10738991670023"
"1687","-8.71487605924015","0.772487603600586","-26.425229416527","0.581740873084791","0.11366035330548","-2.09166959203615"
"1696","-18.2556943087885","2.77653941586601","-25.0066906985192","0.0550015279252854","0.0742952032662529","-2.07761466764345"
"1696","-15.2636381270463","2.28066334123339","-25.6891923879568","-1.82647028971183","-3.15870222830741","0.146829898092944"
"1704","-16.0050583700555","10.898162847424","-38.275205575245","-1.29768511061572","-2.42345447617364","0.135618352226598"
"1704","-15.2388067109587","8.06591502395156","-34.0922156948501","2.33384897783317","-6.9622213354628","0.125594549738809"
"1716","5.21951761782899","3.85656113545447","-6.51328633233958","1.24336708437803","-5.73779205870724","0.116632661921374"
"1716","-0.330564923613076","4.79768830964125","-15.3405514125531","-7.77749368157824","-6.86759281248433","-0.997319114861779"
"1724","-29.0360084402358","-35.1798650974599","-52.8398622058635","-5.03676923935272","-6.30957214380876","-0.993259614459981"
"1725","-22.0860038512962","-22.236312254577","-41.232983713925","-7.84945428833553","-6.09127382777214","-3.20150878497751"
"1736","-24.9490554248492","-3.24430230409543","-33.3065862559523","-6.5538915640849","-6.00587527990558","-3.17581757280815"
"1737","-22.8516927099091","-7.4668177359544","-34.5324945305699","4.26788160967974","-10.7988638821025","0.164969845597287"
"1745","31.7208713387292","26.4399517961282","-9.94036778253005","0.978195875424224","-9.67388643839175","0.151836566297168"
"1745","16.926021084072","14.9692790562444","-18.4361410761884","7.15249329220572","-17.2777883424237","0.140094617480232"
"1753","0.468530434477905","-3.65222445594302","-45.2041812727436","4.6988467502713","-15.2524433581556","0.129596602561878"
"1757","2.279960023777","0.663492737918099","-37.1954224222326","-11.6616183157481","-6.41613176106967","2.33208935031682"
"1765","21.3830697526724","-12.2384597677582","-24.7458206360649","-6.75909856696479","-7.95935668104094","2.30125154681242"
"1765","16.4057272769629","-7.4839761272941","-27.9593422099887","10.2146870594608","-6.95426914306458","2.27368067878312"
"1773","16.5212442191003","-23.7724512235585","-35.783312068264","5.46577351158856","-7.56107776266216","2.24903064935478"
"1777","15.5576633671145","-17.8698552694625","-33.5344783779026","-6.22089175070857","-2.97206536961453","1.12105272178182"
"1786","69.1652005135154","2.84788080847856","-9.94081180860319","-3.14781833388381","-4.17683853679647","1.11257199206219"
"1786","54.0661052109898","-2.94052417565674","-17.6600611455232","11.6182323686916","-4.64814716094857","1.10498970495608"
"1794","93.1087501479613","-6.14505866028279","-12.2830715845733","7.31639136955834","-4.83252362720049","1.09821068007731"
"1798","79.4177659383163","-5.95116681251596","-15.0795900864365","-14.755603873273","3.13934244190267","1.09214982038369"
"1806","44.7762738849473","-79.3371945316407","2.05628434980901","-8.28353747708548","1.25794545473558","1.08673104395453"
"1806","51.8548141996535","-55.797621619633","-4.10835245957071","-13.6608073117353","11.7835329191697","2.18782563406872"
"1815","35.5544546456204","23.558614725855","-30.3546360864581","-11.0075451253628","8.90115462704584","2.17227102841966"
"1815","41.4154231209129","1.52086177157693","-22.2290973220178","40.3939115300752","22.2527548144777","-1.15945364851667"
"1827","-51.0816041937511","15.2101376661951","-103.89086135823","24.2674119274982","18.4759158924145","-1.13821772828128"
"1827","-24.2432394163419","7.65370706754244","-75.1684534957585","-13.0129195861359","18.6072111092395","-0.013292221545723"
"1835","108.888062174752","-67.6819324084437","-22.5591222973756","-3.34978265937446","17.6585739463986","-0.00754054132099969"
"1835","76.8605078459084","-44.6327888984085","-36.7840656399437","-20.1746977737105","-14.8885113875098","2.20948042016493"
"1843","204.910920694855","115.028671085163","96.7979048591839","-13.38849958993","-7.62096794177244","2.19163172152401"
"1847","163.281509220905","67.1918851518785","49.6963132823452","39.0480513345637","9.70129309687377","-0.0362047086529147"
"1851","150.156960819964","55.1584296523494","39.1540026914526","23.1807912039997","7.4777811858511","-0.0280256954651688"
"1855","146.019170622367","52.1313857480809","36.7944154912294","19.2068341823903","6.60794081413933","-0.0207131612512127"
"1863","57.1087399169203","49.6214781081399","20.2806772467963","18.2115562150758","6.26765827798162","-0.0141753118306502"
"1864","81.0778547848461","49.9901049649843","25.584561006106","-39.7728576786967","44.7457122502299","7.73324505830171"
"1876","-115.217579684213","146.247455144966","-85.1276167983282","-21.2950604308408","35.7983704366086","7.65990909784293"
"1876","-56.1038480544738","115.461216945535","-46.9072925064078","98.8029987327915","4.94857941699854","-8.99474727893027"
"1884","-158.767483790009","154.924953434274","-160.909165850801","62.8815706833236","9.88010631608942","-8.88502093190619"
"1888","-119.134356357274","137.852148742601","-117.42514347503","-93.0771457541954","-12.3226578423835","-20.9522512743123"
"1896","78.6810056155983","-219.628982316266","110.777535776571","-48.1370232105587","-6.00840426582054","-20.7410876193546"
"1897","31.0464631308273","-107.554197787841","38.854016247928","-3.64031670449165","-16.4086520944515","-29.3998089363429"
"1904","16.0286707512914","-79.3615233443067","22.7560446873675","-11.4961117312798","-12.477240795193","-29.1412313336624"
"1905","11.2939955305321","-72.2695900818564","19.1529856315406","-13.463596448247","-10.9392682532217","-28.9100472625331"
"1913","72.1362605172672","322.915125552431","-59.8053432890295","-13.9563532091223","-10.337611657204","-28.7033546712572"
"1913","54.3180654808316","197.324765997577","-33.4778507214074","138.131076365432","-6.88464517668771","-36.2601340854138"
"1925","-65.8610640150775","-86.0442458468231","-43.5708270609063","89.2213896068556","-7.5338407883545","-36.0163535393854"
"1925","-35.7500647481053","-13.3263842147882","-36.8298439602386","-153.968632424898","-9.39660571530039","-34.6924596298746"
"1937","39.4474906285873","31.1926790108581","3.7548723926682","-82.8755998336483","-9.12532145927003","-34.5088181212082"
"1937","24.1551031128863","27.3915535956531","-9.16142850689605","43.4017511656029","-2.58399927100721","-32.1327528560961"
"1946","19.3338559943351","40.4229528680397","-22.7094397265239","13.0279274269404","-4.02502664058491","-32.0084062941225"
"1946","17.8138563373638","35.7010318648093","-19.7417649067297","-15.5737987223287","8.28163278598078","-29.6853543102526"
"1954","17.3346444445938","34.5132215812356","-19.0775378894323","-10.7371041402627","5.09601185769466","-29.6084048393435"
"1954","17.1835628064375","34.2144251234385","-18.9288701420211","-9.52575345730787","3.84979335144042","-29.5396073419129"
"1962","-73.8394319860643","-119.724131794828","-33.1050297277316","-9.22237054730646","3.36227126381836","-29.4780982035551"
"1966","-48.5363474228905","-70.4477361967025","-28.2779475068435","-21.393237504936","-1.65484453826643","-30.5290446057081"
"1974","15.0370379406815","-5.59871375307803","-78.7067467211014","-17.4414324552526","-0.617545908370278","-30.4686544762841"
"1978","2.07988610196247","-19.2857903294258","-60.9937552115722","-49.6931503898374","-24.3437365654442","-27.0968441198069"
"1987","152.989934297235","-167.849962163127","30.003565050348","-38.7705966464996","-18.6254491562984","-27.0822410095378"
"1987","108.567504135487","-122.221627414185","1.37064779690672","-1.04404404656196","-32.4764373633481","-25.9632456374896"
"1995","128.256976726441","99.0700060690387","32.2617741537675","-11.595424853835","-27.8949595987672","-25.9627958576041"
"1998","114.464497487831","34.7364345714108","18.1758472806865","24.2520782905188","2.85569934251491","-17.1148792860168"
"2003","110.116128031554","18.5531740400249","15.0231254493155","11.2300893431809","-3.11460813761713","-17.2043048479052"
"2003","108.745213013219","14.48223696425","14.3174810827387","7.9687307981784","-5.45019916908729","-17.284256727906"
"2011","5.5445374388216","-185.864849885429","-67.5447051170012","7.15192319666099","-6.36388501934491","-17.3557385612953"
"2015","34.0083517559289","-122.262628645654","-39.8671558808839","-64.7841919064727","19.0194619669829","-9.67807252298924"
"2027","7.60286059269841","59.8391865970724","-40.7770650447675","-41.8005997405352","12.9494559860935","-9.81377308983052"
"2027","20.2779735824821","10.6473245677739","-36.9807215390393","54.9322377685732","5.74846617788235","-7.72321902264682"
"2036","-53.2234617465525","-41.9412996474677","-119.611449032707","27.1589874201439","5.93143082924501","-7.85413680068516"
"2036","-30.3963366770135","-32.170091192078","-91.1059152370718","-18.2869237561314","-5.25858528384155","-9.07712454542225"
"2044","190.760971325153","31.4835472278952","48.487661390067","-7.66885714200432","-2.63613222974081","-9.17054981829475"
"2048","133.48546874959","12.4957690017018","4.73159162745865","38.7291860807813","-30.5686052957667","-16.9956528186137"
"2052","115.428160728034","7.71934893371293","-5.06192197221793","25.3495810410278","-23.4958203172532","-16.9917698444786"
"2056","109.735214209492","6.51782928280325","-7.25391291535817","21.9986575068713","-20.7289388428392","-16.9882982299252"
"2064","145.004429793413","172.318111782535","15.345805233118","21.1594183441008","-19.6465316840307","-16.9851943958052"
"2064","134.123792537324","119.025561025726","7.40408967769344","5.20328178138787","19.3880801042405","-23.6180552105179"
"2077","-111.907525764445","-114.684709890626","-116.929803143918","10.2070656477019","10.6584643370454","-23.5482353594709"
"2077","-45.4740786142128","-47.4750757144724","-75.7583004668132","30.705312666313","18.5050208776275","-33.4392659211323"
"2085","9.1650431741676","291.146034326762","-82.5288802640801","24.8391008565869","14.5746026613285","-33.2824475780343"
"2088","6.39117664821984","192.326967355274","-75.0442760864648","67.1086547592502","1.77542652312023","-35.3541210715039"
"2097","135.240785727965","-206.698999273717","56.2920230040212","52.6950691212498","3.76837435736729","-35.2063229146113"
"2097","98.8633376914398","-93.0749153999205","12.687803709468","-96.1274559588132","-24.4103618618793","-39.4979396122951"
"2105","87.3945813349671","-64.492511078757","2.92827738589011","-50.4000735152845","-17.4339153071333","-39.3349054191257"
"2105","83.7788144391676","-57.3025403531327","0.743893498239411","-38.9476456199828","-14.7047215329401","-39.1891429550937"
"2113","64.1068493872608","45.9160778237722","44.6594660177338","-36.079383810791","-13.6370578450376","-39.0588224652158"
"2114","68.9048482461462","13.8809628870565","29.4886796340532","25.8732188723959","2.86860209793264","-33.4126115118114"
"2126","-126.695768371711","-27.3980507937743","-203.033987560692","6.3892549374753","-0.674365084312911","-33.3645562234494"
"2126","-71.362980786217","-18.7818833297956","-126.077370701808","3.25904394706167","22.0716052041821","-25.580016743008"
"2138","57.2739559207814","-0.878437302880824","-20.0439221941825","1.47508226482315","15.9698544793971","-25.6201659659111"
"2138","31.8294584413069","-5.37478353831639","-46.3114428921354","-46.2095582020576","-5.72274374030748","-25.6560618080382"
"2146","102.989805419881","-149.87855797819","77.4704324171423","-31.1521815817088","-2.20891267211384","-25.6881548695931"
"2146","78.4246029603758","-104.228820758414","32.1753768011285","-9.88556105831766","-13.7046889499311","-37.8821803709789"
"2155","70.6799057080394","-92.7455224832018","22.0374063302839","-14.5593336403879","-10.2018496177203","-37.7843792839642"
"2155","68.2382268483099","-89.8568719167674","19.7683188135576","-15.7298804907637","-8.83153491345799","-37.6969391761492"
"2162","-35.30002957013","-136.338311889893","-10.9345982326193","-16.0230440764676","-8.29546625297151","-37.618762412597"
"2163","-6.94264472127585","-121.030826939936","-0.806546222299819","31.1413801416481","-6.47695671713797","-40.8666855564544"
"2175","116.559186247037","52.4192296363921","-21.630009729741","15.9537153053423","-6.76555373217114","-40.7705259793237"
"2179","87.4957385728545","-0.949002541393565","-13.2907316400705","89.1301582240644","-6.87845321050849","-46.214250006645"
"2187","9.2589879966084","-260.905026177589","-16.7527666266633","63.4572062941409","-6.92261961398769","-46.0812696931718"
"2187","25.5932052407597","-185.297572546055","-14.5276416761754","-77.6879289467147","1.10409679008124","-52.5980130525072"
"2195","128.457190027467","389.728014912717","-30.0152264968163","-36.0377433848088","-0.755842684077436","-52.4243771486194"
"2199","102.88722685111","216.377047718266","-24.481668373109","-11.6100507591229","-4.70105084812818","-54.4810147220033"
"2204","94.8257576293229","172.770206062056","-23.2431435916754","-13.492132490135","-4.24442073919383","-54.3197735399509"
"2204","92.2842097371493","161.800802948794","-22.9659361240872","139.99689038636","-2.45698765447702","-56.3874927469516"
"2212","44.3105227469138","-78.7474576761054","-40.6656844870781","90.4382328223548","-2.75774181229716","-56.2361592179509"
"2216","57.1858079219412","-3.25793582059943","-34.6272543274282","-56.6890799866252","22.8653847446013","-52.7830399424546"
"2228","62.9297415865368","-8.74663708024892","-29.7233701142333","-16.53713144584","16.8891808026216","-52.6957417235485"
"2228","63.7406376026852","3.87266726744879","-30.6257793801084","-30.9747700572494","16.1600819388167","-49.2998739018913"
"2236","-23.6096155880253","153.916686155855","-34.3801158678266","-20.5906782142445","14.8748576395616","-49.2637619575867"
"2237","0.851378088204829","107.66061039822","-33.2204140401649","116.7253603587","-9.7599066113784","-50.3374149927026"
"2248","27.0952397420981","-91.059113241727","-25.8561315287064","74.1161771207841","-4.39705421865786","-50.2973259713235"
"2249","24.3691696466719","-34.0475249764748","-28.2078527568899","-94.0147876783168","-5.51669804408837","-50.2614839530127"
"2253","23.5097186564947","-19.7061264698072","-28.7342166180826","-46.1232060577664","-3.95470397356834","-50.2294390132164"
"2256","23.2387586376178","-16.0985140986148","-28.8520277391668","-34.1287542437215","-3.34365012844286","-50.2007888920752"
"2261","-20.6496198288109","75.7282674945432","-34.2069342438954","-31.1247424852602","-3.10460517386224","-50.1751739448597"
"2265","-8.48635513269343","46.8275093940161","-32.4054730972152","34.3609585704134","-11.0550848685669","-52.3641512376208"
"2277","111.594667465619","32.5636653948577","39.0449036898827","13.7618595062928","-9.16532150757278","-52.3212297970332"
"2277","80.4527379337115","32.975562041604","15.0369761169275","-29.8872847022909","-29.3404292583244","-54.4947340343043"
"2286","116.122270573078","-24.6195971312088","-68.4883844956178","-18.8192176061209","-24.2329542042184","-54.4379787429736"
"2289","100.367841696688","-6.10779426596031","-43.1830880993651","1.44827991402112","-7.7557143608197","-61.0228718985718"
"2298","86.9772815778884","-55.6529843355576","-7.32419095327009","-3.4757231326374","-10.3097995181266","-60.9101660488857"
"2298","87.7556255858294","-37.1161928953821","-16.2982279548797","-29.2026387107489","-14.5265582576695","-67.4450360094026"
"2306","88.001014920992","-32.4532196092902","-18.3068030827667","-21.6459475091631","-14.176159040665","-67.2876063871627"
"2306","88.0783790751413","-31.2802377619743","-18.7563637480105","-9.25607402879428","-2.77749037967964","-68.2527940548442"
"2314","130.22099342263","17.9713630128853","-18.8569847250048","-12.1530288710911","-5.31831832130711","-68.1157304116878"
"2314","118.507339834035","2.36071849825187","-18.8795057812138","13.3646768464843","0.122902398112733","-74.6288230264492"
"2327","124.922737610521","-139.693540718895","41.5055501786339","4.75558901262371","-1.74848590896897","-74.4519231353307"
"2327","120.945326824434","-96.4276222099074","21.0209748949863","-21.8942564503467","13.6074135730278","-79.8234604214246"
"2339","-1.60911983033114","56.0802812460026","-102.567910783599","-14.5687131385798","9.61465879945217","-79.6259407799294"
"2339","31.7530106942016","13.4440014199002","-63.2296600958372","17.0083181339835","19.3142807124351","-83.8731034525396"
"2347","35.5322089357706","4.46719306607969","-40.2155112939506","7.91678904292563","16.1087837634092","-83.6703246628234"
"2347","40.7236807457735","1.20905590769801","-43.0644686957677","30.1335130761853","18.0723874757892","-80.1712102017842"
"2355","42.3604015311524","0.389463877384199","-43.702124299001","21.6976940212665","16.8405514665482","-80.0427894953311"
"2355","42.8764122170102","0.183293583286583","-43.8448448142588","0.339893417226154","9.92346034719978","-75.5042163687493"
"2363","51.4627401832466","43.8426224317883","-26.1149954891894","5.99082993820302","11.2174864863937","-75.4464565254965"
"2364","49.1697608445822","29.825228821157","-32.1466884308241","9.15565749459972","5.28851549322748","-70.9710584993673"
"2376","85.5108876622679","-131.061168647104","9.13159741978153","8.94828889954528","6.96909534216023","-70.9697810303234"
"2380","74.9681929898226","-81.532518605981","-5.62946827824643","-38.3414936575589","4.40894233737512","-61.0151851492582"
"2388","83.4374891638625","2.61288327958957","-32.023631212832","-23.1852248308567","5.40740758944699","-61.1151722387208"
"2389","79.1076130888104","-17.2201438704333","-24.9311908966507","-7.14248641809362","-10.2899803778965","-55.6748702397344"
"2396","111.437107433554","-4.72471169668133","-21.5675767188818","-10.1245808416646","-6.43081628560159","-55.8109100542385"
"2400","101.629661166173","-11.5814564784079","-21.814730282427","24.119551115943","-3.31230806241743","-45.9790841591195"
"2404","98.5376572519113","-13.3062866816244","-21.8700483628424","12.6959976808873","-3.09234412222289","-46.1888350675258"
"2405","97.5628379212556","-13.7401717575072","-21.8824296936108","-9.41008132288624","5.03770037070519","-38.6347899745078"
"2413","87.1471319235754","-129.246862041492","-0.571049136939159","-3.94655120832548","3.2181829616481","-38.8810151695934"
"2413","89.8633613235017","-92.3028404127962","-7.80112129739626","2.67044017620772","13.7679777869503","-34.6773982180701"
"2429","129.468475602842","-2.58089297443292","-23.6287955193216","1.3276663865377","10.8950694417474","-34.9191095254398"
"2429","118.954821695177","-26.0111270345476","-19.1713564390899","34.232816483324","11.3799833214993","-29.6055175791948"
"2437","65.0983025514076","-59.8802198084261","-21.7260479871555","23.4739148959198","10.5696821791131","-29.8548438714994"
"2437","78.1189010373862","-52.4000693918052","-20.2978408048079","-5.46390154640309","16.6878869375421","-22.3361815737093"
"2449","-7.06671534274135","33.4070675782825","-80.3682751300366","2.2886191852952","15.0813355513761","-22.6140411352826"
"2449","19.0767256606323","6.99205377931198","-59.8132810159477","14.727538192732","17.6704485744328","-15.1208893120416"
"2453","27.3189958409502","0.34729521395463","-55.2126481097074","11.8428668080118","16.6833125142278","-15.4215567862167"
"2457","29.9175450417456","-1.32420936022093","-54.1829312914732","42.6122985933112","25.949936993422","-6.84285731603106"
"2466","93.071763415472","66.4447784418693","-2.44325929199017","32.3185061230277","23.5750509590982","-7.17297930666845"
"2470","75.9824603583831","44.4922259878208","-19.8628503540112","13.9944756584432","11.384400767916","1.37938603806193"
"2478","67.2252398909942","72.1905155377248","-7.77610137878446","18.4052202400705","13.6154046401512","1.02571974092133"
"2478","66.4643417708304","60.1580851227025","-14.0708369181744","19.5098916991916","8.05298039474644","13.9807922671544"
"2486","51.0618920981959","15.16855527091","-56.331853148179","19.786556786007","9.87695374552732","13.5634134120006"
"2486","55.205945567507","27.8513337048267","-42.7907428389159","7.60899834666116","4.15529870026727","24.2496444340772"
"2498","17.763679893841","1.31810611476797","-68.1788312313852","11.5591275140225","5.9169807822461","23.8037835671759"
"2498","28.9592173594036","11.643610593494","-57.8612106198995","-31.1903094943537","9.82375054346507","34.4645499420383"
"2507","32.4888462477022","14.2410154197343","-55.5519136852549","-16.8969106322558","9.35208328791529","33.9959221349542"
"2507","33.6016360648444","14.8943986849565","-55.0350452585924","-25.5639765764911","2.73237104384811","38.000697652654"
"2515","42.3761112163495","-105.584129678495","-6.96251796426813","-20.7346441827718","4.14273213503021","37.581210034792"
"2515","40.1424492389479","-66.8907855590188","-23.2028918739444","-31.7719866010497","1.47686924692039","37.2061626436785"
"2527","59.654987635943","0.54138848379359","-0.195133828107412","-27.536290207476","2.4339806732048","36.8708475125718"
"2527","53.8067261676499","-15.4958902599674","-10.0455216133348","-8.97996067124576","4.41720261471183","36.5710554334554"
"2535","40.1698359875924","141.327079329453","-90.4021319427466","-14.3325259251703","4.19304127886991","36.3030231188852"
"2539","42.8705192576771","88.7762644918959","-64.3876036808301","54.3089191853393","-0.721047499573988","33.8515073512063"
"2548","82.470732292288","-52.0796951037786","-24.8176071454672","31.5001765622127","0.356555418370218","33.6597034604799"
"2548","71.9555331640359","-14.5123415194871","-34.9610233318223","27.537274388534","13.6485058589584","25.7466440047226"
"2556","68.6403952598973","-5.06218577068504","-37.231329712336","25.5447651090834","10.8483318885379","25.6718885691904"
"2556","67.5952282412406","-2.68497696686981","-37.7394712463819","-48.4353544983558","3.3177051868706","17.8634775366171"
"2568","6.61547525091841","59.1086835295271","-30.7484865821394","-24.9636834823363","4.37171551309006","17.8822841430335"
"2574","23.390324299656","39.6530235019794","-33.1837595909849","-6.83835168887406","8.0016432839297","10.1575232546978"
"2576","-1.64617241466414","-84.135534123376","-7.08613437584551","-9.29886037424663","7.42167512896794","10.2511181671969"
"2580","8.46054489690023","-47.2748356143473","-16.2449459681485","44.3209515943788","23.2827796335182","1.48728325863163"
"2589","43.6567502970015","-18.7695163579671","-11.1901602203418","26.7500393207248","19.4876616355452","1.65188293058692"
"2589","35.753095043363","-22.5989365608647","-14.0587946010535","-23.1388947434902","16.3942083168189","-0.412833582597546"
"2597","72.0100671027404","88.3384139812731","-48.4482612640567","-9.6335836938029","16.1840458835553","-0.258815463077004"
"2597","60.4408408710084","52.2449642425359","-37.1453353220553","33.9884704282309","0.0138414002031872","-10.0745676623205"
"2605","56.7933987318175","43.1655724568645","-34.6155066713174","21.9136186169447","3.68803913724831","-9.85044589421078"
"2605","55.6434658069814","40.881630196027","-34.0492786844285","18.8894706704492","11.5605849238896","-12.9678853458813"
"2617","-15.4776905215156","92.7605289354415","-25.04164858291","18.1320724890699","10.6403337300115","-12.7550654282452"
"2617","4.09986761551568","75.8107873749607","-28.0255546243191","-10.0504162313346","16.7155259040756","-15.8826094202034"
"2629","-9.94464237203641","144.981841869171","-23.3648765861331","-1.10872358971392","15.0921479463105","-15.6788235748783"
"2630","-2.37246982797993","120.381982574118","-25.321720425209","51.8676711556593","9.63068404453783","-16.6025659655368"
"2638","47.1872274946841","-106.110574628184","20.4209595771893","36.1356149686183","10.4941531958124","-16.4284477292063"
"2638","34.8119654676029","-37.0853076687677","4.6591176457634","7.70182130861173","-5.25604539868132","-20.6965326783789"
"2650","47.7576930419183","-23.218735477018","-30.8399362774585","14.5805746008375","-1.41754088339293","-20.5124596737842"
"2650","41.8391062091647","-17.7305667770317","-20.7853589184522","-64.1759358987403","-7.95990793128582","-21.4538265405239"
"2654","39.9731471047403","-16.3500050913595","-18.5349365053182","-37.9005124999892","-5.51928931197588","-21.2954656555253"
"2658","39.3848642125952","-16.0027215670847","-18.0312454145137","-10.3252311606079","0.261880059910099","-20.04794210751"
"2662","-18.0813885444251","71.5070213538827","-104.951295259889","-15.4189989566997","-0.476519950253489","-19.9325803373094"
"2662","-2.19883457659347","43.520302068087","-75.4058005402669","20.0458140670823","4.061013742133","-25.3591364385519"
"2679","-47.7333934620484","32.9832819902645","-58.1358317336813","7.9279803375179","2.83610204909189","-25.2108069571592"
"2679","-32.089121800452","32.33266991986","-60.2704554489533","-23.0997306987601","-10.5134757507434","-30.607887923625"
"2687","11.5918299789898","-32.5235564433423","-58.9720490827495","-14.8706242949126","-7.7358456683676","-30.4332058827527"
"2691","2.36316965279691","-11.8382920298305","-59.6814388777125","11.6840547776756","-8.25803251218261","-42.4423618923814"
"2699","97.1679191041873","-52.0945044646033","-8.33101491535976","4.33467703311006","-7.46231259544879","-42.1792762591068"
"2699","69.0571123153972","-36.2210489525425","-25.837727740509","-21.9996739012931","-26.4566125074415","-47.4737582606809"
"2707","60.1945886518128","-32.2280440547106","-29.756092234142","-14.5951149506092","-21.8872040927384","-47.2073465179649"
"2707","57.4004914820754","-31.2235943240269","-30.6331032674702","6.50440644841358","-29.7524395796082","-54.7107333860882"
"2712","-59.7267038022608","9.24337350858184","-62.8006241115037","0.788783872511684","-26.8293285882004","-54.4192166632526"
"2716","-27.6535180220024","-3.57706598972172","-52.0003807295702","9.85460492700169","-3.16262008301069","-50.8407651040677"
"2728","80.1725079519143","-116.954280062481","33.8973648708133","6.12514079391852","-7.90417697717635","-50.6414122165178"
"2728","56.1669327268439","-82.474583707209","6.1230573126376","-35.0485514069802","-33.8910624442036","-53.7809965507526"
"2736","110.933640772435","85.3076015826377","-5.42194522780768","-22.3605070868503","-29.0571613988405","-53.5879755022098"
"2740","91.199998500177","36.5136031128179","-5.0059556291434","31.5541618429584","-20.7309383677546","-52.3094636642919"
"2748","152.367710187446","53.9629687573484","30.6107377063813","16.0570965272304","-21.4737105110422","-52.1663964820884"
"2749","131.652119075059","41.3523975386071","18.5824904814682","50.6659524497376","-13.7202894616698","-56.4622429582901"
"2757","125.121092846674","38.1801788239969","15.8903199228107","37.3337441712708","-15.6871423873543","-56.3029904438416"
"2757","123.062049328946","37.3821997793706","15.2877564585438","16.4991922463187","-5.19498538261623","-53.948730419847"
"2765","-34.2668995386996","12.7031990599641","-114.508199550734","21.281176455756","-8.09044170834282","-53.8438790668987"
"2765","9.13183704745928","20.4951386492166","-70.5592196093532","-21.2599223670597","27.7792265203936","-49.3263783728889"
"2777","80.0949866300549","-94.6907738402653","88.4765335615087","-6.91434518377943","18.811481256961","-49.2874585633438"
"2781","68.467613539825","-56.6660598063402","40.0720251119089","-26.0656424106942","5.65049595695303","-45.9348439759766"
"2789","-46.3902711071839","-17.3772437669347","-16.9425673637328","-17.8620868794672","6.50190363833271","-45.9374030483764"
"2789","-16.6016373721782","-24.4940501071698","-3.70361262715746","20.9330422146628","-10.8618122870128","-43.7278124041569"
"2798","-7.21014344011446","-26.2842994042991","2.81189794442634","9.64928650632182","-6.65451757450252","-43.752304257416"
"2798","-4.24927725670364","-26.7346408064182","2.27020399745697","34.816066928344","14.2969673128473","-44.8801407658933"
"2806","40.4871507593207","-25.0994775817372","2.14896168604078","25.1190898161298","10.4932118717279","-44.8884950583579"
"2806","28.5912515378996","-25.6881484442381","2.12182514859231","33.1877801949452","-0.647614775524859","-46.0019036080178"
"2814","-29.0705074352974","152.505431214282","-193.263972987322","29.208584575931","0.994081253184218","-45.9973584295966"
"2814","-15.2495909181537","95.3304433736085","-126.995356578426","47.4570434076117","0.027515724198566","-41.569537543684"
"2830","41.334341338596","101.92931322615","104.530806852398","41.0273719023227","0.649394197235407","-41.6107969256818"
"2830","28.1736172573533","91.5892743871794","34.3511518363605","4.42606214647047","-11.97771720313","-38.3298674020192"
"2839","98.1524955725909","-183.769621355965","-32.8657068444478","15.2592601461556","-8.91745744904039","-38.3965172722863"
"2839","76.2148102432322","-97.0367962649515","-18.9102303400332","-29.2654113091775","-27.0258668181865","-36.2442276913425"
"2847","-38.5241595090573","-59.482922121109","-81.5053405765921","-13.4166201069678","-22.1098970222444","-36.3199501730505"
"2851","-10.6980353499481","-59.0361571571106","-58.5154211597174","-61.9337853748792","-20.1867640840181","-31.9638934471283"
"2855","-1.9252638788608","-58.923772384427","-53.3698015991363","-44.0849146812938","-19.4344323058319","-32.0693143438736"
"2859","0.8405370226179","-58.8955017317373","-52.2181054934596","-2.87411535804484","-4.66092943240596","-29.9516884138035"
"2863","107.850437632067","-11.6803033966914","27.967737000128","-13.5528661953553","-7.88151841724513","-30.0584023032984"
"2863","78.587561703769","-26.803209712793","0.914987363860466","32.7600364600355","-23.6206062985462","-30.153810997492"
"2880","-33.406641763499","-11.3744879569372","-44.2159225315441","16.3591079559385","-20.7777552597039","-30.2391121609191"
"2880","-7.71517224682742","-18.4933568767129","-32.3171537944151","27.9974426555873","-10.01283550025","-34.7391337989007"
"2888","40.8180991292083","-170.65062367281","-93.5964184637547","21.9122648441025","-11.8015867281649","-34.7624262714676"
"2892","32.119234712866","-122.926140374002","-71.311985587889","-26.8496156691146","-6.0661527486458","-34.7832511556759"
"2900","4.1058003649016","-7.76252299902266","-82.3098823256399","-12.0620339352724","-7.82244449597507","-34.8018698661216"
"2900","10.2739754132924","-37.7928454211993","-75.7714391302925","-50.3476798808165","-13.335904422391","-33.7125768181865"
"2904","12.2186224573357","-45.3470433350758","-74.3080002816537","-35.9363240626232","-12.4927761747018","-33.7386827188367"
"2908","12.8317133790814","-47.2473195065988","-73.9804523930021","62.1486957058971","-8.94534571123745","-29.3382657579769"
"2912","23.1333768802995","16.9672249470722","66.4110253184901","32.7140995510759","-9.55758690604971","-29.4040259122496"
"2916","20.3811931824","-3.87945605312173","18.8335423248308","9.59625272654553","-24.2762861849857","-28.3568801763394"
"2929","241.897730302262","-227.679444809466","89.8889657827881","12.8063854806011","-21.034257972065","-28.4206683320652"
"2929","179.735482268986","-158.976855953485","59.7926394843268","-56.3716320819969","-21.3747717425347","-27.371759509764"
"2937","-8.33536981642362","270.939088587696","-216.92279650607","-33.6972740877244","-20.5079811142543","-27.433971359246"
"2941","32.3713345638255","143.08545097896","-126.8574355245","59.4590159065718","-13.7336961603652","-23.0658353080877"
"2949","-77.7802329863448","-49.9336155039485","-90.7133307284577","32.7900188449321","-15.083588232829","-23.1604565549189"
"2949","-39.5078337033614","-6.48801358416339","-91.6235323578859","101.341410970389","24.6083042183631","-16.6094178618072"
"2957","-27.4416540715889","4.4408292958978","-91.8272543119968","75.5101145673829","15.1358173890972","-16.7523916557483"
"2958","-23.6375369105585","7.19000530956172","-91.8728514997461","-49.9287290406166","30.7357562819119","-9.1386437693705"
"2970","58.4287805581536","-23.5904908851337","135.467894955765","-13.3449010348205","24.8384700015635","-9.33149104353934"
"2970","36.3019149016235","-13.3333967678337","58.3514570364548","-18.1788764725471","-9.64453245808852","-16.1395440422885"
"2978","29.3259546613023","-10.7532007281761","41.0912029135681","-11.3895461455071","-3.1343219791377","-16.2263566370362"
"2978","27.1266363290115","-10.1041463735089","37.2280009760208","27.0513900927631","5.84767519625908","-12.9861544504181"
"2990","-120.138163446573","18.0342873089624","-84.416856812347","15.6789267452351","5.36144263911833","-13.0892170319433"
"2990","-79.5664919762471","9.11257618097612","-43.6434924664284","-13.4125563064942","18.0416188750348","-13.1813612351964"
"2994","-66.7754183802974","6.86829885874957","-34.5175700425741","-5.69852139379766","15.0021181445653","-13.2637437455848"
"2998","-62.7427631356973","6.30374564392281","-32.4749998151176","78.4623043867877","21.8570563757924","-4.4898842689972"
"3002","-186.141325730017","196.742525764411","-214.964299570584","52.5403923366394","19.5387159565451","-4.64552136870075"
"3006","-151.0453205268","135.647846769056","-152.809180032812","51.2968963250837","-0.673807877143053","5.16878336399538"
"3015","-50.6899318234937","143.009156793396","-32.3268196970544","47.9854626140458","3.41902996304556","4.94336747293849"
"3015","-72.0507827292054","131.860911564707","-65.3603750215847","-22.8258819774529","-51.2878077068557","11.377467815549"
"3039","207.618680257826","-2.0770300294669","76.4450942102807","-0.56059091481674","-37.6891844110066","11.1299440387023"
"3039","125.790366411384","39.2305671799313","24.1840917702847","-71.9644415770927","-64.5453650180071","19.756157199849"
"3047","-90.3821032638765","303.146500487822","-31.9174845272525","-45.8475437241813","-55.0515332135295","19.4685153327681"
"3051","-45.5350254587836","224.535171405353","-19.4741778823476","-11.3137655590373","-15.9439603410639","29.164799791417"
"3056","-31.3960400046648","204.760307525659","-16.6891084391144","-18.6647770699831","-22.6450336496909","28.8338666121373"
"3059","-26.938427168872","199.785894218766","-16.0657522826697","-24.0049384835895","3.69187856474668","40.7033246203877"
"3064","-355.739944441179","-532.316552451252","165.244057634951","-23.3423824891397","-4.00509162156995","40.3153404949295"
"3064","-263.40154509685","-298.478636948033","103.824943871228","-313.601727254166","-16.6689482756908","43.2862770535266"
"3080","15.0499634396964","-1426.85212211883","102.511330816898","-220.297211649412","-15.6230633063851","42.9424746575094"
"3080","-45.1623361891419","-1031.69711412118","95.217317040476","-247.666032443757","-94.0450565646431","27.1519441765566"
"3088","810.22879206027","1053.94159363518","-860.223525154546","-225.520556581756","-75.7238289282986","27.0342515224498"
"3089","560.908853991245","442.588893578861","-537.070950951447","714.285422301604","-92.6885270306984","7.0221196539303"
"3097","-38.2757500266527","1874.64371703211","-443.428567996009","415.659931700366","-84.3251360950422","7.13005912980739"
"3097","81.8186887824927","1327.88046067421","-434.469465499927","606.800728677561","76.608921167709","-1.6209508684567"
"3105","-195.36332405157","-126.240203610258","-510.616122790312","502.671962023034","41.5665061919018","-1.44488494828591"
"3105","-95.7507891755322","260.972338824837","-483.659319946482","-921.297462178404","13.378684030693","-15.6646822960949"
"3113","623.023569890398","-904.002649178591","1749.70302854742","-478.930758998329","11.351576154678","-15.3780441937339"
"3117","441.632319111348","-475.054834911862","995.575723961941","-128.451635048589","-21.6174081406783","-21.7574081635645"
"3125","-316.402333423642","1344.57824995569","-547.976355695574","-177.674100421502","-14.51491204532","-21.4609467472357"
"3129","-139.388716716894","823.311212675262","-119.455242760815","815.989315385443","131.446691899534","-7.92462058574647"
"3137","-555.30555243507","115.197541642875","-856.571450564405","489.852425706307","99.5470362699143","-7.82232341186961"
"3138","-406.432091290064","267.069889821529","-552.553306677895","-491.097237926992","38.8038888413798","16.5998011834328"
"3146","769.271795936469","-1275.32294892999","179.783306201268","-222.776187636274","45.0411009398399","16.4346628692182"
"3146","469.937198754735","-759.315478649559","-30.3046099053534","-316.533741489047","37.8283121383374","17.3929584983963"
"3154","38.6198756785856","1185.37607838299","388.03234833343","-248.015331026011","41.0066610101939","17.2497329545064"
"3154","102.638008953914","636.56779256917","219.66481377163","635.172308592819","-17.2755235177105","33.7107702022205"
"3162","-613.405476478594","1161.17544603891","57.648124596294","361.366748778577","-3.07557995213247","33.4279366021304"
"3166","-402.153260292884","914.141729508389","91.3854379011295","114.338027678819","42.6994257688376","37.5988234176374"
"3174","619.689761218006","-427.863866456171","319.182781344259","154.469657671912","35.606659723399","37.327849382118"
"3178","374.847286850469","-33.4485160954809","246.168539276452","-727.749815896221","-58.8695739684746","10.54303882442"
"3183","216.788552635254","-1254.31039364029","-340.32711798867","-438.701778789516","-38.8287833278121","10.5957924853445"
"3187","214.957209026249","-806.42105728303","-150.596978987147","-147.615930093705","20.4927604593221","4.00732162928477"
"3195","-302.831947259086","467.215799307931","-323.049145768787","-199.713447699302","11.699415410221","4.11682879761017"
"3195","-159.075879914769","123.602132489305","-240.647508232157","520.300127893035","25.9562364645276","-14.5862333346583"
"3203","-12.6700163483138","645.625095358613","260.916456005596","281.627606035762","20.5335209683027","-14.3079060607603"
"3203","-26.5124855419535","428.941193856136","101.176847112928","179.86284964042","-26.6342198260456","-30.6481541618656"
"3211","33.1430845930702","-43.4451393191831","28.1240525206389","178.37585535773","-17.0862933148222","-30.2573277334261"
"3215","13.9507590208671","76.7249725947172","32.7733258393924","-143.913742554121","23.6512403382403","-40.9672982365813"
"3224","275.771876859344","-8.44349988203636","-216.627353728744","-40.6312073259009","16.5878095285096","-40.5426619066289"
"3224","199.316496439417","36.1321714655075","-131.448385196392","-49.7550829994146","-32.8305798203612","-42.3748898646738"
"3236","-203.851684893197","-106.51810801385","-275.792066717325","-32.040158651966","-23.1631095664456","-42.0130128659967"
"3240","-105.958942052726","-54.4021197972551","-216.099168695909","-102.834099260385","46.5795693974512","-18.464747457294"
"3248","59.6821218278505","-114.727022612045","3.2981370498439","-77.5644493682973","32.8629842032791","-18.4111689230951"
"3248","31.9039544964278","-87.9018931509563","-63.5962072271739","44.2346300271322","14.6266496167315","-12.8335699359104"
"3252","4.61428401049897","345.467259703696","296.20528969164","8.73922267931207","15.4925749230965","-12.8468579097429"
"3256","7.01064085396702","210.482284731048","165.736307956667","69.8313897163147","-13.1270537823655","-9.54092024945965"
"3264","122.327711179961","-159.175452236732","-64.1736115384373","45.1319295804331","-6.32308486634657","-9.5852113277224"
"3264","90.6838453975995","-60.1637214332069","-2.63220769416359","-151.754991062333","-8.48776114989376","-9.62481023993037"
"3273","16.6877505268966","-342.983876677582","-93.6525478600481","-92.0653417034147","-6.33458495766474","-9.66021407089497"
"3276","31.3589237617411","-238.127948882799","-55.0247829373294","-89.3629117843357","26.6837174054263","-13.0096851600095"
"3285","-282.429450938923","193.888662077558","-120.978621191858","-81.6860879178356","19.6005145938853","-13.0043156093775"
"3285","-192.357842323667","70.5634520247567","-93.7404545877941","119.685261081375","23.2647531322281","-24.0589079565461"
"3293","-116.788460899551","15.0624394780151","-71.6583756067723","56.1187372909767","20.6982073882778","-23.9423844719185"
"3293","-120.96362242566","15.1010298299785","-75.7159495163337","10.4561463542884","-14.0906044806725","-40.4272949812908"
"3305","14.1831146905509","-161.482476210098","-35.7719943004105","16.019945498906","-6.70002698814209","-40.1658055261077"
"3305","-24.209031157562","-104.902470581115","-49.8317107979304","-52.5685960607566","-47.2463942186524","-57.627046964247"
"3314","211.342191759427","-43.4615509108724","140.624978899537","-29.7466037375792","-36.1081788884399","-57.2384566176566"
"3314","138.604673899233","-55.0059437190946","74.2531260530879","30.205213352286","-44.6212874289399","-65.7385477034359"
"3322","119.042097927288","253.313720498648","91.3689599759117","14.2201524483934","-39.951625108078","-65.3381450460139"
"3326","110.874583996625","152.872253886913","77.1998376850477","127.436534939503","-20.4280603601608","-60.5564035473578"
"3334","83.0286690759176","298.953838359082","24.2954742372967","88.7915902206046","-23.7904197730878","-60.2812364203987"
"3334","89.249658150577","237.701002946982","40.4543832590905","47.6210615753741","13.5053943106314","-52.2936451717288"
"3342","10.3439664835825","42.202599939736","-174.398974105612","55.3098982083645","4.09555891692512","-52.1522537896357"
"3346","33.4672859655014","96.0245189520704","-99.4876001797371","-150.960868908674","5.24081729029782","-45.3902054815108"
"3355","-68.7499822868791","-313.560784726466","-164.425133387746","-83.6214049175692","2.68884365987204","-45.3445238724296"
"3355","-35.9761281076006","-174.592926809561","-132.959496689853","-99.9976767914679","19.3872962646544","-37.5621066053355"
"3363","93.9722746383899","50.9455580117689","183.138364178508","-85.0991158594333","14.9197497895265","-37.6041532157784"
"3363","63.9412444383104","-1.31970808880541","79.8876045933412","102.334968948217","-1.30714927078575","-36.535806132394"
"3375","-135.901041067055","246.051543010718","3.49256925136418","44.2778558285763","1.34486948369911","-36.5806389966651"
"3375","-85.9055288991993","159.278360383449","16.393779949022","59.4797937025899","16.861532048516","-43.2563581292508"
"3387","-21.2862516648335","-184.264006073877","-78.4085244167535","46.2871206928458","13.9316679745694","-43.2248562156621"
"3388","-29.9136640718775","-86.682892675762","-44.6272413198951","-96.9809770125363","-1.69368799313003","-57.5739025596485"
"3396","154.371275622789","-51.6454491859234","-12.199780945159","-52.8624876302543","1.19365509880729","-57.4028209046206"
"3396","101.470982655655","-48.8316982445402","-18.9418444827225","-10.3211091300922","-16.9823994639338","-62.7795600469164"
"3404","-151.069000971643","144.205349854654","-162.545202807144","-17.6666162681508","-12.0928925441514","-62.5866911805917"
"3404","-90.6875475937433","82.7642712525449","-114.686605139198","50.4756963312042","17.1694688804545","-63.5201940130812"
"3412","-51.4342758302582","-83.057874571171","70.0907117379799","27.5419459164931","11.6169377303229","-63.3548022041564"
"3416","-51.0588554984687","-38.770823584698","13.4476977645174","-56.9315594802494","-22.7311961328846","-67.630689109079"
"3424","24.8723062693702","87.7672332554456","27.4125091500567","-33.0879580738995","-16.1682249066304","-67.4535915264634"
"3424","3.81120361326573","53.5981777111698","15.538122829786","16.6224217728288","-24.8623752394996","-75.0368306746275"
"3432","12.3338081174735","104.450092188012","-99.0189071872903","4.07239179999539","-21.2635366723532","-74.8167067367718"
"3436","6.02073861581947","83.2420103318509","-61.6591403594553","13.1760846717367","-26.2908624397316","-74.6199025759359"
"3445","103.429418404029","-116.170622433482","-120.792065567296","8.45610553939393","-24.2575579597935","-74.4439477111463"
"3445","75.1395554750786","-55.3333370809963","-96.0272375183776","-71.4557588631272","-28.2885235606235","-75.3925726876013"
"3453","3.88560956328856","92.8524465496727","135.09041604831","-46.4696939747469","-26.8654418578458","-75.240700993218"
"3453","18.4213029885365","54.1289273623555","59.8193280737891","28.0205144557606","4.25844784591064","-75.1049184806072"
"3465","61.7527521398113","9.41898227429327","51.8529980079408","7.67659524083311","-2.56585133826602","-74.9835206730317"
"3465","52.413903751928","18.1720909101049","45.0699685388255","-6.16629099166234","-14.8883181104076","-81.5106194956382"
"3473","41.0459904508535","-226.157164002665","-25.7192069802193","-4.63324335081611","-13.7088810335699","-81.3462420044383"
"3474","42.4620164513408","-146.618760112536","-2.56328888512787","-93.4763358682978","-10.0298861761815","-84.517096465837"
"3482","216.435529976728","140.901803393855","-2.70905332498612","-64.7270980305231","-10.5906592314495","-84.3520328089149"
"3486","168.284342820852","60.228274302226","0.258321577928017","71.9398436753503","-1.15724106301976","-94.1579096273139"
"3494","-119.822422044239","291.711122041687","-162.486015317886","32.1680940566361","-3.4668772176714","-93.9249586693443"
"3494","-48.6541452473534","205.941174350425","-106.911564625825","114.933399297071","56.7639475768754","-90.3988684585909"
"3502","-157.625705512365","-6.21525160388609","-51.8445493766792","82.6619789762","42.3263142851782","-90.2463297946037"
"3506","-113.981284089765","49.4163027354704","-63.5194121862965","-102.12494078476","31.851899219249","-89.0040116655516"
"3514","-17.6697429885444","-135.912482620105","1.36232588735957","-47.4048448919059","30.7542962114825","-88.8933038558463"
"3515","-36.3055019868869","-68.5323724778462","-22.115798915842","-52.9452397436182","-13.1126568206749","-84.370567134039"
"3523","45.4250878776597","-16.6137948427433","-55.789557947619","-43.3328322354713","-3.27345840765844","-84.326965997843"
"3526","19.1923770257643","-23.5535550841153","-47.3264418318238","9.81154312100919","-4.25074948278343","-79.8642267151835"
"3535","-48.0435504904979","-100.482517346693","-79.179628312494","-5.87844230375082","-1.633066855514","-79.8742669311223"
"3535","-34.2410921737748","-76.834177913997","-67.309030397369","-29.0530496623376","10.6525656371396","-80.9891827986948"
"3543","7.17446022580156","-16.6835053417984","-25.5762001320601","-23.8571325901961","8.4587189485509","-80.9859852539741"
"3543","-1.76841494887912","-32.5524628283284","-38.2355293868653","40.4279814976732","-6.8787061864454","-82.089065760053"
"3555","-34.9129656659208","185.508516423581","-25.0833353431049","20.5281952971787","-3.8787242274509","-82.0752866838113"
"3555","-27.3624830794799","113.362266290288","-31.1396022351734","34.7893404900306","-1.09632902551629","-83.1689066584658"
"3564","20.505647080637","-112.851563234267","40.3282317760225","27.3610458511949","-1.00785287897444","-83.1466692929249"
"3564","8.59708289260197","-50.756181674941","15.3242114909601","-77.7228149445576","-18.6700284827071","-78.7030305179024"
"3572","40.2219652005921","-54.3688673089224","-47.1099435222067","-45.0410792845185","-14.5794915335812","-78.7301477469713"
"3576","29.1923751542617","-44.2776468383609","-29.0839989966378","-5.36403699520478","-14.5880677278037","-77.6484528905016"
"3584","74.5722041397941","63.1676828219366","8.69798723778783","-13.4269174481071","-13.5914227446729","-77.6813520354932"
"3584","59.8791506196822","30.1958070546685","-1.84562264269007","14.2960814226483","-14.8103329714663","-71.0751300371222"
"3592","-30.6743201238606","-193.157407515985","15.3324717909447","4.23930949831936","-14.2871720293105","-71.1687666068181"
"3596","-8.22320821925235","-126.342431567583","8.17728469039058","-91.0055543699444","13.2670699157582","-62.404968942315"
"3605","42.6579300931007","-146.2523687707","29.6661368646326","-61.8596408616911","7.04632049540137","-62.5696019127225"
"3605","32.6992801586265","-130.260760088341","21.4757865235634","-0.323997024753929","-1.82243918684087","-61.6108544755091"
"3613","-32.7753649253217","102.808609811982","-76.2710662133216","-15.912388347966","-1.29190799444255","-61.7536760755929"
"3613","-16.4176252411189","30.4377554847348","-44.1488339561254","65.9114420360254","10.1772284988296","-62.9873065597395"
"3625","-11.260503422338","-195.832573750664","-52.9448276766569","37.4042292351902","7.66396765280717","-63.0902470876037"
"3625","-9.63461219487037","-133.751404825882","-45.913553035037","-62.4615495528301","-2.97201605084526","-60.9704035572084"
"3633","49.8434973816375","-209.054019689991","26.7073642019765","-34.47294468769","-1.13282489222909","-61.0751347774154"
"3633","33.5952236322435","-175.996568761519","2.96142779681626","-16.9658962130197","-6.84852671387092","-68.9103459808644"
"3645","-168.640673517494","-17.3143909323559","-167.538080103948","-18.5812540226797","-5.0845157240867","-68.9155003538436"
"3645","-115.399797813796","-63.397517584329","-112.699397114901","80.7385232529724","22.9551481615243","-66.7082300658634"
"3654","-19.4322303575825","568.438902433067","-57.7970618986011","48.6131722498078","16.9242963527364","-66.7347964584343"
"3654","-36.1764342892716","359.378833177262","-69.5087835063238","96.552971132204","-49.7869344965797","-64.5466698155687"
"3662","177.559365981069","920.494411513731","300.8675466222","76.5594989647107","-35.8844433750591","-64.5903517887931"
"3666","114.944076846302","710.644348957716","173.765431322341","176.525125179498","-67.4481471559531","-51.3581344625218"
"3674","1111.09484359154","-606.271582864497","1360.22399855628","141.561527113227","-56.7959037356538","-51.5277290451748"
"3674","822.152345004052","-214.544868747551","941.777970306912","-519.777219338876","-76.7607171277749","-53.8912355058547"
"3682","-941.878704987697","-1408.10791649429","-1514.19739339434","-312.40958015606","-69.5709746829824","-54.004353734411"
"3686","-505.026632057649","-969.351495587871","-733.895486833086","-466.921219613938","272.698222296963","-4.33821956541585"
"3695","945.104030612872","1746.20572086411","254.242347351615","-387.618676483715","195.594318850632","-4.93368113896525"
"3695","623.288251961219","939.310496468681","17.408036362208","1033.63211712489","-85.5414390409062","1.16957590362373"
"3703","-1235.3432389979","2365.88733157861","-676.801113807454","588.584532617814","-39.5220651547427","0.626258136067972"
"3707","-778.315946728122","1792.74607442759","-471.179482799277","447.379968626439","213.365400951595","8.98801351634417"
"3715","957.840383755889","-1049.2836881242","1207.15168048068","429.015270251328","166.295263404193","8.46393034193524"
"3715","560.20021864801","-221.202928804382","663.796914650901","-1494.84040140358","-61.2624807103435","-27.3946895894255"
"3723","182.126442971186","-1465.85727946993","-591.019524005053","-879.670263145716","-20.2833273022746","-27.4544722422016"
"3724","212.930725513061","-947.952995430389","-233.873401507012","-18.7826791029225","37.5765344343822","7.88213620199761"
"3735","-476.520088793337","1061.90827291782","-853.751360246459","-207.173290256178","34.2113777157287","7.47520890183377"
"3736","-278.883973173369","492.493580564237","-598.492870898367","944.085936400438","-20.1954381112167","-7.26581976964992"
"3744","622.419988644415","-584.415068212057","602.498737077776","547.418934650846","-8.47944593143907","-7.44519410671947"
"3744","408.575037971489","-321.313960127175","227.305503993184","-447.695903421442","-93.9888732853055","-14.2412014819637"
"3752","-951.031187024965","349.83262952431","118.462986383252","-184.922522606169","-71.4402578745332","-14.3172445581905"
"3756","-612.675673564314","172.661125475006","108.101779304575","225.550427756721","193.179806311635","-23.2327461248319"
"3764","523.367412005739","1862.55329630529","-393.323660104061","131.353422719491","137.699474388531","-23.2037456505842"
"3764","270.528912113627","1295.64962834251","-224.553046488959","1007.03041680659","-136.585916763052","-30.9193926023632"
"3772","-363.45957153141","373.23602760041","-895.47423762647","712.343815003867","-86.8866716686861","-30.8176492774132"
"3776","-234.337788508973","587.200726730266","-646.640279626233","-610.639098913877","4.95167832142843","-4.18414124639969"
"3785","-446.338769994688","-1240.30563307009","526.270695635957","-227.98031327423","-4.1210554036384","-4.37216854946671"
"3785","-363.176542714521","-624.019136532343","159.792436042731","-613.269599041874","-10.8879168276462","22.0022669525101"
"3793","129.712018523392","1109.85741040292","242.951696266616","-434.765342473842","-11.5351206619058","21.5826130841118"
"3797","8.10551435229982","643.018115227891","168.56445902982","719.155699153379","2.69088229873859","74.2925037013498"
"3805","-571.031488209533","973.186198177053","-301.010668306956","374.155349252034","-0.743889270545129","73.41834513292"
"3805","-432.616620974501","800.24075244988","-151.111295959133","83.0526368767219","-6.91397239965305","115.768427216024"
"3813","438.223492863723","-750.425961171852","-23.4232118593243","127.145930971958","-6.32771589070873","114.631971030885"
"3814","221.774172752694","-278.49980348626","-47.8439771398307","-705.093946430425","-150.890270000222","94.8149420370406"
"3825","91.1989965990041","-420.304374775313","-5.35300815684308","-431.528514040239","-117.443304494374","94.09731532462"
"3826","87.0324232866988","-306.975646683431","-22.8426502829297","37.632903338108","-19.0924736794689","121.104196115803"
"3834","73.9257207027921","639.467481041543","145.53219934897","-73.865568766248","-33.6175175480887","120.249986722138"
"3834","76.7935567747274","352.54746568343","86.2179738863036","466.813341526551","-42.5173288602645","119.486271678076"
"3842","-351.908178951471","612.577119229752","21.4330231139199","277.226433283673","-43.9989451005782","118.803464075102"
"3846","-232.065426697496","487.988187374496","35.9328109173962","12.8001849967754","-5.96738216287256","107.133599583789"
"3854","162.880060742386","-630.886893868613","-280.534112932896","70.5746024178757","-15.0893917736516","106.700032427692"
"3854","75.3949405379252","-290.342540124789","-171.365957277933","-315.602713618348","-76.5746915666839","83.0876716670308"
"3863","450.463632825544","-657.525754255603","60.8811139393907","-183.320864327451","-64.6278103116977","82.9767879979223"
"3866","329.711934478496","-490.891551438956","-4.13718700052604","-183.432308755491","-30.9957972035496","80.6657726574023"
"3875","-55.4117436728922","-125.511510719403","18.6101377787201","-164.460220024587","-35.838915678255","80.5995846762105"
"3875","29.1699086906239","-218.599306029339","2.70145964081703","174.455370929657","45.9239921531886","81.6463479088882"
"3883","-313.119584025941","709.139767476832","54.2023270683805","68.3368174631521","25.9097340724336","81.5822177720564"
"3883","-202.03355290593","398.514703489057","34.7292866029865","244.707201643236","13.2537370885645","82.6308208424925"
"3895","-200.705921810342","163.015952103873","-294.669996952309","172.879183500792","11.3026967697525","82.5683356322854"
"3895","-180.287358156529","193.775689830808","-185.396370932526","-32.3119898261314","21.8010396841643","83.6184093669626"
"3903","257.44063428402","-354.492981609253","14.9030791023747","23.2978585468645","18.9080032932908","83.5572390198488"
"3903","139.443599491147","-174.411249545589","-39.2657603622509","-219.958482940967","-81.9692857638791","79.0787917962679"
"3911","-35.905223581335","-244.508813705418","-118.88468112106","-133.88206006469","-59.4325952140213","79.0747881596316"
"3916","-9.18763171489523","-196.142020085945","-98.7050426725743","-7.35121712552144","-16.8314401347667","93.4484196322176"
"3924","-400.045108770593","137.739129297403","-90.6360635035495","-35.6615537803229","-21.165820137055","93.2993185743488"
"3924","-286.271157226676","37.7277141249764","-90.8300590416296","90.21391108476","22.1849338747263","106.437284840551"
"3932","142.14032090354","28.3056374150661","65.4303002777053","45.7394349201824","11.1437978217379","106.18342408964"
"3936","44.2060588315709","16.9354919592243","12.4046012692446","17.1052986236056","-72.0066517163358","96.0030034240778"
"3944","72.2957340171378","131.221298385481","-72.2869989458556","19.9338760807612","-55.5352015188565","95.9010894497947"
"3945","46.1515954979176","92.9701605639757","-50.2427310987863","27.6404931777835","-55.5267470729955","91.3862149505954"
"3953","203.012542194025","-381.739079937352","57.7096322250566","25.5706162660522","-51.5234396842229","91.3496431186075"
"3956","154.466258070329","-235.153300799822","23.8716043597829","-93.9171772517765","-29.042955998182","93.5288242913555"
"3965","46.5009278719297","30.7673384324732","170.825553933473","-55.8429081050912","-33.2485653817933","93.4771445249019"
"3965","67.4625845074276","-33.3397021811888","116.716887901177","55.1666904403626","11.7613627117011","95.6428182872634"
"3973","-180.322882889082","349.180087856004","-135.177958148601","24.9690564427952","0.369297434010727","95.5790620760939"
"3973","-107.44246817148","217.403836615407","-56.5572356719458","152.121397375054","32.9150826412856","97.7339387639013"
"3985","-50.7708041279635","103.826619791943","-74.4838778035384","106.966714960067","22.6470305845403","97.6605293127533"
"3985","-52.9038689163901","121.256004987018","-58.4962311630789","-88.0450187563735","-24.8074124763341","84.3236251462448"
"3994","263.152679492985","-194.325513911292","80.0717626726586","-31.8857286282627","-16.3716442156915","84.399623339772"
"3994","174.796160391793","-90.7107838462918","35.0861462649865","-42.3143268020151","-24.3331542328252","66.7725414553451"
"4006","-93.976331832819","230.841398418109","-131.286344843592","-30.9261703463393","-20.4477059464274","67.0128603772906"
"4006","-35.7125185370393","142.728602701682","-80.5239501203875","120.637735449653","47.0330394912585","66.121780774501"
"4014","-56.0923905293952","265.684778320895","-31.8625104832808","73.596932103922","32.4315833461044","66.3251015256497"
"4014","-39.5175742372176","213.614692169404","-41.9710736277455","25.0750100800447","20.2842817246143","73.1425184485052"
"4022","-123.582648626159","-63.4992563820609","-109.952213753256","33.9226894435822","19.5322436062882","73.2377029597461"
"4026","-97.0859331690296","17.7920810659967","-88.1677992469431","-89.8290004862572","-6.5027364784815","71.110925079739"
"4034","-7.86529633487009","-70.1626475176924","0.188431081877198","-48.8226246586767","-0.687650101916421","71.2094565705138"
"4035","-27.7366121898768","-30.2878654171783","-27.0356167351204","-70.0444714293074","-46.6767478475849","66.873792483087"
"4043","92.3532081387351","-84.9498339964914","75.2180162624978","-57.3594852559994","-34.6677348440892","66.9974456363757"
"4046","55.2140522765256","-61.7001801701072","37.1044946599309","-26.1897308286385","-38.0137897403697","66.0020597553936"
"4055","-121.598285291389","-64.5939136104978","-93.9824725226228","-34.3832624497749","-34.3227701961614","66.1121243629827"
"4055","-79.3420971813483","-60.3218390323897","-54.3224475891168","-3.19388539532129","-2.31166064652535","61.7867715819889"
"4063","-10.4238890069555","73.6348333945236","-59.6551480606275","-14.3825025273728","-8.78887842461451","61.919643669072"
"4063","-21.6959729287532","31.3319479699546","-52.8487167443343","-17.1846929022801","-11.3227733373518","62.0384393795779"
"4075","45.5088810652041","144.830341870701","1.96008277625187","-17.8865017857683","-12.3140358900045","62.1446499550599"
"4075","24.6966261663762","102.381128584872","-15.7725740551552","64.166575002778","-44.8777963245653","45.6505190789708"
"4084","90.5784693551293","-35.9337494900621","49.5294837110346","37.7167769888413","-37.6167761970427","45.9037649666802"
"4084","68.3491074463035","2.27281910008597","25.1454351502235","-72.1310213914123","-29.9498603090631","36.1767284148136"
"4096","81.5575804657497","-220.659767733196","-104.644771255297","-40.6424144163924","-29.9505541516179","36.4801673562627"
"4096","73.7218296662152","-143.738981892662","-63.6945044336527","-41.5038388397675","-13.862836881591","30.1158243563014"
"4104","108.315481087592","158.859142593572","-42.0957323859275","-36.7195826800832","-17.5693037096828","30.4257154313891"
"4104","97.2218580064504","72.978409266805","-44.2614803853863","114.939925461605","-2.93128901837355","26.2790196407797"
"4112","-29.260853340385","327.629639811995","24.5247736118117","66.9230657337287","-7.20488113313106","26.5716219208287"
"4116","3.86280903729338","233.687753058557","0.920560245465019","77.6413865933533","20.081664466912","27.9391654237825"
"4125","-31.1819406005569","-139.633080245411","-64.7526476470998","67.3257912157948","12.7561919339384","28.1618323182931"
"4125","-15.2305357292351","-33.5428099014886","-45.4516701625965","-113.711839696954","13.1080565431372","33.8906065623919"
"4133","109.414235705445","-108.265518219662","76.0961225304314","-57.0527340051943","11.2457063757918","34.0124784438026"
"4137","77.7111240758795","-69.0621904418522","37.301033008179","-65.6066034253107","-8.78843355617546","31.9095606925137"
"4145","47.4993033204217","49.203253287882","-47.7578210394386","-54.7489209498418","-4.6258117320958","32.0294245865498"
"4145","49.9743907707047","16.9532025474037","-23.7957521975086","38.9469811613891","16.3081970708286","29.9247115726736"
"4153","-77.2846857561443","-26.1283263968298","-62.8370283067833","10.4131300129942","12.4976049657376","30.0429703929934"
"4157","-41.4057888464638","-16.9655858675041","-46.5752735513698","-14.2286750184085","22.2684891204387","22.4071258201262"
"4165","-45.2567717497286","-5.91843874132408","-73.1306047473947","-10.4002177626436","19.0908700408849","22.580217315418"
"4166","-37.4708751856305","-8.13950301756882","-62.0742372222297","-19.9386795763564","24.2829773477025","18.311214397439"
"4174","-31.6467494819591","131.177595763441","-93.3470003905953","-16.3275883727114","22.3141355921629","18.4944666822047"
"4174","-31.8105712371903","86.2231381383583","-81.3464917308934","35.3137566640458","2.23833603058015","7.59891229592036"
"4186","16.9949199616834","78.411634390511","20.8055118846531","19.2473371326027","6.38466056048722","7.85762537036631"
"4186","3.38187857559851","74.4466323340347","-12.33075647604","-28.5152466695781","-0.0372869499123576","0.347355425539956"
"4194","-21.1266666811039","-148.603625877233","-30.4044147062412","-15.4773909660135","2.45043992851474","0.632718260035637"
"4195","-16.8535015574395","-77.7124405473293","-28.449673309989","-61.1994555516417","8.25003810459018","-3.53590726640129"
"4206","63.6759642097048","-19.665300752218","-43.9977755635233","-44.6505515888551","7.51884746344634","-3.26291150120454"
"4207","42.0645736985556","-28.0634068337264","-38.4777624932286","8.48152016595575","0.797609377725722","-9.6544725484799"
"4215","102.640285720839","45.0072792455079","-72.7658556326761","-6.21154669717759","2.16825344494928","-9.36891605968675"
"4215","81.7380542505583","20.3883814056913","-60.4402401989772","18.1013713761495","9.1396464334056","-16.8551863628293"
"4223","130.744240963212","-95.9567624860499","84.4128325473739","8.19054434604388","7.8668632467568","-16.5483663920132"
"4227","113.194473063136","-62.2236558254169","36.8339468200413","-31.0321710802528","21.8481388579681","-20.6978079362417"
"4235","89.1295208388349","-17.0206130335124","42.1704217404033","-19.8555044152045","18.3176296730936","-20.4076605265814"
"4235","92.5425380050321","-26.6496817874562","34.3648352238456","9.18694133615001","28.1980825826207","-28.9957655729571"
"4243","-19.2582759115343","116.049259099418","-82.8338718512062","1.46062502625304","25.0633269237453","-28.6740527383038"
"4247","12.4941637324715","68.9455117738133","-44.0653669976207","50.262515120912","65.6657775935994","-31.7042398532077"
"4256","-452.588774165946","345.590317545555","-131.30185649875","33.4849537910838","55.5495021682211","-31.4134110507333"
"4256","-317.215961838758","250.180966132876","-96.8271875203084","57.2758099990186","53.2008026626654","-36.6830889751748"
"4264","-732.783106237105","-579.853850274836","-64.2445330411214","47.2342325180715","51.2819887625356","-36.3945008820222"
"4264","-591.799397541389","-327.651051663574","-70.9518609275906","44.7193183482597","50.5313465969324","-36.1364856109281"
"4276","-628.218304656654","-1224.10661185458","-269.609003394182","44.0894578215127","50.2376945336743","-35.9058042983675"
"4276","-591.700131860547","-900.612106849758","-203.072581521164","-403.953063034731","-88.2338853225967","-34.5936218986332"
"4284","-150.581127635803","-439.823164785232","-184.627995233664","-260.165361004598","-56.4041238073083","-34.4204511905356"
"4285","-266.509074571941","-540.910627585477","-182.499715257262","405.684245505564","-237.00814956554","-57.4903514747327"
"4296","850.981528032243","2365.80730819478","79.0749968236643","212.446351713806","-187.660648488259","-57.1162425533164"
"4297","518.293967295359","1419.99901030196","-9.37917138672728","751.898663780944","-206.967023198954","-66.7352202172833"
"4305","913.771706812931","-111.772548882249","610.247508545271","551.00455387934","-190.519698798084","-66.3351700714321"
"4305","741.454390281591","242.906729140438","388.932777801838","-398.578041967373","-105.254342270418","-61.553743739516"
"4313","808.428212575232","-1524.72428166856","490.373204293692","-122.401106145561","-120.89843846415","-61.2788583907515"
"4317","757.543120068915","-907.376000908703","428.07767025224","-53.2325625983613","-127.01842656981","-61.0330942048265"
"4325","18.7518051982624","632.689950212604","-463.297939546721","-35.9092933608185","-129.412572831095","-60.8133661059851"
"4326","214.832289238201","228.097145900964","-168.806241008615","-720.893335943615","45.0099112985865","-49.5575227979156"
"4334","-505.06344133873","-151.682299018482","-497.204714153122","-498.447663742711","4.24418415232252","-49.4941157085977"
"4337","-268.025726537022","-88.2167075476758","-348.707086059525","451.283873546188","255.357198089163","-16.2592467682492"
"4346","106.587155989094","-526.848180698457","345.268459488767","178.144240124735","187.59289284828","-16.5452567496536"
"4346","46.6917540184618","-377.186954716722","128.594542933723","-140.449245188376","103.166660750792","-30.072238693972"
"4354","-58.1127087297673","1491.08537578202","-161.461948501808","-77.2410181587012","106.139023369652","-30.1661815705521"
"4358","-40.1545220841185","914.053654616898","-90.382591716794","493.196804759484","131.433798037347","-30.2501722040651"
"4362","-34.492825666156","768.899974180649","-74.4735612415486","319.063019413062","126.32914246534","-30.325264928226"
"4366","-32.7078566733688","732.386226025443","-70.9127911092611","275.451193976111","124.33219543834","-30.3924023813686"
"4375","-463.435717990889","-1130.1534110829","-263.719362196168","264.528607562687","123.55098750523","-30.4524273393769"
"4375","-343.231744486076","-538.67961747373","-197.87346141694","111.33175394282","44.4142334393014","-41.5654863463809"
"4387","102.369493960962","-986.113651534419","163.219179351873","158.963585328854","62.4558458401495","-41.5012356042722"
"4387","0.854665728931627","-757.666730358592","49.0391823205693","-422.20443054336","-20.5789917365601","-22.6428233538625"
"4395","-41.2583947673303","1376.95544610681","92.7543301328973","-228.75802318671","2.93768599082306","-22.7822581931876"
"4395","-48.5354237049316","725.924652286931","63.5386845535441","566.748454190607","-3.95055181514327","-19.5891034871218"
"4407","-451.795149612606","137.283550798283","-339.088368088077","338.983137777847","3.35476177284419","-19.7342293718013"
"4407","-340.931268126732","232.209503561158","-206.204631661023","-111.70943601782","48.0413793272423","-12.1224055851645"
"4415","243.242541200453","-577.921183998075","107.726187594115","0.414559966050962","39.5228346013818","-12.3169731212847"
"4416","101.415633339274","-304.71145517438","17.9903992660713","28.4960269278692","36.1903702803889","-12.4909283078268"
"4424","199.903675195866","335.757476174595","-124.650699125363","35.5290333758478","34.8867064730044","-12.6464548027822"
"4427","145.954103883036","169.868935355139","-87.5767277780337","-358.107824870594","-92.7183990272655","-14.9973835391997"
"4436","61.5562078430645","103.661017302526","37.9490286134452","-230.694218735752","-63.6376604669866","-15.0992565188621"
"4436","74.9479942677338","101.006260506915","0.0442896594947931","179.119309307353","-26.5204607636109","-6.34282270477691"
"4444","141.505007908845","-233.615052601184","265.092039126382","65.7571518785734","-28.0001703047058","-6.51403940440584"
"4448","125.488507699647","-126.789827346629","170.415208530089","-128.84165244212","0.379345314677572","-8.87899613611634"
"4456","93.4833056613149","-63.2002909952923","-31.9457146621205","-82.578944102033","-6.51855611189466","-8.99341099499798"
"4457","99.3929919056943","-68.2041942469305","24.761724463969","14.7355009046918","35.8293454224449","-13.5194620437678"
"4465","140.004910687845","19.7078927708219","-77.9976328839403","-9.89208578284369","24.3958923472605","-13.566026389431"
"4465","129.808673096184","-9.17761591543837","-35.9973028529458","4.93453115644986","16.7055148463502","-12.5017184355368"
"4477","-78.9428369737158","-16.4438332537466","3.59828819266894","-3.35214102212467","15.6970304794197","-12.5501625267265"
"4477","-22.7561454178272","-18.2716672372501","-4.53939941281529","-22.9230378833189","58.7400797511418","-12.5934744845578"
"4485","-42.1061448220506","9.24369938473249","-70.3032375080889","-17.824571126032","48.5785692561982","-12.6321980036724"
"4485","-26.2066395143146","0.165254278922695","-49.0225449378291","13.1946885817801","39.7769782595147","-18.1965157057486"
"4493","93.3675826499964","-82.5470421447482","64.0874523815529","3.96346554180115","39.3337859175906","-18.1713534569232"
"4497","63.0658736114817","-57.3535139605222","28.4038097010435","-17.5935440766145","21.463621000492","-21.4666747946554"
"4505","-5.45289124868683","6.68274977729545","-4.44943810284334","-11.992499474906","25.4727922952433","-21.4128920796756"
"4506","7.94512558749391","-10.2087781543716","2.19732539976311","-3.59151768066333","10.9531959332862","-26.894503593818"
"4514","12.1691324666954","-14.4578815529204","3.68500857400096","-5.48749087862357","15.2731134322751","-26.7953969931387"
"4514","13.5008395643727","-15.5267534610507","4.01798284426687","-5.96233757180308","16.9630700385144","-26.7067896768696"
"4526","-186.56205640139","-199.382634860491","-159.31598741128","-6.08126297764009","17.6241829721851","-26.6275693581158"
"4526","-130.636096325739","-140.632012279627","-103.873508862939","-60.3470944943283","25.9268054497704","-27.6626808900171"
"4534","82.4242978352369","7.02886644543594","-91.4643352189448","-42.9379778865924","24.1748007432895","-27.5881334254928"
"4538","33.596072705009","-31.8266937998216","-88.6869054474286","33.1536828077405","-24.7745515833522","-33.0511799932285"
"4546","24.940862527672","91.2811211145762","-104.050873023531","11.2108474860772","-13.9235935164235","-32.9354752036649"
"4547","18.2121252990937","46.2491801828154","-98.4896468032114","59.9513086344282","-6.46108872084465","-33.937967404242"
"4554","159.292709701133","-15.7836920933965","110.568050278275","41.1583624183309","-5.54174841368991","-33.834256277688"
"4555","118.771334136558","-2.38820634911648","40.3594876855309","-0.288880721981933","-5.18210144686197","-29.3177750152806"
"4563","105.996117383788","0.981459452076309","24.6453589647342","10.330652735686","-5.0414071471104","-29.2797666394624"
"4567","101.968461342838","1.82910677360601","21.1282118770472","12.9903160425871","-4.98636737809142","-29.2457848445677"
"4575","-72.8284235360661","218.84984412654","0.803029157454278","13.6564290064263","-4.96483575826736","-29.2154030574113"
"4575","-24.9368215340165","149.44191870809","7.25383279543672","71.5584034893574","38.4811569311834","-22.5526040648723"
"4587","109.777769490599","-212.461996205613","-97.8731026750303","53.05995928211","28.4772783564999","-22.5956573678489"
"4587","81.2493804890368","-106.499773310726","-61.4026856062229","-130.027067008035","0.431766702692574","-27.0579068543596"
"4596","-10.2965131500706","51.2888463488749","-5.28301035062598","-73.8812326109431","4.46033085795522","-27.0474287309358"
"4596","9.8417165429986","15.9809430473029","-19.7222660743019","32.9066419551934","38.2122871109949","-20.4024248218239"
"4604","-17.5038615066835","57.8041394107306","35.6598471134467","6.65167672886592","31.4160905300826","-20.4613880094546"
"4608","-6.12513069972367","39.3248623746285","15.0555097409557","38.5662154513199","30.3662096195011","-23.8319225933605"
"4612","-2.53774625373714","34.676356971537","10.4438327927154","24.5592151377133","28.955495021128","-23.8453850855181"
"4616","-1.4067477810925","33.5070145540628","9.41164408941234","21.0511603891356","28.4036218764217","-23.8574213706112"
"4624","-44.8531293173076","36.7097590487152","-38.7762225433134","20.1725676966615","28.1877284787073","-23.8681825400251"
"4624","-32.5505157834751","35.5154169247797","-22.5616639636095","7.70567482112433","29.7120696078073","-24.9837429837626"
"4637","11.7616368652407","-99.4154923562838","-61.5608138303126","11.5833401475431","29.308393579709","-24.9811217292558"
"4637","1.73197590190668","-56.357678493311","-46.2896303503413","-20.6869460887789","19.4976818402336","-22.7668995583626"
"4645","-158.109877922748","64.6258178942196","-42.8716235708096","-9.76904277862617","21.6597203236266","-22.7872505456655"
"4645","-115.503387529064","32.0594996634585","-42.1066029448544","29.7058950112959","35.3759031826117","-15.0638704275783"
"4657","39.446437100264","29.1127090427667","36.2165142642858","18.5923974645886","32.741689413565","-15.1586998324854"
"4657","4.2976315097141","25.3714369629498","9.74684817494858","-1.68647811682057","-3.68239313345607","-15.2434830761303"
"4665","117.886172611851","-66.488967042844","-13.9394038057056","3.23467529315885","4.06846462228724","-15.3192844418566"
"4666","79.6973516005365","-37.596666738934","-9.24087699917173","-35.7724688053178","5.49181006303715","-5.4336017173655"
"4677","-13.2094676662246","-40.8194269057879","-139.626518654471","-22.5418122778232","7.04862440755161","-5.59520135148006"
"4678","5.49970157083984","-35.6301197710564","-94.8095225595644","-17.4786430232455","14.092847418819","3.10783320842361"
"4686","-2.07967051276186","-97.2688531267321","-86.5547310121014","-17.2105717339831","12.8485554193771","2.88887433449578"
"4686","3.53077286758189","-76.7742208142123","-83.7071378959651","-15.393883359016","18.7969824642039","9.32874764232744"
"4694","74.373470078587","118.962046730558","144.281164401313","-15.9388935583591","17.1240138446621","9.08638524677782"
"4698","55.7081218423012","59.1999630995387","67.3096628754523","29.41290575656","18.0783455007823","12.1875164704046"
"4706","-20.9351379192832","149.073530568836","-100.893393079572","14.7712688165432","17.4516811228587","11.9601160070718"
"4706","-3.0985391476734","111.681436882484","-53.5407166381057","67.0898657833815","23.641724791018","15.0746241062128"
"4714","2.52482413318022","102.275368171336","-42.9422080602883","48.1930640713224","22.063276867502","14.8591833814973"
"4715","4.29770779745736","99.9092495650619","-40.5700425880172","43.4603580318628","21.4457862564949","14.6665662974557"
"4722","-22.0990164506848","-122.738805770917","-57.8008960109249","42.2750512906885","21.2042232318292","14.4943549334543"
"4727","-14.4211395063476","-51.7464453660758","-51.6575174636013","-101.484900012656","24.3273212440662","16.552266131959"
"4735","-65.9118534519819","86.7547375583814","10.1075943821851","-55.4895954173591","23.5490807149237","16.392163648067"
"4739","-50.1453850694386","52.5950343893177","-10.0680958448158","97.7434748198353","29.6798276214757","21.7787188357377"
"4747","-40.1204871363842","31.7629474694073","-60.7644948294582","55.1207138895412","28.0781827378255","21.5946261097618"
"4747","-39.9599270064579","33.522587231521","-46.1113976844081","5.95574117657399","17.7988242285952","20.3240967341221"
"4755","-9.58418600341654","-79.6838690851226","-33.9508348486244","15.6423684252453","19.7775275661838","20.1881663576898"
"4759","-18.0075941445974","-43.1612182165126","-36.229049319026","-46.6649607139081","4.46360984536562","20.0666363508833"
"4764","-20.6632509010948","-33.9738598817534","-36.7389608471844","-25.2698380583792","8.47278793134524","19.9579811485508"
"4764","-21.5005026037462","-31.6627583827158","-36.8530895957841","-19.9114272675105","10.0411829281426","19.8608368028525"
"4776","-97.5772664342936","133.272684532472","-129.239958240785","-18.5694127034446","10.6547408228595","19.7739838616352"
"4776","-76.5620678938524","80.7625813533634","-97.9180506612236","49.999140757494","15.7211619750748","25.2260285863282"
"4788","-24.4489025534093","22.093902831804","26.32027486543","28.1721424128221","14.7031516538548","25.1004874813289"
"4788","-35.0191300291237","33.335659391495","-11.8726177492975","-45.5268774589927","-17.8710725379891","37.1535784702306"
"4796","27.3528121455146","57.1449214788457","-9.76390133988246","-24.9848049836812","-10.6141458441376","36.9297733750538"
"4797","8.01688004721867","51.1341971004214","-15.2919269841986","-5.84364157117799","-14.2104234034476","40.0474959515467"
"4804","22.1375677304918","-93.7505227068632","-41.3957238626969","-9.04973511732405","-11.6172912477175","39.8349291646861"
"4808","14.5894118087983","-48.1966131861486","-33.2382936163276","-58.8400985553301","-10.6028550186799","40.7508208606538"
"4813","12.2096967413848","-36.7374205929924","-31.4124919735004","-43.3101004816119","-10.2060064197722","40.5696836267729"
"4816","11.4594414656824","-33.8548338673167","-31.0038397952689","-39.4206107787391","-10.0507587995207","40.4077359455832"
"4825","36.4938418961933","-85.5831421900231","-50.4503474256921","-38.4464876605685","-9.99002575507979","40.2629448892068"
"4825","29.3864636870245","-68.5955192576491","-43.8028781255017","-39.9520683113915","-6.74866917907479","47.8750680326689"
"4837","11.9831525523952","358.802090480121","-108.033671555944","-39.3291411487753","-7.48064682446289","47.6807681397199"
"4838","15.4963923212061","224.314959855528","-85.4098518754256","32.5584165773958","-17.4197905275367","50.8248701578188"
"4846","328.278870274931","171.251483032315","63.5243513343753","9.5626632111286","-15.3079947734056","50.6358881928505"
"4846","241.890131532821","168.90324120242","15.8589070315741","-64.4290714826777","-32.1786454607065","42.7253517099974"
"4858","452.201044375842","-541.557213979062","189.913043076266","-43.9603094662992","-27.7784630700091","42.6528519653732"
"4858","377.505987374653","-314.275204847528","124.869959400828","-280.271790822321","20.5980604884027","34.8464576573803"
"4866","353.956798082448","-257.101883325839","110.311971720576","-201.456026972378","10.5230111601615","34.8670673379765"
"4866","346.532420371467","-242.719800439856","107.053592914985","-181.7166103631","6.58164048018119","34.8854936433314"
"4874","-607.680125931374","-952.468598586633","340.779969632787","-176.772871331192","5.03977181721948","34.9019678787007"
"4874","-343.515720414219","-723.00757046185","261.092767866439","-184.282460811559","131.531701800212","59.2473615579657"
"4886","-233.276666911415","1660.14927452294","-797.583953738276","-181.163238311855","102.015487719911","59.0136211476409"
"4887","-214.521484405968","929.637958451612","-448.537704999476","629.659571057091","-20.5384106195933","22.3086459645528"
"4895","-45.1898104276475","-2044.64633677828","274.339156805424","369.730231653758","0.518365888821647","22.4921703473138"
"4899","-88.8044352264751","-1196.83451479494","73.1339527134331","-720.60533601473","-70.0753439910681","-6.09816964898841"
"4907","70.97221759356","415.192660964531","610.686880309241","-407.679997260147","-48.6916830527256","-5.65966889254374"
"4907","18.3451712104782","20.7018711900443","403.002345923895","237.54635262912","-30.673577513214","-4.16168329640367"
"4915","1.75338686864247","-78.5332105804132","356.518250734809","75.1433619786303","-29.6248742693342","-3.82239325341909"
"4915","-3.47752245585428","-103.49602773419","346.114148609714","34.469515346298","-29.2146203755055","-3.51904736182711"
"4923","-520.653734458088","1916.67535365446","-428.852505782125","24.2827460433184","-29.0541285887356","-3.24783772320557"
"4927","-377.704423524064","1265.85419437478","-167.30607485857","933.24696202718","3.18463338360862","15.7956083420291"
"4936","219.954450832264","-1959.39324244518","-18.1814280198527","639.897148560825","-4.20352650951584","15.8216049637602"
"4939","80.378993625763","-1019.71178629699","-35.8042470987734","-1116.63933966013","-79.4897321659178","32.433937098456"
"4948","415.438905248677","510.518551501861","255.097167365167","-594.564093753813","-63.9417808769201","32.2863703101505"
"4948","296.073596482823","155.451575631301","154.20692183293","594.667392584459","-96.4705776514609","49.8494655269994"
"4956","-307.627756244572","1262.07184513254","12.6215837914415","287.510547392874","-85.1958797006365","49.5519386405769"
"4956","-161.957317558267","856.44476480344","47.9318561457228","411.781319702325","33.4395146601886","90.2056858357106"
"4964","-116.031644928447","754.408323071097","55.8350255662417","327.904948113049","8.84981496819559","89.5526033019073"
"4965","-101.552609747922","728.740817260216","57.6039183763209","306.898101746279","-0.769703332709945","88.9687078779302"
"4973","-31.2833601528943","-784.877785760677","-314.997822525549","301.636934794066","-4.53286976013843","88.44666992944"
"4976","-48.1294998230443","-303.632089114448","-188.393800194091","-436.241229353279","-55.8777896944235","62.5433323003893"
"4988","51.0125946796421","-203.554979310197","45.9795993703089","-200.042895638268","-44.9639803821128","62.384176260406"
"4989","20.2692272334173","-166.380348033119","-17.5627852979353","86.5544885652629","23.657468959338","56.7121845750375"
"4997","-188.221282319624","206.648130519248","126.295073351605","28.3328345404876","10.5022574701018","56.6410797475415"
"4997","-135.952304855891","92.4843176530845","69.4934381212987","108.226909111727","19.8351137045951","55.4715684109283"
"5005","25.4132801424106","-235.218406405514","-19.5956533592457","74.2363887581716","14.4861376077729","55.425954292662"
"5009","-9.71282191931041","-146.652793877391","3.46436497121388","-54.9954832651595","-10.129572067393","34.3723257048473"
"5013","-20.7870651123455","-124.373906691449","8.62567411879955","-18.3616196376014","-5.75926550310177","34.5491039001703"
"5014","-24.278453427593","-118.769600459317","9.78088187862012","-9.18666451658514","-4.04959663758666","34.7071543363181"
"5026","208.798136501357","-183.800835137918","-66.3362691809139","-6.88879601086361","-3.38077224581638","34.8484610190843"
"5026","143.280438492654","-162.159594475883","-40.3728622322215","-18.5601438346041","-41.730300272963","23.9154047187296"
"5038","-266.547781866815","477.970810405484","-34.5617146491439","-14.4832341636306","-32.7326789644096","24.140588805823"
"5038","-164.754756544927","275.997112460526","-33.2610596041784","128.251369515797","54.4447419074874","33.1894314882729"
"5046","-40.0022701676479","52.0938376550076","2.5536401594034","82.9992664968203","36.5486474454647","33.279646064679"
"5050","-55.6714223938116","94.7704446634996","-9.43028913072891","-96.290917197138","7.02449089012097","38.8899998972167"
"5058","28.6791816590986","-30.8730723090643","-10.3363611058863","-45.1941631597993","9.47460748933227","38.9059967431807"
"5058","2.27248543985897","15.5210068332453","-11.5391587579409","-77.8852727446344","-24.9604792733591","45.5559347252016"
"5067","-6.05278148963456","27.1915460617632","-11.8083697548828","-60.0727646877845","-16.4315241196222","45.5013828982245"
"5067","-8.6774971629576","30.1272975283801","-11.868624745197","-55.6116201119391","-13.0949872274824","45.4526102538911"
"5075","137.066424330836","-439.46662751984","-61.6151318193383","-54.4943259687967","-11.789730225664","45.409004549608"
"5075","96.0152639627679","-288.594078803834","-44.7494292141957","-124.196495188612","-16.1055088224811","50.8997149290053"
"5087","-135.941741682451","294.873933585573","-51.6316119457676","-101.65341103377","-14.7938462855147","50.8087432661185"
"5087","-79.0710711574316","129.646678148274","-47.1719868135923","192.668238933434","29.1568470763097","58.4689842139213"
"5095","-7.23006866635063","58.3597650055377","-1.76934763008865","101.381128107405","19.3504079748686","58.3177045585564"
"5099","-16.580680145537","57.4273751037939","-16.6072977312463","78.5182612945801","15.5141179190878","58.1824513647618"
"5108","165.791526869192","-224.307242817242","-2.16654478939151","72.7922538202376","14.0133569150329","58.0615268003349"
"5108","113.288204655497","-134.178245567255","-8.93440554350157","15.3725780995332","-4.27053005753051","43.5762019334979"
"5116","96.7354269628543","-111.506085294249","-10.4491927877786","32.9918140841192","-0.423207298299471","43.6254423176906"
"5116","91.5168153057319","-105.802850296315","-10.7882335096242","-106.058537452896","-31.0941076922265","34.8219517687272"
"5124","56.1769591768649","-90.380606909892","31.7641856723158","-58.8837130850378","-23.0925985782581","34.9510968912728"
"5124","65.0353255139474","-94.5011054786661","17.288297371982","-6.8291256986641","0.951986139840429","25.1131067230705"
"5137","-34.9403537536917","121.269883143877","-96.0748232929146","-16.7920486388008","-2.64174515291145","25.3173463972005"
"5137","-5.45979145427401","51.5475805063189","-59.4478348535229","101.431678741813","26.5195616390076","29.9237062827076"
"5149","52.6917159280084","-58.6589538732974","-1.51693637329337","62.0408240938857","18.9274978023976","30.0420716027479"
"5149","42.0252029076172","-33.3816656178524","-16.5508028703151","-12.5579657121423","14.348674981814","38.9954118241014"
"5157","112.790433770999","-20.0293139416835","-3.93007938368544","5.75875928550278","13.5574343212561","39.0002414037784"
"5157","91.1006626377083","-20.6704986163118","-10.1053003810318","-24.6448127807191","-12.4928818423256","55.5936489181471"
"5165","84.2625056480919","-20.83179012239","-11.4874425877388","-12.2593907040896","-6.68379495711849","55.4291623706419"
"5165","82.1066326917899","-20.8723633783682","-11.7967946061333","-9.15746040093599","-4.41127360452969","55.2821014136832"
"5173","-14.6026016113951","84.0242898489273","32.5384488346987","-8.38058161989075","-3.52226068390647","55.150619992317"
"5173","11.9077762322997","50.4112885578417","17.4615934849936","9.30948666993207","30.6102984492848","64.9865213675724"
"5189","25.3199178170317","-274.5131668467","-26.7650428352735","3.73996619283836","22.9629941450923","64.7804141857689"
"5189","26.5483778205856","-175.24867433402","-13.6638789652181","26.8387776656726","8.70976796996897","63.4902025504549"
"5198","92.6401046236022","-344.356148960113","-12.5077467787147","18.623877505719","10.1338897869918","63.3366750392616"
"5198","74.476912942902","-275.895530125663","-11.2489804783369","-111.150687208884","9.08220898057951","65.4112907361906"
"5206","14.839258075137","236.136586251205","-53.5955460493335","-70.6527410247483","9.67079026092397","65.2661230877673"
"5210","28.0372318125177","81.9394639224576","-39.0735834523535","-29.018127961462","6.68344618236914","51.8650627375405"
"5214","32.1981708932682","43.1508167862093","-35.8232678056531","-36.5907346015879","7.51479380374259","51.8837014088726"
"5214","33.5099945397026","33.3934417850554","-35.0957799242711","153.963193306453","20.7104088940935","49.6884869020476"
"5222","-1.45573331969484","204.035269475001","107.161391944084","91.6874452298695","17.8725484258206","49.7258318946952"
"5226","8.5205848309483","147.960620746072","59.0014898985587","95.3355261722299","26.4151674256337","56.3948564155742"
"5238","-96.1568234312589","-109.179312992475","-186.233361769563","85.2491884401326","23.7570496297959","56.3573691127912"
"5239","-65.1585801839838","-34.863465354009","-109.12199477423","2.24376905246719","27.543587555533","62.959489019619"
"5247","-109.297057683467","38.0327375327988","-120.281744635208","27.4550527591066","26.024885470105","62.8621849311075"
"5247","-91.2126419729143","25.369948037418","-106.779527517112","-69.4542220979858","9.34277879644046","80.4702180522602"
"5259","-46.7623834091131","125.343005559145","-39.8149967402827","-34.725160502506","12.8167198182892","80.2128683797853"
"5259","-55.7485035751402","91.491462240941","-60.8269494495438","-33.0254628230535","6.13173511987954","95.4659324246617"
"5263","-58.5815671443788","82.9760272642246","-65.5298591425382","-28.599773354784","8.51656155317815","95.1030974634629"
"5267","-59.4747500797341","80.8339496590452","-66.5824676214595","21.4960380142679","-19.5088713153757","108.049972647537"
"5276","76.7066998834787","-230.928578234676","14.8861852182808","6.04253940802733","-12.4724523166369","107.625264870957"
"5276","38.6407690444356","-131.353172041248","-12.8794449248739","-85.3052855689311","-27.416584826817","119.410882697584"
"5288","58.649532924981","-34.6183914734546","5.7725430387346","-58.1833582474451","-22.2627463486531","118.947940361086"
"5288","45.9577169875288","-51.2845309410456","-4.05275619920786","-56.6393182809577","-33.1169498748127","116.322163203765"
"5296","33.5327100756393","-127.163291352398","-64.865778750982","-53.2526133037922","-29.3631265573056","115.974559053928"
"5300","34.6154650600771","-105.250771185237","-45.4769912440013","42.0712814652014","-11.8066379324159","115.663779846186"
"5308","-10.5308551982418","-68.2665675769893","-28.7041243116792","11.9451612546123","-14.9385197470702","115.385924371762"
"5309","2.23581686423825","-76.9631045699624","-31.9500097100146","-20.0936273021307","-1.68452561954094","110.713747492691"
"5317","6.26077901168081","-79.1507388113368","-32.6765060101634","-14.1177453730054","-5.49954814251308","110.536537785651"
"5317","7.5297330671356","-79.7010433265594","-32.8391109112485","18.8708129512908","4.26960282770748","108.16622294157"
"5325","129.230281715793","65.2816819602479","9.75279825732571","9.13280096351789","1.09130572442672","108.04701760502"
"5325","95.5989418675198","18.7524259473628","-4.71425136706551","76.6759104636281","-3.36964543361463","111.258258714393"
"5337","-142.442453881435","36.77149285927","-109.19449718901","53.5920895676858","-3.11477456661489","111.129303172022"
"5341","-82.4900154327124","24.304231328152","-75.5793375987203","54.8089436851701","22.7257131277372","114.331827005605"
"5349","20.6477003192719","-130.946883810015","-0.560755592107149","51.1137049309467","16.8345411083036","114.195077689583"
"5349","3.16403659264096","-83.0006653051358","-21.7700450210665","-2.2982647604649","20.9651034392731","121.814390637015"
"5357","-78.1608590892885","-53.4552051985415","-37.1741986315724","14.3247016340724","18.5809840898502","121.626518865198"
"5357","-58.8002446051482","-56.022975535335","-34.621966877086","-51.4940702877108","20.8659116471859","130.306064539413"
"5366","-52.6964032854585","-56.668904175355","-34.0507246121226","-27.978388858152","19.7597778891226","130.066105176025"
"5366","-50.7720388038213","-56.8313890370343","-33.9228687758699","-9.84203465184295","8.06546502184755","139.805020687058"
"5374","-109.130855523667","77.7582072391227","-238.154872976634","-12.2997827727219","10.4906366159562","139.512202256095"
"5374","-92.5297011364741","34.6145352906657","-168.866220487526","60.5657693858644","-4.64862221849228","146.991979942176"
"5386","170.467691147153","116.429369515386","331.538965739661","36.8149548313271","-0.571117378835549","146.679355177638"
"5390","100.383156010442","84.0100826138275","170.539998356456","8.12241215946854","-18.2815793212262","148.611728273691"
"5399","93.450091323299","199.994718863041","58.1293883980004","13.9363617335966","-13.209932042337","148.339387106688"
"5399","82.2642967172379","158.17092566089","75.9695684381912","52.133013756452","-48.2282719115397","148.095897573677"
"5407","-66.1489499512835","-515.011610104356","-287.70654797437","40.6993694006638","-38.9274860320283","147.878203152601"
"5411","-26.9393505424781","-305.352253066633","-162.104786236793","39.5853618224618","-6.33062842431966","147.683571127225"
"5415","-14.5776988399458","-252.611950938227","-133.992513621955","38.3063585036093","-11.5787009003138","147.509558283374"
"5419","-10.6804278879655","-239.345004459444","-127.700405448965","-149.215806404791","15.3266268814474","153.989616070087"
"5423","135.434958251606","-314.687817655052","-33.9307772042206","-89.1807529559409","7.85202150726271","153.78318103765"
"5427","95.5009099336521","-288.640478710983","-64.9431945800544","-84.642266653575","-14.3776390023358","152.49267628397"
"5439","-326.478273603404","223.213163761731","-215.754939489944","-77.5056022666325","-11.0739073087206","152.338886707167"
"5439","-216.516095240331","62.9711459045404","-168.509727860542","202.46020884892","9.52410270479357","148.883571575866"
"5448","-540.69546911277","-243.102152984084","-571.785052033231","113.577676624604","5.58206749367448","148.794310128593"
"5452","-429.899841750562","-168.0956079145","-429.046412185697","107.062985806845","16.9103298269951","140.972929841083"
"5460","-391.599729724728","-159.718221845442","-290.527792964142","96.4313807845657","13.3419588504402","140.980141146419"
"5460","-381.524813067328","-151.610870766191","-319.524460431886","-46.1952971654297","39.2955888863039","138.774709880811"
"5468","-378.348483481496","-149.571447620847","-326.014514468534","-1.91616413580442","32.4486782786977","138.802920471002"
"5468","-377.34707870755","-149.05842595383","-327.467122822423","17.9212989940233","-69.975370839138","138.828142450871"
"5476","1423.94387932215","2349.6023301973","865.800251637071","17.8895937876434","-48.0437745725393","138.850692431718"
"5476","922.838776842658","1549.14629340373","460.878175299354","472.764625000154","-224.475979407978","126.705521126792"
"5488","-303.263308846508","-1864.10864584019","-439.689528730196","326.68812593021","-178.496457272385","126.84700083064"
"5488","-55.8178047752296","-885.720917099842","-185.255211038797","248.114053490443","-10.8909213365912","132.503188798642"
"5497","-146.27829476495","-2103.05588365352","848.591074859563","252.435168521071","-38.3234463180798","132.560164143607"
"5501","-74.797868720153","-1572.27934457905","529.987260939626","-1149.62162071782","155.262375431577","150.306132442257"
"5509","-424.58725675042","2082.61232122398","-708.272672175166","-698.766895733419","103.993367612951","150.172105190422"
"5510","-313.865725525111","988.008876782252","-328.420861230696","-573.603431694114","79.1104772200674","168.85324487979"
"5517","-278.958431759927","712.658817589504","-243.402167903595","-549.256228542773","72.3762623857271","168.555317611359"
"5517","-267.953172488998","643.393865535458","-224.373225545586","1010.44183476317","77.7858242852387","169.39489185586"
"5526","-42.0993118345351","239.563172096375","-250.309202911024","513.068383976049","74.9020510120408","169.14552218829"
"5526","-102.894127308836","358.978615692013","-239.114211185931","180.304712165456","22.2923518030257","151.227541687883"
"5538","-5.81467548784725","112.763120028193","402.816012193164","215.964014449093","33.7113780341167","151.20777959109"
"5542","-44.2083344647782","208.827035641229","186.493275869138","-501.168314388577","-3.65025662833287","102.528781651213"
"5550","-177.613227935064","367.622608247134","-16.4518278343729","-265.774183968926","7.73382968061013","103.006802927696"
"5550","-147.67192920613","330.568006316737","25.1248596082786","104.600182223067","-45.729462220877","73.5738217236962"
"5558","208.821858612974","-521.504937069174","-81.0210729779695","19.3604824287509","-30.6443624154685","74.2589500964641"
"5558","115.214030570399","-253.845880896106","-39.7787285437835","263.943773870093","-24.7430543284745","49.4348924274165"
"5567","85.7021920323858","-186.515618658243","-30.5478386743303","173.199685753673","-22.4344559375553","50.2406781784288"
"5567","76.3979636136082","-169.57853355514","-28.4817745610753","-314.907452096373","-68.1864968746303","21.10073830828"
"5575","-273.58955331313","-565.712483996554","-333.522188488011","-171.153937740137","-57.0847469797865","22.047863419615"
"5575","-177.930486393687","-436.360906679831","-229.796543530687","-149.147253601378","-20.5657524741503","5.19962187263991"
"5587","490.740319209448","846.317861443153","418.634519730868","-135.635677170668","-26.2794805644521","6.13627132787746"
"5591","322.552868359373","453.978708639809","211.766805856152","273.643873436114","-46.2114850209577","2.54993557013808"
"5599","-112.905237326702","180.440110312254","-5.04768204204878","144.14798130046","-43.008907683485","3.34353373055005"
"5599","-23.1925729460216","211.630835479934","42.4247503002986","183.447266612929","-22.4504693683778","20.6421482302993"
"5607","-15.1255141193974","-429.197145973954","-273.766930844881","152.289776884182","-26.4079850726217","21.1081595301679"
"5611","-0.5822039866198","-219.398925049017","-160.537170178536","-112.697453847193","36.3957851207569","24.8426198321452"
"5616","4.00288071646269","-166.623691384667","-135.194007344437","-32.0635345401895","20.9646909759917","25.1814540046814"
"5616","5.4484251999747","-153.347957796233","-129.521683225266","-165.829151149655","6.88403516152843","15.5309385742195"
"5624","58.1307608815078","-18.8748415241776","-39.4431340990817","-111.330764345695","6.37566669861113","15.9027920426436"
"5624","43.7399763386988","-60.0478142903754","-69.2816913394238","-6.70504309951893","43.179166396206","27.2946446643491"
"5640","34.1487916987157","-115.864611113478","144.286057074411","-32.5015198594666","34.576737058432","27.4796523351246"
"5641","34.1249688154979","-103.905457035564","68.0869372697928","121.996339752771","19.9498648910731","13.2678494550746"
"5648","-147.833268100617","87.9352433168309","-183.423671383309","68.6903454587109","21.2278159737888","13.5616350968354"
"5649","-97.1994330979244","28.1932206380621","-107.716948628515","-61.8799893261676","29.7717462321831","4.97678285077945"
"5660","88.921573015972","126.814072780602","-85.4436799837275","-27.5813438424886","28.1141414021837","5.30140388634689"
"5661","46.600138642638","86.6223790334088","-83.4584616913757","-24.2398940334649","-4.71029288410737","-20.9509085282363"
"5665","33.2574154533456","76.5120643723849","-83.0141287691102","-20.4030275661819","2.44875133810954","-20.4220692074635"
"5669","29.0508410604358","73.9687910486013","-82.9146778691413","76.7831600883433","-2.79461682489322","-39.8561622492689"
"5673","-196.344319998687","20.8755949271431","-123.744542896753","46.1234513330311","0.154171625792316","-39.2314209783202"
"5677","-134.404889819845","37.5198771381936","-109.883111342007","-28.038171928171","19.0045285714564","-43.0966215840393"
"5689","77.1819195006299","80.1726337892939","81.4943709588732","-8.61195852193307","15.378809505699","-42.5523455233859"
"5689","29.8891157257063","68.9020345857661","18.3286105456099","18.9974873230297","-32.6947431250089","-61.9726371828071"
"5698","201.983976760082","-141.998382422115","27.2811377153505","12.9122760310683","-22.5011712275539","-61.3355566383338"
"5702","145.240504854702","-76.0508760916493","16.2848984978889","0.890934853749416","-2.42544568257237","-66.2956644897252"
"5710","19.5282781099216","152.100540233972","-85.6423288410478","3.88018865133807","-4.57179916785747","-65.7303019619516"
"5710","43.894851979591","88.492563170835","-52.4557508996769","-75.8504474187588","-23.1082426484673","-70.7545300731879"
"5718","51.5769273872075","72.4918276182455","-45.0279082218758","-49.8189938748559","-19.3597202805219","-70.2464949494862"
"5718","53.9988633919966","68.4668051282239","-43.3654033699555","54.6753804130381","19.109079919534","-67.5804021035055"
"5726","-100.232633395296","2.76173792361898","-156.66877641637","24.846007793135","11.1581180197762","-67.1967532810501"
"5726","-56.8573598294196","23.2334744361249","-118.028415223956","-24.6139592121213","20.9180837032232","-65.7478086431272"
"5739","78.1180925191336","-155.203816483094","52.2524144410872","-13.0012133159664","16.7361933053792","-65.4523641933232"
"5739","48.671945541918","-95.0901347806389","-0.635213260935079","-25.8387488693863","2.22984209543584","-70.717915448906"
"5751","19.1716804095205","-48.4963395496091","-35.5628895005505","-20.0539110418653","4.55494111285687","-70.4256378633261"
"5751","21.871100750521","-54.7755612713877","-30.3804259957977","-32.6014969120367","13.5085168263737","-79.0118384031389"
"5759","-63.1990264404686","158.703947829153","-48.7584558949661","-27.7440411548809","12.011165761235","-78.6884228240246"
"5759","-39.0191750387981","89.4052181529025","-41.8718391748003","-37.0247901822538","-4.66258836916997","-98.3061771590393"
"5767","-31.3959678203303","71.9729604569935","-40.3304718886018","-33.3491547833031","-1.18537982296142","-97.8456402315172"
"5767","-28.9925912515361","67.5878352202646","-39.9854820035097","62.0471026411812","27.5244888822902","-99.6457708763528"
"5775","-18.1265025087817","104.950595192716","-48.7891626948109","31.9391056655126","21.755821956142","-99.2551969315245"
"5776","-20.7007392663097","92.3492849394541","-45.7596085562704","-0.0951439250779185","11.4551185861943","-109.965393170353"
"5788","111.581265194312","-152.106381064714","66.8177650444827","5.88187478861286","12.4254717901549","-109.540958661793"
"5792","74.2859520646349","-75.5997761805872","29.0149101572966","-85.3473244743774","1.5434829684348","-116.903063586081"
"5800","87.7987536149932","107.999719321554","-7.865019804601","-55.1956873299548","4.28643664692677","-116.485232230368"
"5800","77.0589487919287","60.1846022679592","-0.119511069390344","11.8404897752428","-28.4252930493014","-121.641362163811"
"5808","73.672999213824","48.1565976258485","44.2423975270355","-5.37029239401741","-20.2221586641184","-121.251255274926"
"5812","72.6055073241346","45.1309248975254","30.1715103907774","67.2994605691182","3.90130208787513","-117.584658123376"
"5816","-116.420684005939","-175.93459516329","27.0221547636361","41.4996080848323","0.338427188696978","-117.306497726267"
"5817","-64.0151704355522","-105.544144304867","26.3172638232029","-24.4466640799799","26.2942072962399","-109.316230312407"
"5825","-86.2419947524982","-119.309319447036","-151.458436640022","-6.96291510012407","19.4481377991038","-109.172446276204"
"5825","-70.2494690649687","-104.771981481804","-91.2483160698795","-44.5733056663169","-10.5796331162837","-122.315166282491"
"5841","93.1570323483449","225.844632104651","89.1888098986294","-29.9928320650866","-5.32653102370416","-122.065555663744"
"5841","50.6743721543492","122.012015309413","35.5743714137825","69.8840931620283","-19.3595002521601","-132.901781671839"
"5849","10.3251559825264","34.6970094000102","60.8741165234762","39.898279923769","-14.8492136687551","-132.590025426364"
"5850","13.6042161028335","47.7327152369937","45.5367228577378","55.1324783334412","-14.6935833318153","-131.205357115772"
