Timer,AX,AY,AZ,GX,GY,GZ
"1001","11,8156050652822","0,45641372782954","-21,7074665626901","1,93340565766015","-1,08726387854506","0,974336877954737"
"1002","12,3171713815247","0,53632908583801","-22,2613557016565","-1,58898632735673","0,537333553385986","-0,504847729043901"
"1010","12,4732312844316","2,3237261301742","-22,3940675871102","-0,297967294423483","0,179618878439279","-0,334338073159359"
"1010","12,5286467799052","1,73636939654603","-22,4281496590101","-0,0339850715057931","-3,08588193550963","1,00740507330564"
"1022","9,27238982664033","6,90791270983718","-27,662780965343","0,0200763094795115","-2,53441445456515","1,00690381307627"
"1022","10,0939667815833","5,10222614768085","-26,0136054444469","0,0311483507259131","-0,734711208802648","-0,17144006300744"
"1030","10,3913213317221","-4,16008011087536","-29,0719077236179","0,0334159663120151","-0,932767836324623","-0,143751525095313"
"1031","10,4989473006865","-1,29911408459141","-27,8611265857007","1,82907480429574","3,64191125943052","1,01900084306635"
"1038","12,1759552375269","2,89971712789004","-15,3550799213646","1,19683575832754","2,68078493632044","1,01717663524616"
"1043","11,7829431170457","1,86939383559273","-19,1277964909003","-7,90862241578876","0,698111721424025","1,01569601529005"
"1051","10,0026405294942","1,63145131125822","-27,0691442189784","-4,77347107996623","0,814454958765244","1,0144677649901"
"1051","10,3582654401978","1,57650094246622","-25,11847128702","1,2542086680762","-0,688002348307357","-1,2055728115649"
"1060","15,4011419446764","-3,74337025836998","-21,1312005238179","-0,511288870731682","-0,357632119617023","-1,1834090401599"
"1063","14,2263957095024","-1,97193957455046","-22,1022540297917","0,922321795264994","1,34392077388214","-0,0623797058042663"
"1071","7,24898768976008","-1,56284595146816","-29,3206106299043","0,215933262619233","1,10228540812633","-0,0557037494048595"
"1071","8,7235361452669","-1,46837000387661","-27,1833641666999","0,071260947804849","0,994591009366765","3,24067143303568"
"1079","9,25724445985217","5,62968954808404","-26,6318309536863","0,0416312501151668","0,94659272281746","3,21828370382796"
"1079","9,45041855595846","3,26891310082529","-26,4895034821971","-1,75963149499685","0,925200379870413","-0,0821215927634458"
"1092","6,24423122861336","-2,58346482085177","-28,1947169184989","-1,12854016052717","0,915666032507893","-0,0740847544964423"
"1092","7,08376150764109","-0,935011065079328","-27,6347606203317","7,9766829558681","-2,19720388583547","-1,15809576138312"
"1100","15,5778921858357","-0,554317693561958","-25,7483173490088","4,84148347891244","-1,58457801167748","-1,14335517721314"
"1100","13,6523168689963","-0,466400490783437","-26,2615058667988","-1,1862061287028","3,35139387992644","2,1389884311216"
"1112","3,12704245189139","4,86108405991754","-19,4261695623563","0,579289390809531","2,55130581583519","2,12705018344409"
"1112","5,31745148950417","3,09141160062716","-21,6622574170227","-0,854321688750147","-0,913905768060746","3,20485152280615"
"1120","11,024422510751","4,45178434821935","-27,4651238962848","-0,147933240804397","-0,458314952567842","3,18722131802004"
"1120","10,0900432597755","3,76594838587447","-25,9625991052028","8,9727111447678","-3,36388336678436","-0,0924430872626414"
"1128","13,0279536427517","-3,46867965459165","-27,3168029546727","5,84067002982695","-2,65886534306084","-0,0839064720651937"
"1132","12,0913213422295","-1,13944228942733","-26,6662658795305","-3,77676156285843","0,76397450105512","1,01123708523863"
"1141","8,47620403669323","1,16753135318732","-26,4983896848966","-0,746465241188844","0,289499036675593","1,01069331729815"
"1141","9,16772335777057","0,700303092117385","-26,4550679161586","-0,125843638248271","-1,47628007959309","-0,0768248911464456"
"1149","6,1419105641396","2,36146187710827","-36,8955413338151","0,00126313057897974","-1,26326968151233","-0,0697151952487824"
"1153","7,0467268553178","1,74508934392037","-33,5897873875854","-3,56309352884898","0,385977142270609","1,02354617206163"
"1161","13,9264345553951","-0,166315854292834","-15,317290087112","-2,2930936702897","0,121029499248423","1,02193850028242"
"1161","12,4165237672724","0,392264854025164","-20,6019288410337","-5,62337944487812","0,00294505811397282","-1,1527431273138"
"1169","10,2319631132623","0,521263300217241","-32,4173242606506","-4,3054405624313","-0,0496839635258523","-1,13909162063074"
"1173","10,4412680496943","0,551054159214284","-29,4663797210288","3,14525834841207","-4,73607101409338","-1,12662932772613"
"1182","7,24091923078948","0,557934050453131","-21,7370967106942","0,671203077978154","-3,82474555180061","-1,11525081040471"
"1182","8,08256274013372","0,559522890286956","-23,7424946063634","-3,42588608776291","-0,309956602920248","-1,10486041371567"
"1190","14,939405244568","7,63613112394464","-26,0019454190339","-2,26499282041133","-0,743451296438535","-1,09537125705919"
"1190","13,4212184686446","5,27040071624894","-25,5850144229194","3,35834785415142","3,72627541108211","1,08599260102234"
"1202","4,68145014199709","-2,35218159830856","-30,7032485791677","1,51003941592093","2,71838666091535","1,07900078408712"
"1202","6,51811766142576","-0,112538266389783","-29,0240490473173","-2,45889330542888","-3,94806011053575","-2,18631118613923"
"1210","15,373159121492","-1,36437609427959","-26,8487762809199","-1,27175288284812","-2,91922691307809","-2,16980234627452"
"1210","13,5782143610029","-0,653475113056148","-27,2874300821136","-1,02861989723578","-0,906376253343697","0,0178404753311632"
"1223","9,6524334793151","8,35600176155307","-29,1425702926739","-0,978824904521888","-1,00926940411636","0,0167327303308083"
"1223","10,231509066847","5,43664740598947","-28,621303774533","6,21215105844432","0,499182455071928","0,0157206542903375"
"1231","8,80305065795377","2,99339233850736","-19,7770760778254","3,68490307841322","0,171483943542063","0,0147959602272168"
"1231","9,28602449511835","3,42914781186559","-22,4947537522686","-9,39905233930007","1,57974236418438","2,18644574165753"
"1239","11,0988884529402","-0,00833961530817007","-21,454129635226","-5,0787194484461","1,20738866696921","2,17079746769974"
"1243","10,7550490313791","1,19780816189402","-22,1855884198384","1,19169209819943","2,59574473035612","-1,10221412313924"
"1251","7,35449129975643","1,47635553529979","-36,3098843494553","-0,524092613233634","2,21452075708582","-1,09296859265788"
"1251","8,123669803985","1,54068317466354","-31,9547696959663","-0,875494900295719","0,490302871885214","4,34663563541992"
"1259","5,12596551475544","6,86271995930038","-27,3470138876321","-0,947464050346792","0,721836683450818","4,31717682298535"
"1260","6,04095559334196","5,09178939469589","-28,1579463610249","0,832990683584643","0,825028923361266","1,03157890696342"
"1272","22,7526639708861","-4,16249036540064","-14,4316765930591","0,197637752266972","0,87102064399045","1,02928714330761"
"1272","18,8014158302846","-1,29967070819117","-18,8895050194228","3,65790276039417","0,89151868113228","-1,14525386151928"
"1280","4,26684921294749","-0,638532072343556","-25,2657090791125","2,36658435056944","0,900654445589877","-1,13229863964942"
"1281","7,0061071711402","-0,485848931891561","-23,9111385475502","-1,48827370363341","-0,649584116959697","-1,12046058560085"
"1292","16,1878384866904","-2,21964866422056","-23,5615809975024","-0,277770152412924","-0,340509509598158","-1,10964332949478"
"1293","14,5111381226545","-1,6200518076663","-23,4713749300085","3,56053656760861","1,35155214483037","-0,0135391783197016"
"1300","10,6281554394962","0,287479221268694","-28,6739230167071","2,34664321075197","1,10568663173914","-0,0119407479524875"
"1301","11,2227217044075","-0,271996186436037","-27,0164813559135","3,89322549247588","-0,558203379090733","2,16195697161739"
"1313","6,52376399687764","-0,40120125421203","-23,1048812221526","3,20997417738143","-0,299782054020051","2,1484244329818"
"1313","7,82299059127846","-0,431039830330123","-24,0954621275653","-2,31554275898064","-3,29322688343957","3,22227649217051"
"1321","9,93129474417378","4,86925023928406","-20,8672049863961","-0,447199473077462","-2,62737447470238","3,20354345407328"
"1321","9,69438899982385","3,09329749542073","-22,0341279107492","-1,85974675594508","3,88663021511827","1,01399104122653"
"1329","16,1608538925652","0,914099222393614","-22,3352615239698","-1,1490443248507","2,7898551488092","1,01321586001102"
"1333","14,5013711311416","1,41083588554934","-22,4129714147593","-1,00348849955222","-5,47051761895932","1,01250751402561"
"1341","5,71046115364004","3,29461241504346","-25,9169093748729","-0,973677853983309","-4,15208085431329","1,01186024048721"
"1342","7,52861810857658","2,72965115100263","-24,8211280481112","-0,967572467356473","-3,56446714034151","1,01126877357884"
"1350","11,4628005732237","6,13729983511049","-29,7641795520715","-0,966322050092714","-3,30257374802518","1,01072830157429"
"1354","10,8867659130105","4,92426110833824","-28,0397727627784","8,00990613044806","-0,0772299973099959","3,18266735621788"
"1362","12,3163249762687","-2,43211896621456","-22,3689495957323","4,84828777053077","-0,639727440482954","3,16734951704593"
"1362","11,8337495175934","-0,130998976004353","-23,9055491991942","-4,77520140703717","2,21819378865515","-0,105296681964633"
"1370","8,38297670062448","0,40042092235285","-20,8181964656754","-1,74614571256727","1,49193990430107","-0,0957873110431591"
"1378","9,1339800079195","0,52314685997081","-22,0214808775859","-4,71616703224478","-1,94036454461743","-2,25953031121156"
"1382","15,9580155677677","11,1658511091468","-29,299766484445","-3,32444397829947","-1,47010735731301","-2,23672350794292"
"1382","14,4279544183461","7,62367374960208","-27,1779851714761","4,141366342758","0,293791716222389","-0,0434506447955445"
"1391","7,32194124946581","3,26752381429029","-23,1465585484903","1,67040597349355","0,0799434024201005","-0,0392734158460439"
"1391","8,74994146361916","4,26151597215223","-24,1062172885169","1,16433949603084","-1,5696768717871","-0,0354563324242275"
"1403","10,9048548352923","-7,89235409195894","-24,3538647533253","1,06069425639159","-1,30489567178036","-0,0319683438868698"
"1403","10,684819155473","-3,69916487175082","-24,4177721240062","-4,34611612013646","3,47604542400211","-1,1149971963023"
"1411","13,8812840145486","9,65263116424439","-24,4342639222587","-2,45346106811426","2,60686172775356","-1,1046515050239"
"1411","13,0382347177942","5,73609057640938","-24,4385197601488","-2,06583474794225","-0,889145069170336","-1,09519778001303"
"1419","6,18088339289592","10,138786953909","-27,9235023257854","-1,98644671369398","-0,447279363584219","-1,0865591190773"
"1424","7,69888600280485","8,15554421619101","-26,822829410805","8,80097890461999","-1,80465463934462","0,00755083431061954"
"1432","8,24832241599625","-15,3002494627761","-30,0226764454145","5,01030389074925","-1,40962284747645","0,00733091137773357"
"1432","8,4471892494062","-7,71712278785014","-28,8484220702331","-2,94682518356007","-2,78787151718156","0,00712994934845736"
"1440","16,7094337481401","1,11036331521753","-26,8034543619786","-0,576489637689099","-2,40214278243979","0,006946313484593"
"1444","14,6999279361357","-0,851019929637382","-27,2757344054549","-9,06700377388813","2,43270338637093","-1,07943755765259"
"1452","10,6964873364831","9,31038082618455","-32,6234364448678","-5,80590846624976","1,58754462708822","-1,07215768369436"
"1452","11,2474542260395","5,65705139521142","-31,0034529000663","5,63314856315046","1,21086605534706","0,02071061078345"
"1461","19,6371402658293","4,81335269060985","-16,649866187067","1,97593129992371","1,04298428774948","0,0193561038069274"
"1464","17,6737615307825","4,61850918755441","-20,9458105554951","4,81730162368385","-5,24908000588728","-1,06809768227582"
"1473","15,3250695369258","-11,3480308492395","-20,312470537742","3,39923012759604","-4,05338838629398","-1,06179548825408"
"1473","15,4749676356692","-6,03533838625075","-21,14903217865","-4,07197650149921","1,1424499147975","-1,05603664463015"
"1481","0,786745335934112","2,26781438206362","-33,5585085680485","-1,60212132624513","0,458181638283623","-1,05077430585131"
"1481","4,47038808869034","0,185341768273009","-29,760871282267","2,49410763655659","0,153210300941296","1,12646644553041"
"1493","20,5461488033936","10,3187781848142","-16,5872660979401","1,33303819484104","0,0172877106464332","1,11599408781306"
"1493","17,3647213465196","6,65899067846845","-20,1877139548566","2,89043910926896","4,61963924587086","0,0202085612997168"
"1502","19,489319487173","-1,26244075945449","-31,5684907037935","2,20940351054601","3,67086001817924","0,0188973391607316"
"1502","18,2583113019787","0,908186453601008","-28,505389407334","3,86511803574967","-2,96924224668338","0,0176991654252728"
"1513","-8,39609717122756","-0,359589934219337","-31,1988164060794","3,20421761333743","-1,92866757343081","0,0166042935044633"
"1513","-2,04357899481638","0,347630201183683","-29,893876368611","-2,31672173543217","0,089416141376349","-1,07061223573743"
"1522","28,1025974448775","7,58719669558586","-8,65382047709912","-0,44744093403623","-0,0111446905402341","-1,06409324724031"
"1522","22,0139140304623","5,25909981535928","-15,1726574609864","1,73059262674458","6,16127749577778","1,1142958047291"
"1530","19,810133645345","1,18332922908689","-22,0807209441678","1,17666605860136","4,91226261873735","1,10487275191"
"1534","19,0124820587426","2,24207210216659","-20,8634009084","2,85841322283854","-0,307341310095848","-1,07616998687844"
"1542","-2,57091516270808","-2,82060314543187","-36,2267413350974","2,20284443022442","0,36633487041717","-1,06917183106117"
"1543","2,61704006448983","-0,98977571224292","-31,1913718323465","-6,90739180624128","-0,887724859416433","1,10965507540088"
"1550","17,5992290385953","6,50927628422917","-22,9241866113906","-3,77321904426118","-0,446646390695046","1,10063212798466"
"1554","15,0219866267275","4,24110490103091","-24,7907746226507","-3,13132296646736","4,41286858561806","-1,08004500027626"
"1563","7,53694939488186","3,71729414320692","-25,2724622992696","-2,99985906642798","3,57870446027186","-1,07271275612485"
"1563","8,8277630058571","3,59632545801646","-25,3967655822688","4,20784314466529","-3,01031503158834","1,10641943445086"
"1571","7,65691600301814","-5,27691264498189","-18,4610743928233","1,68402079362287","-1,94697329148142","1,09767545124182"
"1571","8,233131502625","-2,32609535203572","-20,6712648822957","1,16712788719641","-1,47305280785989","1,08968533974434"
"1583","10,0797439956852","0,124425755921033","-26,4674483433473","1,06126533446815","-1,26183131967353","1,08238410411504"
"1583","9,7481197534859","-0,309651700425087","-24,9631989469988","-2,55080474253743","0,38661820535744","2,16192840387146"
"1592","14,5422485238934","4,8972835743254","-21,0911312786192","-1,29057685825243","0,121315214476823","2,14839865649657"
"1592","13,2774688053318","3,09977150465174","-22,0919138467909","2,5579136827608","1,5573826773175","-1,12261276441108"
"1604","9,54357954302239","-4,39158665266014","-29,3179422645792","1,3461060292932","1,1974231843648","-1,11161049572564"
"1604","10,192109716722","-2,12163845676115","-27,1826755740988","-0,69727336052757","1,03699293833011","2,1570913556617"
"1612","13,7029493364619","0,171642964483595","-23,1477689436756","-0,115768866481119","0,965490826712984","2,14397863949186"
"1612","12,9736870251645","-0,298747373713842","-24,106529640488","1,79852091769906","-0,620687208337411","-1,1266517048855"
"1620","7,79557360351106","8,43792246972464","-19,1281188882677","1,19057815179031","-0,327630454452572","-1,11530121470363"
"1624","8,9213712491013","5,45556614755666","-20,8434009462122","-2,52432075567669","6,02022304391588","-1,10492931896956"
"1633","7,69079722105921","8,30494240713016","-21,2860429348316","-1,2851527898997","4,8493960994219","-1,09545164713371"
"1633","8,24539470612249","6,96297642912205","-21,4002701717933","6,14941339748058","-0,335360271558405","-1,08679110274217"
"1641","10,0841826247757","-7,4994193701937","-30,1394581894389","3,67205405522244","0,353847107296376","-1,07887723629295"
"1644","9,74972630174285","-2,83936032867101","-27,3946742019502","-2,22090622049378","-0,893290527079364","0,0145703794224731"
"1653","9,62867085605598","3,54401316374402","-30,1702454789515","-0,427817381698325","-0,449126951563679","0,0137452590965213"
"1653","9,58485520683291","2,01818735150786","-28,8865034167737","-3,65097161305342","-0,251167811452904","1,09920732896801"
"1661","16,1212084703825","6,97299461781593","-18,1035707689161","-2,31109159250354","-0,162939457500423","1,09108514503454"
"1661","14,4870215915418","5,11725618828729","-21,320950424763","3,34890656828612","-1,67792726589402","-0,00255282784822963"
"1673","15,5335856877176","-5,92566939928959","-18,6673361667174","1,50810578787088","-1,35314175974284","-0,00190165285291151"
"1674","14,9123863692343","-2,47591902481223","-19,9825501941889","4,7214883472361","-1,208388198077","-0,00130661959458111"
"1681","-1,69298533905364","-1,6792348009726","-46,4510838393373","3,37960703371352","-1,14387302354457","-0,000762887754344897"
"1682","2,29675103454919","-1,49524880673639","-38,2814965485854","-4,07599542066989","-2,66942955226116","-1,08648208590188"
"1694","21,75940750347","7,3925424930141","-8,30219596491704","-1,60294442332641","-2,34935441612351","-1,07859486166558"
"1694","17,8038566313287","4,44508611056878","-16,5658023109909","-1,09644977356244","-0,652389939092395","0,0148284088136825"
"1702","18,0102101126707","-1,54277948356842","-27,4080015262199","-0,992716841845668","-0,896070314545094","0,0139810422125096"
"1702","17,0848991256527","0,0743847934138108","-25,205916072932","-0,97147175835353","-2,55898643199021","-1,07300931936002"
"1710","-4,54470402628631","-8,39744945145511","-36,831245746484","-0,967120646656232","-2,30013105264845","-1,06628366385884"
"1714","0,626527105346833","-5,353932082722","-32,8312532503369","0,828964902929899","0,923858686911279","1,11229423532783"
"1723","23,7929280992173","0,656117804188424","-12,6376600902531","0,196813249915447","0,360757774884033","1,10304375000128"
"1723","19,1779362576614","-0,955923239472282","-18,4265449897646","1,86253948008893","1,6640997652937","1,09459080499473"
"1731","-2,14908257124026","3,97897350947234","-32,1140072388773","1,20368951074363","1,24498589354546","1,08686663953083"
"1735","2,13166803292367","2,11863695157206","-28,6461642278924","-0,726441058549508","1,05819114892136","-1,09262368203116"
"1743","3,68107265342023","-3,61816954563858","-31,2351444526715","-0,121742573861158","0,974938651279999","-1,08420695362642"
"1743","4,24187492853547","-1,94302576287744","-29,9032511059679","0,0021030514591564","-3,72509696776689","0,00970016926100115"
"1751","12,6351208561203","0,212891721624817","-22,5917769547599","0,0274673268779786","-2,81985453215362","0,00929493922559354"
"1751","10,6730306115996","-0,289221399222896","-24,7049937035501","0,0326620720767526","2,24653355312535","1,09514069809663"
"1764","0,134539727828508","3,1329414145304","-32,2180944868637","0,0337259848924981","1,50457064602488","1,08736912302072"
"1764","2,32016510565523","1,92325457611414","-30,1569090719177","-1,76125053744464","-1,93473515286079","-0,00594846911037439"
"1772","-1,80291361031726","6,95107087369779","-24,3991775390474","-1,12887174945859","-1,46759839527083","-0,00500453533291208"
"1772","-0,29524937194392","5,112193125987","-25,9133497570552","0,795837374120013","-5,9223311806369","-1,09035803537138"
"1784","-1,387607951813","25,916247222534","-33,2718624006813","0,19002854708476","-4,90775979348632","-1,08213664207593"
"1784","-0,782983806982399","18,7207286752351","-31,1707843037992","5,45153877031636","1,76166536057856","2,18402408986913"
"1792","-16,9446724527429","-0,631605294797085","-42,8221797179083","3,52912543577853","0,734159597637477","2,16858933970423"
"1792","-12,7943463483468","4,899173023986","-38,8289136905548","-0,454984382016647","4,93914167727482","-1,10416284196236"
"1801","13,2786472877745","-39,8191193377433","-8,18540340863402","0,7290476864878","3,81325896773424","-1,09475125274991"
"1804","7,71568778499208","-24,1463471584042","-17,2776052324411","-9,79962244189252","-4,46008677742907","1,08628100954685"
"1813","13,8924568208221","20,1615052437907","-24,8497456963789","-5,95595285921215","-3,14743193546045","1,07927328183588"
"1813","11,128119527859","7,39394619435984","-23,8037959340872","-6,9639422894797","-10,3339465593097","-0,0133463188339563"
"1821","3,57536387463216","15,0597722421575","-44,4371862739066","-6,17038415177755","-8,53690225795961","-0,0117645716632005"
"1825","4,84166700959915","10,8301156038578","-37,7617944861116","15,5344739962178","-10,8445986421463","-0,0103191964880934"
"1833","62,6318583516803","-27,2969467820215","16,2191074215361","7,97975010967222","-9,87311520008316","-0,00899843585362516"
"1833","48,5488417885812","-15,1019981065775","0,149302550205543","-9,72424927421325","-4,77720417911173","2,16464055715906"
"1841","72,9364918296791","-14,0547609725885","-31,8687111443457","-4,3501271784679","-5,50600901723629","2,15087697864996"
"1845","63,7635273547047","-12,8129123711823","-24,1312107068868","-12,2254490609776","-2,72220928457717","4,3107321446806"
"1854","39,1487111866036","61,7744134677065","-25,6183723443234","-8,83835894554733","-3,48149835802722","4,28437312632742"
"1854","43,2394535749988","36,9995861160989","-24,0021460692012","8,01208577670235","-2,26559541457245","1,00163852374221"
"1862","33,2537139443372","48,9686988545909","-16,6172975756906","2,46315092138835","-2,7236799707745","1,00192833695261"
"1862","36,6394059517686","41,7328418379971","-18,7115794999485","28,254614351077","11,0609489608821","1,00219316361232"
"1874","-17,8289568908529","-105,001151420053","-36,6714469431464","18,5368500392019","8,20461638540848","1,00243515796307"
"1875","-3,54361463735888","-56,8878518591797","-31,3061316024877","-33,718846033501","10,0401988740974","-1,16977581462877"
"1883","9,81718666147441","58,5979771000144","-42,1151649932673","-16,4211043002926","8,85829912160496","-1,15470733398109"
"1883","9,65308792743752","26,2682366902524","-37,9045208388489","-20,0592079012646","11,4401591082309","-0,0547219466654736"
"1895","25,9742234015804","103,716912697923","-45,5276418724452","-16,8043118280169","10,5908675656849","-0,0495729562317479"
"1895","21,8816085902409","73,6028846189855","-42,4948480460126","57,4652801803075","0,886485381745233","-3,30351604614056"
"1903","46,6091479623629","-12,959353891438","-53,9058069083336","31,6761072246254","2,56134199237883","-3,27691701079554"
"1903","39,5592053937417","12,0499910421224","-49,8504943429619","4,85200762691173","1,75349808925343","-2,16639518768101"
"1911","197,536699191115","-83,010797645845","36,5511765473733","11,3582822870089","2,39345036534729","-2,15161817134061"
"1915","156,716171077664","-47,9641051123107","9,84780539964028","-71,6833339702976","2,67867051682052","3,29296508685982"
"1924","133,751040216356","115,806875370573","56,9569978869174","-41,6907205495712","2,80579020659326","3,26813787408001"
"1924","130,438881168312","65,6280920704129","38,1138945024007","38,0549052315896","2,86244614567908","2,15923511398504"
"1932","129,240055306356","54,0398202573366","33,2512838808686","13,3872545618804","2,887697115371","2,1459375714434"
"1932","128,806143943269","51,363628552758","31,9964490707988","8,33518200054815","2,89895121301142","2,13378649051532"
"1944","-384,061513921804","-188,077554413035","-173,876545378113","7,30048933740337","2,90396704865043","2,1226830278072"
"1944","-256,692397913606","-108,37402293947","-109,003686330726","42,9924668563641","37,1010286900248","2,11253686181256"
"1952","-187,658792266537","101,091199868484","-130,585463678836","30,3023830983941","30,342307556672","2,10326545818857"
"1959","-176,672289325894","41,4650299545041","-114,154810597067","-36,9236159304505","28,8843252983686","-2,25007080791275"
"1964","50,0794568328785","229,367859028876","-0,172395829257027","-14,6918758125652","27,2345175922427","-2,22807960998309"
"1964","-3,84844047038385","158,762076954301","-33,7583396938301","95,7777793092148","-26,3473342255739","-0,0355523031630987"
"1973","120,781190126378","-218,43190596143","18,5425195479805","59,4025813616416","-16,2282148202578","-0,0320560437022019"
"1976","77,8905046726565","-101,540961080157","-2,96083351044109","10,663266156554","-58,3475356802426","-6,5461575273628"
"1985","-86,6964757100784","-177,151703437008","-18,9615953654754","23,6811823212209","-47,1196840488068","-6,49863890155907"
"1985","-55,2682311004842","-136,613223561528","-17,0907174618297","-45,4604524821518","9,17669321625561","-12,9725134534838"
"1993","128,102696505283","219,484543797626","-9,64015411825528","-19,6210452646948","1,2674099005416","-12,8882361031653"
"1993","89,4732442827576","105,721645791573","-11,7174778100293","-14,3289904211946","-2,25767637483207","-12,8112248132284"
"2001","-27,7059103043558","266,969673961372","-88,8990023742401","-13,2451480469898","-3,82877109388705","-12,7408531326362"
"2005","-7,11854779053647","198,208240878722","-64,8163001501657","150,339520925175","-16,9634740920068","-13,7627646720599"
"2014","-55,3608184761115","-404,999530523875","14,5600006270216","92,8425743222995","-14,8174762084554","-13,696571033498"
"2014","-38,8219611623424","-212,304136077173","-6,95632238088422","-116,404507250025","-4,53516533699662","-2,77392383336623"
"2022","-73,7870984937494","232,00450920284","-103,08977043876","-49,2594776525573","-5,95244507205274","-2,79298414755019"
"2026","-61,4426232713158","108,613002509772","-75,8977607188987","-89,3636332906198","33,8279551684964","5,87932725587719"
"2030","-56,9745781278684","80,1170082878526","-68,8806493340908","-67,5771882418925","25,5576706584229","5,80394621209316"
"2034","-55,3573828203187","73,5361526969121","-67,0698287035424","-63,1152026757192","21,871689861405","5,73506422426762"
"2042","-25,2870889943911","206,464956900478","-68,3444743935641","-62,2013631232722","20,228886107866","5,67212096945686"
"2042","-32,4032378893392","161,163491491953","-67,6734067113734","173,156265026815","3,95360257243794","8,87325258826677"
"2054","58,3901176381594","-132,348066421742","14,3710489297323","90,3588211274405","6,69987599210826","8,79839527833874"
"2054","34,2524956584665","-40,1315296643135","-11,4567357882524","-197,672914650632","1,70662071123472","0,0402634575233662"
"2063","71,381442456147","326,131690931941","-52,9606413441153","-105,663422040304","3,48117815753661","0,0372231814509041"
"2063","56,8201514681925","215,716399373617","-43,6710497026894","216,568492256098","-22,1511945697515","-2,13798707716807"
"2075","117,071858663009","-119,368429170083","44,0813679575328","113,563387124682","-16,5752796226548","-2,12565929594873"
"2075","98,8797802526596","-21,752809942624","17,7265676081562","-6,26832638892409","-9,42722080821084","-6,45925857364112"
"2079","92,2952129765342","0,790509253517797","10,9255046679327","24,1894697374447","-9,24140446853079","-6,41923203251306"
"2083","89,9119489406254","5,99665601979453","9,17043703305395","30,4273964110874","-9,1585880359161","-6,38265642171917"
"2091","21,8891587021701","-33,4894256659268","-62,7021003581725","31,7049586163205","-9,1216776031585","-6,34923421567179"
"2091","38,2685173146498","-19,6083284633569","-40,2493723538361","69,6656932578291","-12,2138475604018","2,37103487231602"
"2103","-11,4968275442865","98,5862888341703","-43,1649805708133","56,4402636236191","-11,5919959263537","2,33947679088706"
"2104","4,49075771937303","60,8821151178238","-38,9173761393559","50,1412329699299","-1,98898137180785","0,138207419488937"
"2112","46,3145825495872","-112,347884835133","21,4047848255678","50,8511563284777","-3,70901649291829","0,126722801740428"
"2116","39,4525883413141","-59,3535643994605","2,97139159071615","-184,173916112978","23,5019665531432","3,37487649710577"
"2124","-30,191264618307","274,853906130873","-118,495614608378","-101,308362948023","17,6296219988045","3,34298720595581"
"2124","-14,3986447118491","170,035670130595","-82,8411282669584","89,7968234363195","-14,5195169064367","-2,11723297428667"
"2132","-8,68255412039753","145,828980971304","-73,6402084157455","31,936232429418","-9,8480576599067","-2,1066945298717"
"2132","-6,61363257076158","140,238696089454","-71,2658388820552","20,0860603914546","-7,76603629101811","-2,09706466852391"
"2140","118,627239149758","-25,5749328733379","51,2828367642565","17,6590790059278","-6,83810076771699","-2,08826505579871"
"2140","87,9577905558675","29,132121854566","12,9074837076098","-112,091978398868","-11,087460279693","-16,2010327813816"
"2153","4,78274296545262","52,3805131522388","8,23024932974141","-66,665719274952","-9,98135613559623","-16,0970533969038"
"2153","18,6777882593189","51,7494890391716","4,02325231332073","43,1687195669966","9,16334645829132","-11,6571744981103"
"2165","-10,6920565622501","14,4534936723612","-82,4175619393227","9,66342577929586","5,69594361861085","-11,6000844274312"
"2165","-0,322382287262387","26,8403686935328","-55,7242920432486","72,8139368595431","-3,62099358039107","-12,6341324888026"
"2173","-4,75937557670349","-62,2901474356313","-48,8358843817629","46,7475140588666","-2,77345672246468","-12,5790290091863"
"2173","-1,36533176043565","-30,8739196958333","-47,0582767564867","-62,7123110653803","-8,61295937205439","-7,09759607614744"
"2181","-0,136867956452791","-23,6186663308295","-46,5995511663758","-27,1302942970584","-7,21556567952849","-7,08875064755517"
"2181","0,307770769324033","-21,9431404902871","-46,4811734298998","-19,8428986306019","-6,5927616743881","-7,08066783689059"
"2189","187,206754216457","47,4371576478196","7,54958172945768","-18,3503993171068","-6,3151843310141","-7,07328189424712"
"2193","140,854271041525","24,4598210210481","-9,50735811925238","8,88318913830838","-31,0604354240607","-0,549236428980008"
"2202","25,7939481174317","-240,898425639627","13,9620392754588","-0,539219917809473","-26,0891394831843","-0,587668404008247"
"2206","44,1482152870711","-155,18017238408","4,01850135198988","-85,0479251025258","-0,558829798660094","4,80829333196751"
"2214","78,638388157218","260,885086223803","-66,4832507090012","-56,3557796839793","-4,18023319482461","4,73903655263068"
"2214","74,1220009971601","132,97106104477","-45,6767807986409","98,5216685307104","-8,90287602231167","3,58953476778033"
"2222","65,9350962400877","-158,390290495707","-45,533334515667","47,241434509698","-9,00770938712378","3,53913848809541"
"2226","66,9718710417231","-77,6771857812998","-42,4963170772454","58,2812893279432","-5,94581198252663","-3,02420913277663"
"2230","67,3471285179483","-59,037327761768","-41,7125909068535","48,5423132233739","-6,58115578212178","-3,02169083667877"
"2230","67,4829518165478","-54,732645043668","-41,5103442215409","46,5477165505021","-6,86432198298944","-3,01938965812716"
"2243","188,748038420985","-149,267780675178","33,4453598576124","46,1392120173033","-6,99052624808955","-3,01728687810423"
"2243","158,639566534553","-117,099693996609","9,78826719946779","8,35646523843671","-2,38384335521915","-4,10158144304479"
"2255","-360,054548821018","7,08717499979566","-189,672210499498","21,6183477805115","-3,3306921413294","-4,09239241185456"
"2255","-237,794301324834","-30,2331500679381","-130,144551209141","92,5518432275803","52,2024771263002","8,95059699621968"
"2263","50,5273268400855","-256,446313945749","-36,3955747836683","69,0794190727975","40,9530398510409","8,86907135682673"
"2263","5,88446047764892","-185,687908067934","-57,2029161105303","-170,898333134417","43,7108326831982","14,2256547940271"
"2275","88,0092942658511","216,308166315299","-41,6691078595664","-89,0471164332267","39,9399526015159","14,1204147573529"
"2275","57,7341272905034","91,1450083303117","-49,6604868032256","35,4281347289511","-54,9993066223131","8,59316784324524"
"2279","46,7761229740921","62,2398695381479","-51,7227248188624","0,921361034996918","-37,3127585907298","8,54245833413868"
"2283","42,809906744921","55,5645262338949","-52,2549015136632","-6,14581884741476","-29,4300459306582","8,49612079868446"
"2292","359,156638780808","6,25829580755898","100,898675900913","-7,59321673900945","-25,9168019233882","8,45377830257671"
"2292","279,657373259153","21,8715310699468","52,4211577906901","-97,6493727881802","-24,350985181502","7,32887035772452"
"2304","-343,730400864468","-179,733751399825","-179,573557721272","-66,0933762746474","-23,6531167544592","7,30094753426011"
"2305","-206,363703736325","-110,292409433374","-113,44161367615","-102,715198054046","57,4820505310586","24,6548889315449"
"2312","405,207949681721","282,554201006303","70,8507002189148","-86,2155515913567","41,6431606129405","24,5126420223338"
"2316","283,564443715484","160,278068808935","22,4087772896601","-82,8363318885175","34,5839301822157","24,3826590799833"
"2325","203,498780745913","-230,61770820121","126,618083625731","-82,1442488292909","31,4377037401045","24,263882753694"
"2325","196,519258316481","-115,891051169307","86,5101124763845","128,035240506362","-72,5490154504753","6,77589002811634"
"2333","193,993041467851","-89,3961144958023","76,1599359402217","54,0811732238778","-52,8948273284707","6,79564298526805"
"2333","193,078684987042","-83,2773824809941","73,4889917049514","38,9349674047906","-44,1351577052014","6,81369292044726"
"2341","-288,839860553049","-207,467607717792","-211,136837937187","35,8329399011797","-40,2310629935548","6,83018666148418"
"2341","-169,268807765365","-165,148057739118","-121,586765697892","-24,043788429745","53,2132583426914","18,7936349445917"
"2353","240,933453406551","240,894718520019","73,9746063243153","-3,30687664651107","35,8604318608742","18,7256419535368"
"2353","165,404910300039","110,666104543481","25,4407522319983","185,845183662957","-65,1321612665279","-0,888377878601204"
"2365","-153,505858520422","-711,947875440245","-183,923253185627","121,584581532831","-50,1435219343769","-0,811354365345917"
"2366","-90,9346382900013","-453,922079084545","-124,951276899958","-347,555730586183","45,1324464449858","4,69010874258117"
"2374","201,99157738525","-224,503894636578","158,525996241992","-189,638285427198","30,5959662230365","4,71725742347055"
"2374","143,015327423463","-267,522134111567","77,6795299892861","451,274996469905","-24,0664122381515","1,48341729757049"
"2382","121,669053687855","-277,456752274271","56,816465265204","243,537614423297","-17,4288724512006","1,52838609874252"
"2382","113,942835037284","-279,751049745374","51,4325877767222","200,991838911346","-14,470589194519","1,56947786743354"
"2390","-196,80761982325","947,446972798861","-314,022674775557","192,278226579854","-13,1521127548045","1,6070268660759"
"2394","-121,282798852362","536,855682983088","-199,331271672697","18,1549660400644","43,3906886810074","0,555122486742215"
"2402","325,39476073248","-1033,3624478893","279,686820877733","78,4935502594772","32,5912340852361","0,593909149626594"
"2406","231,068340599451","-561,988109765639","145,301196769536","4,68189709465361","-1,7538671203823","3,88799993430116"
"2415","67,520989593604","871,897110629932","-150,669391062484","37,5648584818729","1,93887430086542","3,89808721799945"
"2415","87,3255248842268","454,038094724768","-77,0469226550588","44,2994725391296","3,58469119513217","3,90730481592617"
"2423","112,512299569803","-236,866399650585","126,597801368989","45,678759093224","4,31821486778039","3,91572770895468"
"2427","110,628575821748","-60,4236577412181","73,1499196613492","45,9612446792029","4,64513882889032","3,92342441340344"
"2431","109,946767758429","-19,6760285996467","59,3572745759588","46,019099304153","4,7908454779504","3,93045753838452"
"2431","109,699989410125","-10,2657844451328","55,7979743310558","245,297528610237","-12,2416276337558","0,678236140381751"
"2439","-114,802599250652","-391,978676668267","-168,089127064501","175,110863379848","-8,83282582518469","0,706408430154655"
"2443","-59,0606262532285","-263,131327225321","-97,8649496057408","-230,616140509276","-13,5307990131637","0,73215181633958"
"2456","26,6371328440231","323,878640503951","-60,5816860962328","-95,7112958276865","-11,6246373732229","0,755675709413533"
"2456","17,6551752831985","144,442530571613","-61,9604475217164","-12,431003600671","-3,00352932916053","11,6393319810349"
"2464","112,687366209791","-418,869182431276","54,3938767735067","-26,3747348504212","-4,16119008911086","11,5846423822438"
"2464","87,0839777700039","-253,960205298828","17,4200227662122","-29,230488849563","-4,67714759038431","11,5346679047226"
"2476","166,271774196216","-93,8110174702469","54,9110679699536","-29,8153632104885","-4,90710454524539","11,4890020293327"
"2476","140,933555508672","-125,826216382113","37,5859262403727","-148,41798030758","-36,095799573592","3,84376092440246"
"2481","131,762464562275","-133,219795953805","33,1150375298096","-106,708458373827","-29,9962803634011","3,85766232085969"
"2485","128,443016175462","-134,927266803304","31,9612896312794","198,040963464026","-13,2889948377741","10,3876615032385"
"2493","130,517658061629","236,1810790809","-76,3368577751535","95,4553462832001","-14,8427294109021","10,3546699393405"
"2493","129,268568362541","111,884719172818","-42,2840441342478","-4,54331516255387","-13,9809026606573","5,97965857152659"
"2505","100,969562289523","-311,320694448251","30,9554113099578","18,976400742925","-14,5967953366724","5,98184340943077"
"2505","107,726823382392","-186,055614334015","12,8554272304168","23,793369856336","-14,8712923716958","5,98383987923754"
"2513","144,571707489919","152,458619524741","-52,7833911084769","24,7799120209099","-14,9936328786883","5,98566422130047"
"2517","136,907600877947","55,6349860397493","-34,7220030094117","26,7771557810879","0,494944003496991","7,07354732736661"
"2526","44,0406830667108","20,8911454839562","-64,8999632814523","26,1862024525441","-2,60195648507369","7,06763744745521"
"2526","65,4277855042971","19,8674143029447","-52,6876226261214","97,8729486167716","2,23502791523858","4,88980499090987"
"2534","73,1687819789799","19,6309941586356","-49,5361323342847","72,5547944137939","0,390822143757521","4,89973664975449"
"2534","75,9706120350113","19,576395367789","-48,7228655462177","-97,7883913236382","22,8835327706928","11,4261083496235"
"2542","104,831627742775","-182,109090923038","19,4227484363211","-40,6756266828923","17,9083026976256","11,3898020504347"
"2542","98,277784322496","-114,686271200805","-1,9917413852122","-36,1593913298518","11,027962957179","12,4428419885818"
"2554","12,3649350901552","191,010226354654","-65,0020096143845","-31,2344411182115","10,9614662569319","12,4050929811135"
"2554","32,2690414328299","97,6076755751244","-48,2623035428529","-30,2257838219288","10,9318293611422","12,37059854402"
"2566","126,290083699987","-83,1781083896864","-2,13587933616011","-30,0192051769428","10,9186205013223","12,3390780810939"
"2567","107,320713087958","-34,9287182439038","-14,2325937836825","50,8068520756943","7,80411289054658","14,4827072911702"
"2575","3,8096772604501","-128,160579140937","-36,5156095487869","22,3604798027215","8,41600886202103","14,4415212547181"
"2575","25,3441736575257","-90,6915146211979","-31,2659165405851","-71,4300225006429","-5,30006790285518","11,1452379609911"
"2583","33,1385189261429","-82,0384211087642","-29,9111920846104","-41,6388409465053","-2,41318233128581","11,1331471977138"
"2583","35,9596584153703","-80,0400785214953","-29,5615948131607","12,9328086172155","1,98209345178733","12,2083149038794"
"2591","171,301111430243","150,399260556336","-3,34224614557916","-2,89061291250232","1,94102268986517","12,1907858956411"
"2591","138,28753741871","73,6168461977769","-11,5761375742386","78,2427996540605","-16,7290054729194","10,0023360661359"
"2603","16,5888206117729","-167,016860662259","-78,1528176345898","47,8593754651535","-13,0500451184099","10,0025657399953"
"2607","39,5403413694279","-96,5887302670225","-58,3334521087296","-24,7855128725005","11,9042838790112","8,91655956070881"
"2616","82,246688353521","-110,398106411744","12,9748925680402","-2,6635915353534","8,02617181103142","8,92418454618384"
"2616","76,7041203462466","-96,587239224646","-6,62342979142573","-57,3743143340479","12,5149782403679","10,0173681870905"
"2624","59,9555273072993","194,959071209957","-91,8102697985438","-35,5793757792122","10,5155931260966","10,0163018508344"
"2628","62,893425157242","99,2886808421002","-67,7934020130461","81,9815976145472","-2,80999449883276","11,1015435014526"
"2632","63,9567883204266","77,1945921629453","-61,5956609081677","43,0587412355018","-0,749071931373475","11,0932199019524"
"2632","64,3416693729928","72,0921905454186","-59,9962852049674","35,087122966936","14,1582525827698","9,99939787876335"
"2640","51,3765514874807","-75,9181635470238","-26,4866527840379","33,4544910449391","11,8022938883762","9,99988087153681"
"2644","54,6838666257288","-27,0996263400326","-36,8392293098591","-65,6155740558094","6,08933647827267","15,4314024804433"
"2657","39,5004087390558","231,842956447623","-100,478768363844","-30,9056764350967","6,54313008329636","15,3946397421987"
"2657","44,0048024820964","151,643071874371","-81,9014505642502","40,8301033957849","2,08245039198393","22,9645589030987"
"2665","53,8254193094974","-77,39644215182","-9,17168388842063","19,5219915614624","3,09437130428166","22,8818295232222"
"2665","52,3799616072198","-11,2907526534043","-29,4031971523113","51,0618596602559","5,09968433235933","23,8924487954003"
"2677","58,4089948061124","-211,849686207961","33,3116462761296","37,5214007143871","4,99343173663555","23,815936464288"
"2677","56,5911849777157","-136,166700765057","10,4957035176475","-114,252897528241","1,83745548915124","28,0908849305512"
"2681","55,9332342565122","-118,688496845859","4,60787053527235","-62,3371210699915","2,43086931549513","27,9972642193769"
"2685","55,6950910003973","-114,652086145973","3,08846905380355","-24,7765639734856","-3,52189335717507","30,0841472194107"
"2689","52,332789673376","192,327517771278","-84,400732247923","-32,0839522028549","-2,17497849275188","29,9911074070876"
"2693","53,1158149665288","90,2212871555235","-56,9780068527371","97,4686463814903","3,08825845415727","27,7336570168768"
"2706","86,1602896028713","-108,496064727525","12,8085601608771","51,0017417832738","2,43402906130288","27,670835085931"
"2706","78,1206363779505","-55,3877850153731","-5,18246886040926","-12,3707722029439","0,588135466778955","22,1823491559607"
"2714","73,5726553713541","-115,654449660429","-2,85742638280945","4,65018316328561","0,765439665387113","22,167058811984"
"2718","72,9265275220239","-88,5724134938051","-6,25743093533024","-74,4427733708509","0,844462324221193","19,980654637947"
"2726","20,2749658854857","131,738202638086","-35,0059032838653","-44,641452395904","0,879681911000454","19,9827535989373"
"2726","33,2178937924142","61,616664313232","-26,424672057892","31,4746067892522","13,3298611497151","14,5535913379357"
"2734","37,9025470591199","45,42281917357","-24,2102180343829","8,06360061906482","10,8787780627228","14,5925100104246"
"2735","39,5981430160059","41,6830178704032","-23,6387608048663","53,5343395596877","6,67773496747164","18,9729374749293"
"2747","12,3649569318551","-47,6336669639199","-33,9429447245147","34,8470007296268","6,80537324186484","18,9757017792444"
"2747","19,5079883178503","-18,2604329640372","-30,6020202043571","-21,0409086935862","3,75363975105945","17,8920117045834"
"2755","36,8358641936704","-53,9344357505578","-22,7720998012936","-3,48706453095384","4,39351350255811","17,9017531092882"
"2755","34,107635999127","-38,1729782930853","-24,7515274284343","-41,1814108595175","-4,64716301675192","21,1693028032602"
"2767","28,2060029749292","-6,22806722988269","-44,4236979760625","-25,9014234117358","-2,67649961353255","21,1551372643008"
"2767","29,0699249078555","-14,8507199109859","-38,5002558817039","5,95111399818689","-0,243884912033869","24,4008411768967"
"2776","73,6100511933269","2,61763109302321","-38,7136073462374","-3,52530852732404","-0,159693544089285","24,3667133135748"
"2776","62,7312140092784","-4,34823363610356","-37,7686643650517","19,6665890851625","-0,122170316787925","19,9906636135868"
"2784","58,7936520821251","-5,95692815967093","-37,524814417233","10,4164191821627","-0,105446600075824","19,9918996402172"
"2784","57,368463556195","-6,32843954709921","-37,4618870255966","10,3171271656948","-14,0867855212055","16,7343809467941"
"2796","66,6809392236765","-139,093760781208","-63,5747804682912","9,29679160643647","-11,3181245660849","16,7577126530418"
"2796","64,0515613789178","-94,7545406691552","-55,3134174338836","-5,27373415296722","10,1218727881452","14,6066006885552"
"2804","71,2901313454361","12,7834623082801","60,0447322758481","-0,257859166690549","6,67745923012889","14,6409491041372"
"2808","68,9101096597536","-17,3817464357521","24,8138076034161","-27,9536906509213","25,348353137196","14,67233613495"
"2816","25,4592887454574","248,087200456172","-19,1166519698609","-17,6259515475206","20,6697786360142","14,7010170998955"
"2817","35,7323966851039","155,394512275844","-10,4532516249544","92,2008921314682","20,1388963501272","14,7272253052881"
"2824","23,0701862500834","-398,499065223276","-39,572552035425","54,6940428119943","18,9022875721736","14,7511739426929"
"2828","28,4871378158586","-225,415066956154","-29,0870158993704","48,8076251115378","37,0028670971286","13,6868417715676"
"2833","30,4477869078318","-185,443104973429","-26,3811410576745","46,6020539062696","33,070109338023","13,7142721177984"
"2833","31,1574378646806","-176,211993139031","-25,6828688316368","-190,815322514872","-2,87750650591919","10,4806893731661"
"2845","83,8319914961745","24,0545934207343","31,9814169623598","-107,439726559705","3,10101061305615","10,5258933652093"
"2845","70,8973854716711","-41,6959065415852","13,8621381929907","31,7092813243175","1,10264340403557","14,9120642538335"
"2857","-18,9630143684232","358,848871305374","-29,136411255569","-7,792225078531","3,21199167991797","14,9200768069179"
"2857","0,512288075853853","216,350551372694","-18,2325241936768","255,192002958551","19,6952093134072","13,8411824977398"
"2866","20,665738784116","20,6884858741523","-60,709186687052","158,052640938185","17,0416099839167","13,8553061959632"
"2866","19,9602187792732","67,5023524252415","-45,6706226030296","32,2414866880397","20,521858875336","7,35091589525659"
"2874","-4,86593779930703","-102,130621877199","-106,241662984193","65,4746599720606","19,0729700332398","7,40730844416396"
"2878","1,14831057232033","-39,3056055135795","-84,8724950347511","-107,238442381299","10,6556637749323","9,63127115331159"
"2882","3,32514942080384","-24,7968167705838","-79,3580136394179","-42,6110498932682","11,9041568959429","9,66349257883184"
"2886","4,11304960042094","-21,4461618408578","-77,9349584633145","-58,0981098190543","12,4605974468876","21,6413125675661"
"2890","-8,70619674167691","-82,589474127313","-72,3419014436598","-45,2699461464939","12,7085972808674","21,5864522104246"
"2894","-5,34608384334778","-61,7098906804378","-73,8985692114037","27,3699156725362","0,384646026811397","34,5709143155346"
"2907","22,0789475848242","266,850073314131","31,9581920169492","3,24696487631492","2,89198762908587","34,4359073661482"
"2907","16,0053540357724","159,72760400052","-1,72464047586966","75,4998098474958","-5,31637766457967","44,0884846470261"
"2915","33,4636719936934","16,4617340523253","-118,417173299032","47,2975958403603","-2,97476170330366","43,9088548272474"
"2919","27,7826569127843","50,3759608767288","-86,5305966550613","3,82254220621053","-1,93112753851273","48,0895761875651"
"2927","119,095454745644","-353,98295482842","27,9564561009875","15,9186085277089","-1,46599051863807","47,909852259471"
"2927","95,1458433235447","-214,365470645958","-3,49926197266531","-128,809991809741","-9,03023512427493","49,9180555219754"
"2935","86,4773545401984","-182,122254486528","-11,6166567399491","-76,451217088754","-7,40154119317288","49,7531194284316"
"2935","83,3398214728492","-174,676016686218","-13,7114141272591","-51,3662923984022","1,0959023451127","48,5161874220623"
"2943","93,6705723089972","44,63803524319","11,8771496486871","-54,2287597882605","-0,116874413931848","48,3858988093459"
"2943","90,4097560547535","-27,7136492928323","3,48047923127103","133,68040476112","8,66846512370654","41,7495468569473"
"2956","-43,452783572726","114,792905749362","-5,65411605459204","67,1652506410133","6,58400065232998","41,6853549667306"
"2956","-10,9039213728289","57,7033229887686","-4,01137001398669","44,566603676309","24,3066996097189","28,5921048289602"
"2968","27,0858888094182","-282,757087064866","-95,9103808157287","44,9382746237246","20,2055243658317","28,6277030203207"
"2968","24,8361846969912","-176,382902874161","-66,6256413497251","-121,938685930187","12,1604315995976","23,229151818316"
"2976","73,1635026881778","104,69686384871","-36,4232366035229","-63,116019022073","12,5748164480939","23,2960423851605"
"2976","60,6554279871933","24,6093332973322","-41,6292691705697","4,58221847738103","9,65088295793742","27,7020301177347"
"2984","56,1281685116307","6,11394517052511","-42,97272670726","-12,5528045655094","10,3477158560866","27,728150984729"
"2985","54,4895407572363","1,84262628222716","-43,3194164618179","161,662094405589","10,6582871161418","34,2693161231429"
"2993","-3,43541234487449","246,755594730184","-86,9574363883064","98,3422782484691","10,7967055344289","34,2465278306386"
"2993","10,5988276103434","164,315715607273","-73,218569698838","26,132610642785","13,9670177584017","38,5705684610264"
"3005","38,6112206576676","-141,310696083703","54,0047457309575","44,3436676154067","13,3799933294211","38,5218073814227"
"3008","34,7502208546124","-49,8919596975386","15,8357201353002","-84,7709931595296","19,3356036908204","41,7358984442906"
"3017","-4,32247641768703","-80,0824960785675","-91,562857064989","-37,2143964532114","17,9899580119928","41,6728832663233"
"3017","4,53528001641203","-58,0546886818268","-63,277902276739","-49,0168729802608","18,94452784351","50,3050294207702"
"3025","-28,2958491900771","-61,8128956763774","-50,7529213747432","-39,434086058898","18,3699698055247","50,1929460171832"
"3029","-18,1789762377433","-57,6808147712295","-50,5207518151061","-1,56758945023478","19,668205472661","53,3491741568181"
"3034","-14,5172049394866","-56,7265533576746","-50,4608386392533","-13,8123195596439","19,2468157651171","53,2332847683913"
"3034","-13,1918379902413","-56,5061765387538","-50,4453775743042","21,3789741292648","17,5046964250088","50,9549548023087"
"3042","-1,24575410951005","-12,2287746163169","-10,3767181224027","7,5863475278933","17,7282517421286","50,8730534500812"
"3042","-3,92190549668963","-27,0033658895895","-23,0366862781012","35,2798457038194","6,94771609703308","44,2809169996258"
"3058","139,258138163999","128,800024250108","67,7611861014966","23,9516287258525","9,14294217166353","44,2571285253563"
"3058","103,081718120977","74,7812082405098","37,1922892290386","44,9690740794366","3,90409075324592","37,7180946899757"
"3066","-16,4856750550818","-141,13581706206","-106,567742589898","36,2735642151969","5,56918852549348","37,7428305329812"
"3066","5,23727178804643","-75,9996243072437","-65,6661463618033","-5,00160193429271","24,9630288336289","32,3343534914076"
"3074","-21,2992879508968","-82,1858171664517","-77,7564166857651","8,54501362466985","21,6066641123362","32,3921739853793"
"3078","-9,90411478467861","-71,6144545232364","-67,876405771151","-62,2835350089718","34,0995593654369","35,7036575793787"
"3083","-5,77966662413338","-69,1731074899418","-65,3267914621974","-35,7896171609462","30,6675143669844","35,729638133056"
"3086","-4,28683519622182","-68,6093036040916","-64,6688434922407","36,0586785653968","22,9206460732425","36,8395947975501"
"3091","-13,5748277217113","126,117537037422","-22,6924430986043","13,7736106145712","23,46794650372","36,8538553810149"
"3091","-10,9365882784073","61,0876899635544","-35,8601037411977","93,5836419227317","9,72308017019014","37,9531025248528"
"3107","-44,3807996327821","-74,2263838905577","-18,3548159689272","62,9291818644881","12,5971345269346","37,9575769202466"
"3107","-35,485829893346","-37,4757718754417","-25,8374391590986","-51,0606877375133","2,99789905968312","43,3927458087993"
"3116","-2,78136781647477","1,08542800731921","-102,671901497911","-14,406449366661","5,71961848115591","43,3593158961508"
"3119","-8,94408754990913","-7,00926109650429","-79,4996371444408","-44,5985395004991","2,26973001453597","46,587416333293"
"3128","-27,5551956650668","53,0384654884979","-80,4876212063","-29,7820481036","3,73215018589456","46,5372026966651"
"3128","-24,2914294643769","31,9058678378503","-76,742578242573","23,517895739143","-11,1591669643781","45,4051022299498"
"3136","-23,1101192458722","27,0255126441584","-75,7761405320801","6,43402177862554","-7,79607395244498","45,3706069954581"
"3136","-22,6825476164923","25,8984450110004","-75,5267437007729","2,93514902285182","3,02868370737944","47,5115179070276"
"3144","-374,709195340319","-271,563974535034","-216,559699580555","2,21856035043546","1,85316693016161","47,4678479330329"
"3144","-287,124166441571","-172,259848471534","-171,954360016935","-78,7119498028886","-28,2026441128664","47,4279430117682"
"3157","-637,089393344866","-335,077920380637","-261,476247372394","-50,2869700670722","-22,5982101551783","47,3914785352534"
"3157","-530,758239469574","-267,679072685932","-226,578072556453","-3,17590393288386","-77,6098518653789","46,2719418303537"
"3165","382,448326504275","1704,46671669495","961,722515221953","-16,5272945967744","-65,1279751184838","46,248927159741"
"3169","178,980656841708","1053,91342064654","591,372802162057","196,161596177254","-176,138201866623","24,5035756917052"
"3177","159,391905276305","2065,94748986551","-462,267032231992","119,721468317779","-150,614318869351","24,6330225673014"
"3177","119,301816412994","1642,66630700083","-184,16705556911","536,707958061045","-279,126511671639","9,54428432237922"
"3185","104,791331064814","1544,91388899071","-112,401175354287","381,109118937102","-246,403075044389","9,75643751214644"
"3185","99,539305164906","1522,33897752842","-93,8814270795444","13,5402519777008","-175,863405660277","21,8986762588618"
"3193","264,719761619133","39,9601619126855","-820,717966570991","125,26009611568","-180,42460008338","21,9940591235838"
"3194","222,506323862905","532,620082789119","-588,28383642409","-1444,19650457215","-196,446270063631","56,8401321046444"
"3205","1237,56266795656","159,90321398637","856,541628456239","-878,62997769463","-194,586963689278","56,6819142604679"
"3209","975,959214738155","348,828102137432","434,390171948287","-331,952135554362","-156,454843257071","96,7273312422902"
"3218","126,130186481743","1924,46459712695","-181,454490071081","-459,989461721113","-163,45974913528","96,3201904883621"
"3218","279,537162554633","1422,34157424136","-49,3780353937626","1228,19844795508","134,954430416703","124,189769143559"
"3226","1167,19329941668","-657,275515364512","862,644176607155","618,948755961548","73,9545628845367","123,656542768114"
"3230","980,47772989212","-27,5416062602303","593,998661728375","-259,810637422239","177,329612359231","122,083073013781"
"3234","912,896599176725","117,888936863125","524,672579531643","-19,7854667552489","139,402809332126","121,645261608935"
"3234","888,435815106062","151,474618954212","506,782440271673","-1302,66122976593","326,11386959842","94,0897952854343"
"3242","-860,030031247241","-2167,08344444458","-166,740038634593","-823,401347529275","278,329069981688","93,9100524675871"
"3242","-430,881909720394","-1387,53048572386","43,4522030074424","190,302904749804","177,762051743906","129,590936067688"
"3259","-192,012350873431","2613,66952579874","-484,114720743648","-112,084805502081","183,940365429935","129,195554767168"
"3259","-156,554242845961","1377,7053485617","-286,257503312522","1181,35628869935","107,424152111742","56,0577862258809"
"3267","-143,720288829022","1092,27218547816","-235,198896489936","691,260245270248","124,321662335501","56,2256673090532"
"3267","-139,075078329315","1026,35434409703","-222,022822528565","-502,387560657079","88,3320211468716","23,7925928009231"
"3275","-486,299058430101","-1998,04031666139","124,539971560775","-137,853294705477","100,291808001693","24,1557699172435"
"3279","-398,975718638256","-995,493031013531","16,9732187907075","-933,863934616317","-0,0709368928126253","-22,219654881048"
"3283","-367,369302226361","-763,965088575118","-10,7852254458846","-611,891357303161","23,1984193226169","-21,5967736632294"
"3287","-355,929456238067","-710,496101229423","-17,9485097004819","798,651042701643","-39,4832509012556","-35,1484034750535"
"3292","-341,960520579715","1615,78291678484","-394,314615065144","338,538000404942","-20,4198270237314","-34,5316652721288"
"3295","-342,904506937758","845,013032799218","-276,438840527638","610,523942011857","-116,062243635667","-50,261340575503"
"3308","248,090971500393","-1744,2175377945","245,207615807128","462,22818118157","-91,6890856243039","-49,6348653817015"
"3308","100,999981778623","-979,173599408908","97,8225753228887","-896,587487519136","-142,998630781515","-64,2694271275338"
"3316","237,775000746229","1681,26609658155","7,53044493333416","-434,880521893135","-125,866767654296","-63,6422547431454"
"3316","171,28030155744","891,667170338495","14,229852493037","239,527438981926","-161,751960162735","-45,6896978602329"
"3328","550,173798615451","1843,28512194103","106,53967930517","54,6499541699968","-149,745621604767","-45,2849395473974"
"3329","441,31314386176","1422,05146062262","78,3609541328236","1108,26421913787","-142,840209642127","-10,156164247813"
"3336","401,911362010328","1324,77189656911","71,0892130863421","716,050302277468","-140,762538510162","-10,0560532511393"
"3337","387,650007285056","1302,30618584499","69,2126832744478","-556,286390682611","-54,3494765052749","13,932179705279"
"3341","105,657187830643","-2424,98496579419","-107,207727782902","-152,868048066509","-70,8360629977269","13,8522419319916"
"3345","172,590747196489","-1181,76436599002","-51,7343985842427","-971,433317110362","-40,8805184413347","55,0554060376468"
"3357","178,798561231656","1329,05342383291","-23,4835336343336","-637,080053752136","-51,5296401414909","54,7061960218151"
"3357","192,045460581483","651,900863487404","-24,1931763524341","524,670761401445","-22,0810180873997","86,9735750618956"
"3365","196,840135384522","495,519472546441","-24,37630522182","153,603813678288","-30,9560699362445","86,4589880865444"
"3366","198,575553300805","459,404805239929","-24,4235630629099","596,418418040697","55,238406854225","100,109575438842"
"3378","-154,615776500776","-1627,58138830264","-15,7260475362404","398,109320973081","35,6543991785144","99,5832630479782"
"3378","-66,4523007265956","-934,549297652709","-18,4815854368775","-716,031750880252","40,9148007685506","75,2055740987515"
"3386","-34,541799659171","-774,500693173887","-19,1926736048002","-346,214061953571","34,2593076862822","74,9296332371916"
"3386","-22,991891157579","-737,539120771669","-19,3761754838499","-186,099197170689","-1,34749302570701","57,2980260820217"
"3394","36,8823667203808","443,883769396121","-132,649769764905","-200,306779041292","3,78292189438769","57,1865464786494"
"3394","24,5536716814023","53,7211854721453","-96,880909214194","703,356609778092","9,17811564716763","39,7052213813494"
"3406","-240,359096985893","-844,843403506835","135,318121849307","383,431916399853","9,58269804632392","39,7310671101954"
"3410","-177,243465349326","-595,357615966034","67,2389030347784","-136,274634403015","3,54577514752859","9,34063507831785"
"3418","9,40635005668925","-194,543746328359","30,5091629270876","10,2865627936068","4,85518066423925","9,57034610181378"
"3419","-23,0363187305077","-295,979922290851","32,0307654078908","-516,207155322872","0,775838407248046","-8,68542052887274"
"3427","53,6760210407799","1021,54216816182","-251,513144670531","-314,036007880618","1,95771749430747","-8,36724704223092"
"3427","27,4418183696689","567,810289064012","-161,683874601939","441,857149924675","-48,8077703474442","0,613223195258225"
"3435","17,9464287540897","463,025597219431","-138,502726897844","198,668288325313","-38,4334264670155","0,819432747605953"
"3435","14,5096014534096","438,826654736493","-132,520649914822","326,586099241838","-40,0269291514207","15,1286723969973"
"3443","-104,674167376081","-527,361598624368","-76,9767211738154","253,784381003247","-36,7371369184642","15,2042259028123"
"3443","-75,8123688711604","-207,492798031334","-93,6431747114227","-529,469028040576","-24,390738383518","28,3078581025444"
"3455","137,752649366804","16,7477260045404","243,476578934611","-261,883698630157","-25,8880754634322","28,2817468727563"
"3459","91,0518561256524","-16,4662406735622","134,472975513026","-106,549842017398","-57,6416287862882","43,4649115721183"
"3464","74,1486464973431","-24,1366632813395","106,343740696079","-130,736601050641","-51,7938611118591","43,3390437607252"
"3467","68,0305813445054","-25,9080681710991","99,0847710239791","512,375000440865","-22,7642964270972","57,344836445494"
"3476","57,6259010736814","-680,869476781598","-155,370075748046","283,087846519044","-26,8261178380188","57,1431049858379"
"3480","58,8599587946047","-462,126050394643","-76,0341447373752","-124,70552051376","-2,21315514928854","55,8725499645387"
"3484","59,306622221551","-411,609515006916","-55,5608854801651","-7,22387853921936","-8,2434106721943","55,7115371804817"
"3489","59,4682906861525","-399,94324283714","-50,2776003497925","-507,359752381102","-17,1482746900349","51,2195420766284"
"3493","-94,4501807027657","-529,928562271416","5,08599967276449","-317,790371291934","-17,1170810509087","51,1148290543127"
"3493","-56,1605018127559","-484,947329452427","-11,6269891050209","225,484127554758","-13,9945578088592","55,3640081816197"
"3508","116,589476588188","438,275750419735","20,6408783444956","55,7497776827305","-14,6028812958666","55,2468398621456"
"3509","82,1158042057672","135,484586705525","7,96785462819729","367,459757908311","-3,99383286911053","36,674100455812"
"3517","-48,3016560068442","-620,837312495397","1,21359714588781","238,299701941767","-6,26548903426127","36,7026293079791"
"3521","-23,5058578237618","-407,502044673037","1,47060802653564","-262,084324792505","-25,929666183383","19,3492416899951"
"3525","-14,5310943240153","-358,234467656417","1,5369317001145","-100,565766800982","-22,6937878133625","19,4919946338422"
"3529","-11,2827060575172","-346,85662952461","1,55404704428167","-148,269613259451","-10,3714181329537","13,1051436730849"
"3533","122,575335297716","55,5785985684811","-33,2803793398053","-113,039627315097","-11,8794646263459","13,2689417841467"
"3537","90,0248449619036","-77,483141402301","-22,2696762870069","351,950246966789","-17,2145162840366","19,9359141782533"
"3541","9,44506615415847","549,878065461637","-73,4284848593557","192,182768969442","-16,5922939696039","20,0280865365965"
"3541","22,27946106568","322,760657505188","-55,6304166681701","12,2555553480473","-11,6520450432101","21,1985282097118"
"3558","61,3239452173771","-683,21327863535","109,221192836439","57,4054575764813","-12,4502268768586","21,2680590231752"
"3558","54,455977130355","-376,532570618452","59,7624436588731","-315,724001356535","-12,8059683157139","19,1591630612939"
"3566","51,9701370356052","-305,707828155732","46,9992255110524","-179,142997496083","-12,9645186183942","19,2320877824234"
"3566","51,0703947976728","-289,351585282333","43,7055769615507","143,241439031308","-30,1325959260755","27,9884536346157"
"3578","-34,4340228135521","342,442136141521","-89,5319787848906","45,2675713042359","-26,7842315137936","27,989880196907"
"3578","-13,38208589175","133,348371648654","-47,9149750747683","258,577250557193","-9,74879712398823","32,3360479729206"
"3582","-4,12434850188084","138,132135830794","-37,1753808504186","172,264263643679","-12,1562791213491","32,3075063238143"
"3586","-1,7735386992134","109,236896767317","-34,4039443263702","-200,861612596969","-8,56633826480597","23,5916970104186"
"3591","59,6852926244357","-378,620569207225","65,6019495347617","-79,2798749811208","-9,96633852555511","23,6273303622834"
"3595","44,9301291095498","-219,286212930267","34,4092548273991","-135,163005194996","-16,8075453668123","26,918539701964"
"3607","-9,55204883705267","33,3357711046121","7,19837157968219","-101,608182223612","-15,8566009361323","26,9259939674784"
"3607","0,728293081705634","-30,3237904785514","11,1763897329795","230,194222426063","-7,6612233836906","30,1914537103706"
"3615","-33,2259886999819","437,928160415517","-191,604283808965","117,149207145102","-9,00862784773086","30,1753784076614"
"3615","-22,5156373954737","273,066112894455","-126,933427097363","-35,2570411132711","-1,83760077325236","27,9882569509344"
"3627","41,9689044695898","-585,851066141212","91,8206848843497","5,52930845396974","-3,64154771616255","27,9897004705162"
"3628","28,3088876536479","-320,209118707907","32,2718992474863","-280,529303959636","-21,5429613935876","27,9910195355392"
"3636","23,3646862441816","-258,861854199757","16,9048680516016","-175,115704669542","-18,5214374634363","27,9922248759841"
"3636","21,5751476289114","-244,694336987222","12,9392851224157","70,8728911263571","-6,29460335355722","32,3381905030255"
"3644","-6,91947228039589","460,894454576766","-76,9231146448094","-3,74727125306404","-7,84522906873749","32,3094641334331"
"3644","-0,233013018748893","226,842899460191","-49,1128117274845","167,670322366182","-8,53632701132396","31,1969983864305"
"3656","48,0526159391671","-53,6486120126747","-12,3231282706205","98,7776024573832","-8,84434226063364","31,1804450436441"
"3656","37,5294520197847","9,57477001385253","-19,8292619000126","-132,550535697351","-18,3074831643827","22,4755904521325"
"3664","15,702041384325","-296,024361971814","-32,2179314962187","-58,9278297527881","-16,5251077948543","22,5212340530145"
"3664","18,8016767008135","-185,599325619424","-29,4149248542588","-88,729349026016","-15,7307214134478","22,5629424428488"
"3677","57,5988004201429","243,247950708285","-21,7238183787454","-69,8328665365494","-15,3766715686437","22,6010548999942"
"3677","48,6413009793283","114,285800523328","-23,7390680286574","138,689402173412","-2,78439296114002","24,808313554714"
"3685","-34,8654381139772","84,5033237143051","-24,2591190071364","67,3959268555517","-5,17214382008295","24,8252710834244"
"3685","-16,0904475475829","77,6253682552197","-24,3933222410776","-13,6275683287235","-3,12771927682362","21,5821184462472"
"3693","48,0369597908461","-196,398314869234","22,6044837912031","6,77836755367652","-4,21654027225284","21,6185776240947"
"3693","36,2476792226155","-105,681254678105","7,73263625833108","-114,705992097407","-20,2449193867043","20,5656773840119"
"3705","40,1708503454728","-104,190750046478","-74,4925576917178","-69,5866671256911","-17,3886032045014","20,603554045329"
"3709","36,5908301636947","-92,8465333940607","-50,7114139119507","65,3176317351579","-5,23540048973507","21,7243811820331"
"3718","35,295052781634","237,049456763635","-6,25177578943806","22,9467852287888","-6,81884296087009","21,7485750285151"
"3718","34,8260501116474","128,235528895422","-16,7786174591789","53,7632765218207","-7,52456699426665","19,598250873936"
"3721","-14,4852955045893","-72,0308963985213","43,2147661213875","38,0746659679684","-7,8391009419108","19,6333191775658"
"3725","-2,33338660019795","-19,2803591935255","22,6965293037845","-97,9828359571829","-1,76204437387222","16,4067158758036"
"3730","13,5313311091395","-207,001984311352","-13,9533214584244","-51,8481718759995","-3,05356272672965","16,4582975707104"
"3734","12,2735172803709","-137,354355054283","-5,41110290541898","-35,2187574605079","-8,29211001784708","11,074351837686"
"3742","157,604976943968","156,472516999777","-39,7875016976951","-35,8129605565209","-7,62687669918792","11,154588647644"
"3742","121,207255359172","67,328798786856","-27,6586010323567","107,680896742026","-16,656250720082","7,96925960193885"
"3754","1,55976276526575","55,5872792761288","-57,6255440606335","57,0692397538687","-14,6805499094955","8,0585570495139"
"3754","23,2537178684893","47,8756965983477","-46,3587487504662","-1,76655940652482","25,0577566054011","10,3125877268887"
"3763","27,8296726272325","-113,120643203405","12,2908851614286","13,1835404816951","17,76871135448","10,3722847791367"
"3763","31,4859254908035","-60,3010852913092","-4,57411679768143","-50,1767890560492","22,2916102035576","2,82332262624136"
"3775","-19,6084025733747","-9,18362666127764","-29,8295687111694","-26,1533382467542","19,3074197303336","2,92520218363949"
"3775","-6,10183872609038","-19,3785774743518","-24,3469361649313","75,7072971385298","13,3144658739137","8,44937834572571"
"3783","65,9469959416175","217,090148045688","-50,8031743404515","42,568923890111","13,6434679408593","8,49728185092547"
"3783","51,0248518267402","136,700158221227","-41,6304141073243","21,4204447169071","15,3444110591929","7,45483925347783"
"3791","48,8999333942589","-72,9235950538963","9,5110690021006","25,0891181234083","15,1025039232727","7,5022719407732"
"3791","46,1308256508032","-13,334036114184","-5,29147016068223","-108,799098404588","19,6576192359126","12,9766954269174"
"3804","53,3188208068077","-227,781225018133","-2,14361286663628","-61,2201525642934","18,6877873093497","12,97913573545"
"3804","50,9204937227647","-148,305588725874","-5,33128360214407","-33,5237746762819","33,7986459770808","21,671094062797"
"3816","-179,27500059156","200,862769866643","-333,639012486653","-37,851401873138","30,5334003628416","21,6136660627267"
"3816","-122,593557426236","94,4995964650834","-230,361396959513","110,263412581031","41,5125961864921","28,0784855875077"
"3824","-187,256640662435","149,543834676785","-276,871368808758","57,5981534142791","38,4059109114429","27,9859338987327"
"3824","-158,661246351041","117,25573305673","-246,873631838697","5,52254273420764","5,93508764028484","31,160009805848"
"3832","-163,05370808455","-63,5687826110782","-94,5512815291608","17,857166961132","11,4631754714753","31,0604294208602"
"3833","-155,64354620748","-7,32833715212523","-138,243304313449","-117,846603297461","-26,4850798550602","39,6591628760608"
"3840","-329,871190235457","-109,329108308482","324,289893122319","-68,6394929963022","-17,3982271891775","39,5165474842289"
"3844","-284,932354418344","-67,8851330576801","171,650212532892","92,2347289662772","-63,0862392821254","31,7827154673661"
"3853","687,956101895184","398,103489373806","264,647949654507","41,1826676850967","-51,4489166511328","31,7156639105229"
"3853","456,090110350076","247,718749517424","212,646745133047","34,3173093779965","-142,629518862454","-5,27695247930541"
"3861","242,76073110841","-485,789882263977","-790,195718531753","30,9112456716701","-121,267776035117","-5,08021154666343"
"3865","244,546813165331","-260,186125920874","-480,987081930354","-418,584939594567","-10,7168987053035","9,22037583002705"
"3873","635,049906260593","-880,328192388606","-56,2888210064969","-260,644267595171","-26,4455090167341","9,28802302793053"
"3873","538,391309371408","-643,543598508824","-144,692103715678","175,621607679719","24,0538913576257","28,9017268798373"
"3881","-330,362977836896","1912,59066040577","492,690813171135","39,9712943374904","9,56095502805708","28,8244146289188"
"3882","-135,805941500189","1088,9034706194","278,17247409455","660,254537674707","156,978319884318","48,3056568633191"
"3894","-594,477751277994","346,734598268635","351,718053743951","426,29200856634","123,680724117849","48,1073033125404"
"3894","-437,492613407541","487,338361485477","296,697067416601","-551,535531790233","104,177397109571","53,3571312795881"
"3902","84,5347447702925","-1604,83210397591","-254,019713900847","-233,800070659215","98,4849647340095","53,1543398078817"
"3902","-10,5190456561839","-886,997267388294","-88,1364987872802","-798,839315084768","-36,1684675674052","9,52039015325496"
"3914","161,471209339773","-139,199877327704","-456,42738301432","-563,56250660635","-11,1821182599555","9,6483873523671"
"3914","97,7225573888524","-295,503792504471","-315,467734325421","599,439230516974","-0,0459592048878263","17,3688614993675"
"3922","-364,349290360918","1166,79352928103","-85,7364119970764","216,62847859634","4,91731241890195","17,4237068491454"
"3923","-263,594785860814","657,495994783614","-137,452442405829","759,363968105136","49,0957690941382","2,26679892740206"
"3931","-69,8739074631171","394,816041840283","418,816915542753","524,519226111753","41,7856531299849","2,41665976072068"
"3935","-95,7572265744706","416,152819371442","235,366586379683","-320,644609464566","-8,10169878144893","-3,96369612473031"
"3943","-352,471625661048","-221,088570856156","179,316079289791","-49,7388810154686","-0,335978743116595","-3,79396291810981"
"3943","-294,388619168177","-5,25288921611081","169,851806311195","-145,052206610797","-51,2757369050115","-6,89751159310264"
"3951","78,8157537897149","-20,86309954419","-778,465114620582","-80,5729077678307","-38,97906351497","-6,73348455547427"
"3955","-1,1040620743503","12,5318835852536","-480,185734053713","45,7300608932157","-39,7158036963025","-10,9284634876717"
"3963","325,426716483673","-602,465124987378","86,2733456298906","8,59761394604169","-36,0441612222709","-10,7617678999049"
"3964","226,613535528916","-392,4923331191","-48,5474459178476","-255,720120195931","-57,722402094851","24,1494695027928"
"3971","-38,4790209797057","-374,075310757102","230,210579571889","-166,853867669984","-52,3841712240908","24,0507978611168"
"3971","5,57153699623042","-352,822089632913","122,146274447792","355,796068283927","-8,03859906663462","50,0298185365303"
"3983","-184,879182373021","1925,32864234257","-168,773832729564","181,837692797331","-15,2742333781196","49,7690306255871"
"3983","-127,812239178661","1166,44402771116","-92,8480481764884","444,21231972117","20,358675754922","62,5653194374943"
"3991","177,864197676312","-18,9459837767636","-160,351911791879","331,948107989787","11,2398970897255","62,2583627532564"
"3991","114,502851369271","278,3004344463","-127,771813254627","-631,72610410757","-48,7794188697454","55,4605743529018"
"4003","-59,1314753038341","-1528,25752138116","-277,88099954445","-305,091962339822","-39,5294110625522","55,2488644278517"
"4003","-29,9778900803523","-885,463425178698","-225,617852426243","-615,186294410607","-21,4179851526823","55,0554072966182"
"4011","226,282118796817","-997,068634766794","310,451709599416","-468,695344682801","-22,3459087895199","54,8786292753881"
"4011","169,034647154008","-875,842705387954","148,788664664257","665,351386426356","-10,324992585554","53,6308763055808"
"4020","-207,143412616194","1547,46085370761","-35,7690089068388","282,610487636203","-12,9673937947978","53,4906996701682"
"4023","-126,299913621049","753,097785524267","-1,39556412329407","387,332845556551","20,0497412821096","21,8623430151787"
"4032","133,92662437928","-162,743137110263","94,5718807384727","306,780569058533","12,7651390072773","21,9608583887118"
"4032","87,114825850616","39,7528595833517","69,3370325918329","-467,28903107765","-35,5565314362148","-7,27695323674008"
"4040","148,79798464641","-725,481471167691","-88,7239855263673","-203,822806335444","-28,0930032610462","-6,99399618722248"
"4044","123,124015775639","-443,204437374252","-42,5128709805162","-25,9950379240646","-6,11486212360096","-18,6838111445774"
"4052","54,8614912378752","927,551049775112","-152,523681386881","-58,5749182514089","-8,31943052894452","-18,365776412695"
"4053","66,154078752156","506,112873909693","-110,912833866133","433,81658848294","24,8928421282378","13,4251041159465"
"4060","-118,134704518994","361,021450507886","46,1483128634067","256,661117778156","17,6952106671416","13,4751004493928"
"4060","-69,8374673541528","354,514084614442","2,67917366336488","-147,636167183467","34,6933339336188","21,1242986573844"
"4073","-152,27766583103","-393,532182279749","106,429803687425","-25,4385080842929","29,2692227521065","21,1140131981868"
"4073","-121,116644142562","-144,285742637582","67,2034675182027","-298,414018672213","11,3086493635719","21,1046145106698"
"4081","155,526586850678","-164,563505721976","-77,0487422579932","-188,320927093386","13,3038064185763","21,0960261408805"
"4081","93,6567602630438","-125,246445700363","-37,2741564120957","99,9155264512278","-41,7621426290243","30,8641226905772"
"4089","23,7596268163388","27,1273097662001","-262,172203715362","10,9479611822986","-30,3044701041908","30,7900525243792"
"4093","27,4605726232621","-18,6835449537448","-185,208908777294","73,5106559574948","-8,10049016422566","36,153448653313"
"4102","-51,4644808338678","-29,2630887682791","-41,6700337462839","41,3238450961304","-9,20440453665225","36,0544339449905"
"4102","-31,0311631303009","-31,7063251586038","-75,6287012181145","34,7318065527449","1,18376412658325","33,7915237907221"
"4110","-41,6539696913584","187,092915160731","79,3505610154682","33,3817202598019","-1,18633587877575","33,7237128150181"
"4113","-34,4988621156762","113,622340199759","25,3441751922848","146,202463360435","-10,0142164835461","21,7133716665942"
"4122","58,1838250473436","268,253921341089","4,43963511275366","106,308781355595","-8,94871212851653","21,7385147100271"
"4122","36,730040888728","206,964488144445","3,04505458349238","-110,104219864683","-42,6686539246403","5,46824924594201"
"4130","133,800304434218","-608,57400159895","-0,79871217356339","-38,4268106139954","-35,6972853805088","5,60074182820808"
"4134","104,934590160629","-343,914193839959","0,209373666749441","-330,725122482174","-40,3617694724473","-10,5714293504202"
"4143","163,284961092426","-512,771586841096","47,5019563540207","-219,589448472744","-37,440682086631","-10,3492997846713"
"4143","142,404699822703","-421,767457985273","32,706178249007","196,319335424836","-0,38964705037969","-9,06010530144617"
"4151","-28,9581521402385","956,118276499824","-113,951245184392","62,4997761275339","-6,8763815772376","-8,88206007627387"
"4151","9,01758642425898","507,326757623409","-69,7973435876814","340,27583434751","21,3187530976588","-11,978013362135"
"4163","14,5725238775913","210,855415323937","-39,2417192428156","227,165921722203","13,885034808332","-11,8070457798361"
"4163","21,5831165405674","251,388420442798","-42,3566007220003","-171,195253088647","-3,41688953281618","-15,9956825537202"
"4171","65,0719054410777","-351,345773703591","24,775323790311","-43,7818454929773","-2,12817936755505","-15,8231916034883"
"4172","55,8125398982","-144,541011480141","3,09924345025873","-261,833309143901","-6,21674532996263","-12,4069239871996"
"4179","59,013352994622","-356,833455342704","-16,429976347851","-170,491466145529","-5,03897715359807","-12,2851934759026"
"4183","56,1718775291085","-258,860202934923","-13,4696446913657","103,133460507505","15,6919756417095","-5,65666177921011"
"4191","-95,5574665405936","301,560047321423","-35,3509559248554","17,1733729640984","11,9315482119533","-5,59961591313012"
"4192","-58,4754396964775","126,983316727439","-27,9975999115591","125,231876406887","18,0271157537449","-10,978568574245"
"4200","7,36398441435532","-69,0106851360412","76,6745785246857","77,3628611354933","15,7438475516174","-10,8937691753227"
"4204","-0,805636906511007","-26,2734758605688","44,6860551512594","-92,2132835833414","-3,92550496302636","-21,6784413614771"
"4212","51,9311973170045","-186,233550100418","-22,7948675285271","-37,9434246600731","-0,691933200222211","-21,5333016942366"
"4212","37,0191335627636","-127,174677358187","-6,20884890290839","5,48484491951218","-7,02231489729699","-38,7801322211934"
"4220","139,733258951711","75,7538143837293","-184,832623154206","-3,62080303752735","-4,84370095055668","-38,5400091179745"
"4220","110,910323252793","15,6180539340616","-125,927889109506","64,5268917169106","16,3333185170508","-39,4068045321791"
"4233","75,907153850703","14,1137433609147","28,6283120530596","39,4839200288816","12,7716984180804","-39,1988682682498"
"4233","78,2378634811898","6,76633836887589","-11,4872479977182","25,3790075397084","37,6075956900465","-45,5261557574107"
"4241","-125,675174657337","1,53141040795523","129,709584718658","27,490242722958","31,6766998193749","-45,3079295020915"
"4241","-74,4808766676344","2,3224578558349","79,1465348580663","44,0793852327913","52,3480146756288","-46,194733904428"
"4253","-85,4362116238506","151,106209552496","-104,611988093598","38,4769342256864","46,5610072294466","-46,0050815326779"
"4253","-71,4014616862434","101,466280535417","-54,0323162246871","31,9439377315634","9,7869713595531","-45,8317802395915"
"4261","-56,4933084605558","-72,7510985182967","-183,819092029423","33,6059435799044","15,3971615676202","-45,6734202997273"
"4262","-57,0973478856785","-20,9848030894022","-135,31158748965","-79,1509166545299","-2,30846794824088","-44,442497477033"
"4273","-31,1071292962488","-201,85748737377","-93,1808288186044","-39,2441510820741","2,80031497028092","-44,3176999599019"
"4274","-37,7000489746325","-134,62816595938","-99,3086560970256","-13,1190785419341","-13,5744763417705","-48,5485261982343"
"4282","-120,35093563732","41,8822412981342","-53,8575517595467","-17,7685178456564","-8,87255251531446","-48,414587303408"
"4282","-101,266171894891","-8,35450294691151","-69,1285377960935","176,955442550695","-8,33126367515714","-41,7748997818101"
"4290","12,1149484302516","521,376299782542","64,5440948563238","107,83599666282","-7,09001680293288","-41,7076599020001"
"4294","-11,8471009967874","337,712158208355","20,0393661542514","48,8000878535142","-43,8402525233024","-44,9048653338533"
"4302","35,1737120568046","-30,2102787565721","-54,1553457929285","61,709204168549","-36,219454833231","-44,8264203373057"
"4302","18,1927518798381","68,8218339159294","-37,3018731463963","-222,878043565907","-40,5944950302172","-46,9271706617712"
"4310","133,262470929043","-419,566156822044","-36,4365866554713","-121,163100575807","-37,5444054755749","-46,8468025879215"
"4314","100,91160465822","-243,354319760537","-34,2132926897386","-145,211172880595","-29,9677707970715","-50,0320116867893"
"4323","41,6987688350747","126,385205089967","62,167264371654","-125,136352334069","-30,5909426000528","-49,9426046337197"
"4323","49,2668635687777","25,7727300997979","32,0390230683135","200,31488373327","-4,44540912647201","-49,8609059037485"
"4331","-5,32574441871419","324,506297504932","10,3286568403245","87,9691136720164","-9,7926136036551","-49,786250915694"
"4331","9,9146276836691","211,495729912504","12,7261265530728","122,406294170672","-5,95856656050085","-57,3215447469477"
"4339","15,4308338673581","111,096572644392","-80,7200640421513","97,4592209781907","-8,24977120301149","-57,2071752966315"
"4343","17,4274078654569","129,910424083014","-50,8345864569368","-124,868603407785","-3,05369644574752","-62,5337465866051"
"4351","-26,0773706452269","-134,641880900776","-111,058148672786","-49,4025829602175","-4,73785933617582","-62,4010819315372"
"4352","-14,8237924929668","-43,7375037378136","-87,5993112573911","-107,549691815085","-11,7057145406122","-62,2798550992125"
"4360","138,312233427635","-81,1230673772224","24,7128972889696","-78,4585443077635","-10,8112159836001","-62,1690799657155"
"4364","102,739350787629","-56,756877223647","-7,30405639106942","51,3678999153947","-10,412547171168","-62,067855426841"
"4372","-24,7998591219443","47,9376210707673","38,4339244474297","8,95708043271732","-10,2348645793291","-61,9753580680306"
"4372","-0,962287023293315","16,1157342847129","19,2369691420454","45,1509682899199","14,7132911872873","-64,0632675694228"
"4380","96,1205142241594","29,9955220746845","82,2187883660847","27,5636785710756","9,8324277737917","-63,9711657575642"
"4380","77,2593379335427","21,2009157299247","59,4717408056429","-4,76140722419657","2,99414628353415","-70,4043009097021"
"4392","60,6042744149347","112,930089539868","-181,560504377523","4,6182347540506","2,94639451308532","-70,28279654979"
"4392","60,5760249894033","81,1139949554289","-108,760765748612","-4,23192871381351","9,1423531552824","-70,1717678160383"
"4401","-3,31826879398472","-28,8391024868036","-46,4256682850815","-0,0444915969990324","7,90382823469927","-70,0703115413218"
"4401","12,5553865142574","3,76836513096587","-55,3396074682912","-62,0186857163482","18,2320023602648","-69,9776024260186"
"4413","24,8530198262469","-59,463690031058","57,3282629488287","-39,7113466354326","15,8351634061419","-69,8928863245816"
"4413","25,3041106831248","-34,0664801811058","20,4030906041215","-8,21476279932462","20,9841580365209","-69,8154741109152"
"4421","-81,0060666741957","240,695912845113","-3,06127698983825","-16,7640866038206","19,2790120174702","-69,7447360726545"
"4421","-54,4847110135829","152,149450077232","-1,11644108683491","64,0639073660173","26,290597358057","-69,6800967887487"
"4429","-90,7508726782874","36,1713012580421","-129,518280519723","34,6179317435387","24,415588873231","-69,6210304486778"
"4433","-75,8772992438319","63,3873454802646","-88,6533822866459","-88,1004055879048","9,591124354732","-72,8257047299463"
"4442","-191,709780494797","-337,211265344924","-245,334321817556","-48,2338061336573","11,9840128974776","-72,7540846481077"
"4442","-159,634993675694","-199,725377582639","-189,767067167807","-185,479651842257","-0,938293784961758","-75,9472875216563"
"4450","-357,696412978826","-489,943411095232","-239,879361067559","-132,58836720171","2,30236695329573","-75,8651850515772"
"4454","-301,384139405092","-374,966268889188","-215,811231556923","32,6307830672763","-25,7851991643689","-81,2212413901557"
"4462","-539,814465857357","-67,1328932780884","-221,79385705832","-19,5314126417156","-19,3035386747663","-81,1155196992216"
"4462","-468,113595059675","-155,041954137943","-216,337720492814","212,136724866766","-115,890587065886","-106,001882101215"
"4470","-198,091779032815","10,4076904045114","154,362015550978","124,583652687856","-94,9384417287655","-105,742640598904"
"4474","-249,358206565424","-56,3834227664472","38,0239899668726","176,664877038399","-222,379590456192","-127,230070906778"
"4483","580,597546835712","442,988414511342","567,165482267309","148,331402522525","-191,178800493891","-126,864939815065"
"4483","362,997499562829","267,313183379379","382,714594600242","302,300851941746","-248,771201944041","-129,789937039105"
"4491","998,428956603022","875,987942889519","-387,790398683608","244,834654698629","-228,439543285965","-129,462752551626"
"4494","792,421433760944","649,555092889343","-171,625255545041","-91,864932884252","-54,6210424489124","-131,33620872194"
"4503","1030,72577214845","-1711,3609620479","350,998353082659","20,1771119940569","-83,1519232824042","-131,048142898454"
"4503","925,979300355125","-951,590144047241","217,865474411764","-999,884008391487","42,4657712139372","-139,474641385443"
"4511","496,57195527855","-1543,90110155374","244,47746634481","-627,798220214254","9,45228644387774","-139,174640444302"
"4512","580,149276860976","-1246,68920046779","216,344899590444","446,535122525603","244,982470519903","-112,831319162032"
"4523","554,706029676293","3359,58855725554","-562,595305307778","110,56458845465","188,95585258008","-112,759215026027"
"4523","579,496923985801","1858,36083694042","-320,606934686662","1170,93323624564","263,46122270147","-107,262247166067"
"4531","377,161068961139","-651,892981843062","278,358246599444","759,102654692944","232,667500334077","-107,239206170615"
"4532","432,926223566879","-8,61017821005182","124,92590952714","-1057,60516040769","365,048221012512","-121,338960349259"
"4540","-536,273791684089","-2349,11853772822","872,689346324614","-464,677062491908","330,048947495592","-121,223089394475"
"4544","-283,072780149915","-1482,63477321827","613,655566164627","-540,713464027682","486,978571995639","-93,9618070865909"
"4552","-1624,72386619553","668,744244669247","560,745404753488","-446,286143526222","445,92049257719","-94,0508849000978"
"4553","-1235,33038337764","62,5830118250446","539,091522608141","1432,8745154969","292,396334349678","-31,1317517850316"
"4560","107,940339131667","1539,51747361692","-2091,6032615819","781,737108651887","310,972195081473","-31,6372578955162"
"4564","-139,866921209732","966,600235448033","-1263,47468411641","-559,785310224689","-103,521130579845","-108,13430487519"
"4573","-87,0493875847085","-2965,65066639216","465,720066886115","-161,536590497232","-16,2565453069629","-108,036078507314"
"4573","-154,93224243679","-1725,7634043029","41,9523350713832","-1435,34481482558","-58,1877511324397","-141,619018427786"
"4581","-438,314616700236","-2095,74562655712","-4,69433424515162","-941,227850048344","-24,8760585637324","-141,306569868116"
"4581","-382,884002457953","-1810,18920002604","-52,7318731286913","788,211399468436","55,2516521200627","-94,3137691719592"
"4593","-141,683898864709","3616,00989821104","438,292946457195","235,410212154873","48,9637491500653","-94,3725022041624"
"4593","-189,382257276875","1839,13454426119","276,005752433526","1430,89017349299","-131,030076361557","-161,771566703732"
"4602","-553,913779392708","1032,5140176184","-396,456791565757","946,731143197299","-97,2514742602044","-161,359749982464"
"4602","-473,854851627451","1070,23333686077","-207,991025407529","-563,450141216558","-63,5449751628999","-194,656136071624"
"4609","405,271766497724","-1374,7424492606","-60,0652533176655","-86,74369866885","-60,5223349797196","-194,081839220541"
"4613","204,468963690129","-552,384358102449","-78,891847595466","-1076,99937515734","-161,759653724342","-226,143537523566"
"4622","-361,264966490315","-1714,03133907349","-437,364455711368","-673,809265684704","-140,880086084285","-225,441002792193"
"4622","-265,030636450304","-1218,3017131439","-326,871123863759","340,472222240587","-220,169963300522","-184,609043923266"
"4630","906,609903106165","1804,51710201083","616,162179296383","29,2027330713957","-198,50864656601","-184,297455325993"
"4634","636,681621693103","858,605891094364","334,519319722252","832,531907776205","-17,8802896762097","-153,598681223258"
"4642","425,956243273018","1114,26563284431","-142,291409557445","514,058207243689","-47,3760876645699","-153,54663421178"
"4642","418,684835482437","905,307610034891","-33,3361580441017","-123,834003687367","87,1374148472762","-132,860969508249"
"4650","-157,265596241145","-144,237232461332","-40,0582439492091","64,5221105578505","52,0887002709348","-132,958741139611"
"4654","-15,729097763863","179,381224684087","-21,7929309407312","-735,2572987985","89,3143979265406","-103,720249894501"
"4663","102,659781120537","-1316,8080048723","-231,338308924831","-432,056586506483","71,9055087337959","-104,002585918484"
"4663","104,510274625221","-774,337456477015","-162,41313725251","-97,089836569393","39,2775813023686","-95,5708516326819"
"4671","273,899519358996","714,886026670287","250,794413460467","-180,486776270916","40,7356494241793","-95,8660681849108"
"4671","232,209439679429","287,806811076234","130,425862855644","664,12638538295","47,6027365142399","-90,7047520737847"
"4683","-277,572178872876","843,72959757337","-106,185360205315","357,107875840464","46,6633266444322","-90,9884242586779"
"4683","-160,086080351007","602,11422416895","-49,2447421421205","-138,41308345418","95,982570245142","-101,023583812002"
"4692","-533,627820404692","-1335,96453898324","-139,06729844408","1,10145789646428","85,9636501722275","-101,193551531737"
"4692","-414,830113531633","-719,543815033289","-102,246713608036","-537,6066211801","84,606941036563","-127,418050543524"
"4699","244,076301201906","-157,920517067989","-26,5510709416676","-331,937043047665","82,0022697202247","-127,381576796046"
"4704","106,565467674232","-265,219416217315","-45,01721664378","307,984975747181","-74,5896333987128","-154,503648960376"
"4712","-90,6309335643296","810,356534403778","-335,461064068461","106,044577483624","-44,3810350320959","-154,287363152231"
"4712","-72,0055693413174","436,74969285976","-246,412376950733","391,41144061842","-6,04840878833148","-159,520804910338"
"4720","241,051744954561","253,170733018659","145,859072409147","267,856167214419","-4,96395128730133","-159,303039983926"
"4724","167,361884718009","265,775068040595","35,0877966408732","-391,15227193129","0,182311110506829","-162,362698044358"
"4732","-47,686036232914","-762,676261518473","239,922649100751","-173,120879103223","-0,524052636516499","-162,158564467657"
"4733","-10,5219751043434","-417,18647539032","158,781889370578","-60,2494448485628","-0,838871697948574","-148,937437863062"
"4741","1,29139038160727","676,272390185848","-255,836047495282","-75,1327450220807","-0,979183317646831","-148,856184591656"
"4744","6,56720197636411","355,795423176051","-136,83145809937","446,015841963483","-11,9218907163438","-144,437072450198"
"4753","260,736935744424","568,372350125169","-228,05734137558","260,74998182707","-9,79894292535225","-144,398958709033"
"4753","198,732895403355","455,464796148406","-181,598896072034","-234,968077046467","-18,1786285895752","-134,588186519989"
"4761","55,0747964019228","-1182,22399524462","262,391724976495","-81,4939027898641","-15,9133683564781","-134,623260371962"
"4761","77,0781857729222","-649,431309407016","128,966987114324","-383,9676968286","31,7255432110052","-116,18963741817"
"4769","-80,4011127307602","377,601486336804","-27,4002639537723","-259,916018371098","22,9577164227845","-116,345288651633"
"4773","-36,4002643507639","103,784104473043","2,24794046417515","472,797058423149","40,8103300506481","-104,539143683025"
"4781","18,8389816972712","979,919841381278","-125,972596062643","228,860786832725","34,7670564400163","-104,750877917904"
"4781","14,8326582679921","651,254342074723","-81,060911192632","121,455055302408","11,8675978845199","-101,685709108352"
"4790","49,4197488487285","-1480,29566073256","40,2712572149893","131,457761905496","14,6615445867336","-101,884807050962"
"4794","39,93844075832","-810,555121627367","8,58197492389988","-649,198394026035","22,1240190287669","-108,58403586452"
"4802","123,32352192708","-432,983859262393","104,920836477053","-373,081132679367","21,4499671818283","-108,705683621192"
"4802","100,504497646078","-471,787675350981","69,7818353207782","139,448605911367","21,1495492021345","-112,075491543318"
"4810","-32,2468104489599","962,804210776761","-73,4156055969052","-9,58244248998614","21,0156559965402","-112,154767931841"
"4814","-4,29574138629172","478,108392024792","-33,3688283741415","654,635406468933","53,5964970272008","-112,227209423162"
"4823","-82,6338019738858","843,819186334506","-247,744981617847","403,670929851511","47,1174429805632","-112,293405295132"
"4823","-56,9880239921208","658,276317630143","-174,066429390754","-367,600957404578","22,4694512852033","-118,871190329825"
"4831","-23,1348171321643","-1542,82649060812","219,464462577101","-124,561745446635","25,4840947399125","-118,881864710734"
"4835","-25,8817521962109","-831,148453653985","106,01819585207","-469,728729977261","9,73027727307566","-115,63297063395"
"4843","7,52311710986919","83,2878181650271","-43,4515118841922","-320,420855262069","13,7089627594388","-115,664183376445"
"4843","-1,38609236391353","-129,532568128777","-13,0233423095809","492,862997055493","13,9279117054845","-102,658112460651"
"4851","-93,0656183061149","872,14059559112","-214,204173289249","223,428070068853","15,0254950001909","-102,77337362569"
"4851","-72,2487430042948","509,46666859722","-146,120464656319","211,330958957006","9,29743547728089","-95,2751850671722"
"4863","22,1026732027431","-803,78605673232","50,8691124955245","184,85340307064","10,7444982258593","-95,4234607201162"
"4864","3,25288043027444","-412,068211848529","-1,2961820611695","-463,248949690947","-1,04504301216353","-93,3865205285738"
"4872","37,3815817231289","-302,145357198765","27,0487662869977","-237,983929489504","1,70047964112953","-93,5251972776358"
"4872","24,7343610285291","-287,759809077142","10,3634025277473","48,7076561236866","12,2499925400292","-77,3586770913599"
"4880","28,3470033402445","467,413023626262","-37,4909403756798","-26,5763067216363","10,9518020020704","-77,5859704432132"
"4884","24,6545882027049","216,812390762568","-24,8401289005302","345,767111630156","5,7102809866358","-63,6728587892774"
"4892","116,687153717798","424,297811555941","2,81170241846695","206,025122270693","6,37418894693329","-63,9592806872325"
"4892","92,9980600122526","322,214426811864","-4,05252562652405","-219,33278353711","-1,10146549369639","-53,3588479043361"
"4900","-43,3442731584463","-877,785794065121","-59,8241003680956","-85,4484571556019","0,566712163343193","-53,6723425809416"
"4904","-14,6929646656033","-489,913452822634","-43,2163926664426","-248,318807987436","30,8420970965141","-46,3552966233331"
"4912","21,8861378439125","22,4670770010428","-59,833949313611","-175,675565041827","25,3355249646927","-46,6690974773647"
"4912","19,1258323934459","-98,2039309266082","-52,1222401438163","286,205586623172","19,7726818091147","-38,266115248201"
"4921","-35,929002426439","493,09946035385","-126,777627999235","131,801424879819","19,2933797943765","-38,5876049682703"
"4925","-22,8559319157744","279,654872253003","-102,043036384069","100,178590612226","5,09096730331999","-35,6227289593363"
"4933","42,4837889572401","-586,943822169918","113,372977781765","93,7020576235757","7,76109804070913","-35,9134728532949"
"4933","29,1333015740529","-325,075841389239","48,9627698216266","-295,386366693091","13,6140787010445","-36,1791499566976"
"4941","52,1480352658287","-246,909532237461","30,5992683087129","-159,073848032205","13,2226920193692","-36,4219214292516"
"4942","43,4781479070204","-238,857830352676","26,8604227118359","84,2670468522061","20,819806392672","-27,9540336914269"
"4953","-62,8572335850762","382,172741455444","-122,16949903432","14,1046205456423","19,2057621791548","-28,2162137995173"
"4954","-38,3450004841471","175,59333870854","-75,6278392355642","263,628543355083","30,920881494634","-12,1625490002986"
"4961","-65,5100396232895","-15,4079275128805","-20,0688449656005","167,732435683571","28,142189755436","-12,4929677933382"
"4962","-53,3423426584666","21,4823024997615","-30,7314107252961","-148,114701403435","12,9149628992998","-1,93273866695078"
"4974","0,203309664767907","-247,74075115927","81,4852128886618","-47,8019582572889","15,1283444080995","-2,28297079954226"
"4974","-10,4160048460046","-152,915035168609","44,4435927671096","-143,944985622567","2,12603328575856","14,7764495246335"
"4982","7,03505632995947","144,957395678707","-48,7285113547885","-98,6356143337963","5,33103686750662","14,3650739863417"
"4982","0,351414678961609","57,7479574911019","-24,7723036053745","145,814466548575","3,65085346237273","28,1099742931186"
"4990","-43,0190353002991","336,579033584889","-187,558605493107","64,8792077262903","4,90201298907968","27,6698435661864"
"4994","-33,7168373459303","231,972191154675","-132,566887486064","-68,3844222371683","7,01395220849858","41,3884678431496"
"5003","35,1721868634399","-644,872756397096","74,9797360527894","-30,677557581778","6,95522181025958","40,9243265019453"
"5003","20,1063589938305","-365,371041964735","17,5387701189307","-256,33025549707","-13,2769873497735","44,8450658008415"
"5011","81,8135036547133","-122,147914381732","107,232207728459","-172,54518770901","-9,29427500829305","44,4277744381415"
"5015","63,1482163946288","-166,978044801628","70,3783028011098","146,207124054313","-7,51922105544994","47,3051084438065"
"5023","56,3923726191144","349,848876942299","5,12571456370574","43,4893768996622","-6,72809775420426","46,9343700724476"
"5023","53,9471155768207","171,20471731129","20,2867723698003","148,11581810646","7,61329027908034","44,4231631964885"
"5031","98,9275476796275","-354,773836083474","-73,3495585218667","99,5438973300635","5,0050995123517","44,1284626620565"
"5035","87,2080778427792","-202,243151274456","-41,5131481314872","-220,972537440242","16,2771379277609","37,3418737346641"
"5040","105,898994206098","-312,080711587221","31,1543470698815","-113,616092525425","13,3009695857696","37,1403977082377"
"5043","98,6641143573333","-255,446561862538","12,906764163589","-37,7730607738747","22,8546938994122","34,7838600461511"
"5052","-18,6182419019287","198,128531554747","-21,415184390616","-52,2399844866071","20,1126906245789","34,6304937566718"
"5052","8,93176708152736","53,8770153655168","-13,2722324142707","217,666660255561","46,8681929691968","45,3525106188415"
"5060","-12,2195991921896","261,155821824398","9,73242609102655","120,945047819951","40,7928453480484","45,1501175222603"
"5064","-0,875271681596992","173,024721633451","3,66895865203209","-85,5642977761439","28,7592636877905","48,2238221140496"
"5073","91,6856378044197","-540,799893972235","-6,60547746175356","-23,8585645676646","29,3960200333515","48,0325240322343"
"5073","71,1877765871596","-313,650317367753","-4,2568762869704","-151,246050516213","25,0168849548476","52,2025831219969"
"5081","12,9889936772759","-34,752746556376","-104,683446418288","-99,3357187637054","26,0651494628881","52,0131161822157"
"5084","22,9241217690322","-98,3442327182457","-72,5993105219602","162,623025429291","46,7383838043742","57,271064591749"
"5092","-12,7931621551083","216,015191053112","-10,3195407506496","76,2736385930173","42,9522318530298","57,07569345004"
"5093","-1,72092409709583","102,613253622176","-25,2477576787915","58,5888021339421","41,2647828456531","56,8971664367603"
"5101","-14,0938918239404","-196,011043078676","17,9323370849929","54,9668489036633","40,5127041681225","56,7340313176647"
"5101","-8,57224974242792","-110,975240545519","2,07529921561889","86,5385521801639","37,0688898743348","56,5849610644103"
"5113","-221,158657922078","-291,240917041753","-266,79194158893","75,0046132564055","37,5340172420891","56,4487430597984"
"5114","-167,103659756084","-219,871413447188","-184,175241899881","-96,1058770783702","57,9473533541364","53,0656210789795"
"5122","-548,861615594421","-132,626950541011","-506,017959411957","-37,1502607025453","54,0453674333895","52,9741785173353"
"5125","-442,03774295673","-152,478742795619","-392,07199699278","98,7925934596671","30,5459485124087","63,7527802880275"
"5134","-853,837757210009","377,192909506874","-326,086562382291","57,6344488766266","34,0724990466366","63,6020935725774"
"5134","-727,887515956511","197,51510775242","-330,058503433836","180,254223591987","-84,0376451016432","52,602237955032"
"5142","-470,991366829915","256,856813579648","231,563822620658","132,367437963752","-59,6781223105346","52,5507464566998"
"5142","-507,008589450324","213,561167725981","53,4948688625501","122,559956944902","-48,8213333907363","52,5036943520435"
"5150","549,603729031548","177,026580521716","942,965716805297","120,551330083165","-43,9825741646287","52,4606988940687"
"5154","279,041333954607","183,589294895059","635,500645552943","51,922564219368","-229,897532656925","65,4560029535871"
"5163","661,061644499921","356,703737714258","711,189724299797","75,8670098586789","-191,757918662544","65,3309032081087"
"5163","506,33273034797","299,682730551889","641,721884726771","-93,3628925166531","-250,920688401407","74,9925335328914"
"5171","4,77864207356197","-1314,48527802656","-1182,59885257641","-31,0221212285794","-228,28892674801","74,8211762393174"
"5175","95,2426700771081","-782,260710294146","-616,379127633485","-504,75207043425","-34,7935703020299","98,5613458296004"
"5183","765,188485853947","-758,416320898784","-121,873255220489","-330,774608571706","-66,5546788463268","98,2547317341456"
"5183","618,673329852399","-696,909705405989","-194,262136258988","135,70360705491","-71,3844167832564","159,888867634995"
"5191","565,642616159162","-682,705387729147","-212,942654782697","-8,75905032654949","-79,5369813375311","159,209151696385"
"5195","546,44831113597","-679,425047247914","-217,763309105687","-38,3458090035817","-83,1704955602767","158,588038182192"
"5203","-777,493662029605","1479,58611229983","260,026776313412","-44,4053423451391","-84,7899155009594","158,020474622772"
"5204","-452,690419835754","758,187443755873","108,32425533328","907,601867156633","40,3874582651815","123,829146553712"
"5211","54,7277488373778","-1469,3674097605","-279,212201391349","571,578258127679","15,1777270716681","123,585659788788"
"5215","0,38620684268905","-818,798199496337","-179,219023635317","-1256,53178208115","97,200625737877","86,431819737879"
"5224","77,3625815256814","-656,172536445553","-576,706943897965","-650,938923519072","73,7573885712636","86,4812370769184"
"5224","46,2239454852846","-625,615818979105","-436,281819360785","350,939944779971","52,4288067838871","86,5263938481066"
"5232","123,408275930639","635,704711119731","-168,365707736075","67,1303298751999","49,9228771148247","86,5676573807812"
"5232","97,3449088439506","217,993662044773","-232,227853770025","427,284835715546","87,6637669910077","93,1226596440302"
"5240","87,9113526469295","121,527608911309","-248,707981447597","268,04648903061","79,484493675384","93,1125154940925"
"5244","84,4969057634411","99,2497701331485","-252,960807654293","235,433586700728","75,8390756322408","93,1032459327089"
"5253","-558,855738870589","-19,1149275922721","228,459694577182","228,754282245986","74,2143502811647","93,0947755563077"
"5253","-399,715265710353","17,549967805652","75,6940311301327","-212,436308909892","51,7298829884367","75,7075786371538"
"5261","336,039106132988","82,6272772240041","-143,148388652166","-57,7946048717204","55,708787030828","75,8194371842843"
"5265","188,343156216108","65,6562097888382","-96,622391535873","-22,532731780855","-90,1773328280781","47,6800343882594"
"5273","98,8478906452805","-614,044127844002","-173,455043048953","-17,3109033267049","-60,197276905745","47,9666997949183"
"5273","88,4553523242845","-389,013901638894","-142,282311397699","-213,712829647376","7,56538561815648","65,608106867254"
"5281","-210,155744397743","-59,3030234365654","210,666603519343","-143,937040547844","2,76650778193117","65,7285414776282"
"5285","-138,237119786118","-140,159700999243","103,74783931748","238,36828618694","22,3880411614164","57,1488642788426"
"5293","-112,20639303352","-158,832715685423","76,1566136133178","111,666551275463","17,1331569015984","57,3088929719036"
"5293","-102,784650905836","-163,145055593281","69,0364814125683","85,7173286684849","14,7911090012333","57,4551246229106"
"5302","220,045864861333","623,090899498023","344,167878358921","80,4027830201795","13,7472823256301","57,5887487583528"
"5302","141,893385079025","359,663973964788","256,167693294268","305,508831023841","-27,1300077447741","40,3313955232811"
"5314","220,079781783728","-790,912915465694","-390,156736757146","225,611806282272","-19,3485957570867","40,5619031447306"
"5314","183,379109522282","-440,626766214276","-198,945825284152","-523,190872789632","-12,7718798605165","44,0311854639191"
"5322","-0,262104134734798","-159,827980469408","-3,27920868525999","-268,549841563931","-11,8407051865772","44,2013599597565"
"5323","37,2695188761906","-207,980400676","-36,7859035890928","228,810278703845","55,4096517852919","50,87415899192"
"5334","-327,536279471917","518,597451448863","-83,755296460125","82,672407787392","42,3824446304444","50,9716556385931"
"5334","-228,576625152109","269,393103117387","-73,8761166881383","252,009136382644","35,0220420275441","44,5434501999129"
"5343","-192,758480199514","211,84193237275","-71,3267168620586","175,690243700754","32,7415862440018","44,6694592528531"
"5343","-179,794211916006","198,551083813106","-70,6688242410898","160,059708438517","31,7252105417697","44,7846043027864"
"5351","344,160982610074","-409,53693220054","14,8561157854201","156,858487561239","31,2722223384715","44,8898220011563"
"5355","216,804966667967","-207,968579849077","-12,0735026382349","-174,112913187115","-54,4167351850027","18,9167830072752"
"5363","70,7876091516382","-352,476965747635","-210,636539121929","-57,8977036681846","-37,6074227681556","19,1830368827873"
"5363","78,9370721013296","-277,84968515066","-151,87728808702","-68,2048739361575","21,1765541978935","16,1676872457191"
"5371","-162,183159251097","286,02435564133","63,6093455263533","-51,3158399455696","14,3759684992127","16,4123091484697"
"5375","-100,455891325059","107,245242304684","4,21736146854566","187,313597205039","22,2251893076411","1,42881599462086"
"5384","69,310879561606","157,949189306978","178,762489224243","105,18623805345","18,7235063408919","1,73714045926167"
"5384","40,7574443212348","117,658742253761","114,805228461079","48,8718192454953","-20,1406044567819","-15,3605744192034"
"5392","18,9562441960696","-4,86578133880349","-14,9256845002807","59,3383119051956","-13,4619391604325","-14,9841918299334"
"5395","18,0653663267903","30,8384452331115","16,5962358843777","-83,9288397974672","-2,71377529262026","-21,1575557708265"
"5404","21,0190219021477","-189,124814520304","-187,786228433371","-32,2707522377159","-2,92342913564082","-20,7986766478151"
"5404","20,0880885259689","-110,923057826947","-118,528726394881","-55,7995814652525","9,41761253243248","-11,781010253201"
"5412","1,7325564694788","-2,64109302779737","-84,9788053728413","-41,6184170378949","6,91788795201551","-11,5408114495293"
"5413","6,08882764483428","-28,6344914719064","-85,3209851091483","49,2504910648904","19,7925789106178","-6,97645743201223"
"5424","-138,121154835639","69,7371608737518","59,1719117275583","18,8609507090279","16,5306963336816","-6,80562399586499"
"5424","-101,317518006067","33,4550781110812","13,4594370654198","84,4447799030532","13,5225985187224","-8,8219512472041"
"5433","29,9432657294085","171,908112908374","139,276404814588","57,8767142357824","13,1819202424206","-8,66443872425456"
"5433","5,45270592242501","120,882411507424","92,7444601694596","47,0498428212498","-14,9475015830768","-15,0378026185425"
"5441","-3,4115774783826","109,098552704989","80,7365268872029","47,8324391158536","-9,48449575222622","-14,8616802426296"
"5441","-6,61997781014748","106,377192205021","77,6377855212276","47,9927192057376","-7,04969020690493","-14,7007424425615"
"5453","36,4461838563793","40,2934900062778","-248,905052285324","48,02554546289","-5,96452240238799","-14,5536800641641"
"5453","25,0338496756079","62,0321414217064","-146,17199277285","-81,2217296051064","-10,1438051027952","-12,2468647202218"
"5461","-36,4286666476995","-184,154107942724","-13,4024494384362","-35,6922930463101","-9,00646844409216","-12,1389338869413"
"5465","-23,674836907197","-99,0082798984577","-40,14022742227","59,8017217693098","-16,2711205801512","-19,6438207849572"
"5474","95,6050864269208","401,839678708314","168,96070667903","31,3594290873346","-14,5089013648283","-19,5016659671274"
"5474","68,7780907515802","245,505342553558","98,9208427768205","115,294009651456","-26,1579806050733","-31,3201437437013"
"5482","13,2026560880241","25,4192680688402","-102,057419898371","82,4842803056309","-23,3498554831603","-31,1196790307807"
"5486","21,0872970736355","78,5926619682953","-48,921436925655","-121,706721359046","-5,00088991316366","-35,281361800178"
"5490","23,9411188221344","90,872508174305","-35,2092797551442","-53,5261783715376","-7,82294456512042","-35,0842407133003"
"5494","24,9740508969198","93,7084118431282","-31,6707500479713","-39,5624225580624","-9,08070531598425","-34,9041146282149"
"5503","41,7284480201441","-317,827721652798","-112,628886065383","-36,7025674164851","-9,64127635429374","-34,7395183029707"
"5503","37,792650940797","-179,867741800875","-86,5207680481133","-176,14201769313","-9,89111710403535","-37,8477609777102"
"5514","38,0061542471717","384,479849240072","78,7333728361472","-126,69999551365","-10,0024685581163","-37,6880232417043"
"5514","37,0834311175099","213,810097443129","30,3785000382966","244,26008457463","19,4797985417641","-44,0593537720194"
"5523","-45,1531982553096","112,47856931039","23,12597231829","119,234779816482","13,6197419439948","-43,8813733407469"
"5523","-24,9184953507229","124,077099326306","18,2544006559895","-82,3001534634816","18,7795263474036","-46,9773858342337"
"5535","-56,907879595628","-283,666335778442","-104,938697586054","-25,5756328436035","16,0791892192856","-46,8064723549127"
"5535","-44,4863396226345","-145,830471399804","-66,7296428346714","-207,839131465943","0,886884207911457","-46,6502943609392"
"5543","-39,9904011278485","-113,9987019355","-56,8694965688795","-137,167713447731","3,11583002396469","-46,5075814169487"
"5543","-38,3631099068851","-106,64748350047","-54,3250084883599","-122,693812522959","4,10924826315081","-46,3771726194973"
"5551","150,601984053603","-223,476837418747","-50,1844990685683","-119,729476814764","4,55200456114603","-46,2580071536525"
"5551","103,997323275223","-183,457370223868","-51,116008137304","72,9634383717631","-15,4566971330885","-54,8388440763373"
"5564","1,95014984516926","453,801128489837","53,1601380400253","5,42802308685289","-11,3743698115043","-54,67987512036"
"5564","17,0144867707212","245,969397877981","20,0694154359641","111,874419008822","29,3028384856187","-66,4829884073881"
"5572","76,5227282430957","-355,743076366552","-5,88932664075875","66,6752351177699","22,4322521081929","-66,2684838705448"
"5576","65,061554682841","-181,702358482944","-2,58818363729814","-161,595529011852","13,1528612661385","-67,158689119485"
"5584","19,9618916053979","-219,348106367281","-62,7042732757766","-86,3466557995257","13,0171321494225","-66,9721443867725"
"5584","28,6382061547535","-184,042003078181","-43,217701718845","-13,4890451340384","14,5109493561062","-66,8016828043561"
"5593","31,7785717342331","-175,88842312533","-38,1890390884716","-30,5673997509486","14,1767283303827","-66,6459177465204"
"5593","32,9152174743893","-174,005438036232","-36,8913532551154","-34,0651421143405","14,0277694546299","-66,5035821369443"
"5601","-40,3857643640581","-21,4313939638839","-5,20151642800457","-34,7814992760868","13,9613800148347","-66,373518141624"
"5604","-21,9168310972967","-72,1959940986785","-15,0237054801144","130,22967319934","29,4748937125565","-69,5133159051498"
"5613","-57,8214363772555","333,578682882788","-68,0747209466233","72,0248824772159","26,3891073063483","-69,3824127027679"
"5613","-44,8169987124592","191,2881541467","-52,7649515857271","42,1522722399121","-12,2896426692361","-72,5214436123514"
"5625","-49,938400482716","15,1337394748185","-67,975509245275","46,0341949030793","-5,52836395977994","-72,3898396711463"
"5626","-45,7920762279315","55,4526965312248","-60,9007129511316","-86,0151525690921","-5,62355209495937","-62,49363763797"
"5634","-70,5001756308675","-129,832692661897","-81,720254313665","-39,0595960809011","-3,66597646838304","-62,4506470696587"
"5634","-63,4431968247112","-62,6224398767249","-74,0929002573299","-67,1419187584461","-15,2279873641742","-49,3767703595311"
"5642","-60,8889448768474","-47,1009260679664","-72,1246017190437","-51,8933352089765","-12,3810567761017","-49,4300716780975"
"5642","-59,9644411774067","-43,5163927425892","-71,6166668431738","-48,7703401746721","-11,1122090762074","-49,4787775674335"
"5650","63,2241589428569","8,61416769129107","59,1600714837997","-48,1307333579046","-10,5466966986763","-49,5232842273025"
"5654","32,8118969047879","-8,34681772236138","17,908034537518","63,3023155811972","-28,9463769911915","-48,4777376471164"
"5662","20,1662183976795","39,0389673297737","-43,2536996935507","24,1244260654409","-25,1469253697717","-48,5223339648092"
"5666","16,5891536443231","20,9822250404163","-30,0369649250993","-44,9360346123278","-15,6819974418325","-49,6493014156484"
"5674","59,5218783482595","-172,477248097345","81,3741308574106","-25,0800024808023","-16,4635763530479","-49,6791061826254"
"5674","48,0612470659981","-110,154715586432","48,1246379609121","-33,5797371797153","-9,0403666457188","-47,5339091971305"
"5683","-39,6275990622509","-53,3045224550959","-68,4560681805828","-28,3205302947934","-10,7319183813182","-47,5736626255703"
"5687","-20,3663093774378","-64,1755574363346","-36,540633784312","46,3595557565846","-2,15996392946791","-42,1789084125107"
"5691","-13,3947443427117","-66,6861107014165","-28,3046056142582","20,6544542724531","-4,33953194022414","-42,2492686069056"
"5691","-10,8714076488174","-67,2658970518138","-26,1792339468794","15,3899059928835","-5,31094299913709","-42,313562623152"
"5703","53,9259753587788","-17,8661035695153","-93,5665092272044","14,3116971165237","-5,74389092309335","-42,3723134631778"
"5703","38,3791904398903","-34,4577314103426","-71,9563241556449","33,8380125135053","-16,8170233146296","-41,3397829861774"
"5715","-129,415172979415","48,3945594964554","67,7498996600645","26,8371109101007","-14,7522046023259","-41,3962732100324"
"5716","-91,1478308740984","18,5284404760083","26,8021864812797","46,9456201914888","-13,8319361262409","-28,4133004509631"
"5724","47,1949487242339","200,920623687738","92,8807628203855","39,0639551456376","-13,4217819257635","-28,5496683408552"
"5724","21,2676957124591","136,042214858945","65,9328577224534","80,5344121687089","-33,4450140397492","-22,156982820284"
"5736","-264,947560033796","21,9918380261659","-284,183865409043","65,0277932708436","-29,3691627768919","-22,3154494042417"
"5736","-199,542298601021","51,6530812807868","-177,534231903033","-108,691518517256","0,424987255381637","-13,7705252124437"
"5740","-175,869063778569","58,5030391024469","-150,012457485824","-49,2702033385015","-4,29606632522203","-13,9623106454496"
"5744","-167,300608662233","60,0849661226912","-142,910247734403","-37,1003862775889","-6,40019137903386","-14,1375610956725"
"5752","-580,264757436008","-728,550609955247","-383,207426576487","-34,6079398069824","-7,33797828750452","-14,2977021440409"
"5753","-475,7358711204","-464,677852108285","-306,217998312873","-165,146665342352","-69,9283514277488","-1,40944384465334"
"5764","1632,59709685783","2810,64345026962","959,13836950686","-118,88172504864","-57,8242373784817","-1,63236028748652"
"5764","1131,70178203925","1750,04508121536","570,673504862501","901,288050112551","-218,740758001601","-18,1292985283768"
"5773","598,222845114646","1391,89097963051","-424,931168842288","547,224515039923","-183,459597204446","-18,2039358911007"
"5777","620,131771552792","1373,17898848265","-167,854763773149","-1245,08592554069","133,801047612057","30,6075840056555"
"5785","275,88023466183","-5091,75066638934","445,455656082955","-654,161109127823","81,2008559280529","30,2107673856567"
"5785","366,27944120447","-2932,7594076522","289,725220338444","-1373,28739540678","81,0721453476047","49,4000516561392"
"5793","398,999158202266","-2434,16267208285","249,537759945411","-1052,56847327221","66,0147803648974","48,9349116043167"
"5794","410,841959940918","-2319,01690495","239,167070586453","-986,883447644463","59,3038675646974","48,5098740911907"
"5802","480,650547938561","-20,9517194174089","154,619551494077","-973,430787717191","56,3128827102019","48,1214816342166"
"5802","465,917553376505","-774,237296653913","179,801401056045","1497,71671636259","135,803966005356","37,9906303771901"
"5814","-1098,84151363106","318,446372413949","-700,34878288637","628,821520080142","119,232324752047","37,7332211146136"
"5817","-713,201283814143","-145,209618224083","-418,478441183449","-689,081521810144","242,408578007574","-30,9336065867781"
"5826","-290,236801402741","-545,950195405295","-701,09578865322","-323,995421823579","213,306967971724","-30,6802515297409"
"5826","-310,146097469486","-472,497093306865","-570,027411836105","-60,7283366471397","-18,8210698094804","-93,4492707365773"
"5834","480,379629412501","1076,47238515667","115,282177402481","-111,809767946349","18,7218497637479","-92,8065929463165"
"5834","279,50800434304","568,190890191383","-81,8683079678024","845,338260865364","-56,2499633339133","-104,167700864864"
"5843","206,803132513661","450,808527889354","-132,744537038937","502,367520329088","-30,6641298065412","-103,549298917184"
"5843","180,487825979458","423,700283508854","-145,873546991092","432,125198074589","-19,2607867966704","-102,984213143718"
