Timer,AX,AY,AZ,GX,GY,GZ
"1005","0,269206957424052","0,25767182220161","-28,4254345647031","-1,20659604655848","2,00521017114099","0,85546105098327"
"1006","0,272105926672081","0,26967744598495","-28,6523080912924","2,24191382666","-1,27024830953701","2,3994311978949"
"1017","3,77534053049657","-1,50316626812766","-28,7073456564233","1,20004717929459","-0,523014804528747","2,16908373187565"
"1017","2,64787246845052","-0,901617967854529","-28,7218070552981","-0,809680504342581","-1,79269781839892","0,668583750994857"
"1025","-4,63513730018806","1,00871689275293","-30,461338925209","-0,394483859108894","-1,33365361255327","0,736871242512732"
"1029","-2,45281006609981","0,438533327924355","-29,9210812841754","-0,273627647040942","2,0080903892309","-4,65054489727499"
"1037","1,59269445528079","-1,46475965127267","-34,9854118266897","-0,2384465990732","1,43510613029599","-4,11623940732921"
"1037","0,602368326181296","-0,892992980056525","-33,3238853102449","1,48069469109801","-1,95543633733952","1,64129391600719"
"1045","-1,39521727556092","-2,53935174562546","-27,6776361919742","0,981136562979674","-1,40346431872751","1,364106677792"
"1049","-0,893773153744069","-1,90977590399606","-29,1853648798025","0,835715235678961","-1,16772829392022","1,18486460177183"
"1054","-0,768623115455557","-1,76812384968891","-29,5838489390258","0,793383099926413","-1,06705009907026","1,06888144687749"
"1054","-0,7373882651454","-1,73625270222312","-29,6891659942387","-4,34564004132747","-1,02405242250892","-0,358830301940938"
"1066","4,52166961190536","3,59593013960498","-29,7170006889072","-2,84160923200844","-1,0056889598616","-0,28307561248543"
"1070","2,83422123241398","1,79565002010892","-29,7243572393322","-2,40378599386889","-0,997846285790402","-1,5866541720781"
"1078","-4,5886139125929","-3,9344177899471","-27,9905958076888","-2,27633568722137","-0,994496833791191","-1,43056695497941"
"1078","-2,44119939959858","-2,22366020197268","-28,5323725884743","1,17856525946061","0,579853299687098","-2,68213449891078"
"1086","1,59559220118633","-3,6137505522119","-33,882678266927","0,184286625376517","0,252227308329251","-2,49238019203214"
"1086","0,60309154444079","-2,92651533885731","-32,2967334229691","-0,105147798765918","-3,03353461194907","3,04092311429666"
"1099","-1,39503677523709","2,55312180492138","-30,1418715557133","-0,189402134529487","-2,43681896833953","2,62310175980831"
"1099","-0,893728104614151","0,786018315477879","-30,5723539025027","-3,63172873783379","0,963865855251166","2,35261039977072"
"1103","-0,768611872128389","0,388427075627145","-30,6861279219039","-2,63378971348309","0,416231525602548","2,17749827784313"
"1107","-0,737385459044452","0,298970631819302","-30,7161977437845","-2,34328975005153","0,182347663513929","2,0641332643827"
"1115","1,02082877416233","-3,27116468519346","-27,2527335739365","-2,25872523589332","0,08246046144501","1,99074241978653"
"1119","0,459642530342373","-2,07443089773035","-28,3373598249441","1,18369166031475","-3,10603869661675","-0,761999094990983"
"1127","3,82042363727412","3,51984139390025","-33,8311375101298","0,185778920220516","-2,46778403831637","-0,544083542280727"
"1127","2,65920480135436","1,77853035568397","-32,2831114960596","3,31308678160512","-0,622278366061604","-1,75562289153488"
"1135","-1,13145284077392","-2,16326565928306","-30,1382713584275","2,22344582880497","-0,83409915456047","-1,53995568192515"
"1139","-0,0775222599146447","-1,05015404708369","-30,571402390974","1,9062514419556","-0,924563651401929","-1,40033589623072"
"1148","0,185516923937464","0,975295614695891","-28,9501707170564","1,81391618345583","-0,963199260525922","-1,30994809645953"
"1148","0,251166041154627","0,431013713320553","-29,521688468486","-1,63076277575608","0,59321987828053","-2,60404704070922"
"1156","0,267550697342642","0,308552455511433","-29,6727373377933","-0,633508522006053","0,257935911415753","-2,44182770111835"
"1156","0,271639967233529","0,280999160745803","-29,7126586890759","-3,76100806870834","1,68766236527826","-2,33680928188743"
"1168","0,272660564068069","0,27479977927591","-27,9875039478396","-2,67142291548754","1,2982704419746","-2,26882189884412"
"1168","0,27291528384115","0,273404943161531","-28,5315554276195","1,06355540158049","1,13196880243565","-0,872193186037494"
"1177","-1,47744191243755","-1,5019128763083","-33,882462295992","0,150807265723074","1,06094463973936","-0,968036258496146"
"1177","-0,914294715383484","-0,901352307665209","-32,2966763430876","3,3029065360142","4,17645091203413","1,67514570129959"
"1189","0,976675898016196","-0,766228574098554","-28,4061507440288","2,22048236019644","3,50702242641154","1,38630290277185"
"1189","0,448622889469316","-0,735826272771569","-29,3779071045637","1,9053887765007","3,22112267335916","-1,50591904309195"
"1197","-1,43358894335171","-2,50398986308927","-27,8990310207732","1,81366506161673","3,09902050628542","-1,37830107588379"
"1197","-0,903349925083893","-1,90181962141018","-28,508172539574","0,0780642094340334","-1,67188587518058","-2,64829775623079"
"1205","-0,771013278681627","-1,76633371782804","-28,6691651551714","0,57283095190219","-0,70944625032447","-2,47047496479104"
"1205","-0,737984800245223","-1,7358499296915","-28,7117145816625","0,716857507720735","-0,298407196887295","-2,35535509987583"
"1218","-0,72974157799741","0,0460127880084199","-28,7229601514546","0,758783625627271","-0,122860493398452","-2,28082818917558"
"1218","-0,7276842409282","-0,553075204626793","-28,7259322911608","2,47988840164906","1,52503170279851","-2,23258056116966"
"1226","1,02324999671912","1,08713637244248","-30,4624235364659","1,9809018526678","1,22881408145169","-2,20134575502612"
"1229","0,460246817206072","0,45617743791504","-29,9213682298009","0,126746824803601","-3,61645358945508","-0,828510121012987"
"1238","0,319732916637293","-1,46078979368537","-29,778370410223","0,587002457013751","-2,68577221024338","-0,939756483423497"
"1238","0,284663565394677","-0,89209977802888","-29,7405769052853","2,42988291836523","2,43046246548923","-1,01177574546138"
"1246","-3,22493055440613","-4,31415476562969","-29,7305882983283","1,96634526082113","1,61550576998741","-1,05839995853311"
"1250","-2,10085235579452","-3,08410349443113","-29,7279483667023","-1,58639068455608","-1,87838551879259","-1,08858378967836"
"1254","-1,82030578345037","-2,80734686250923","-29,7272506478893","-0,620591810106377","-1,37055783907421","-1,10812435889298"
"1255","-1,75028718567731","-2,74507772372926","-29,727066244802","3,07835233194808","-1,15367461503629","-1,12077463656628"
"1267","0,0176087711512931","-0,956063428859734","-31,4627232339205","2,15511465086966","-1,06104805144455","-1,1289642406384"
"1267","-0,541161115532798","-1,55354234514445","-30,9214474381221","3,59526032872108","-1,02148906609253","-1,13426607009939"
"1279","-2,43103924317668","0,0870312676884548","-37,7212142477233","3,01448661063159","-1,00459420071699","-1,13769839666682"
"1279","-1,90271357287504","-0,543846210235574","-35,5183536814054","1,13652334493387","0,575540912666694","-1,13992043450341"
"1287","1,72998707970082","-0,685791127519797","-31,4647387952664","1,5898484011757","0,250385572564372","-1,1413589491815"
"1287","0,636633714864892","-0,717728167987821","-32,3933915910424","0,0129111989925423","-3,03432118110698","-3,84751958049193"
"1299","0,363755422905736","-0,724913874763175","-25,6960063044926","0,553864916213764","-2,43715489657212","-3,59944824943818"
"1299","0,295650668653921","-0,726530630138898","-27,9259257211369","-0,997563590358824","-0,609197261434359","-3,438850511156"
"1303","0,27865313646329","-0,726894393652585","-28,5152806548865","-0,449184294057881","-0,828512471796136","-3,33488189280823"
"1307","0,274410905450999","-0,726976238992874","-28,6710437893488","-0,289551128468734","-0,922177688962312","-3,26757413544647"
"1316","0,273352132697412","-0,726994653868129","-32,1836225455162","-0,243081927811626","-0,962180262848157","-3,22400008134184"
"1320","0,273087885007815","-0,726998797141644","-31,1119769984525","-0,22955474753088","-0,979264576170717","-0,490561520314754"
"1328","-1,47739883477111","-0,726999729361665","-30,8287472163902","-0,225616986524444","-0,986560950712423","-0,720973520082994"
"1328","-0,914283964092623","-0,726999939107454","-30,7538912067079","3,19332946883437","-4,13551638559317","-2,22275354552437"
"1336","0,976678581315101","2,82300798751094","-27,262695740362","2,18858448544463","-3,48037338009061","-2,19498388934824"
"1340","0,448623559164993","1,62174561745509","-28,339992768489","0,187203221191441","4,6640235667775","1,88083781546478"
"1349","-1,43358877620958","-2,19854160029867","-28,6247162046371","0,604601308758524","3,1423354789224","1,5194649581254"
"1349","-0,903349883368689","-1,05809099317037","-28,699966978542","4,14390602931737","0,919532746903269","-1,41971188314344"
"1356","-0,771013268270378","-0,801494153434939","-28,7198553272143","3,17419732648801","0,97021737443686","-1,32249182596905"
"1357","-0,737984797646791","-0,743760887521735","-28,7251117038917","-0,525884966268642","2,56478343132558","1,44567636997508"
"1369","-0,729741577348896","1,04423285403686","-28,7265009341506","0,397021399239091","2,24579126365021","1,23774782605542"
"1369","-0,727684240766345","0,446524317326034","-28,7268680997535","0,66567936218947","-2,6092029685115","-1,60209141911642"
"1377","-2,47759154132802","-1,46296170733182","-37,4054937685132","0,743885671902092","-1,68267561250103","-1,44056166040657"
"1377","-1,9143320596469","-0,892588449940118","-34,6992048407035","4,18445169534754","0,28594566486637","0,016625013296832"
"1389","-0,0233334223363476","-2,53926072795626","-27,0411252695543","3,18600016635264","0,126705132294111","-0,0400137242081133"
"1389","-0,551379436697104","-1,90975542538365","-29,017138687521","-5,64914942081485","3,20453592631989","-0,0766808114681128"
"1398","-2,43358952391454","1,78188873172759","-29,5393877196347","-3,2210606993165","2,51901698418915","-0,100418545523626"
"1398","-1,90335006998032","0,612493948842409","-29,6774151485296","2,61245597711679","2,22624531331285","-2,82101536412849"
"1406","-1,77101331484476","0,34938478495936","-29,7138950076692","1,31059217565242","2,10120828515828","-2,5822898088202"
"1406","-1,73798480927079","0,290186272076961","-29,7235364255635","0,931619735964197","0,474887778865418","-3,78035706758078"
"1418","0,0206791887937667","-3,27314113111308","-29,7260845971082","0,821300891641393","0,780318245122431","-3,55596822445883"
"1418","-0,540394803058875","-2,07487559018236","-29,7267580642571","-0,919713001108086","2,48368124439763","-0,705472823204365"
"1426","-0,680427218454998","-1,80527062084404","-29,7269360577684","-0,426521994279416","2,21115411313645","-0,860103942888155"
"1430","-0,715376400998506","-1,74461057763236","-29,7269831004343","4,84374612523822","-1,05107616659568","1,74501949808442"
"1439","-0,724098991100264","0,0440416771495991","-27,9912898077429","3,37792071770946","-0,444310621666729","1,43153817313205"
"1439","-0,726275968429807","-0,553518696711395","-28,5325560087149","-0,466581104754169","-1,75809262769978","-0,124019714057907"
"1447","2,77402224133002","4,63704456230196","-25,2041981148532","0,414284748182192","-1,31918310884383","-0,131065056171944"
"1451","1,64762397663934","2,80490060129644","-26,3245321810127","2,37960480830515","0,441186171154856","-1,48824078624982"
"1455","1,36649836398741","2,39267551465444","-26,6206300598913","1,95170930734355","0,193005302312014","-1,36685643190353"
"1455","1,29633524977964","2,29992651366232","-26,6988870338821","0,118248877391748","3,2328514262464","-1,28827398270213"
"1467","1,27882399369418","-4,82095758940015","-31,9266870814201","0,584528705259236","2,53110997785525","-1,23740085860185"
"1467","1,27445354786729","-2,4231281222995","-30,3083647006541","2,42916280944405","-0,914429303375198","-1,20446634482652"
"1479","-2,22747876272867","3,44138590859496","-28,144945635807","1,96613563717664","-0,385951431268989","-1,1831450240545"
"1480","-1,10148833566797","1,76087818428486","-28,5731663642699","5,24914864096195","-1,73316856414199","0,183272765049298"
"1488","-0,820464510818091","-2,16723732747032","-28,686342650897","4,20483344160946","-1,30853853101472","0,0678715840521016"
"1488","-0,750326800731679","-1,05104765659116","-28,7162544954279","-1,22586688254972","2,01865190953522","1,34577723246173"
"1500","1,01759888405649","-4,34991740459609","-28,7241600246682","0,193256724123083","1,43962957293237","1,1730745908499"
"1500","0,458836416853685","-3,09214994561632","-28,7262494107809","-2,81143669053451","1,19234050979576","-2,99657460126118"
"1504","0,319380910002004","-2,80915728194546","-28,7268016235671","-1,68610268292718","1,08672820974916","-2,69594428190377"
"1508","0,28457571184935","-2,74548506088444","-28,7269475702447","-1,35851805091931","-3,67713567350802","-1,14870594709591"
"1516","0,275889057261132","0,818848908809543","-30,4626918689145","-1,26315819295509","-2,71168833604031","-1,14704656107124"
"1520","0,273721048689422","-0,379190158670872","-29,9214391485306","5,60020140036995","3,99231384570797","-1,14597229891701"
"1525","0,273179958777388","-0,648744172385804","-29,7783891536372","3,59812478268863","2,85546145503311","-1,14527683736748"
"1529","0,273044913973264","-0,70939275078537","-29,7405818590624","-3,82027989400966","-0,775905160439925","-3,8500559637928"
"1537","0,273011209594906","1,05196554778004","-29,7305896075832","-1,97977685195608","-0,326790491590489","-3,60109026675556"
"1541","0,273002797682076","0,448264142588732","-29,7279487127309","0,264893510684103","1,43793720745619","0,617930507971629"
"1549","-1,47742007080043","2,08743772022613","-33,1986621909399","-0,0816831414443741","1,19161773375305","0,349262626473836"
"1549","-0,91428926416449","1,45624523996491","-32,1159518906241","3,23522859865297","-0,486500122035143","-2,52989837425261"
"1557","-0,773743510516531","1,31422944841071","-31,8297977576317","2,20078131850068","-0,203191286015765","-2,39382494288431"
"1557","-0,73866620940691","1,28227646151451","-31,7541688587428","1,89965380497185","-0,0821956486996033","0,399496357183815"
"1570","1,02050912547182","1,27508716685639","-29,9984748480037","1,81199561190211","-0,030520789365026","0,207851563651305"
"1570","0,45956275266802","1,27346960422135","-30,5344549737157","3,49537840623829","-1,58137112060613","-1,26883114153734"
"1578","2,06998295737973","-2,27690231473282","-25,4689942746312","2,98541099166018","-1,24370882544801","-1,22481384863346"
"1578","1,47191039358805","-1,07572184150132","-27,1302220156711","2,83695952150887","-4,24533919036443","-2,54893237834976"
"1590","-2,17819763502664","0,969542962888296","-32,7763921731683","2,79374531142387","-3,52727654217285","-2,40614727773643"
"1590","-1,08918878971545","0,429719389599121","-31,2686426169615","-2,34553460159074","1,49815285114573","-0,961095620531652"
"1598","2,6834467384894","-6,79175470978626","-27,3987415907291","-0,841578538510294","0,644415003697733","-1,02559038958776"
"1599","1,6250182122969","-4,41655759081549","-28,3759489077699","-0,403777058994245","3,42563964025794","1,63788600166862"
"1607","1,36085643470765","-3,88214770873275","-28,6342192063714","-0,276333086280137","2,61344603609162","1,36218152016634"
"1607","1,29492714140889","-3,76190761590567","-28,7024785674881","1,46966592985869","-5,59802413568256","1,18369448591113"
"1620","1,2784725590899","1,59015788631011","-28,7205191257919","0,977926092016271","-4,10498170430746","1,0681445999476"
"1620","1,27436583708902","-0,205648713868999","-28,725287142055","7,6703810148145","-5,04025226600703","-1,71189005809084"
"1627","1,27334088457029","-0,609698039198667","-28,7265473014526","5,61855406236636","-4,43968794639697","-1,51164368754309"
"1627","1,2730850777089","-0,700607526491495","-28,726880354366","-0,105432845731734","2,1084798677691","-0,029392447657424"
"1639","-2,22782030445839","-2,49606578559005","-35,6697912815385","1,22831506179487","0,905073680586178","-0,0698047529390415"
"1639","-1,10157357739022","-1,9000367355654","-33,5047628858803","-3,51013129821476","3,53696183964726","2,60926227185816"
"1648","-0,820485785381574","5,33408337199955","-22,5183239226327","-1,88949262262114","2,66098956015462","2,34365093765512"
"1648","-0,750332110420872","2,96173155445075","-25,6146710107835","-1,41772484472305","-0,858960285693043","-0,533531299219805"
"1656","-0,732823210175427","2,42796185384402","-26,4330178171219","-1,28039328549602","-0,362261703690938","-0,396176845180323"
"1656","-0,72845335231728","2,30786579929669","-26,6493021923481","0,46848400621911","-3,29597079529499","2,39797377016098"
"1668","1,02305804249012","-4,81917128178559","-33,6492878175141","-0,022417965852696","-2,54890030581181","2,20686586316279"
"1668","0,460198909417217","-2,42272621020806","-31,4993439377374","-0,165319487344077","-2,22984117844689","0,730530730435507"
"1676","0,319720959848194","-1,88353562350238","-30,9311260804581","-0,206918107855556","-2,09357729413085","0,774773036648849"
"1680","0,284660581228449","-1,76221989119535","-30,7809493542803","-3,63682763614974","2,68337727851513","-0,549199822753878"
"1689","0,275910238895499","8,91509958633048","-29,0055527796345","-2,63527400234061","1,72352071727509","-0,406320417317839"
"1689","0,273726335185438","5,31745389931348","-29,5363256305189","2,78297843379786","-0,259334808782382","2,39140697045677"
"1697","2,02360204722077","-11,4670379189397","-26,2051944043119","1,36023124800189","-0,106173444146324","2,20261461342842"
"1701","1,46033468169953","-6,24348165986936","-27,324795494612","-0,762830421116041","-0,0407612346764957","0,727778533761617"
"1705","1,31975484579","-5,06820232740202","-27,620699652168","-0,38085348885105","-0,0128249652531204","0,772991304921701"
"1705","1,28466903845575","-4,80376916332413","-27,6989054267224","-7,10526038394251","-0,000893933483655563","-0,550353289719972"
"1717","-10,9770330336626","4,13074717884934","-27,7195747651466","-5,06273464785755","0,00420157576014025","-0,407067154899933"
"1721","-7,03729920703631","1,1409777347689","-27,7250375529436","2,36744476369966","-1,56654188069793","-0,314305814516318"
"1726","-6,05402346841468","0,468291529778077","-27,7264813364796","0,530369345942219","-1,23737554845313","-0,254253484396786"
"1726","-5,80861826575157","0,316939815591256","-27,7268629202013","-1,71330323556266","-2,66971472386047","-1,56799116639817"
"1738","-16,2498948382609","0,282886283324154","-39,8769038511845","-1,36643612943224","-2,28143864259298","-1,4184856573548"
"1738","-12,855820615429","0,275224374332261","-36,0880901005556","-1,26546314492343","-5,26145285393885","-1,32169798539326"
"1750","52,7568382735332","-8,6015194591695","-2,10831953007507","-1,23606991789088","-4,53415837127878","-1,25903906731276"
"1750","32,1323952200338","-5,59875143097144","-12,1276607296208","-1,22751355205114","-2,65062553952453","-2,57108928253034"
"1754","26,9849625838409","-4,92314059637828","-14,7757152399306","-1,22502279469734","-2,84620567537165","-2,42049133226148"
"1758","25,7002703051008","-4,77113085219115","-15,4755808847786","-2,93319782218337","-6,07557340524299","-0,970381750874622"
"1770","6,12500933467601","5,91309465563358","-17,3962570932209","-2,43044742452482","-5,45477291096297","-1,03160209406058"
"1770","12,2394307559099","2,31700279790015","-16,9038808177069","2,84260343283426","5,82079632081086","-2,42384992459692"
"1779","-12,4908481836928","-18,0171473887696","-37,6022172969195","1,37758808004978","3,63637039350821","-2,32517073326367"
"1779","-3,66301218277188","-11,5922501104416","-31,0726691138688","0,951122237923332","2,70344500029579","-0,908672594295647"
"1787","-1,45976766265432","-10,146673838274","-29,3469469159665","0,826978068270134","2,30501089528804","-0,991652491920791"
"1787","-0,909883589714859","-9,82142494041186","-28,8908484201988","-12,8803609826337","-7,30267037241974","-1,04537245958041"
"1799","0,977776823368223","18,6518185553535","-32,2417156508927","-8,87056619143629","-5,40592226689062","-1,08014997808719"
"1799","0,448897657572015","9,05818482177873","-31,1273306735741","14,5123858520529","-7,74169771564227","-1,10266443306888"
"1807","17,8211080925415","12,224667441348","-30,8328051048128","8,31916116377614","-6,73926151569903","-1,11723996073407"
"1807","12,156851012911","9,93711340628509","-30,7549636833833","-5,44598661295744","-3,16530141423275","-1,12667594339017"
"1819","14,244011625126","-13,6526289611103","-13,3773333834175","-2,45301993683498","-3,63893327727189","-1,13278466005083"
"1820","12,7649235656047","-5,96022694370833","-18,7845251959483","-4,99956777048415","2,45046645345418","0,215875325464887"
"1824","-12,1101168614199","-11,329483106291","-54,9277295474813","-3,74086762398284","1,05112943186431","0,0889780030917813"
"1824","-4,31841032120183","-8,53754433615693","-44,4801715088815","5,17004031316792","3,59933938126541","1,35944121832664"
"1840","-0,623341426013815","-9,68437323097708","45,0663445500384","2,76400484077875","2,68762978256472","1,18192045472503"
"1840","-0,701128972822509","-8,94240516001355","18,732976019092","2,06360812345541","3,87117617487565","-2,99084791883696"
"1848","-168,760936957135","8,97457456684868","-194,775763874109","1,85972269979198","3,37664558431232","-2,69223691176437"
"1848","-114,705174588511","3,00582357209343","-132,204901319831","8,63597201759046","3,16544128578682","2,91153818694752"
"1856","450,168563260991","-92,4123329108567","250,566127528616","6,60853760625893","3,07524007969998","2,53933992797221"
"1857","276,149316340839","-60,8810376963783","140,730318783428","-23,0329498495355","-66,1717476099795","-7,16991851446906"
"1865","-108,614323440609","145,013824547975","47,480231575249","-14,6615842769424","-51,7457754640353","-6,45554990778528"
"1865","-9,64333675718264","79,3393476696622","59,8347674573487","51,0046227243639","45,6446133967165","-12,756151553103"
"1877","48,3157605980778","-45,4873949781673","-190,313035415197","33,1200498868403","29,2381349198839","-11,8350685716751"
"1881","43,7811475429209","-11,5729144015423","-110,425667418464","-74,6201529190735","28,5229289158113","-9,88615829107489"
"1889","-79,8800515291333","113,207971650122","-68,4834247663259","-45,983316610954","24,2174784840811","-9,62446238349149"
"1889","-40,7433184926616","75,2831735221856","-69,3983301862013","58,0512688117024","9,7953480129311","-4,04458557831173"
"1897","-18,7226573759734","-66,3750538719144","32,766503372009","32,3357276047261","11,6359394595944","-4,4322552417164"
"1901","-20,2267577093227","-23,2475902576666","0,768083906179972","31,6855361367732","-15,8905337681788","-20,9146030393398"
"1906","-20,602149913801","-13,5440828895689","-7,68891514213231","27,496265456847","-9,64654963431607","-19,5850330589417"
"1910","-20,6958400115016","-11,3608324187106","-9,92405156752768","-81,3839363390688","4,03057084371184","-20,0769036494174"
"1914","40,545503802498","-97,8448051255339","65,8562666083211","-50,0789536380603","2,87180026719414","-19,3953334495172"
"1914","20,830071294322","-68,3033541811705","41,884570799356","47,8967286211999","47,9915819236756","-16,248865548855"
"1922","-85,6148957935767","138,918805022633","-110,250292112935","24,417441228882","38,261354140447","-16,2118884170061"
"1926","-54,1813488185355","72,5429646683888","-66,4586652870644","-4,6330784220935","-30,3839405448177","-17,5405646436468"
"1939","-32,3328221859281","-89,7166656902642","-4,54932301086334","-0,089682172775572","-18,7009971389552","-17,4007301291198"
"1942","-34,8798837114352","-43,2244356072007","-17,1870383276905","-53,4519026942159","-31,0135576924459","-28,1311207491428"
"1947","185,037439531346","-78,9139728581589","104,443698132586","-36,985640459598","-25,2720103834927","-27,077818125014"
"1947","113,924235940231","-60,9439764488236","64,5900053459335","31,0369902579071","11,7843239237319","-22,3380814305591"
"1955","134,68511419609","-56,9007989013949","15,8713765690708","13,838372159783","5,6103562109731","-22,2696454692203"
"1955","117,866598225163","-55,9911000729889","24,9953219364039","-20,2194455513536","-22,1931384643479","-38,4567171805647"
"1963","-187,403326332214","-18,5113377384718","-71,5284979154058","-13,1336733330372","-18,0674647477218","-36,9359897962708"
"1963","-91,5923593373105","-31,078540641464","-40,0391908262836","-7,65320548140321","41,8925564225172","-15,6622730252757"
"1975","-4,66478419197405","170,219347303705","29,032953138892","-8,05784176514473","30,5003033495753","-16,8899810648752"
"1979","-18,9694668383112","100,510569535776","12,2883252957007","43,0913712498253","30,3536548459721","-39,3266160923614"
"1984","-31,2917223774758","-339,399580410059","63,4053992586685","27,9809027220207","27,2910241514824","-37,8517642615234"
"1987","-29,3671014385866","-199,377610267817","44,9153492210089","-101,167459687512","-10,1941171543012","-31,4865081195588"
"1996","-210,930516005329","291,852807368311","-187,348915213262","-65,7625367831542","-3,20328448528221","-31,3657347289216"
"2000","-152,244973382683","143,377692847344","-117,735030404833","110,307141616796","4,50112173442738","-40,7558505617405"
"2004","82,9547361128411","122,396411944666","69,026976157416","64,5610097274961","4,79152225208933","-39,8348737142853"
"2004","15,6556987298623","110,67570739194","21,3871051301771","-10,2760884201416","-18,6782481177719","-48,7069495753562"
"2012","-212,941656318572","-144,01197054362","-67,5748919411536","3,93883880012854","-13,7017259007631","-47,4506012545064"
"2016","-148,994808390189","-59,3156826634997","-47,0870383886254","-75,6593013690412","-5,28467244891699","-47,9898744725521"
"2024","8,74907903039781","82,2159195299161","-100,686210681169","-49,8303130682869","-5,68991430074311","-47,3389920379169"
"2025","-32,8813228591264","45,059965750357","-80,8521650200215","53,3869080429663","-13,7275833750183","-61,796381773176"
"2037","47,7504734431636","-18,3250993068398","54,5677891173656","27,4334321558351","-12,1603139098041","-60,1558836675867"
"2037","15,8744951549084","-1,58648623446499","15,3585076084893","-10,8818239850586","-8,34512461877533","-53,6833905588718"
"2045","-244,141677734555","67,8547824870478","-118,239387521559","-4,03539172437252","-8,71573223470496","-53,4931935300932"
"2045","-165,036314200489","46,4787910936343","-82,5485462497861","21,8822053271828","11,5739439627467","-62,8383655186497"
"2053","124,271540027597","46,9942902148826","79,6264426100529","15,4268155809099","7,23926600826627","-61,8882926861503"
"2053","42,4767717954393","44,1102754619174","34,4883635843794","-15,5036492888242","-43,3724988753476","-69,388917554592"
"2065","181,350786426798","38,136371680078","88,5154453297928","-7,50750492962855","-33,9877892200856","-68,2447119926595"
"2065","125,010856198296","39,7922671465521","64,794493686915","-1,76202782674642","-11,104728340215","-70,2091994656952"
"2074","-197,124475611965","33,0648210769898","-170,587973816324","-2,08951994043536","-13,3318226525326","-69,4809798190036"
"2074","-101,522763988999","35,5511725330279","-100,798212224821","-24,4005539938889","50,2067347072282","-50,0729356031136"
"2082","-96,9171907835216","18,3605518287372","-77,1460606609116","-17,8952940716863","36,3428041285431","-51,5084526686585"
"2086","-84,7677353647859","24,4927307076464","-73,8949324300275","-17,710513559307","-15,1928780202184","-55,143014702944"
"2094","114,311642508062","-98,3778325763771","110,949129080744","-16,6567239681805","-8,20275527546238","-55,495976812161"
"2094","51,9977205368112","-56,0232194419975","53,8023561581673","-35,1478668636973","-20,9466076788482","-50,3140205844855"
"2102","-49,3251578697847","99,0567265756361","-9,90096903671736","-29,5306369567402","-16,3892566448172","-50,9592981886855"
"2106","-25,6132439407744","51,9490961405639","1,26260686668671","16,5359404370886","13,8696521075253","-44,6139680425475"
"2115","-9,19271808360905","48,4500830539491","-33,972449910001","3,9459171208158","8,7926374983899","-45,5060944491145"
"2115","-11,0944958682809","43,6628190596941","-21,2848736672398","-57,8216405235603","9,77018361040189","-29,8522678410489"
"2123","205,483035256199","-127,814678995543","-10,9887970095902","-41,8021711963864","8,18767434768598","-31,7182102776944"
"2127","135,536288916645","-70,3964323934461","-12,267602902235","-33,7211048912345","-16,0819789898105","-30,2209646629637"
"2135","198,598389133342","-52,1525438683635","115,836639731623","-33,3687071907216","-11,447071071908","-31,2516698300732"
"2135","168,33737960791","-51,0477416868736","75,6938575606543","-7,63262294963242","10,9803624599832","-26,5084745094789"
"2143","61,0108762870988","-82,7492373650731","4,33464967940244","-15,1408510592884","7,55867865966369","-27,4377994843467"
"2143","91,2244101270696","-71,8819475018107","20,4748196248423","-12,1997953505708","62,7224520791075","-21,2763574364442"
"2155","-51,7711054704449","-64,1118386487153","-84,6088865992546","-14,3436542888577","50,281815830097","-22,2875302985133"
"2156","-1,4598162834619","-65,3635951354561","-49,3819084661423","-16,6766315265795","74,8541378443866","-20,2369194083746"
"2164","77,6128258039051","-172,145474568649","102,256249667344","-16,355760998128","66,348493771406","-20,9093840190404"
"2164","59,3477150057472","-136,170971711889","60,3333466124661","-12,8445554416553","54,851302067915","-29,4604158109409"
"2172","-179,767260352453","-12,7015928472136","-106,960151944714","-13,8224438087129","54,9410773920604","-28,9962282723198"
"2176","-105,44539201247","-49,9214748633675","-61,1748657244918","35,4509954877895","88,010731284161","-28,6957200736309"
"2184","-58,8894649642464","-12,1456962653272","-135,859363023748","20,7944893932355","81,1341306977463","-28,5011754769631"
"2184","-63,2700724950966","-29,6462966892154","-105,598048031549","14,8190816536173","51,4576356793171","-37,8435329138862"
"2192","-248,157561903363","33,866289491041","16,9564221534031","14,0796409788956","55,7833877507451","-36,8916379819741"
"2196","-189,301639323306","10,1563681629399","-16,6531330989315","49,7512916840695","74,9329475983299","-44,3910832500027"
"2205","-304,143560337795","207,172184900516","-245,970573287004","39,1353061103404","72,1113483522126","-43,2461140320781"
"2205","-258,805718666128","137,49995818309","-179,577859703227","34,336093543877","47,3125040288639","-38,4470337303747"
"2213","-51,443208875595","-45,0263898208557","82,7038616832637","33,9390431820425","51,7214048744322","-38,3401795888089"
"2213","-111,689833152921","7,90590959349839","11,0234188733923","-36,2414417000124","6,416770347867","-40,9762331440962"
"2225","-126,726139307764","119,215689192359","-98,1780094750042","-15,6709747620258","17,0680511023345","-40,6827755211276"
"2225","-130,478889034313","88,2599458205665","-75,0393217220967","36,4573887212922","2,74196805255148","-37,7875660056619"
"2233","-143,668442808342","4,96985554260399","10,9185643502671","24,6319508098964","8,6235794657084","-37,9132498641644"
"2234","-139,96028149592","29,2299172997546","-12,3632585383534","-18,1151351353443","3,27090189469077","-25,8210836381369"
"2245","-210,802052978099","-61,1618808203319","-133,073088923496","-7,55880814630583","5,98487847532623","-26,9927927244587"
"2245","-187,482687824198","-27,4996750138234","-98,9760059341075","-18,1570629692926","-19,5956694739558","-23,693495950376"
"2254","0,381101377852332","97,2244502203601","-3,17905584311173","-13,2422140290171","-13,5206188878467","-24,5575796492516"
"2254","-56,731998588577","59,2868811347907","-27,8604704481071","20,6575997191825","-20,3636020371925","-23,7643600729968"
"2262","-69,2358213866808","-45,0991359488514","-98,6047388619468","11,5258325609596","-17,2861056870335","-24,250841363009"
"2266","-73,3565158646445","-14,5855736155189","-80,3020439362895","-40,690526582084","9,19494690983645","-21,8605528510745"
"2274","-2,61770409266562","-20,145171653535","42,5632428893231","-26,890704199602","4,50448416529264","-22,3131151555216"
"2275","-25,9627658518577","-14,3960590464984","7,03583469544153","2,75992420003672","-3,79039890645678","-25,311326706277"
"2283","-72,0488861003493","41,9225919629785","-57,8964390929723","-3,60878044459618","-3,33298048573627","-25,252324853453"
"2286","-60,5510245497241","23,5940639029895","-43,0576672661259","1,37289053268794","-3,13762606575819","-42,7981187471784"
"2295","-83,9377086419344","-81,7050090899997","-4,42175032013715","-1,17694547791333","-3,05419403137519","-41,1570081590588"
"2295","-74,7745392722846","-48,396880696003","-14,2104986927926","-34,3883041674157","23,7210721729518","-37,3893478961682"
"2303","-116,24812173398","-3,62760087869451","-68,8687806132423","-25,0561278013197","18,1562622793445","-36,9502199475027"
"2303","-101,59906654977","-14,5546914106736","-53,3146515625015","13,5473697508676","20,4984002580629","-46,1342377125844"
"2315","-103,19422892979","66,4119441694482","-56,146607217396","3,78484454000829","18,4986813696553","-45,0798360013922"
"2315","-100,592348329846","37,629114368677","-52,8950768817768","7,77857464482928","8,2071228335418","-45,7498464901535"
"2323","-94,691710663541","-22,0970271892386","-5,17166143511761","4,94114913194372","9,81180039478643","-45,1836014454856"
"2324","-96,2190340526331","-5,53517091730664","-19,5586359872323","-12,9738260561081","-0,513310886417447","-46,1696373944973"
"2332","-114,104429939942","24,8162405169052","-59,8108512262083","-8,18887377948224","2,07703695665475","-45,807982593854"
"2336","-108,568253290844","16,6451870814035","-49,4492812377908","3,45742593363155","4,75624327273922","-38,8107791895932"
"2344","-98,4344347351057","-27,7933630500935","-93,5748322146783","0,847662769969122","4,90047964838815","-39,2808924177068"
"2344","-100,905244093314","-13,7918596573946","-78,2369626838504","-22,1277401881774","-17,0587949063066","-34,1747781047422"
"2352","-8,74960603345579","-46,1416569548073","-25,5834912660432","-15,8158779965064","-12,4371696053722","-34,8691546512418"
"2356","-38,7494727581957","-33,4202323711508","-39,6674802534913","8,23720566758931","-19,9008821366251","-35,318683834684"
"2364","-33,9838710408393","99,0173284851363","-5,20427193321913","2,23905623594673","-17,0884871091781","-35,6097024294002"
"2365","-39,7944758291778","55,8152516618038","-18,0958433035622","20,9997964974775","-4,87693091347837","-29,0350302006946"
"2373","21,7704655819339","-81,705330438035","-28,4458347053967","14,4610463603833","-6,66161519907632","-29,7786839095225"
"2376","1,13579631318443","-40,6469131289779","-27,1812781709349","-54,0894866200737","-5,85089914303767","-26,2022703674803"
"2385","23,9925437307542","-121,934136262621","-45,9398261032577","-35,0445408249069","-6,5046582447265","-26,8869527385791"
"2385","13,697113173392","-89,2234373832396","-39,8976029141026","-7,2848576282464","-8,35678556011593","-28,6828207341797"
"2393","-90,3968170720165","28,1865866382875","-36,5649721959635","-12,2040162574538","-8,1477927452956","-28,8454393129639"
"2393","-58,3765001298768","-7,39662605950162","-36,6841769791317","37,6310196943212","32,8373748363358","-24,892872156753"
"2405","-24,1285825168263","-63,327814696049","-66,2226794593572","22,1379943374067","24,3413346200327","-25,3340381996024"
"2405","-30,5810135771089","-48,9121091469266","-57,0295365333638","-6,29662521449257","9,70240523835324","-26,9722572988734"
"2414","60,5808944003876","-50,9936448331407","11,356976084239","-0,57394049975406","10,4504061300676","-27,0328162963038"
"2414","30,3330132859136","-48,4619820636535","-8,56886019832877","30,1432339988521","-0,240574924420079","-25,7194066232821"
"2422","-199,519667289251","94,107950918396","-135,334545442389","22,0850008311209","2,19351712721551","-25,8691244805241"
"2426","-129,886122540428","46,1856174265531","-98,8379902176078","36,8282507222877","44,1289808733892","-17,8503615495209"
"2434","-21,4851560029851","-79,9719756961486","-42,3281050470609","31,1200094868404","36,0387934772221","-18,6591321355059"
"2434","-46,4305261396581","-43,3569311703952","-54,3928659607084","-33,7709622509106","7,41691902564913","-13,772259624872"
"2442","-19,3983778224558","-10,2686363161388","27,4680673743389","-15,6607184954067","11,1930788196403","-14,6085700959473"
"2446","-31,6517150343537","-16,8239018938252","0,103443335571966","22,0802735389942","6,51412387903937","-1,6238384285911"
"2455","-134,483877347842","104,176464582875","-99,1212735808747","14,0666730467172","8,51583415759601","-3,21771375017539"
"2455","-103,148649335608","62,4010646231448","-72,3457981211434","4,89831429153782","6,22488599061217","5,21873751622908"
"2463","79,7140496779007","-156,448704268047","37,137444554002","6,22940585312903","7,24646704181687","3,68037222733077"
"2463","25,3527814682724","-87,6890297352884","7,07323871404212","-37,8145157638729","-22,2027090820016","8,09491583702801"
"2475","-2,21802819764208","48,4818940058319","11,2773813327197","-24,6356975264022","-15,7798735771238","6,95282656880781"
"2475","-1,09912967090156","11,119808947023","5,38851215476216","32,1765580082581","4,26530940068378","11,6239134573516"
"2483","-93,5921765963995","71,9386442571834","-115,931577330598","17,7146006667474","1,82621319597878","10,6479065420549"
"2483","-63,6765201168636","46,62263972304","-78,9957823271771","-10,4198750752981","2,35744277947326","15,4265127079565"
"2495","155,590719475146","-3,44846003726212","88,715357852978","-4,6098185235444","1,58432049680545","14,5201121945444"
"2495","89,3152685064149","10,2857421453968","42,0404519223764","-4,62741165200385","-14,4750613229323","17,991165844261"
"2504","-35,7517952583521","109,226098172413","-69,230684834491","-3,63253301017244","-11,3337077579833","17,2382750254497"
"2504","-4,96593685071625","77,4872838126737","-41,6390091632087","6,91047659658734","21,4662955939866","31,6296260301756"
"2512","-28,789999827799","-87,6291777131851","-98,5677991222169","3,97954577865989","15,4745325600669","29,9463754198223"
"2516","-16,7359911438721","-35,7797232528279","-76,6137523455952","-66,9385514843858","9,7697289997884","38,3249664362187"
"2524","94,7985267541159","-118,18901402408","121,851912076663","-46,5828034465282","9,33331948910092","36,7491432707965"
"2524","60,6352259561695","-83,7307758895842","63,3052508090363","17,4453559907357","23,3032143968481","42,4920518800887"
"2532","-77,4223612931474","44,7224614185016","-148,30304355285","2,0839476493966","20,2694820267326","41,2099266135206"
"2536","-37,8786677465043","5,62392768194389","-91,2299041262143","-29,7301583741559","23,6925934842681","45,7903562523241"
"2545","47,2587099469178","-207,29854502073","50,5607178182418","-22,9912418781936","22,1545371293312","44,7556591643042"
"2545","25,507231197272","-140,205252477123","15,0351673336128","-67,1698462125872","7,34138664534827","45,438426136863"
"2553","-21,9315845982758","-62,9843896077258","2,17455630107638","-53,0302341024674","10,0149811274239","44,880439452553"
"2553","-9,77132776200282","-80,6100033343695","0,775570442446025","36,530810093164","34,7506155240979","39,1087483477763"
"2565","42,27540132065","-11,8005326881013","-23,8940536708595","12,6020222903733","30,3147189608169","39,3722402492663"
"2565","27,2651839388857","-37,3186761295258","-16,4140940707062","17,5986548436107","4,82643997156657","32,7797476434306"
"2573","-97,2600876357611","-7,56007692732455","-52,6227095446979","12,0531741464717","8,94089681757352","33,51186470169"
"2574","-59,339009149977","-20,8645107515425","-40,1924392912331","10,4388851965256","21,7085380326297","29,9279825014165"
"2586","-11,3654386255012","-30,9579712660962","-33,4357785848695","9,96896582321281","20,1613467326526","30,6078297728088"
"2586","-21,3922317877781","-29,2289596402007","-33,6500318474562","4,70547207419315","5,34429489312944","29,6953382378102"
"2594","82,8809557974937","79,4353042834362","32,2501598223611","6,1732695003863","8,01622318290897","30,1046046125261"
"2594","47,9053777643804","42,884330432138","11,6672031494667","25,3984461579333","4,43859231151074","33,0747870139151"
"2602","-188,378500079064","112,760682464691","-148,250564041392","19,9948934154362","5,91065646083647","32,9976395012314"
"2606","-117,350048598586","84,4825830816252","-101,515914253004","13,2952194205692","36,4248194538182","47,8264568031003"
"2614","190,947025359189","0,0199480387085629","60,1064785115554","14,3449449017642","30,4568189155382","46,4264154519444"
"2614","101,891571983626","25,0161918985693","16,8223515019535","-19,5274818364224","-6,69622911650233","53,6357373065012"
"2623","-81,3735303343318","82,115362729634","-20,6529813174687","-9,38774232196018","-0,563565935348478","52,30294644942"
"2626","-35,1126936319623","65,9624485176438","-15,5574972054326","-20,1072657226631","42,9514848694675","71,729337397777"
"2635","-69,0778895795314","-88,5472316668569","-54,1320216237059","-15,2277180548424","35,5359080697864","69,3056977375194"
"2635","-51,5548970634032","-38,3112936929255","-41,3270475574965","-41,1496835397418","10,3479858456713","71,7945130351397"
"2643","47,3411994611874","-18,1333880001863","38,4282857046394","-32,6955654440364","13,5907191645563","70,4057355254697"
"2643","18,0236111763677","-18,5934396667167","15,507163622844","-6,3099711853507","10,256867905719","72,2118907096148"
"2655","-183,590155325108","-22,246957431314","-158,914213104112","-12,62912698522","11,8330455377053","71,3811690632568"
"2655","-122,908764118734","-21,0689843621195","-108,012784271367","-17,886432863937","17,2249589800696","64,0802986685181"
"2663","-39,4975391753866","66,1712502403361","0,903986836720883","-17,4168341492355","16,5277392691666","64,3538223445277"
"2664","-57,6798298009089","36,7999552073455","-25,3099341949103","27,1512682510111","0,500773946470217","57,7678241622595"
"2672","-97,2261672931249","-21,2835846947593","-106,873469637278","14,1250389940777","3,65597196037532","58,5041456150048"
"2676","-87,0961117915676","-5,35214959916688","-85,4302450383168","-17,0092966005476","3,43057538937995","54,922985278005"
"2684","57,2162219626005","-184,593050871013","67,7720631364863","-10,0724989916849","4,3343129425758","55,6045946437266"
"2684","12,2335832384643","-121,921539040701","23,2625559815205","-16,5976982430914","-14,1547542854487","46,5775557886594"
"2692","-182,787329890283","128,254831514133","-182,900093196508","-13,4971831792082","-10,0510716190993","47,7335833418997"
"2696","-126,460499409338","51,5435174595033","-125,387700928447","64,305880390069","13,7224056938846","53,8924373265729"
"2704","74,8925299119821","-40,2663898120706","77,2687134298764","41,9543454467831","9,87559074494684","53,8795889903593"
"2705","18,146064120704","-18,92325291078","22,8296433749618","4,68761400222599","-23,225701302981","48,4608124500479"
"2713","-67,7839267017617","106,579138908499","3,23459168920468","11,8392717110711","-17,362612751283","48,9527760601357"
"2716","-48,2302677273085","66,8166767017015","1,05573172597916","29,3012194304332","-0,702325995756903","56,0343394748263"
"2725","-64,3551297866094","41,8952453521918","-141,847998002076","25,3843908969654","-2,58704486941389","55,6188396791434"
"2725","-56,3795604586449","45,2880226579358","-97,6166355312206","-44,1118010188259","-26,9857659938268","49,9393924944971"
"2733","62,8891675265992","-124,34899871785","59,8727412770366","-24,3421364577125","-22,4059803917488","50,2626017558299"
"2733","25,656164934284","-66,5166522006832","17,4962818150011","-8,3337882982938","-0,00208851788439013","57,2349160822837"
"2745","-83,4104030543922","99,1457380674429","-101,317328781256","-9,67375953758214","-3,43382649779267","56,7486900305449"
"2745","-53,6311532160412","50,4191153975297","-70,7190857590385","53,1654781601049","9,25682247397589","55,0812997429553"
"2754","25,5683805878624","-15,5693040288371","-20,9752079084772","34,4579748034969","5,67674929966022","55,0018557464116"
"2754","4,33493932673249","0,583564689801514","-31,8281858160015","-22,2547804030742","-6,86266714896755","48,1873514741491"
"2762","2,53635492431298","-132,457411240159","-3,45386267061878","-8,763858524687","-5,21800553548616","48,7757414384757"
"2766","0,0874656123472554","-85,3911004026448","-13,9546915289547","-6,54555242276862","-4,51560287523522","42,393583069338"
"2774","183,270454450766","-30,426268440493","103,033694609524","-4,89980370890649","-4,21562050008679","43,2618674249368"
"2774","123,989123929322","-43,059400388582","64,953055213983","50,2640763744957","-19,816700405194","37,0609085761356"
"2782","-109,608861082754","103,198530190232","-97,8535436064651","34,3222770820969","-16,4796150973772","38,0464988413705"
"2786","-42,910066534992","52,1059814539646","-52,8823954769091","65,568522512252","28,9873386228706","37,3319408325804"
"2795","115,520649606491","56,5853975715981","-30,582544167214","53,6643018468055","20,4053812067226","37,8693464666952"
"2795","74,0616659009273","48,5932483390583","-30,6888211505197","29,6921832027866","-0,561920316231712","31,4541815905779"
"2803","-43,0613022802043","7,74495891376408","-23,7740866454922","34,7139015447509","1,48335717593776","32,3010980180612"
"2803","-11,2927626061619","20,5542566513295","-25,9465619081908","1,9977215838207","52,6902837533502","36,9072233183532"
"2815","-64,628721822244","34,0863214942573","-101,156080890307","12,4740444348544","42,5597559635714","36,8891612243942"
"2815","-42,9402695057065","31,1309821328567","-78,0335261227199","8,68810076117644","30,3686083509001","39,5826974479226"
"2823","-41,0281237940018","-21,0090730610508","0,977273190803444","11,5860128861452","30,1620087413147","39,3264532605846"
"2823","-38,5508919377983","-3,74037760222397","-20,1406249505587","-20,0395067936069","28,5008544590619","40,5131792141254"
"2835","-123,703243999372","-95,7052052655189","-55,2289618510652","-10,2456928293214","28,7914081040323","40,2814481764833"
"2836","-95,955502541013","-62,3969248347126","-47,5026083851178","-0,559114086848401","16,3321406702004","38,7788142252845"
"2844","-216,810958707259","-8,75259087520233","-107,945983532363","-1,7393518550866","19,0110323531063","38,8060310624601"
"2844","-173,973970514095","-22,6828296091853","-87,9208214971848","40,6395832013403","17,009295058431","38,8236508433313"
"2852","-100,267600258788","78,9081574416149","-60,0641113959505","27,9760875204999","18,1543923906858","38,8350576308263"
"2856","-117,872021053894","42,7657244944127","-65,7017424181068","72,1389474547837","-31,6899877847774","37,4898275385984"
"2864","58,0276203541426","212,134219868263","-34,2133272271487","56,9947521511575","-20,9775431984981","37,6189453235385"
"2864","-1,07148241776335","150,241456071248","-44,8911193885031","35,4972773444573","-36,8504240258197","37,7025342821873"
"2872","129,463532792854","-9,2344959487243","14,7722074108894","39,2393642928252","-30,6294195514443","37,7566485470131"
"2876","79,0423615019798","36,8840506622808","-5,45911693622605","-75,8765204191044","-38,9829883112006","45,9073694017889"
"2885","-28,0644371810726","-98,28978714674","-31,634608830263","-41,3867444740913","-35,5506333947516","45,1840264386423"
"2885","-0,796069626572348","-46,7033617284958","-26,5526414622613","-75,7781759431205","2,09240986176446","51,4788182173206"
"2893","-11,4946591133261","-68,8216974307758","-39,0951523916093","-59,7895186607904","-4,83098598660759","50,5539740135135"
"2897","-4,16480484974653","-54,7982347800817","-34,4100662143441","-20,9572201779774","-12,5065912652403","48,602628772756"
"2905","-32,0925785333652","-94,2431072796156","-36,6432362151502","-29,6531414577769","-12,7846914668589","48,3393565077096"
"2905","-22,0627708116424","-79,1180463290444","-35,2334502596815","-6,55102208704436","4,39865353295236","42,7584591918476"
"2913","67,9614993383726","-41,9898921661512","72,7529030957134","-14,8259971420024","0,737322558204516","43,1454681916168"
"2917","40,4296874498091","-52,6362055059304","39,2930779794302","28,9054606790986","-2,39927961038027","35,2803240630861"
"2925","-92,4719763593216","102,943771273022","-92,7852687462853","14,6356842577429","-2,73886076756386","36,1885452068197"
"2926","-53,6414714056077","48,9486457656712","-56,6928195318753","61,7487561812559","9,6994679791108","30,0134408484243"
"2934","73,3280076843149","-20,0001697810029","6,65308563715459","45,4633673318057","7,01163379433055","31,0157689312295"
"2934","38,0169526304907","-3,51337838661491","-7,60495433256782","-25,9244113324367","-25,5946803412712","12,7280559126851"
"2942","-30,310259481584","-45,9540197136862","-25,2589184642888","-7,7053875097294","-19,5201964487119","14,8888589500365"
"2946","-13,3633125338987","-29,5029948054646","-21,924760101259","-24,6175323827429","6,66789099335577","17,6403457969763"
"2954","-16,1353896238145","38,0985637387953","-36,6649126688173","-16,5406562883906","2,85230858747424","18,4216179925769"
"2954","-12,827242492067","17,30864489025","-31,5606505932776","19,9885233768358","5,94150725678771","21,6326315017286"
"2962","37,0101838581901","57,0060957093918","-26,7402119010919","10,6221644089996","4,26084331083249","21,711394513048"
"2966","21,448570399525","40,9378638737265","-27,4661975556085","-2,3577823945541","0,397225465092343","25,8202285674486"
"2975","59,5748133371238","-58,5276395196611","-15,5081313266592","-0,136243783243918","0,747150196845327","25,4802274206436"
"2975","45,09033172874","-26,9069812236428","-19,3476828918271","-50,7565566882489","-2,24924312233793","26,6127303480949"
"2983","-42,5448909659811","5,05759664106754","-94,997800595343","-35,4921253843081","-1,52894383481295","26,3458961193028"
"2987","-16,4168224508074","-1,75050077911364","-71,9916935470419","-13,959649888345","20,7995569149346","28,8783809144695"
"2995","-1,14369535919981","51,742828038645","-19,0472565859492","-17,6915481391043","16,3356208672262","28,5178743964859"
"2995","-2,33184004537966","32,778613749811","-32,054345046317","0,0199975578810783","16,0020811385112","29,6371024476348"
"3003","-55,1409993537343","10,7617012742957","14,8434219977373","-5,82417302594964","14,8596328738783","29,3616742587866"
"3004","-38,3210687213584","15,8079837466471","-1,76176669968936","-29,7411117035686","15,9446353156008","21,0676780182686"
"3016","-27,1214802932178","-86,0068540566238","-20,0360688008416","-23,7033304781712","15,408018539966","21,6982665998267"
"3016","-28,3262956262962","-50,9147866362558","-16,8658622112022","-50,9970343616559","5,74132216869324","15,3434269960507"
"3024","-9,37236405108873","-94,4943269956684","-64,6277550838867","-41,9422291948001","7,61286608303842","16,2293971193322"
"3024","-15,6418563849515","-75,2995498290412","-49,2509498951564","-29,052975675689","3,69340677111477","12,745117134943"
"3036","-45,2133237648232","-14,1806739133408","-93,7867086506267","-31,300915094234","5,01948270985277","13,4894454188368"
"3036","-36,5937478517388","-32,4291705074711","-77,5572546869111","17,6028124513391","16,5962612264644","5,8556245497545"
"3044","23,3214046542621","23,8151260686512","25,6673234396356","2,83868329815684","14,5404758664542","6,91360097605801"
"3044","5,27498233933491","2,46986855760149","-4,0510116046661","32,7188483169563","7,37081173860786","-0,517168689673071"
"3052","-72,7467021633743","52,6923943131935","-60,5051577180346","21,416961762252","8,30878906158743","0,672260105089004"
"3056","-50,21929417947","32,9922623757537","-47,4256652907254","14,7091833929831","16,5739789882258","-9,3786385849167"
"3065","20,1686474352096","-26,4653123616727","-30,0831845263384","14,7565496914928","15,1038792086493","-7,88544285956487"
"3065","0,73601577199324","-8,84302962588107","-33,4996661598635","-9,15426319741909","3,46559093944454","-6,91876986560993"
"3073","25,6431875797762","78,5471011158451","19,4042548062392","-2,11469875546046","5,49510669268664","-6,29295995912789"
"3077","14,8595003648573","51,2095321165688","2,38645820038194","32,4036194909903","12,6535515876365","-3,18259045391867"
"3085","22,6706406171479","133,808887429286","-55,9181255018271","23,451898938562","11,7107827507261","-3,16898289339721"
"3085","18,6201389942059","102,39341305885","-40,3276931340156","5,46595308156254","16,0269036493356","2,25028515758645"
"3094","-41,9050882333232","10,1248652045706","-90,0141086266368","9,23024580261344","14,8702340805303","1,75863974429304"
"3094","-23,0109278982209","37,364809803309","-72,1459437469268","-59,7388724689505","19,0950021793415","4,14558507861957"
"3106","-431,394639386552","-94,9566222436549","250,210657742416","-38,8157768157186","17,8993176246729","3,69085845006359"
"3106","-297,31873203486","-46,7284169012192","152,407661767062","-20,7627648786922","36,2637000246417","11,5121631797455"
"3114","-540,422651697183","-58,9523148102201","-50,4830941004239","-22,5075346696642","32,1067669180794","10,5755610527163"
"3114","-443,09634100895","-48,7026431042234","-2,10595916458857","0,909164209817307","-10,5644883916905","4,55875986802374"
"3126","-261,267846021634","-17,9964440443605","-334,725598832707","-6,27423677742918","-2,7885431152542","4,66357110175001"
"3126","-305,887230076771","-27,0876716785954","-223,635065083914","25,8126775529544","-144,176197319166","-2,03164903912048"
"3135","52,3154806332425","215,817388542479","-463,308860594922","15,1531755314484","-112,560086397265","-1,36603627910388"
"3135","-69,2845623013158","132,470058652778","-371,653272424591","41,101496892054","-146,245056076683","-13,1086604599139"
"3143","45,6515163294658","113,717241725497","-62,7734862416387","31,6550509894808","-130,631244773099","-11,7106629844502"
"3147","-8,6628255567391","109,497932682561","-145,138327336941","-10,3995105883352","-123,962892750778","-2,68993186598511"
"3155","39,0461696819402","89,0235611139289","301,733662731695","0,358410183994017","-121,114970624077","-2,85004295531031"
"3155","15,9533440233042","95,4169091403646","149,839371007807","-3,3455603592194","-129,336196930726","2,45676219178076"
"3163","428,540418156277","56,0302952578212","328,393500871938","-0,423785863082381","-126,847321152864","1,8923099453516"
"3167","292,513582820865","70,1684641649438","249,584335030036","-1,28215764741472","-111,628094375371","-5,23618154844492"
"3176","416,101979082382","-331,351413212873","-43,7502752069496","-0,532029599382389","-114,128261651213","-4,85106230231729"
"3176","356,947075976446","-193,691784801204","35,7230668823244","-135,316774241783","-31,8312926086898","10,2770197135867"
"3184","256,412623068831","-249,694112602817","-63,0362789319392","-95,5526017165374","-49,6838741292766","9,07071794538692"
"3188","280,321311627543","-213,294413082209","-20,1378085545221","-36,1280521148121","18,1917821970481","15,0528492830319"
"3196","373,809462183387","178,296235359295","84,9281207313523","-46,8295708799793","-0,819858629803165","13,9255932992462"
"3196","347,142162902635","50,4025700238499","58,696444255255","161,95882869091","52,4045094053645","18,6062830383949"
"3204","-125,125365709178","239,952495612628","-95,7714243329638","98,7371136965896","36,1355912228218","17,6364928676194"
"3204","23,006467694287","159,600473152523","-51,5963975489198","8,55947430242306","133,000152714553","15,6560502676089"
"3212","-74,8053024611104","-367,904555786892","1,73574651196234","24,3087712964011","108,369103700046","15,3739407993026"
"3216","-22,2170888349619","-199,591084185729","-8,16887318186388","-205,225921597468","102,568425570135","-1,0400688775335"
"3225","-142,124141368113","-394,246746409897","4,83474407710338","-135,043450790023","97,0910699145335","0,333742199126245"
"3225","-96,0504513255644","-307,043494336667","-0,728474337445448","-30,8772353752518","90,0330399899469","-8,24517542911671"
"3237","-186,075819801968","-54,8975880067095","-66,4199129650916","-49,5544591029406","90,0186940877121","-6,79904077160722"
"3237","-150,54428203286","-129,165764364289","-46,7817840584292","144,949912837987","93,1584065314164","-19,3889812122825"
"3245","-418,24282967067","-44,7005806909718","-185,655114273656","84,5701186395198","92,4993160259918","-17,53952384569"
"3245","-327,054827318214","-82,6962511191537","-139,358540288817","29,397763877244","11,9989293559296","-32,5735884429076"
"3253","-167,763375833239","128,855368895883","-191,343732724033","35,3370961913578","28,6187959079371","-30,3064211779331"
"3257","-206,007537873718","52,4536399630166","-168,083121427917","115,675439302686","-46,075007354019","-36,9543784444353"
"3266","-133,282710279288","349,439261241787","13,3708032577317","93,061924014192","-25,9752631181216","-35,258168393325"
"3266","-162,132103736846","239,259841975999","-39,6719634164846","86,4791316751103","-17,3910572815345","-34,1600669049237"
"3274","-155,328947017187","-115,680829648269","-51,9551572104806","84,5628813961666","-13,7249116341043","-33,4491721203775"
"3278","-161,63102039502","-9,54106564892801","-56,2015349991395","-124,480749475581","-79,7947177402807","-3,2314263338334"
"3286","-82,6845316460756","-26,48513361707","-97,2450600281465","-63,3333322908028","-65,0118337663594","-5,66890127827488"
"3286","-108,98112769742","-7,29748135550964","-85,0926286863536","-50,6600247121845","-101,167184985317","23,8632508396912"
"3294","140,01722036371","318,295385533828","-5,50975872995282","-43,9708259752768","-89,6084250983787","19,98193261805"
"3295","56,1620365821781","210,552482476043","-28,4764618759638","87,8528057887573","-109,838620234491","40,4636737184782"
"3306","122,754562754479","-381,690516960878","90,4243822427642","50,2266535614538","-102,478539087417","36,723252255174"
"3307","89,374674223994","-194,942830617504","49,8491945410537","-179,465527190552","-91,4705948011735","45,1226757376173"
"3315","49,5361734723631","-197,300445408192","87,7251650792074","-118,328901084951","-91,7693180843267","42,5603392049138"
"3315","57,593311092322","-172,83089933651","69,7355672222612","-100,532034528338","-91,8968969291454","40,90152014621"
"3323","106,865566067402","258,675607829101","-6,18291524425871","-95,3513682173319","-91,9513833470553","39,8276250374299"
"3327","92,1628975715612","115,762851565836","14,7522645337829","181,2896372609","-54,2245818654696","44,5428598237723"
"3335","88,493416875365","309,033557523167","-132,456791191784","100,819809960964","-62,1122062216243","43,5954336094629"
"3335","87,5775907051996","225,518695811588","-83,3633017306415","-76,4059575926532","-38,7412215836874","22,692863600421"
"3343","-185,716620456868","-861,8242152246","-240,487334693762","-37,9963631557118","-45,7599332458256","24,1608466056414"
"3347","-97,9251795034862","-504,47203507466","-184,014316945342","-260,934645429391","-14,1532548272754","4,82197706950241"
"3356","-377,086631461331","-408,094183388034","-146,52464727218","-188,831960062552","-22,6546634934071","7,30227680730219"
"3356","-274,759531953594","-395,4095510079","-149,616342235863","88,4921384042115","-15,275010557798","-20,8495364890575"
"3364","-707,831054641939","145,270648737473","163,729276857211","19,2211594139892","-19,1233057869132","-17,0746071763183"
"3364","-553,916712223539","-36,0784619605059","65,5447298295937","-0,94361656179831","-20,7668370666636","-14,6307733514832"
"3376","1187,65651926997","1142,54645015801","386,736261394865","-6,81358109934427","-21,4687569835872","-13,0486712063508"
"3376","649,317027040071","720,732356318917","271,625344109535","365,726791728028","-92,5499173637471","-18,7875148963478"
"3384","187,629986764782","-229,726054750381","-980,73464318928","255,173261945529","-77,9072843354623","-17,502758060697"
"3388","259,402490310418","38,4245921465871","-607,726217071258","-433,226494291725","-118,841292922616","-20,7288693812933"
"3397","398,094449613161","-1369,17087856338","-0,580448160401659","-249,619603623561","-106,323403704961","-19,8174064941209"
"3397","363,709082155752","-858,874247523451","-133,115297831674","-416,619764864233","-67,9459465607227","7,82495477989808"
"3405","442,648247041774","1535,0455791425","460,181973007173","-336,233497316518","-72,5556886676607","5,72021370614774"
"3405","412,349823106354","789,667995810987","254,987044589181","674,911188327493","30,8611974908695","55,7569930329734"
"3413","404,787965761366","621,961011311143","200,755199913145","391,255318616131","8,02851759926327","50,150069478681"
"3417","402,900683220603","584,227608430523","186,422033885891","308,683119546242","-1,72287135823414","46,5202294737296"
"3425","-283,735284769676","-1071,46595662612","-150,621639179627","284,646359558953","-5,88749798339693","44,1703243369888"
"3425","-63,1053616075756","-515,99040767062","-47,7003521266422","159,735154826736","115,021604383336","52,1173329988316"
"3433","-564,674519614766","-1386,78786043778","-376,318519053822","192,373513963447","88,65950634128","50,2621097522738"
"3437","-371,855764341564","-1021,71381552352","-258,170418971225","-326,175589324095","11,3381470087377","31,4770746281417"
"3446","26,3519461222136","1804,582552822","-207,85178962784","-168,125188314384","20,3157136739969","32,3159186345328"
"3446","-74,2636797393964","894,487967524113","-205,552864006722","722,079912558364","123,243793847748","23,3906711777859"
"3454","-311,176163318413","-112,581487788237","48,4677648383543","487,218540209866","104,202354524269","24,6125969881016"
"3458","-249,304598773994","112,83189985691","-30,3960374288605","-384,332625675693","119,66392464691","2,40920427783414"
"3466","-233,862741276939","163,549013375266","-51,2392888098345","-168,041094470387","111,267257452137","5,03505376107288"
"3466","-230,008774358289","174,960161712573","-56,7480408055657","-105,078648496718","107,681205873803","6,73499017164581"
"3475","-124,021658115975","853,804143604174","-471,301935156107","-86,7502859348737","106,149673704649","7,83550405046392"
"3475","-157,56947515295","625,541333043198","-342,866155780835","-243,760409422735","1,6828896169696","-6,33080088797651"
"3487","584,98819639048","64,7569664873733","368,003918372106","-194,46604275167","23,0671787317853","-4,50185875776401"
"3487","341,315168994937","225,582719806408","165,882808671832","125,776658636385","-73,1856279916465","-12,7861312228111"
"3495","-283,136045419313","-932,809810081023","69,0707135378564","39,999281233976","-47,2933105355626","-11,1492476117484"
"3495","-116,986099282505","-520,44351090452","68,4838311205084","-408,777727398357","94,3171203209689","18,3153550694695"
"3507","-427,353098080059","-198,687223344372","-299,640892411336","-291,416675686245","71,7961529302108","16,3903063340365"
"3507","-303,814254954146","-255,293341455147","-184,934149032765","351,115547165665","-60,5098423131561","21,90713143559"
"3516","-272,981525493558","-268,029492346847","-154,617813545522","182,15662150738","-39,0151332887093","20,4786430247944"
"3516","-265,286316586503","-270,895075519653","-146,605379661476","132,972692903022","-29,8351653996721","19,5538605964437"
"3524","274,013423831005","-165,039581094415","105,453885251497","118,655255552296","-25,9145814853745","18,9551700272218"
"3527","101,6114382993","-201,222516884556","28,071705727402","157,209952949724","0,926537244869792","32,0937333310125"
"3536","-214,482156635858","-594,539398337827","42,3341532699338","143,433222018047","-3,61014832881086","30,5994463527595"
"3536","-137,372552969964","-466,034128547701","26,1036364915223","-120,329996345055","5,46275993936549","16,1059201075758"
"3544","69,1674248999927","1279,30790015406","-268,048852368712","-45,1114463328684","2,33762079313704","16,7230239670881"
"3548","13,7155137384929","705,002898098783","-178,791670916555","392,047388128319","-30,4554576991837","21,1803719842972"
"3556","400,722224506776","-304,615415169036","176,318284700142","276,304286922697","-24,4607371937698","21,0659936611738"
"3557","268,311061755224","-35,7755104018145","79,1718126815373","-338,414549289337","-59,6505814123085","-8,76557612451741"
"3565","235,263985585672","24,712396331602","53,4965563681565","-177,359149192597","-50,6794724560998","-6,07809650580591"
"3565","227,016121729923","38,3219341870721","46,7107331358773","-130,475936193687","-46,8480880882823","-4,3382616501974"
"3573","-114,624002982718","-817,71790371749","-111,296236412033","-116,828236956152","-45,2117791051218","-3,21191810373301"
"3577","-5,89028257228914","-526,323454296354","-63,0565737474564","-239,31399931029","38,8517976727383","0,22248953266152"
"3585","38,751603437193","982,317376415272","-3,44305251924013","-200,969594107692","21,7536996050083","0,445874622752759"
"3585","39,8932910158752","508,755548517448","-14,6875401936407","367,293887196791","-4,4235979105661","-8,8778119020779"
"3597","75,1866479046304","-329,095617318392","-22,8665110797086","206,7153373158","-3,60340733908343","-7,91382969574778"
"3597","63,9951367747896","-105,608789198305","-22,028166253756","-298,01428787183","10,9031567736557","-3,23191772864023"
"3606","138,220481871692","-401,450921338587","-30,4851251454435","-176,941037985876","8,09862527633443","-3,2009166469763"
"3606","112,745586418437","-273,014221575622","-27,7202509576729","37,7378836618007","14,7654632198998","6,28745575131101"
"3614","106,387581602524","-244,116476193898","-26,989510540958","-4,76910086688523","12,6127387133126","5,43008876203083"
"3614","104,800755650152","-237,614598695581","-26,7963800328927","-17,142880376313","11,6933523740075","4,87504195847108"
"3626","-156,407977738224","596,3251676777","-35,4238653744306","-20,7448865182591","11,3007005329036","4,51571280538514"
"3626","-72,6002525363457","314,958290272915","-32,7040603509553","186,692380387997","52,0289175033072","28,6301526084885"
"3634","-21,9264318585258","-445,924702213836","-11,1567627467231","125,077350792194","43,4231387296012","26,2414869608687"
"3638","-26,2792986641417","-224,120341955012","-17,4619353654116","-171,40949311684","8,28938673784364","21,9898705258273"
"3647","-99,1329353447368","226,935655830841","-178,813283159856","-94,7167876627687","13,2844515819916","21,2374364553097"
"3647","-76,3156899598442","102,421457015165","-129,457520516602","117,296361870578","34,2927814122595","32,9238537941525"
"3655","67,6622613503148","22,9311430876915","6,8220314805549","68,0133713106288","31,2650263040056","31,48946883426"
"3659","24,5961677129576","34,0461393743542","-28,1600632358686","-24,9423069566201","15,8156547525852","33,2660984246034"
"3663","13,847765182657","36,546969224417","-37,4056305689894","-6,00169683764131","18,2175317174448","32,4162623422248"
"3667","11,1651871451366","37,1096459701097","-39,8491810768764","-0,488086874833474","19,2433261762463","31,8660909372468"
"3675","-66,5228424563737","-120,739108840009","23,7261143697165","1,11692450711312","19,6814228344444","31,5099180456367"
"3675","-41,9121611388234","-67,254449344268","3,52870093691143","11,8375437016001","7,2851681225872","27,2214929068387"
"3687","58,7528753060833","15,779545280215","-43,4662972062239","8,958315019255","9,99097130095314","27,4452294218246"
"3687","29,8767776861838","-5,53813697793943","-31,8868061315586","4,70237162608484","-7,72846910615538","26,2374584783835"
"3696","12,1673788349297","-10,3345304944464","-89,5761133453107","5,46346687347519","-3,29609394648051","26,4555652984839"
"3696","13,7474806889366","-11,4136999128943","-69,8230669245492","2,26722146050502","11,1802435821147","27,9493791312361"
"3708","-41,8716233149085","32,7185909431305","-47,2453925995218","3,33679469801796","9,36280290460766","27,9164522788489"
"3708","-23,7529965186627","17,6481804344771","-51,2782425506337","20,7371482420447","13,3053686459462","25,1899065599232"
"3716","-19,2309635768727","14,2573981543278","-52,3441017014259","15,8023896494792","11,9891610092084","25,4247808844878"
"3716","-18,1023580729021","13,4944856600217","-52,6258021720854","14,3658818512031","11,42703458885","25,576835074488"
"3724","111,710455330071","100,298028748816","30,6136208448136","13,9477145557214","11,1869614395647","25,6752727250888"
"3724","70,1090374674494","70,8284798662997","4,61332373600585","-6,68081494855157","-1,49892627215923","28,4442291731441"
"3737","119,240493738096","120,998076440996","-33,5011089817618","-0,685778098015673","1,08318034277067","28,2368109320705"
"3737","97,5026848098833","100,286035648878","-25,5745353135012","-9,19402391122248","14,7693045306067","37,5708341605775"
"3745","-35,7033369652887","-94,2995175512594","-14,8010586499514","-5,67077352947841","12,6143792616401","36,6135437844749"
"3749","4,05120656132523","-31,0804912271407","-16,9536904545331","-81,5456595520504","43,1524459867203","48,1673401581701"
"3757","-50,7924534929061","-13,3064543786671","-31,4082645213369","-58,6328322921604","36,194654262751","46,6470983321858"
"3757","-27,480291992066","-11,3073669511601","-27,2285256832127","-19,4938086161882","31,6501984781481","53,7786041637629"
"3765","-21,6620606527589","-10,857580250143","-26,1238446406394","-27,1004422188629","30,7093507035466","52,3954363556669"
"3766","-20,2099509495692","-10,7563800356711","-25,8318837662685","-29,314732600835","30,3075331051092","51,4999938202423"
"3774","37,9163508518614","-40,9086781682786","-1,45484001770063","-29,959312338969","30,1359247038645","50,92029746702"
"3774","19,4234685537921","-30,6928250337617","-9,01212693299782","-33,5647496183031","11,187598347459","51,8976252363255"
"3786","-16,699544631112","179,281167659773","-122,09464104432","-32,6142920975972","15,0951404637554","51,5303328879679"
"3786","-7,71509848162205","109,524478869419","-87,9817020362383","70,1963912083832","24,6285731666071","48,5873238551061"
"3798","-56,2349696233341","90,279494031083","-73,7587304028258","40,1245722013984","23,7001149578889","48,682063007696"
"3798","-39,3445217489779","87,949449170387","-72,9996804379863","-43,8209355196053","24,8765083479437","52,8012397814413"
"3806","85,6500163060305","-125,575280062223","24,4004527662767","-24,2574655361178","24,3789228506613","52,4679343593191"
"3806","47,8460569875285","-53,6174928367116","-5,85724972138574","-109,134245717767","24,1664138615","50,8995426426195"
"3815","38,4109738937162","-37,4272775998461","-13,8541872393635","-80,8418690667993","24,0756554476776","50,8841888676689"
"3815","36,0561731111544","-33,7845437204043","-15,9677320365111","-72,6059606776614","24,036894312386","50,8742490591441"
"3823","9,21215220713094","-82,6650547541094","139,687185497211","-70,2084884599305","24,0203401930948","50,8678141730118"
"3827","17,5124421141318","-65,6629748547305","90,8258889526606","7,3899193978106","20,8674309573309","50,8636483221874"
"3835","-111,697535592448","37,5626486036393","-100,865561711378","-15,0211908053525","21,5208853721619","50,8609514115143"
"3839","-68,9456624603276","4,78800233099985","-48,5285145352381","-13,0005626079717","26,5187218584565","49,5065907921206"
"3847","-172,05303282992","-527,98734253487","-118,010007476311","-17,4123579149747","25,6531996225734","49,6297976078008"
"3847","-132,786491032682","-351,859671004909","-88,3735682236001","-95,5971350492893","-1,45608194004181","37,5360277806107"
"3855","-10,9594485098151","-484,407033844796","47,9013966877068","-73,3567168916776","3,96607655688716","38,7066987190791"
"3859","-44,5539489272863","-417,229662030003","9,91808963075792","-17,3244305796998","-56,6350120189887","17,8227390361604"
"3864","-52,9384385058374","-402,115021201487","-0,120680939626189","-30,0134368942821","-42,5165462390853","20,3027700933317"
"3864","-55,0310329668128","-398,71428727571","-2,77387052139993","-33,7072055318673","-36,4868269088735","21,9083057953389"
"3876","-8,29194031890441","-19,8732864900111","12,1462581959542","-34,7824612618868","-33,9116522569024","22,9477060411408"
"3876","-23,6268335202475","-147,635571716377","7,08956278629834","284,468848107942","-24,9472475192579","-2,07908039832191"
"3888","135,335027148836","672,070329224483","-101,860647856369","190,402876575016","-26,1187263914626","0,718945429266021"
"3888","82,0086060859971","378,500888846475","-68,6555647022593","-67,68123128866","-62,7961939119381","1,17773159878011"
"3897","178,975947377243","-323,002492117108","120,63374413281","-7,80949270267259","-55,4604196386614","2,4747430303959"
"3897","140,176981844583","-122,837956006452","66,6618246254534","-286,020549798583","-42,8899366922891","31,7193174516277"
"3908","163,751560476876","-301,452235768633","250,267808073046","-194,007764388374","-43,5213304149888","29,6518256504771"
"3909","150,635285682041","-215,639736596927","184,793818207356","-4,87734229636411","-1,32215576299588","51,3078113503513"
"3913","147,361735905735","-196,33226640959","167,489417576735","-44,8214928297379","-10,2997174127685","48,327578603978"
"3917","146,544725870068","-191,988162594492","162,915963571576","-56,4492315854195","-14,1338575992224","46,3982196708479"
"3925","-30,4516805397385","231,440192327807","-178,491096391842","-59,8340653286585","-15,7713435383753","45,1491810186222"
"3925","26,373692466486","88,7098840166239","-72,7230275120979","96,3994178419542","16,5606310059834","72,7454799890746"
"3937","-141,487634620372","-33,9290696333511","-161,061416142353","49,8789712419004","9,36898206432111","69,6109188561443"
"3937","-79,3823355420018","-10,5223452547162","-117,408746449505","-38,8547305447626","17,3080076436496","87,870870176124"
"3946","34,1414203067355","97,6943056505864","-19,0863095061505","-20,6851034384813","13,6986094799244","84,692094622636"
"3949","6,47459198672605","64,0426206547536","-43,1002523964965","75,1757780331937","-16,1554472272088","82,6342019905921"
"3958","-10,9329983626425","198,471444649183","84,2023408830809","50,0808723150385","-10,9055282642343","81,3019525084373"
"3958","-9,27757137483903","148,717394092955","40,847687377859","-30,7069562925272","0,774126862697756","69,6185563177011"
"3966","-8,86441118031884","137,522931082485","29,3893006964445","-11,2242861930015","-0,237721918399001","70,0548971245303"
"3966","-8,76129497670876","135,004221536392","26,3609147049614","-5,55288261687238","-0,669862651658763","70,3373777578195"
"3974","-215,285210061078","-217,013267476848","-87,2603425495701","-3,90193752777431","-0,854421467986899","70,5202515732745"
"3974","-148,829289961904","-98,2157990444773","-52,2897902695038","-184,564756749517","14,7959535712114","54,4072652488502"
"3987","9,54080976148195","130,863612225754","-93,3827395843828","-131,155687755052","11,4799212465974","55,975954425136"
"3987","-31,9333025430942","68,4055664436656","-75,2433707983524","169,778002081625","-57,5718358832477","33,997051227854"
"3995","55,7391834697886","185,703050187985","-93,0134139259598","90,37977309139","-44,0624846011542","36,7682319265152"
"3999","21,6204151049046","138,094516376511","-84,7099345768978","45,0512543914288","-55,5950222365855","34,5044095955984"
"4007","70,8689645136676","-3,96750895134332","-23,501377851838","44,8561265294706","-49,520342465483","36,0388442492377"
"4007","50,1603796008165","38,0691017377138","-41,3243067772749","-74,8236812457193","-45,3530464442675","49,2057468311265"
"4015","44,9919469040754","47,5271715467708","-46,0348048417658","-39,6624629085663","-44,5732761940463","48,7298062855215"
"4015","43,7020134463737","49,6551995453811","-47,2797625088474","-29,4270353003536","-44,2402516413662","48,4216893626337"
"4023","-30,1375994538226","224,08438807753","-21,5732118049007","-26,4475032113798","-44,0980233982954","48,2222189896082"
"4024","-6,56643325555916","165,330260064629","-29,7791176443804","30,8135411835666","-26,7351643785125","65,6770756252942"
"4036","-4,18440126114268","-27,16458716856","16,6518687499711","14,4822262403592","-30,3198284424826","63,977093591189"
"4040","-1,58989554786308","30,5248396626757","0,923312599519981","-183,377527924234","-34,9966073281894","92,6340731146277"
"4048","-27,1986723428878","-236,945899233589","1,97346244489688","-127,974485200044","-34,9939676993433","89,1861810019583"
"4048","-18,5900911611198","-139,125749104775","-0,748988963916549","-127,226765049075","-31,8470010690519","95,069754333937"
"4056","-142,471863461301","-122,44161728617","-181,981912766115","-118,009103777982","-32,5029934539179","92,878693344017"
"4060","-101,390180921475","-115,687754145035","-125,880736823809","-5,95623783038272","-37,5019138573476","103,63376473286"
"4064","-91,1370461867976","-114,168161865292","-111,053517246294","-37,3376582720194","-36,6368545411756","101,596440076176"
"4065","-88,5780767048262","-113,82625966082","-107,13476800963","-46,4727870406906","-36,2674047042162","100,277505999352"
"4072","-9,17047646250554","-7,24909381363501","-146,020296717718","-49,1320222329091","-36,1096199379261","99,4236474386652"
"4077","-34,3519886619476","-43,2696564110727","-133,297519304558","13,3231778425073","-62,7818671861947","90,755183866205"
"4089","225,427185783654","-1324,05199799594","536,576036624352","-5,49611883263394","-57,1730599206062","91,1433477938743"
"4089","138,262672360231","-895,222918494787","329,619781895275","-188,700023482975","-106,683996936361","6,17991464503448"
"4097","452,589007789744","-587,512610866189","542,221110533208","-138,030664236372","-94,829145328174","14,1758352037222"
"4098","339,038332855531","-637,279018461573","444,410424379818","268,057301707946","-99,2036890244733","-19,8735488901417"
"4109","207,423617357307","1350,17822749864","43,6471833012655","157,269473372016","-95,0719706846504","-12,9166203411947"
"4109","233,575317880737","671,348184036108","153,727753373821","993,140390214417","1,06778393715881","1,05549583363992"
"4114","240,102239185573","518,614130688053","182,82141774482","728,462341607398","-17,8728158502422","3,10083874836819"
"4117","241,731223185345","484,249577620928","190,510706653611","651,414584614929","-25,9619738681382","4,42496372775028"
"4126","-1,17070313783569","1644,47031357265","-1013,77253774516","628,985989237211","-29,4166943190723","5,28218280255591"
"4126","77,2060208926384","1247,51535347172","-637,057703756408","101,242500613732","35,1704876860362","7,18974852746798"
"4138","779,431323328104","-3171,03265399093","764,285164222512","252,616416849633","20,7544040896479","7,42467857659607"
"4138","564,692174267952","-1726,18833933809","384,652060422267","-923,473311192901","119,983194476344","71,1496587554201"
"4146","-91,0470019617332","123,624295753063","11,8114058401831","-551,832929017127","95,3618611697081","65,4042755034481"
"4150","89,2941187269913","-319,175236379","70,2717556446473","865,369020439295","193,378029218027","80,6214042288373"
"4158","-704,148031433699","104,82281042806","11,0871451564354","511,916385004068","166,238808736683","76,4727499932405"
"4159","-423,17471307906","-94,7793194803592","38,4449914835626","-59,2122702797467","204,981609656483","42,6768345219863"
"4166","-353,04960836489","-139,689002914988","45,6755136223033","48,5322277043734","189,527898697689","43,7978549365418"
"4167","-335,547838659603","-149,79350263713","47,5864992230587","79,8966417222573","182,927922386922","44,5235870974531"
"4175","340,981814876624","-965,018800791502","379,611355402958","89,0268199224491","180,109202183157","44,993415445396"
"4175","125,82956552528","-690,441242650273","276,363623783839","-178,321599699627","31,0509352235421","-7,45439706022596"
"4187","-692,80184347846","1689,49282011498","-912,111291066657","-98,1467014629628","61,391078152273","-2,40834099430149"
"4187","-460,115240974227","918,968495665721","-557,218406093605","458,36903152124","91,6508731954724","-11,3151304794462"
"4199","-288,264147679558","-566,124351650869","135,396226760106","308,370713123165","93,5742371037478","-8,08125524925998"
"4199","-310,373683976087","-161,264321372739","-26,5496915485742","-641,010830322223","53,4997571812854","10,2436842528124"
"4208","-658,974235774353","-359,498078564255","-100,593773552216","-387,375715273911","62,3847342033207","10,106981094449"
"4208","-549,977693403081","-241,099883593153","-102,163200464276","-12,7761400170829","-26,6229259375287","33,0129310195942"
"4216","-522,774420181171","-214,460761767032","-102,577991010911","-79,7302361509732","-5,63634873111142","30,8419067644215"
"4216","-515,985048170955","-208,467065563807","-102,687617777379","-99,2205677282389","3,32660604239099","29,4364175301137"
"4224","607,729151031089","185,157373291664","671,408162202133","-104,894201559874","7,15450791899071","28,5265244310159"
"4224","247,184876682529","52,7213026908317","429,997244534162","132,700216266841","-159,513072773568","25,2322436369679"
"4236","-33,5953498608275","-16,1263728962139","-243,0389884905","61,8639306882814","-123,693521746433","25,0995746076882"
"4237","5,32773713076607","-9,61682541414483","-69,9186112089781","208,715702600495","-80,0831416273017","61,5342829589042"
"4249","-179,254574115288","1181,10046804284","-449,411789566555","153,46424066685","-79,4580051499013","58,1215783199638"
"4249","-114,322485404202","779,00711179372","-304,709663704942","296,308252956659","-69,7535037532694","65,3805461849292"
"4257","164,446330717259","-481,18991762476","186,553474058491","244,890132544548","-71,6089018840896","63,079895426232"
"4257","84,0212374594309","-105,729224957856","55,3915084955651","229,922322152369","-72,4013059702737","61,5904878963314"
"4265","63,9488045345594","-21,2520660339825","20,7261520042865","225,565193845449","-72,7397261860597","60,6262673245046"
"4265","58,9391421617494","-2,24504207853331","11,5642967704922","-490,023402082296","-46,1446247890845","51,8863570060377"
"4273","34,9333644818241","-606,794904976236","83,7782171004796","-280,331180289791","-51,7863795319726","52,2282673591099"
"4277","41,9420209499622","-399,81621384524","59,8639427613293","-285,936896096484","11,8667630986308","40,2760829916755"
"4289","294,001406014576","-220,121534527293","27,5079510948316","-248,568719481597","-2,94823036228747","41,5384142784551"
"4289","213,910193494302","-254,690948106402","33,956447761269","97,2535704900374","-7,7025033311117","-10,396343457724"
"4298","139,658046426783","10,8816856466696","35,660748507415","1,92240910564488","-10,7329599025352","-5,01814326519936"
"4298","152,126252664823","-83,3655305717978","36,1111854361386","-25,8284837047376","-12,0272083607557","-1,53637540722353"
"4306","-14,5527566081291","557,505708649393","-26,2551727914616","-33,9067661948471","-12,5799564474308","0,717669995118187"
"4310","40,8476244409815","328,699182381299","-6,7382441738079","110,707053932227","42,2361633971547","-4,5861674936246"
"4314","54,6744089379005","277,218626200902","-1,58003169016515","66,8041244280385","30,6470511371371","-3,01979402874305"
"4314","58,125287179239","265,635706308408","-0,216745665624337","294,978897687053","72,8851584478104","-12,8266642724887"
"4326","-114,305101418498","381,954862635248","-206,405418345276","220,400554391855","60,9242241715982","-11,1754881131246"
"4326","-58,3401451982042","341,12620905534","-141,899903939689","-167,013813434211","43,2325869680026","-18,2222289792582"
"4338","1,13848553089363","-447,286825471542","14,0049922360122","-65,7901023057256","43,6768363296111","-16,7841855768"
"4339","-10,0168835534086","-185,676614912081","-24,7902363847909","-260,189800138308","50,1582450965438","-11,7953733500691"
"4347","-116,075857364084","208,660392973773","-62,8148847883803","-185,77953531598","48,9263274319918","-11,5656895453176"
"4347","-83,5459744837594","108,384647563832","-56,8645816399693","150,318902279141","48,4001996025961","-16,8274543377004"
"4359","-241,71716439055","-240,777728954069","15,871984169662","64,1571283113503","48,1755007441985","-16,233843626781"
"4359","-186,193408326918","-135,33787159331","-5,90415796178134","85,2157457244911","49,6524559250738","-18,5547781241742"
"4367","-172,335831988756","-111,614324065852","-11,659467641317","64,3459074269227","49,2832344631113","-18,0573170487615"
"4367","-168,87726874336","-106,276620455709","-13,180563035874","-95,5303084975518","14,5213149678633","-19,0878827297883"
"4375","-75,2417824290409","317,375290459088","-105,574983306497","-52,0702610861923","21,6751821653801","-18,7550558239991"
"4376","-104,872309764501","174,69528135492","-76,9942995521776","169,066765527472","-27,1758901113076","-11,7765151757018"
"4388","-59,7548509183991","-258,558052882421","-64,2334713057549","111,439734794236","-15,0392232383105","-12,2587103980754"
"4388","-78,4944702368898","-130,038325745861","-63,8608574661583","57,0687092379266","-41,3142842489402","-5,80780311183107"
"4396","35,8571222801653","-76,2718437194285","45,5870829634489","63,2413084143933","-32,5358465453054","-6,63158042766137"
"4400","-3,60309520080807","-78,1745996253467","11,5135469421268","-235,728263766204","-14,6304714487522","2,30342098339045"
"4408","61,8165471358073","187,647885917706","19,8651637278835","-146,758280296643","-15,9834375558728","1,08780973991333"
"4408","35,1439311596112","97,4568853558486","12,0724482246831","-35,4141214887421","-32,290459280067","8,41652893892957"
"4416","28,4870001766814","77,1642698123978","10,0128781367069","-53,0018465172748","-29,2548678525988","7,16103417001633"
"4416","26,8255684614331","72,5985122198554","9,46854555513842","99,0971762320864","-37,3959442882798","3,64301592802074"
"4424","173,446254211332","66,2462230040604","2,38185866737409","51,3731885620116","-34,8728380753392","3,36550255918445"
"4425","126,039732203067","67,8169832564813","4,50888789988005","-71,8888656604583","-19,6389921515952","-10,3403023122972"
"4437","10,9332235243516","-64,9549009670845","-26,171653517285","-43,7704389533999","-22,132915877315","-9,21323919842149"
"4437","41,2050296102615","-19,8280455684742","-16,2803449432397","41,3153365252598","14,5520498609933","-38,2411180209331"
"4449","-65,0171062950062","6,30035286186633","17,5765743416147","21,083798387124","6,21947792922546","-35,0333406700484"
"4449","-26,5279452847708","3,17913833724595","8,52476425069966","15,1943993899092","2,66080017835555","-32,9566727000875"
"4457","72,3496091415465","-84,498317845161","-33,7888090208559","13,479995852641","1,14095883306161","-31,6122683397687"
"4457","46,0273931340994","-55,2253959244985","-21,9720441575281","-16,0703683428645","11,5023019952074","-42,9154528025331"
"4465","39,457914705897","-48,6391052007135","-18,8489408645667","-7,67247679710492","8,92742807658926","-41,2329685041474"
"4465","37,8183093320027","-47,1572160467784","-18,0235225464975","-15,4812518169454","1,53607142458879","-50,9646702986748"
"4474","47,9116224979771","205,226769245241","-108,06206695274","-11,7543855479214","2,37936822639175","-49,2648311886854"
"4474","44,4307038357414","120,012159704927","-79,8587386967353","93,5734101906163","7,45828266607479","-54,9274536958963"
"4486","-140,232241916597","-42,9361106383947","-56,7834089930639","63,2343223944255","6,6273872310368","-53,5933523853614"
"4490","-81,3202779035768","1,40117819366062","-59,6847314770748","-22,4978873346701","29,8663228415134","-44,6139867061387"
"4498","-22,8565560049921","87,7020628492293","3,76957745733875","-2,45452615076729","24,7912156342908","-44,8008771736257"
"4498","-33,2652252547045","64,1194178232884","-16,4598120178909","-82,0649097853925","16,3320584701556","-36,8061792448379"
"4507","-49,8663790736756","32,1883569106435","-86,0274356813328","-55,2394855563703","16,719318653731","-37,6305291600067"
"4511","-46,0096822768005","40,0039955114106","-67,4137602853763","31,1787970998181","-9,85492415262565","-31,4011277993853"
"4515","-45,047130856205","41,7624830363731","-62,4942724563821","10,3351516854851","-4,20426111552088","-32,3683047999757"
"4515","-44,806898012897","42,1581357185667","-61,1940799911756","-33,3282335949244","-8,08265255186087","-30,2892116349315"
"4523","-60,5007278060077","-149,453274591129","-53,9076236640672","-24,0386412628777","-5,73903733037658","-30,9432372389151"
"4527","-55,4175817765302","-84,5650779742863","-55,9818549775941","-84,5637449499787","-9,45688426243763","-30,0140291354726"
"4539","38,6233666596649","286,810308929357","-46,1158280823367","-65,1825973836071","-8,04470363760847","-30,4124734491607"
"4539","9,09403424876477","169,368290344224","-49,5082936648034","61,7911591501605","-32,6083034131508","-36,0808791651212"
"4548","141,757787698503","84,3691728248898","12,080503235076","27,7532086639837","-27,0989342433788","-35,7505218190391"
"4548","94,8679052602556","98,2447102664615","-7,64193038933468","52,0227659644766","-35,7564284592804","-39,5944973595406"
"4560","210,945880601885","163,491790412044","-97,9040372337159","39,0876319896133","-32,453874133521","-39,0830306986986"
"4560","166,916532418605","143,172123310879","-72,7597952500381","-70,6295897661445","-35,7621770157056","-37,3993000112827"
"4564","155,927721559518","138,600279225702","-66,1143160646184","-40,5682635028465","-34,1750881740341","-37,3092774797525"
"4568","153,185142596184","137,571632534047","-64,3579539665876","-31,8174140349904","-8,33055934000891","-23,7248514241627"
"4576","145,498968771503","117,815147273584","-56,9509346174592","-29,2700425139085","-13,2928688770298","-24,9304934017256"
"4576","147,580659419343","124,370016857213","-58,9933018145858","-69,5421049667261","19,1920584842745","-10,8322468512359"
"4588","111,341370020401","-928,507531841789","282,400940211727","-57,2652988537162","11,065732685461","-12,7052489827778"
"4588","123,296796041812","-571,400782576114","175,629483624598","-219,454830072418","29,6160136823116","-16,6230324269413"
"4596","117,528518228772","-47,3021910157907","-7,06741059559806","-169,668188542561","23,538474213879","-17,1593479195029"
"4600","121,088875888251","-179,382097446106","33,6468463476306","-95,3637984757496","94,8700999923369","-33,7379268449486"
"4609","-310,376462738979","263,051510713913","-108,33471253419","-108,733796972143","78,3344358144366","-32,4706554841248"
"4609","-171,061250137831","96,5973086090739","-57,85962558884","205,229613758051","52,3973427623173","-72,228682977776"
"4617","-136,291066516333","59,1457767726054","-44,5193491193677","110,624335389777","53,3201199405232","-67,9674463686069"
"4617","-127,613150827873","50,7193314251062","-40,9935904322229","267,645956429882","108,766407634121","-112,55029810399"
"4625","-102,691853306475","157,098658018573","-102,547158727745","205,354936695277","97,4464276806652","-106,412581885266"
"4626","-109,472015036653","120,033582377815","-82,815414384915","28,2943181869691","40,7055382661867","-129,491408081112"
"4638","-354,472689484114","148,969171858596","-282,413702979338","69,7519874966758","49,4726192614258","-124,432301385938"
"4641","-276,619769396469","134,47956412832","-217,166387795237","3,21090744703003","34,3418315158697","-144,151559517372"
"4650","40,3822332641435","-294,781496699543","249,625886996778","29,8408048160647","39,8797693645717","-139,917517772437"
"4650","-50,5006507002366","-151,363523962666","113,996412465741","73,4796674518777","9,21360119338464","-152,055222767447"
"4658","-362,002557879373","315,780924901042","-355,77611251541","65,1829365801159","17,1166833067022","-148,9129948117"
"4662","-274,74696431454","175,886563434754","-229,934301045049","-138,882451291843","-56,5811283736796","-142,820918520915"
"4666","-252,969780376","144,410889850393","-196,675030818304","-80,2858680016175","-39,056015702871","-141,876997755922"
"4666","-247,534647556227","137,328988784438","-187,884796133259","126,459501939414","-17,4151075854622","-108,803165012203"
"4675","114,408527136094","584,811597966476","-136,961827114754","75,6430611970452","-17,1727009363902","-111,391651185105"
"4675","-1,25797367434081","432,493400961703","-151,503177977829","265,918410112824","-92,5693169396741","-80,6046468407359"
"4687","551,013765328525","-118,303746275569","353,215403908905","201,307547678543","-76,7697302164957","-84,6735921509948"
"4691","356,849321227719","48,7690915720429","193,609635184605","-80,6712821293047","-99,9075104810618","-46,7293272464027"
"4699","-416,284289794125","189,310045224694","-176,621637794677","-8,75529502874046","-90,7892018131352","-52,1647671314859"
"4700","-195,242381859369","162,931199473084","-85,4716433733859","-168,963966615432","-52,2907190772408","-23,2208388299164"
"4707","204,757979033708","-56,0044140796925","46,2325332451633","-109,600697018508","-57,8487735319343","-28,4829645157483"
"4711","107,589761487616","14,735945746464","19,0411930138519","3,37835046944055","42,0172677589552","7,33623824939488"
"4716","83,3385924790751","30,6522446722423","11,8546774828549","-19,7334586061333","19,6680917925791","1,5250643290448"
"4716","77,2860043681339","34,2333484737679","9,95532257655315","-115,32410873367","-76,3873827970804","-17,1157658338296"
"4724","103,782136386811","-481,487077637817","-86,0104809687833","-91,1505386946748","-62,4107886639109","-18,1835656523067"
"4728","94,3950206393468","-306,522117384486","-56,3736933649493","-246,459122792925","-40,712463443099","-43,2219078027568"
"4740","-105,745355391749","529,821091224232","24,3587803880086","-196,669438153129","-41,4455350773141","-41,4313629728356"
"4740","-42,6962365248797","268,994978740125","3,69591094302782","84,4127482577413","7,00189352982383","-74,0875575086712"
"4748","71,0630771408325","345,210446324973","-177,071445445513","10,2357483420878","-3,30716162351082","-70,2286984905028"
"4749","43,4550391596293","286,358622667721","-123,847222701522","347,51184831493","20,6025971463787","-101,545896781676"
"4761","234,362193174016","-317,959130657945","48,1688556662078","235,692891763148","12,8139853299812","-96,8201912498544"
"4761","169,008653856969","-120,928215798639","2,63172024937319","-7,05230745887093","-25,1166100069579","-134,339279227598"
"4765","152,697767773953","-76,5970454988704","-9,40348390482865","45,2845861022719","-19,3160220022141","-128,628586041251"
"4769","148,626909369139","-66,6227089255948","-12,5843194516287","-250,499964507452","6,75508988776648","-139,810328568873"
"4773","-240,982503068583","-140,703694400265","-200,881214460076","-154,602821534865","2,88954952196372","-136,049224544325"
"4777","-116,220920598098","-114,371620778201","-142,647005660705","105,723240262804","42,1345640399553","-129,556496971087"
"4789","-599,706726891101","306,903923739095","-241,812615615094","45,5041342725447","32,895338641287","-128,353200446998"
"4790","-426,374742603961","167,689241669836","-202,021518523726","238,169068410416","35,2411256022887","-118,105901187423"
"4798","64,9930376097464","729,217824866319","761,397484065161","171,253814027024","32,2429651225179","-118,471950067003"
"4801","-68,3717696878475","521,559517324312","467,0236101062","-65,2555217354733","-41,3917941330616","-106,535392627299"
"4810","873,327512627574","1041,06349786409","-329,359889736262","-7,10336886213554","-26,8397530104952","-107,807840557704"
"4810","551,356095299889","838,949822272435","-125,839488813073","156,790125254695","-165,333469817545","-69,4057789782248"
"4818","470,998716573359","793,475051072371","-72,050212165907","118,499507176689","-132,481415094504","-73,5448480159888"
"4818","450,943183789133","783,243408855958","-57,8340143346275","189,380315738658","-255,294957415952","-59,9930444054508"
"4826","-324,247399038831","-422,511372971859","-1039,95760690053","162,013712963151","-220,746208259475","-63,2198056750749"
"4826","-77,7188685455447","-15,8013916531343","-731,527248973775","-850,785953731724","-20,3865978163763","-23,3777085059935"
"4839","547,445020135833","1193,95924437971","674,332597400499","-557,611848860723","-52,8169449294383","-28,5845196413488"
"4842","381,472942694537","836,150564286157","282,893305126838","-294,543283340921","-128,011175264186","-11,6661125543566"
"4851","418,8186938535","769,845069709628","455,415351883455","-321,964046735541","-121,125153598518","-15,7133841517369"
"4851","383,139417707237","746,926597783628","342,01194101473","1028,62934037352","48,5452136798166","8,7187652063051"
"4859","-1043,60621151988","-1342,08464765263","-922,046702195605","626,786958216315","15,0080938037009","4,53578006089024"
"4859","-589,692288432541","-638,103849186032","-545,13016385085","-195,965060197411","62,0289151384469","-11,6983699102816"
"4867","-476,404800588079","-479,710976235739","-445,51328091453","-22,4681013956812","43,1105840495353","-12,2081203003376"
"4867","-448,130596494895","-444,073211319288","-419,185109140672","-1029,77230542627","129,40611545549","-27,4168866893588"
"4875","1067,78876053431","190,521551080051","563,239893808179","-703,998471850347","106,26124135522","-26,2628187999482"
"4875","584,130747853322","-19,6971574492412","260,889196919824","575,102022955219","-101,811355305264","-48,5101417321224"
"4888","-508,06377381671","130,0299138002","-277,2466726794","254,448066049454","-64,6750730582886","-45,9127320296939"
"4892","-225,652842589723","52,7179078836889","-155,47290175685","701,118154414807","152,518818410416","-46,9364364737734"
"4900","-88,6529503367954","-477,653137427486","91,9387186449188","515,143778395722","117,278061957749","-45,5991677039008"
"4900","-92,4606225872237","-307,984508083433","33,3281932879894","-877,062114246863","132,112900617522","-69,0805037542837"
"4908","-133,670616187226","1418,21904861307","-329,303378131507","-499,33312884118","119,448568729189","-66,2819760304902"
"4912","-120,955774697625","855,60796665988","-225,144826102325","70,317869379731","13,3730239191333","-84,7594704469066"
"4916","-117,78241433692","729,022716297449","-197,616317191907","-32,8567744472349","32,0702429388963","-81,7215291007341"
"4920","-116,990409498549","700,541539649292","-190,340689909582","825,737140786219","62,076332889691","-70,2865077141159"
"4924","546,616729927515","191,807260161042","307,994054300768","555,67375503994","60,8913443378837","-69,8836427232343"
"4925","333,239289442535","360,344075551519","153,701073831168","-389,354017101662","-4,104446571388","-81,7963659529047"
"4940","-341,414661067654","73,4384574704263","-152,640653503602","-157,451519604446","9,13712819051802","-80,5084881047872"
"4941","-154,794275197568","191,885837267675","-80,605017987139","-491,536243080117","102,875844903311","-51,2698266314402"
"4949","75,5764779382383","800,737333188482","-94,5448207718549","-353,788277106815","86,9098090013736","-53,3411463882552"
"4949","28,0722333406801","609,726492337482","-79,2290308313516","569,8114886827","-23,7216680165725","-45,2137856408065"
"4961","133,494352032798","-482,277541572842","103,596534512053","321,671300394964","-4,97019812630456","-46,9522515945334"
"4961","92,8055233417526","-136,974095486128","48,9162846099436","199,87961059168","-7,97225130975059","-27,7884887488352"
"4965","82,6504367685318","-59,2821968087148","34,464607648916","193,42606025363","-2,25436923904532","-30,3821499876331"
"4969","80,1159380712935","-41,8018293565299","30,6451121755085","-533,026204465956","23,7814205715416","-17,1824867321158"
"4978","53,2270682999206","840,758157145707","-128,313579656126","-320,496395716488","19,9007948396499","-19,6372184985079"
"4982","61,5161648610992","544,330635425731","-79,3254517417677","172,013835033956","5,66009865070177","0,415459053157154"
"4990","233,375765803406","64,0596959182506","37,7641735177594","63,3835204871951","7,57817711441139","-2,60273185338739"
"4990","179,268352839031","189,000649323763","8,71029104223661","327,400960350033","0,532752497519124","7,61686776888305"
"4998","-32,0332805795948","-627,790032054595","205,844791904875","231,25641419437","2,52379007452732","5,23288655071643"
"5002","28,2302202519896","-335,564678897729","139,946311730415","-317,945781306766","19,1033195864667","11,8052201786355"
"5011","-159,778070764811","216,535952899811","-276,682596191952","-172,818492781714","16,1841108808194","10,0600524939867"
"5011","-90,7010354501789","66,7563938813898","-156,795231022604","-219,434756190043","44,8228475186547","17,0459446263537"
"5019","-73,4608420996168","33,0565902591445","-125,109686859256","-181,004746424914","38,0538892331022","15,5685086468543"
"5019","-69,1580479016468","25,4742688020608","-116,735378961929","178,797843778542","44,6005180381486","9,20157956497917"
"5023","31,6898240007405","14,8932567696878","-50,3009854797163","79,5363465790423","41,3964545704097","9,07972313760096"
"5027","-0,140641686289509","17,5125712478955","-69,7427556723268","-27,9680706360594","11,7155083477792","-12,6409997889422"
"5039","-51,8453840595313","71,3520261696892","-54,052635504989","-13,2625971629056","17,0393593973516","-10,7026769728358"
"5039","-39,749813897835","53,4656888742911","-61,9058265832302","-96,1357395338802","20,8859912241379","-35,1475141355785"
"5051","-41,982273106033","299,716896447587","40,1609635284991","-69,2601040900116","21,5288120974367","-31,9727428886823"
"5051","-39,5394485583562","214,122436371365","7,13663174114228","181,22720337309","59,5534198221685","-46,1488187340895"
"5060","-49,4322949006487","177,113984242159","-31,0985073981592","112,144036849409","51,7929826610637","-43,3262021456201"
"5060","-45,9013438827262","178,787230062277","-24,2038357459693","131,338635061263","40,6140541875577","-50,9671843525508"
"5068","-45,0200918431289","179,163703700731","-22,381613505797","113,926180935876","40,8397534838863","-48,913844071249"
"5068","-44,8001496368077","179,248408768418","-21,900010601397","-62,0325916233114","23,6340290870163","-44,8793123561168"
"5076","23,5211533626079","-257,383513707737","-98,1437776464651","-13,2541750533852","27,2858022609984","-44,2674157466793"
"5076","1,57273162312951","-109,623955454799","-74,2945687200197","-118,677788292208","25,6995635356575","-30,345136073648"
"5088","-94,9270185855886","131,29682251667","-80,1412994371184","-79,366592962039","27,0221121430188","-31,3320565786366"
"5092","-67,0113520301486","68,5030370319532","-74,6865568884448","-13,2383046355685","29,1598663156788","-15,7395982784055"
"5101","-4,0307168302107","25,9746218602776","1,39044654375325","-25,9883656394157","29,0728591195057","-17,645269656717"
"5101","-20,3120583318754","32,4058980034092","-21,5028370507188","79,669698259334","36,9002982972561","-5,35282654354388"
"5109","38,6396046627791","21,4278815863894","-64,0032210641771","46,4267514959348","35,2432437739041","-7,39487931299441"
"5109","17,3527153765758","25,9578716608705","-54,2358292102936","-24,7706705460256","15,6605125652938","-0,601186226548353"
"5117","12,0399499190748","26,9771013669878","-51,6543634694311","-9,4962339270827","19,2971128342143","-2,20304904708486"
"5117","10,7139940019409","27,2064239872921","-50,9720968550742","-47,7723489205395","31,8606708942844","6,22823122974654"
"5125","-15,8732485917959","48,5580685054351","-26,4918975342401","-33,9145226752295","30,2263196887075","4,68651831810364"
"5125","-7,50887215158736","41,3621033950352","-34,0219210224353","-19,6271101367737","32,6741596977658","3,68843600992821"
"5141","-64,9356036597","-208,757518231899","3,90916857840132","-21,4680455860579","31,7195840696472","3,04229217447752"
"5142","-45,2681231458245","-125,033435894745","-9,06586162587841","-92,068845291833","25,0202249813509","-0,0812412178640123"
"5150","20,9051984322071","128,104675102621","-57,6234366872237","-71,620731962575","26,15906034601","-0,103370885682072"
"5150","2,42068514147147","53,0597408393829","-44,4569257450406","-14,4012853439385","15,6349970156693","-8,23338538185725"
"5158","29,3149083725574","84,1000374736311","-77,4269125335831","-27,7447093962217","18,1403763476322","-7,49663742610149"
"5162","18,0271479237369","64,0839804616176","-65,1406912622897","98,2474276114223","11,3457763920851","-16,4879803673606"
"5166","15,2099573517022","59,5804474360359","-61,8935133287158","58,9237277663324","13,4439362536661","-15,3088438035016"
"5170","14,5068450952766","58,5671704604391","-61,0353027935592","-14,0438009702898","11,194179808518","-30,7768642487618"
"5174","-76,6905171112341","-151,111283274042","-50,3942483082662","0,715357743368455","12,2333530347699","-28,790633629767"
"5175","-47,4514846359717","-80,2880993961873","-53,5818785363385","-58,217555644452","33,125118930067","-26,1521624039208"
"5191","36,8644844410345","141,547297092012","21,9467009812505","-38,3729216200596","29,0475816554746","-25,4440548624585"
"5191","13,9079991606028","75,4593768651661","-2,09152791368778","52,8488539599876","27,3061456023261","-30,3960951504825"
"5199","50,1886356759052","-63,6604207829654","-74,4015117529098","29,4035049191555","26,5624124803501","-29,6019733418908"
"5203","35,2435290359969","-24,9618205963533","-55,5126264492099","22,5785658469179","19,9531000837226","-35,8509439349916"
"5211","-42,0041314855887","1,49525002703669","5,02218100816059","20,5918266749553","21,1303926211256","-34,8964357682513"
"5211","-19,2835431917338","-2,55201456453242","-10,978815990974","-53,4692166553165","23,2061107803468","-36,9837305503642"
"5219","-13,6129562384805","-3,46263296157531","-15,2077878793585","-32,0283799450229","23,0926092217386","-36,3350145528791"
"5219","-12,1976955076171","-3,66751847036076","-16,3254809352171","22,0622481902572","27,7628938811874","-27,7993572645457"
"5223","-32,8495250513309","156,036741928488","-25,2994094391884","9,80802534884918","26,7574806959074","-28,2734980310936"
"5227","-26,0037927866901","101,969563792486","-22,6711673598804","69,4701253518144","18,4634902374831","-27,2278351244269"
"5240","28,2173828785643","-245,671089252481","-13,2980093981111","49,8377574878441","19,9212898758164","-27,5508883079491"
"5240","11,7498622026411","-134,888850177279","-15,8207374176304","-31,0688269109011","11,106369567982","-26,4074135178479"
"5252","-2,86261355767423","-115,288300024356","-19,958891440154","-10,6207266118873","13,3416903030378","-26,6671447238165"
"5252","-0,509584020300256","-107,878254385484","-19,0525818540704","-79,8598902047949","12,7234322203055","-21,4248321779155"
"5260","78,8466178890245","49,9893271877691","-74,3556326453708","-56,0154047211836","13,4593863409141","-22,0310359876674"
"5261","53,652277733161","-2,49109636132745","-56,9719123153791","-4,64287480994432","9,0549389405375","-23,7760981146398"
"5269","47,364293692611","-14,2989824254018","-52,3774945678443","-15,6883358086145","10,173885995907","-23,9058257198539"
"5269","45,7949434715055","-16,9557097128964","-51,1632162638817","68,2502358762286","9,07884664946781","-32,105497541268"
"5277","-514,731379843786","-207,478889359317","159,178103360777","41,6847468132164","9,61117686030661","-31,4138447153711"
"5277","-334,627108547539","-143,34584518191","93,7701097655343","-1,93536657029991","53,8802747874107","-35,0239228657013"
"5289","-28,8641284379673","245,609675302633","-418,192980281298","6,36682220717917","44,7867366978863","-34,3610344678449"
"5293","-101,552039007336","122,123116682877","-268,501893583116","1,94798829326448","-15,7220420874025","-52,868495755786"
"5301","-119,693431827054","94,3391333226314","-228,939396469806","4,66166612419453","-5,56415260967328","-50,8499545223545"
"5301","-124,221146695474","88,0878478386834","-218,483255009649","135,328024097318","-98,7469357963232","-61,7167126691289"
"5309","72,4463766116226","166,556512938811","147,042740000423","97,3649895698575","-76,5434716085393","-59,7516923800785"
"5313","8,53050583267399","139,211649739212","34,6491675533439","-62,3603540343414","-85,9358440951555","-77,4161725956701"
"5318","-7,42156804223369","133,059164540679","4,94418989854395","-21,8563877036356","-77,9471418396818","-74,8518977901287"
"5318","-11,4028743720901","131,674879900384","-2,90666561089933","70,2526174586708","-43,0769311043333","-56,9604477738988"
"5326","26,1127311748662","749,064808818331","47,0895700043314","50,06554087228","-48,184549240946","-57,3777856621993"
"5326","13,4758471561327","539,975081349765","30,3032888090595","252,674895210676","-55,0846715359002","-37,3587438997986"
"5338","283,387583331883","342,055387403315","291,429746851205","189,654460685121","-55,0315781921413","-39,3987101225728"
"5338","194,751946872687","382,524245352416","207,443974554229","-223,446702375092","-56,5818227165557","-24,4879781623655"
"5350","314,41441518243","-586,397619739289","-73,3731373222378","-112,700415111305","-56,2439016932049","-26,8349891661392"
"5351","263,2796819975","-253,401176385321","1,40850791104631","-406,86209706099","-24,6411892969621","-12,123033490037"
"5359","250,517514614053","-178,478304255923","21,1728685615615","-301,492537162226","-31,1442917732956","-14,5987293423009"
"5359","247,332342693158","-161,620956737195","26,3964759147436","149,569953921983","-10,3278443407163","-6,73315574320439"
"5367","169,518876096751","342,723003553133","-62,479652312663","34,8742059533787","-16,4375486508528","-8,64109885399778"
"5367","194,098250945582","174,19838384691","-33,9691041163533","218,516594683366","54,8803401556992","-7,17104385918198"
"5375","-237,372439843205","260,531295388051","-142,726213102235","144,974878114316","38,3388091870064","-8,219351834493"
"5375","-95,0585630304227","209,955856283676","-104,470094285898","-72,9566191748478","76,8889161256625","-17,0136991036555"
"5391","-176,818166627022","-234,524388680192","-73,5307524199887","-21,3964591332842","64,3529093536389","-16,7070304333831"
"5392","-130,223665615947","-90,5306716964722","-77,3536615172703","-81,5789048336616","36,9781520962741","-36,7977178230203"
"5400","-118,594645886814","-58,1326594644311","-78,3640345024741","-55,0980095570754","39,2869311401316","-34,8041339276322"
"5400","-115,692284086042","-50,8432358800246","-78,6310702972713","5,58647944990651","16,6791705810254","-49,7448931257424"
"5412","-76,4586579408857","-81,153216400067","-16,2162402000923","-7,74827106367215","22,0238402511477","-47,4173213150169"
"5412","-88,6667596999534","-69,9728411740582","-35,7203579801565","-16,7567160417832","3,85848822499031","-58,0840176023146"
"5416","-91,7136483484169","-67,4573013233021","-40,8751846327766","-16,3790735935576","9,10042329359151","-55,9894802021494"
"5420","-92,4740884741097","-66,8913148861008","-42,2375758015648","26,4533602587581","-26,4109207940273","-61,3965808300814"
"5424","-146,926922376225","132,036476339115","-108,554465567046","13,9218780380664","-17,5771181149647","-59,89705840571"
"5428","-129,517218784903","64,7944362585478","-88,081639814906","97,4278690740701","-34,2523299886677","-49,4579868465963"
"5436","90,1296362409796","111,790384869739","28,4143772592192","70,7364558217009","-28,3739853397303","-49,6998851544817"
"5437","21,9489294002935","87,3642859388664","-4,79639246082441","27,0796859175849","-63,613531399978","-51,2091012471904"
"5449","-68,5852312788954","-100,956899587273","-30,9308659976385","35,3712039850969","-54,6636491238046","-51,1861455918091"
"5452","-49,180677476475","-40,3284155119447","-27,8380577126857","-56,204640595084","-30,3933748255697","-43,0555963634102"
"5457","-23,3326546328929","51,4129271088149","-99,9202866753125","-27,8623610094805","-33,0280175433417","-43,7919981413736"
"5461","-28,8815249698527","28,0543634344519","-76,971207061807","21,4016762012581","-48,3094985167923","-33,4478164106814"
"5465","39,750423000524","72,4988913694437","-37,9274879315921","11,7424331603538","-45,8359187848526","-34,751145000598"
"5469","16,8795317939984","54,4987329586983","-46,6084565219498","17,4751287826261","-57,3628586697739","-26,1265980450509"
"5473","175,710984645505","-27,6514063426225","34,4110880234309","14,1439159810403","-54,285788209415","-27,5431929458571"
"5477","121,352016499844","-2,13486016060394","7,82408974517791","-44,9284027255798","-46,6799532817643","-20,3445876163541"
"5490","-146,025864476871","-303,469428736296","-87,7236936836962","-28,1243495773985","-47,4316506261787","-21,6843161944473"
"5494","-67,7578303857453","-198,268505273474","-61,9764257565802","-43,7394922043024","-11,5755338806051","-26,6094808470487"
"5498","-95,4851153930082","-110,69857339186","102,77765078056","-36,2850588686039","-19,262090931665","-26,7979601465924"
"5498","-75,405269861625","-126,995687851511","55,3212098606611","68,4189312329939","-31,98238631013","-30,9778229154627"
"5506","178,165991748033","586,439137079809","89,6427988481191","38,8982536699961","-31,4149745336117","-30,6838047157741"
"5510","99,4521122131721","342,959128292358","71,713798298997","320,817801736971","-64,2039567276531","-19,6725442170971"
"5514","-96,9857349801406","646,727902401736","-339,179873725168","232,884557726781","-57,2074867737295","-20,5440158046775"
"5515","-45,0125418133447","513,074665479047","-213,776718546731","-19,9965135134817","-22,7610389586577","-6,22943224900432"
"5527","-238,590762979601","-830,499730275607","-138,976445247117","39,3898285822923","-28,0496379122836","-7,96238097900392"
"5527","-168,90386654815","-392,798612616689","-143,207161305332","-654,225248466591","-25,589535668185","-3,673807832783"
"5535","475,139170788608","-1281,21982293556","475,321628774821","-440,136537234338","-27,5388743366504","-4,89744852993585"
"5535","277,878936749829","-925,111053206187","281,795246421707","-316,294928841276","-105,44446134924","-16,5105329875315"
"5547","-53,1708645758619","752,515588425685","-168,564985274811","-316,244647379543","-89,7164068470261","-16,0286733967739"
"5547","25,2059806010599","229,974894254512","-57,5926158402032","474,990729708231","20,8134329910369","-2,19057778082105"
"5559","57,0201587283979","1060,25745039356","-167,119712067968","242,319279350135","2,01855585824247","-3,23199780862346"
"5560","57,9603168389233","713,067715267027","-116,067096470868","542,002158979985","30,1687850346906","-9,31665656365337"
"5563","47,6924361628629","214,275464179582","-135,552591275725","414,239819247033","19,1911948107393","-9,25577532488144"
"5567","51,1297864001814","339,049196322315","-121,702495982629","-251,827018686409","11,3570424208151","-28,1529672107436"
"5576","267,289432221323","-775,979778973543","213,477798528017","-77,719017437066","10,0112298631511","-26,3867318455461"
"5576","198,238390389134","-382,856852900316","111,06403119231","-404,703112543348","4,71770081773917","-33,3589850707786"
"5584","-107,814742420293","575,346191705868","-174,623494257904","-278,888154267595","5,45693857149061","-31,872719463006"
"5588","-19,1992479386139","300,938056477579","-101,129071445154","330,218098230286","87,5644742048908","-14,6791567773018"
"5596","85,1871151699867","459,297814466671","-8,8052758264673","172,528875501167","70,6309893973192","-15,5482966790882"
"5596","64,2397833969489","370,928128648878","-26,4046252719108","128,33445652874","49,2427539157949","-28,2844972044969"
"5609","-79,2714763120088","-696,207050612623","-27,5846211084133","114,4694649991","49,1082587849118","-27,5297264698073"
"5609","-36,0889061437301","-346,308211379689","-29,8964872515824","-508,188464230909","58,4883364471442","-22,9832549384222"
"5617","46,455818040377","-52,8068851502458","-9,67903152635843","-327,444133423099","56,4943833137491","-23,0399360067132"
"5617","26,0572668217404","-107,770256910578","-16,335673739262","133,597646327901","39,9136086249627","-9,55048370818369"
"5625","66,4771520911099","971,490655523783","-103,144566725672","28,8068684246393","42,8322855400442","-10,8176103019465"
"5625","50,5651159719781","599,320057910594","-77,0876600917402","555,403710341936","44,0787951033256","-7,58008542154655"
"5633","-138,950799284222","261,757587129069","-125,743552090548","382,69600534932","44,6111548459621","-8,48415933764186"
"5637","-80,2500356678306","328,807377032788","-106,603025751994","-207,591620002587","60,5677117154361","-6,36421416198637"
"5645","-60,3482819207769","-669,633964082886","14,7479893929951","-63,424296543522","57,3824436345689","-6,99179277396748"
"5646","-58,381217525907","-323,27928514296","-20,1796321356606","-323,932516541258","24,5636852556976","6,12806883498891"
"5653","34,882021652326","599,551034502125","-71,0677399363239","-222,766436787238","30,5474383861327","4,62167465402253"
"5658","5,15858916291611","331,184177185289","-60,5171754529813","334,733127055775","33,1029817773387","19,8778333217859"
"5666","52,0032815811867","334,702847770801","-57,7287216704416","188,021201735367","34,1944041475429","17,7544464979612"
"5666","32,6947438893198","299,494534623935","-56,9917493018411","-11,9054349799275","25,2230113071949","17,7324117164494"
"5674","-162,920129924477","-548,004081268053","-6,46150567641518","21,8959384130253","27,3915056980394","16,7181467223475"
"5678","-102,741539694524","-265,68789094713","-22,1066516122148","-369,856005106959","37,7551449350856","17,4141411325858"
"5686","-77,2196888106395","135,08288381918","-80,048451601849","-248,894961886751","36,1812516249434","16,8647176972638"
"5686","-76,8499648944602","35,2547103065227","-64,3621375760303","177,654907165485","15,0611172881775","20,5668730672652"
"5695","37,0196605040512","490,26984174913","-74,1019804020708","72,8235370494936","19,0411228884789","19,9635941098214"
"5695","0,439154040285443","323,646432221533","-68,6761650926147","240,53954436269","0,29294965148153","15,5151961312755"
"5703","1,81194398333208","-47,5439201486161","-41,2065672864718","173,361659544598","5,28597323240103","15,6353685780518"
"5707","-3,84543615841789","56,9397304688384","-48,9465098716937","-189,682734333103","1,12671690584651","6,24486370299869"
"5715","47,2552223278903","-116,577307255117","-7,59948923464948","-94,364925901995","3,35038025124841","7,16558869022214"
"5715","30,0088853742599","-44,6179489470305","-21,6717084249928","-52,9467194412699","-0,418695770232448","-0,354035542453871"
"5723","-9,30385752031457","323,023409184376","-51,4265012692866","-48,8898831329897","0,971605917071976","0,777870109965305"
"5727","0,884498341277605","207,741249012708","-44,2905226480814","136,852270931933","20,4404122306562","12,3315666461802"
"5736","-26,329852711822","156,953166776452","-12,8975270190967","82,9217958697577","16,7551568775048","11,8112601868767"
"5736","-16,1219895186274","159,526050760562","-21,6005380243274","-57,5270670748499","16,7541763736538","14,1796507807321"
"5744","-76,5894665587392","-237,495953667618","-18,6935768239256","-25,411718896096","15,7537576197243","13,7129120855604"
"5748","-55,6808929762738","-102,824321774873","-20,9252836233338","-180,117352153434","7,46190018479755","16,1159816635929"
"5756","-43,4608641849952","-111,573829233946","-87,4719285324616","-129,152148576145","8,9206107955563","15,6716936337242"
"5756","-44,410998797005","-91,5424335287805","-67,0598257492558","18,9780245300855","3,25191884282128","14,0314534058846"
"5764","-25,3935042032938","198,74019253334","-103,321961278412","-15,9012949268637","4,83093189018258","13,9695859594871"
"5764","-31,6471325278811","103,052626068012","-88,9058360690818","131,164146184184","-3,93222055229803","13,9295338828423"
"5776","-10,4524382782487","76,1982931498522","-29,5531534945297","81,9748833357871","-1,67479077910203","13,9036047563473"
"5776","-18,162682787073","73,1561753089452","-45,8665793315841","-29,7514117568509","-10,1482047677396","4,41851586738516"
"5785","56,9315141558561","-14,5034844349773","26,1929275622134","-5,27492656766037","-7,76703339378632","5,27800855240375"
"5785","31,6734660781479","14,7734416133915","1,23784263601825","-23,7833251531072","-14,6146801277194","3,12920214215762"
"5793","16,6174780182392","108,3358286083","-71,314461002532","-14,1711183759921","-12,5391755029061","3,73809641451916"
"5797","17,859816096961","80,3869926577894","-52,4896194343201","22,8049959178186","-8,50692896118863","6,83751498650355"
"5805","61,9303971053303","-92,7517587708034","-47,5143215950937","13,568739581598","-8,7848356901633","6,84403307360413"
"5805","47,9294988211933","-37,7072875544523","-46,1993788637397","-95,0717392143756","-1,03892595201404","6,84825278751397"
"5813","68,9410561613548","-263,173035233154","54,8190850673804","-64,6969731688765","-2,73080009710167","6,85098456835797"
"5817","60,185104483505","-179,901929550306","23,5176866729931","-66,1082819280221","1,26539264305957","6,85275308317653"
"5826","-5,01534688811842","165,434470824886","-17,7335024873134","-60,5191137853986","-0,0279119561624773","6,85389799371002"
"5826","14,7119746005528","59,1337840858211","-9,63595558638009","134,213602377272","15,1489395441735","10,912483229019"
"5834","42,3909743240907","182,54188429342","-4,02440885378909","77,9002791619485","11,6306746200619","10,539951734337"
