Timer,AX,AY,AZ,GX,GY,GZ
"1008","-0,714789613574018","-0,672986824482416","-32,5600788024147","-0,219343665196806","-1,98899024007881","-1,14288033156797"
"1008","-0,723382252422483","-0,716196592449649","-32,6909732372223","-0,222832965505956","2,86115235025108","1,95301243784762"
"1016","4,30506563838139","8,24934915654244","-29,1710841486999","-0,223689621760807","1,83823329540778","1,47829058563936"
"1020","2,93514869691633","5,08970591260424","-30,374363791904","-0,223917115740924","-1,68578352694796","-0,159211555606846"
"1029","-0,858742077635182","0,851551583588856","-34,1937296304102","-0,223977859926089","-1,31420592446286","-0,15346243586803"
"1029","-0,096152909902668","1,98103384977494","-33,059464598521","-3,68974226999265","1,92807209521102","-0,149941677445632"
"1037","3,50021900197481","-1,37616904373592","-22,1623844911875","-2,61553831389505","1,43599848709944","-0,147744708849508"
"1037","2,67330027987613","-0,0657400985474443","-25,6923351686697","4,60290448140203","-1,86247428586375","1,22246849603538"
"1049","0,72975682900351","7,38182073954514","-30,0391302391397","2,5311406287691","-1,39695761752262","1,08743808732357"
"1049","1,0958022697479","4,91155324463861","-29,0244215486781","1,97771794741416","1,88917455736784","1,0021954985161"
"1058","-0,45861430713953","-4,5688385069191","-28,7944167662474","1,82988417568906","1,41793701345514","0,948357774940888"
"1058","0,0343584454303512","-1,51611543942232","-28,7422814091362","1,79039388228424","-1,87085719115348","0,914348406825385"
"1069","5,21660396216171","0,905514845792102","-34,0504515910196","1,77984498499909","-1,40085900494948","0,892863024177514"
"1070","3,90697430378199","0,402918847338183","-32,2536585205248","3,50990076326823","-1,18220802093014","2,24751121730198"
"1078","5,15360793739683","0,299685392455168","-30,0730488356521","2,9720442200277","-1,08048794043628","2,10334876852267"
"1078","4,56024103000656","0,278481192183246","-30,5787683974815","1,09549490717218","-1,03316606422136","2,01227003283148"
"1086","1,01906353342042","-1,52047368938814","-27,1467417361058","1,59421916964058","-1,0111511389601","1,95472833597066"
"1090","1,86398483340062","-0,889979869649362","-28,3688016701848","-0,00543211323343851","0,533873909662795","0,550155076111689"
"1098","0,465770340869357","2,8287229156754","-30,4191361625418","0,567258904730885","0,252645304575664","0,662773146594964"
"1099","1,00969385785238","1,59254621986624","-29,8838870247932","-1,01263390994833","-1,41297026676597","-0,634296460491936"
"1107","2,86092858652082","4,92783400180645","-31,5358909474706","-0,43466488482001","-1,18784238205767","-0,453759744427448"
"1111","2,464773439224","3,61290368365424","-30,9103519197505","-2,01314780479744","3,52124087662704","1,02851932671545"
"1119","4,0093686835685","-2,04098220976535","-36,088548260133","-1,43480215966685","2,71198486853335","0,964994347588557"
"1119","3,51319236047094","-0,202293036129919","-34,2622939211804","-1,28031080800081","-0,734061186958161","-0,443358989109922"
"1127","0,00371696689071266","-1,61922494240281","-28,5283477334091","-1,23904209967637","-0,337219227958507","-0,333129173882415"
"1127","0,858979014817958","-0,910263423545715","-30,2286298362544","3,97060285863511","-1,68738507527549","-0,263488125354941"
"1139","-0,53586248166681","6,41375572183854","-27,0673755649545","2,36223621506501","-1,3155047231139","-0,219490268414455"
"1139","0,00916125576331574","3,91811270504817","-28,3508116804472","1,93259913068166","1,92706688994293","2,54474570597549"
"1148","-1,48687529935119","-1,9782921329703","-33,9617168530382","1,81783175160465","1,43556523015158","2,29113611130866"
"1148","-0,974859864070043","-0,189416464819478","-32,233544950694","1,78717436242907","-0,327872869684093","0,762691020005057"
"1156","-0,807848150044192","3,76721849794643","-31,841818925147","1,77898496646462","-0,14825365509258","0,797049205311835"
"1160","-0,753371447390615","2,5799131834866","-31,7530260921639","3,50967102967039","-3,13425848093555","0,818756037044281"
"1168","-0,735601968469233","5,92523917018195","-29,9595701063915","2,97198285213404","-2,52339767696793","0,83246999020141"
"1168","-0,729805832400842","4,612370704016","-30,5530460885277","-4,1031424853777","-2,23921505315997","-0,527085294527141"
"1176","2,6197149388835","4,34270690250106","-27,1409112409793","-1,99309477567637","-2,10700856168134","-0,386025821597911"
"1180","1,71227810520722","4,28731783061647","-28,3674800674671","0,30342819900052","2,5588461166715","-1,66512668928154"
"1189","-1,93134426529995","-2,90245722622576","-30,4188365938592","-0,0831100390286925","1,72947945275835","-1,47323768396187"
"1189","-1,1198389383701","-0,379240410399085","-29,8838191213345","-0,186364581302038","-1,72592241489225","-2,72022544390164"
"1197","-2,52895321741251","-1,65557001644733","-27,9892170607348","-0,213946588594347","-1,33343293559003","-2,50804800309044"
"1197","-1,98858504642553","-0,917728718878619","-28,5597661859779","1,51155919745088","-5,755190306161","0,362440554051766"
"1209","1,535305061543","6,41222234665985","-32,2357514805405","0,972487231470227","-4,81226550766243","0,175959270000634"
"1209","0,684744876081796","3,91779774906401","-31,0689898334238","-0,904386752805491","0,230748834826071","-1,31007546318891"
"1217","2,08112004920101","10,5838398768377","-30,8045190928882","-0,405749218623151","-0,423156869319429","-1,24892324033258"
"1217","1,53659657396189","7,95304807062098","-30,7445713111178","-2,00542366890623","0,807418640711292","1,52615052804136"
"1229","-0,314833852042589","-8,73871356549212","-27,1843244073058","-1,43273883956695","0,379902871100509","1,27938804036759"
"1230","0,0812574617342481","-3,16720926995547","-28,3773205625465","-1,27975964086773","-2,88855126511818","-1,61295067521582"
"1238","1,88427155496007","-0,228220133765472","-32,1943963937876","-1,23889486842098","-2,40909058634106","-1,44027389534256"
"1238","1,4723875635274","-0,624550380472837","-31,05961584479","-1,22797881158892","-2,18603749008306","1,40525891420572"
"1246","3,01185229609869","-0,705956799879478","-29,0290650363269","-1,22506284535134","-2,08226947332479","1,20301107528731"
"1250","2,51400247742653","-0,722677716780637","-29,5687985565908","0,508589752541392","-2,03399486300738","-0,292984659929817"
"1258","5,69924153302935","1,0684873278548","-29,6911403597765","-0,0283059854609047","-2,01153670996466","-0,238125603984638"
"1258","4,73821848099226","0,436393471939148","-29,7188716683663","-0,171724975412806","-0,466305464394543","-1,57168621481345"
"1266","6,09856233276486","2,10116062496501","-35,0451452874635","-0,210035964349611","-0,747438143224227","-1,41420381362875"
"1270","5,54228598383861","1,44310458255977","-33,2524557367048","-0,220269838356171","-2,41300908807273","0,0535099906412015"
"1279","-3,00823837053847","-2,28125949628676","-31,0727761997385","-0,223003575596808","-2,1878604423764","-0,0192170379765216"
"1279","-0,79729047686836","-1,04624563283432","-31,5787065988938","1,50913983772056","-0,548334202514457","1,30305493601829"
"1287","1,59770246549633","-2,5871727322434","-29,9200569756772","0,971840956776107","-0,785599278912036","1,13844059413135"
"1291","1,37891304787752","-1,90367988447741","-30,5440896174552","-6,1031803893644","2,17358773155743","1,03444046175571"
"1299","1,30754723909644","3,62050845501996","-28,9122103184454","-3,99310490082936","1,55025083305543","0,968735205396084"
"1299","1,28426878843641","1,75517934270127","-29,5423110097559","1,76917282735182","-0,274519216389392","-0,440995587785917"
"1307","-0,397139370691295","3,16663939301709","-33,2317949026113","0,30842894935618","-0,1234326466328","-0,331636023026067"
"1308","0,0544106426813044","2,45655395236831","-32,0680929929273","-0,0817742069215519","1,48163868152338","-0,262544781757556"
"1320","-3,14593071122996","0,516102539453726","-33,5776450528818","-0,186007745369117","1,22834460613287","-0,218894282320162"
"1320","-2,18983380116521","1,11753290498783","-32,9198163542439","-5,41247226788938","1,1105079820248","-1,55953624066212"
"1328","6,49110599114071","-2,34813207225474","-27,4507180855985","-3,80859857283706","1,05568842116544","-1,40652769679947"
"1328","4,32269764671674","-1,05998129144548","-29,2110334655692","8,74995399234428","-0,504597890507656","-1,30985988138367"
"1340","1,94158046383884","0,999205014696395","-29,6100454773777","5,10467409285747","-0,230469079267704","-1,24878703995037"
"1340","2,16489594496202","0,42216285217371","-29,7004898303494","2,39805017228755","-1,63772312749655","-1,21020240922614"
"1348","0,563923007856239","5,68743670665051","-26,1743324248888","2,67503964828496","-1,29240115756907","-1,18582539166505"
"1348","1,04170977772536","3,76892643711976","-27,3750556723732","-2,44959016814962","0,40303171498221","0,197795025855688"
"1356","-0,476258462304271","-2,00893506269264","-34,7405415044354","-0,818513741439935","0,191775335595032","0,0719394347227877"
"1361","0,0286031880775272","-0,195710537022014","-32,4100817204888","6,54868439014014","-1,44128799051515","-1,37579316745807"
"1369","1,86709652489606","-1,61787289398467","-31,8818346475996","4,51665701502663","-1,201016258959","-1,29044240485417"
"1369","1,46678532771226","-0,909985712163604","-31,7620964860839","-6,42339300635093","-2,62402118476343","0,131700036222973"
"1377","6,35765509035695","4,6192132350422","-26,4149676043991","-3,34576845661485","-2,28602678551594","0,0301819086629347"
"1381","4,95298305481172","2,75491330390759","-28,2029298770936","-0,790780228302361","-3,66356949811295","-0,033955265435925"
"1389","7,8424303777424","0,577385690833372","-26,8348793833762","-1,10827559079673","-3,30442531981679","-0,0744758818052"
"1389","6,78492452291418","1,13012049315507","-27,5247823485125","5,73840770321684","-4,67212880281522","-1,46829551036566"
"1397","-0,255278258421262","-0,550947046869407","-31,227821667777","3,56733710802389","-4,30840725097438","-1,34888358195437"
"1398","1,44831375740388","0,103760888366314","-30,0671923767976","1,25451331368745","-2,60441458635402","-1,27344145328167"
"1410","-3,01744545508956","-1,55636132211247","-31,577440909546","1,63669717352834","-2,81168880785246","-1,2257785869802"
"1410","-1,4741087685612","-0,897351206319575","-30,9197700809203","-3,45983245284779","0,161450448006006","1,5407728688705"
"1418","7,39837978351501","-0,761990218039851","-25,4507075967895","-1,82124972539778","-0,455395633476948","1,28862615027005"
"1418","5,29245175605881","-0,734187007271199","-27,211031088063","-3,11641479583872","-0,742362708108198","-0,238894724450977"
"1430","2,93171471040068","-2,52307574352477","-34,7033619284819","-2,46238749235289","-0,875864572502699","-0,203952637124598"
"1430","3,16167788496162","-1,890514332795","-32,4016541980299","-0,554805910255818","-0,9379718641483","-0,181876907478145"
"1438","-0,110941754339972","-3,55518544984175","-31,8799243747421","-1,04524063642226","-0,966865211016874","-0,167929891809869"
"1439","0,821579068954541","-2,89710968160115","-31,7616634830978","-1,17624866663282","3,62404313838642","1,20910105382709"
"1447","2,7995683790689","-2,76194060874889","-28,1881987027903","-1,211244361399","2,75981019353443","1,07908236280664"
"1451","2,44475866483756","-2,73417681749946","-29,3781987520194","3,97802836654009","-0,711812048930316","-0,371280404731844"
"1459","-2,69242015222648","2,65532446483944","-31,4212662061525","2,36421976376587","-0,326868558245946","-0,287591329331056"
"1459","-1,36809041600289","0,762330567521928","-30,8843698433812","-1,5326183442729","5,99134692168228","-0,234718202844571"
"1467","2,41151613275743","0,373508729119511","-30,7626711408194","-0,573566420226167","4,93068603332254","-0,201313992186636"
"1471","1,64436679419341","0,29364454031633","-30,7350856043319","-2,05025206266479","2,90246557736166","3,92444861597957"
"1479","3,06794932777236","2,07183992715282","-25,4088450275068","-1,44471368402733","2,95890362823638","3,53102500829953"
"1479","2,53230048324043","1,43708209741456","-27,2015420679822","0,449915229360761","-4,68875714310995","0,546028655962397"
"1487","0,68376482794719","1,30670254011704","-32,927881797656","-0,0439794957066494","-3,24657635475078","0,660166147110626"
"1487","1,08080037227819","1,27992251761916","-31,2258755332298","-0,175911782737464","3,56348353111969","0,732275989135161"
"1500","-0,463507699829751","-0,520177640464521","-29,0667512450153","-0,211154370839221","2,73163685522551","0,777833581688606"
"1500","0,032762294520943","0,110080938939035","-29,577340917873","-3,68631592722738","3,87943126045128","-0,561603512397611"
"1508","5,2160833218024","0,23953634809796","-27,9197474157326","-2,61462309202505","3,41340434163532","-0,407833758784615"
"1508","3,90680447874793","0,266126550132756","-28,5440194492696","2,87027528522541","1,6618175157465","-0,31068502588681"
"1520","-3,2155228547233","11,0391853632293","-26,91219441337","1,33543607823345","1,84695014043702","-0,249308350162908"
"1520","-1,53871862940348","7,251976719219","-27,5423074045405","2,65831377491632","0,398293583423435","-2,94697074887054"
"1528","-4,33940053566092","2,88488322168714","-40,0984403229335","2,01168924366952","0,724354416440086","-2,65130126682197"
"1528","-3,25294074045651","3,98788015971648","-35,9445484199876","1,83895880350137","-0,658739989997541","1,64015542747007"
"1536","0,449076220515257","4,21443625047015","-27,9096656265438","1,79281795433941","-0,302178552175094","1,35141411352834"
"1540","-0,343381671569248","4,26097097825397","-30,0883926975354","-1,68525481456703","-0,136300230483838","1,16899297981642"
"1549","-0,60186948605803","2,47592970442076","-32,3555756497046","-0,614339640890686","-0,0591308714663634","1,05374286347366"
"1549","-0,686184313264093","3,10928138574443","-31,8694797155193","-3,7940173301281","-1,55801373849126","-1,75550889947439"
"1557","24,3935396547957","1,44477259065","-19,3459912518054","-2,64339297289223","-1,25531902173301","-1,53033940254065"
"1561","17,5741674222007","2,10288169989609","-23,5072826978583","-2,33603090713466","-4,18406707335664","-2,75630119661552"
"1569","-33,190846273979","-3,14574096552864","-38,6371597413216","-2,25392640545897","-3,54656946404359","-2,53083996043016"
"1570","-20,7496282280608","-1,2238105339213","-34,0666603559379","-0,499120464441246","12,0978384313193","1,71626053269532"
"1577","-56,8630524186876","8,1439525264832","-68,4972467710464","-1,03036558745379","9,37587764213391","1,39949583549231"
"1581","-44,6427068154488","5,068095472758","-56,3016537026433","2,29347218370471","1,97044277693997","-1,53706891151812"
"1590","11,2316531090835","8,02551204240779","-35,8039769696531","1,18135678058615","2,52531109266634","-1,3923332762021"
"1590","-1,54297324379305","6,63296679921524","-41,157753160163","0,884281470547958","-14,099171646461","-2,6691116161492"
"1598","79,654705332628","-11,5990579382918","14,3752382821607","0,804924832210958","-10,8331580040235","-2,47575528307865"
"1598","55,1401636597229","-5,34392440948401","-5,03705675924452","0,783726584374946","-4,70940402539923","0,382842465072994"
"1610","10,3199580841806","1,3246815510053","-25,397219511492","0,778063974154379","-4,86053164416837","0,188848799689251"
"1610","17,7002828940137","-0,30558364276364","-21,0122729234883","0,77655134184825","10,4169946554825","2,80272636943371"
"1619","-13,3686680360226","1,15415864717381","-50,1649309882952","0,776147277926415","7,52435443520731","2,45412326566446"
"1619","-3,50289132357098","0,453990401291739","-39,7729859291084","-2,68970799123381","10,7830000250415","3,60210211303281"
"1631","-5,3062689701051","-19,430419303596","-33,8707774276361","-1,61552920164601","9,29897624706204","3,3273727712404"
"1631","-2,89450356427937","-12,5146864256175","-34,5329193852181","2,13715957296148","-0,600116371923268","1,78558463538994"
"1639","-70,7342403188286","6,85180365435164","-57,7362878185523","1,13960156600212","0,794660808885483","1,81151294524656"
"1639","-51,8625394553937","0,829689841394504","-49,995812801782","9,53749588578834","12,187017762483","1,82789394599325"
"1647","-37,3377998127615","8,56574247108989","-62,4279074850835","6,78079460435889","10,486932030025","1,83824314295004"
"1651","-37,6000487678869","5,15473132610862","-57,2458997420511","7,77728076508286","-11,7909429188018","-2,25987691517066"
"1660","22,5717524413831","22,4001033182655","0,675245772625669","7,04346845955748","-8,15498152580111","-1,84898928320829"
"1660","6,19888663210293","15,9423108506965","-18,1957245881225","1,64882686935284","-18,7417384142554","-4,32583747278398"
"1668","27,6393459733961","-5,12471758205872","-24,24655088763","3,20777604093975","-15,6668741090599","-3,89066187773878"
"1672","18,6329004980263","1,54810485201913","-24,618096238163","-6,77302958191636","1,111437383193","0,488932059350899"
"1680","7,32605839935943","-40,1516829683699","-21,1556562073471","-3,43916559309505","-1,08301256028658","0,255874137348826"
"1680","8,63793700887617","-24,7168390337382","-22,3708223200892","-14,6787183951128","7,10479279491771","1,47685217823464"
"1688","-7,67229876674966","-7,18971858660156","-27,9662526797838","-10,6810989250352","4,91389626653955","1,24824230393278"
"1688","-2,9924517257269","-11,5896397887705","-26,2345730899557","12,9141281714432","6,96422137529333","1,10381104164275"
"1701","-9,83503158869223","55,7013964193722","-48,8953321917969","6,21703467327915","5,91806677719255","1,01256218552752"
"1701","-7,06697795695963","31,5230069610279","-41,0318635095456","7,89381197520922","3,89659488915539","5,05957141596954"
"1709","2,20499479446059","5,02156002837581","-19,7428234235675","6,341723347931","3,95617248626888","4,61639295938351"
"1709","0,229372488788065","11,5781503421218","-25,9172206873578","-13,1344907280596","-3,69002771585791","1,59996246337918"
"1721","-7,11030603402896","5,74647896635475","-29,0901052088552","-7,33710038418918","-2,24716744636266","1,69424047530446"
"1721","-5,5043984891154","8,54865091815151","-28,8093053309265","-2,32271742485068","-0,0411414703170185","-6,45551347256517"
"1729","23,4742806880374","25,2756141169133","-26,9723269637917","-2,98324369027379","-0,0148614307576547","-5,60436915361834"
"1730","15,9266888501546","19,7113402389301","-27,5559376949941","2,03893334984803","-3,07220219567243","-21,4852666803541"
"1741","36,8981893206469","-105,258931727553","-13,5015911985699","0,380489088647391","-2,49452805911832","-19,5185081712988"
"1742","29,738776533311","-61,9278844698276","-18,3158819023836","-10,4597670452618","2,37856558984265","-22,3806069623362"
"1750","-49,592009616533","76,1834991293908","-40,6870917689983","-7,35548492026285","1,64560994794982","-21,1888251876018"
"1750","-29,468515785978","32,551642392529","-33,7579907437136","38,5284659114677","10,5133268028078","-14,963002721707"
"1758","15,5932112779705","170,746799826709","-14,454073725152","24,78527746258","8,63873643235272","-15,0296494477557"
"1762","7,2916671356199","117,132150275019","-20,0784403284311","29,778478254563","1,62751240433795","-23,2810725081703"
"1770","-30,5662880506273","-166,659452388155","-30,2199659762298","26,1122936744391","2,36577416962839","-22,4941607526926"
"1771","-21,9149821514159","-72,950381284983","-27,5187532262755","-71,9079660955952","10,3831425362741","-8,31481031478802"
"1778","-131,238666954817","86,2762693210148","-94,2929787047368","-42,0917586944128","9,11295588109796","-9,35657310629745"
"1779","-99,8984043856083","40,9814983759076","-71,4287426412884","31,72213479473","14,6611772403702","-7,27829954486968"
"1791","-21,0492650710293","101,667312707886","-69,7927475425442","13,4397695221355","13,2423022578936","-7,96528682056072"
"1791","-36,3298648362298","75,1322075640947","-67,4219153024318","3,35744732001339","-18,1134487962151","-17,9768484409436"
"1799","54,093293479351","-84,6536750152619","62,5685180932564","3,66419355722827","-12,7006666176059","-17,3019579172607"
"1799","26,5879641812677","-31,4737705809674","19,0335474483601","3,7461335548833","-10,1825501635346","-16,8755752400435"
"1811","-114,615250752279","0,9846011919515","-106,100958195366","3,76802188602199","-9,01108043373039","-16,6061949760582"
"1811","-81,6736101825239","-4,3484339529692","-69,4652907528657","2,04099516914184","14,5556568817641","-6,85846932525457"
"1819","-49,1689477396553","-59,2818277497739","-101,947629138063","2,57966085444509","10,5192957360014","-7,70004627156131"
"1820","-51,566417006506","-40,5651727177767","-86,3104252226707","-28,4681733534868","-22,0541534922778","2,71401776268351"
"1828","34,6899488080584","-65,4343554172814","39,5937896335317","-18,7618674678487","-17,2078647928611","1,29342041809614"
"1832","10,8254746295035","-54,5424972609976","-0,867407242573664","16,7555420989264","-22,6272072368409","3,13235369351386"
"1840","108,491593029726","42,8084705648446","11,2411737846699","7,24317749109463","-20,1483756356659","2,29415589058355"
"1840","77,3488080906666","9,80440522366065","1,98583495777604","23,7637847424642","-3,64734848806855","12,7103548017439"
"1848","67,1905012627588","3,0253546525535","-0,112079658722996","17,1768739843336","-5,97079572862999","11,2911062307766"
"1848","63,8770147582009","1,63293447126502","-0,587615543517541","15,417336664575","-7,05170209684591","10,3944526490618"
"1860","-87,8471517332855","96,4607057387717","-69,8552462730123","14,9473179117322","-7,55455774876397","9,82796439460899"
"1861","-47,3372869105047","62,9383746356891","-46,5561922540936","-16,3699624717968","24,4419555340728","25,8887020740894"
"1869","11,0694272719911","-200,574860591941","17,2448870204501","-6,73563275511534","18,32726662027","24,0355630679128"
"1869","3,12081669129705","-111,700603263255","-1,29327433032146","-78,6756172428866","6,27391142668999","40,6516393761533"
"1881","-168,527223253296","-152,667573386286","-55,1485522437035","-54,8926815294864","6,6664897647456","38,1493524904077"
"1881","-123,516225507853","-128,082208351347","-39,3559686142201","-39,8752647804345","25,2665238115994","42,0413343851174"
"1889","-83,72709059566","-103,291767972359","-34,0029225515626","-40,8637173059664","21,9195695529863","40,5002126797647"
"1889","-85,7484747895911","-109,199799838376","-33,7895435723933","42,0501769881836","8,08424395818169","39,526562027419"
"1897","-86,4078198320854","-110,413312367255","-33,7411767986182","16,198661565267","9,6478199754484","38,911428524646"
"1901","-86,6228882423199","-110,662568412439","-33,7302134656108","9,293041035523","10,3752215900617","38,5227991683957"
"1909","-185,448130008111","169,243760778274","-164,954092713952","7,44836794303003","10,7136209407163","38,2772707166716"
"1910","-158,683433631841","70,7366526732921","-120,698708168639","46,8117015134014","-13,6854834605913","39,4903701199671"
"1918","12,4068694429402","52,2978457852647","-6,04088124902007","34,326684483481","-9,03635335155806","39,256782676014"
"1922","-28,7860536590138","47,5105061629291","-39,0513053415746","-14,0631076687196","-36,0343839969864","32,2681092172111"
"1930","19,708593939299","75,2407768104439","49,2259763543554","-0,989295424043839","-29,5943176784934","32,8528015562001"
"1930","-1,47318329164209","64,9365874666971","15,235854224688","-6,16130422717459","-32,7374248809067","37,3268572575826"
"1938","-23,4466953286443","86,1498959956079","-56,3085652460183","-2,5428839754649","-30,1996507200667","37,1534784369168"
"1942","-21,6141236044194","77,507119562201","-36,5255926443448","-13,7064243063094","6,28098089002495","39,7803800637088"
"1950","-21,016366342336","75,7318892106925","-32,0413713581124","-9,68849990350878","0,252378533794465","39,4400053053042"
"1951","-20,8213869373555","75,3672560600841","-31,0249295448027","-8,6152064896015","-2,55222772733865","39,2249631678717"
"1959","-7,36726695924487","-122,113587933808","-36,1145196566228","-8,3285015551996","-3,85697728871216","39,0891037372597"
"1959","-10,9787359044733","-52,6762463342255","-34,2681808771661","-53,306630446885","7,81429818509088","49,949026341364"
"1971","-223,0574426385","65,6729890190885","-120,742803004352","-39,3214731043701","5,2439699954082","48,8101137500896"
"1971","-166,23431872347","31,9819777214845","-91,3440706737425","16,4005406953272","36,2786606066695","59,0363269198097"
"1979","-60,6610884329298","238,619172059834","-33,2536897163187","1,28535793558686","29,7165157607282","57,4970490607938"
"1979","-78,224692709064","162,062549135064","-49,0862993519104","63,0968939130246","-4,03197012799149","53,7881243286076"
"1991","31,5395649163448","148,132382245131","106,924543383357","41,60838288525","0,267671939220861","53,4448979809082"
"1992","-1,65698944196567","144,271119402672","52,2876385037211","-33,4467109384023","-8,4755463031443","47,7551762929173"
"2000","-12,4852048845127","143,478014195578","39,9030501605926","-13,4959029602756","-5,54303710383512","48,1605210402294"
"2000","-16,0172054772447","143,315110012365","37,0958262015004","-8,16651677517787","-4,17878496457883","48,4166099501932"
"2008","-94,164784468956","-16,4377086508315","-14,9670375433435","-6,74289738387054","-3,54411213903277","48,5784019315654"
"2008","-73,6553463056508","39,7489871274205","2,23183395450731","-110,335031146993","50,4685650846105","48,6806189515841"
"2020","-46,8796958952872","-302,246346269568","23,8636075740484","-78,0072180161794","40,5961624564018","48,7451976723148"
"2020","-50,1458824962121","-175,492348882095","18,7668979782165","-17,3853978295259","-46,8749440182554","25,5262658681198"
"2028","-160,00924348362","-97,4136317614307","12,2916352363633","-31,1917132743722","-33,567960142221","27,8569973610299"
"2032","-130,84501514756","-110,376226477674","13,8238825580571","58,6954342942713","14,0618206119565","19,7519716342361"
"2041","-62,7485558635204","186,659371777347","-136,56178782635","28,7066584509756","9,21998819809808","21,6313743713711"
"2041","-75,5365177090963","80,6706236087131","-85,6498208970243","44,956098045821","-42,1455797474679","2,29545199037706"
"2049","-79,7077580264005","58,900484797755","-74,1095670420941","35,2967512658456","-34,0416977785249","5,0793931453356"
"2049","-81,0683537174741","54,4288880288761","-71,4937290168002","32,7164853767293","-30,2716368644738","6,83823289965395"
"2057","87,5431635199189","-43,3979546119005","147,218702399773","32,0272284103743","-28,5177417127272","7,94943357135662"
"2061","41,5416978567862","-9,49163418191484","73,7944138092337","-13,2116056054734","-53,7931172218012","-20,0811408580514"
"2069","-175,99491118675","97,9703136248583","-157,421563885043","0,703910533105401","-48,5516430320129","-16,7903113823675"
"2070","-125,952072702365","64,0430483355955","-88,8314635381422","4,42111133764189","-44,5784385699836","-31,1298633838765"
"2081","248,567573611617","87,5825640505491","205,128597979379","5,41407355935492","-43,7300376550596","-28,1893128174423"
"2082","156,730234651138","75,4175916691593","114,760746327376","33,4052985812925","-46,4049140910619","-35,909066740791"
"2090","272,396191469","282,887045485309","-139,802463278552","24,8824918909282","-45,6493111763027","-33,7862567883453"
"2090","223,124682392294","208,501369049401","-65,5044975577673","29,5373204548918","-19,2064753549144","-22,8675703892904"
"2098","207,053059123706","193,222516062288","-48,6633217589026","26,7807477421467","-23,9048275558793","-22,969357160398"
"2098","201,810737966355","190,084232460028","-44,8459197676537","26,0443945804288","-26,0905792809398","-23,0336640582536"
"2110","400,958581402794","-151,534282951058","195,4188220273","25,847695260195","-27,1074274011433","-23,0742919027839"
"2110","345,917604871702","-31,7028869717416","114,87981184826","-173,485319958179","44,5543348249517","12,4737470351831"
"2118","312,899732604513","411,052228442465","-93,1222556772295","-111,732417454348","30,8925805985223","8,93230509801825"
"2122","311,129800565644","268,994337754796","-33,2702408439909","116,173996288878","173,410888751545","12,1677690874981"
"2131","-211,677829395561","-777,722352778882","143,442751167024","55,0538009679639","142,712780260275","10,2118721671292"
"2131","-70,2097945845965","-425,718454180225","91,4984180420096","-408,354418672473","238,935909094859","2,13507715411749"
"2139","-894,448896270213","394,931315968706","-446,954629543987","-274,142957288058","211,700511841695","2,03231550591851"
"2143","-643,303262084507","146,493165410478","-272,00618702416","252,111705928182","177,543184519145","-13,0830217233572"
"2147","-561,383343376524","95,4638522329594","-232,350491910158","109,688184588231","175,652626739464","-11,632597141439"
"2151","-534,66230120957","84,9824072635849","-223,361705657909","71,6431115318275","174,773107760999","-10,7162471637196"
"2159","-525,946300196028","628,387770297393","-189,404284259015","61,4802706594116","174,363940878191","-10,1373151102131"
"2160","-523,103272098792","436,003487892651","-199,707129997698","304,833568885742","43,7170058468485","-30,2948495190394"
"2172","-334,708630295351","-721,547840826566","-102,736045933923","227,83964318044","67,9378749081378","-28,0299868275763"
"2172","-385,257139045674","-336,309429131504","-136,755537338818","-293,527951518397","-124,920357283214","-59,4363585602625"
"2180","-212,604196361954","352,982561944962","-124,96013933256","-143,798965483942","-81,6412201886804","-55,2782920163493"
"2180","-269,287409987375","154,563461675385","-133,28646759049","221,977838877001","-96,8070613084357","-37,600892204048"
"2192","-60,1377686956449","185,592066147681","-2,1741091194577","131,686455496819","-80,8624632816405","-37,4326555883146"
"2192","-127,916309588961","151,96535612557","-47,4547721632815","20,9235659837608","-134,836104163699","-25,0123915368686"
"2200","-150,024647558398","145,058414043638","-57,7185741289504","41,3358814228361","-119,945541178984","-26,1655108174593"
"2200","-157,236054020219","143,63972488577","-60,0450778439803","46,7885484038492","-113,018203180722","-26,8940291011743"
"2209","86,462510630701","39,2615527913071","83,0672408560592","48,2450993421575","-109,795490124713","-27,3542927518134"
"2209","18,9533075549013","75,8222270648145","34,5066178272685","-31,0780062062348","-149,735380458048","-8,49000545226647"
"2221","497,403532305788","90,5102049017149","16,4060278736345","-6,26729655137404","-141,316082895998","-10,5719164580973"
"2221","354,466780804972","89,5271224697274","16,3031535282197","-133,070974972595","13,0094817890692","12,7407236252508"
"2229","46,7278154774834","-296,513701826678","-107,853212402336","-89,9435766606333","-13,1956942379536","9,46919519645352"
"2233","102,348005553073","-160,806669022196","-65,995829295005","-184,128406535075","63,630654897326","11,506965786087"
"2241","125,511918066892","-202,921762170076","110,184964496814","-148,287654808576","41,3715525503484","9,79438952234111"
"2242","130,0676370275","-172,572222145384","56,1199976009783","41,5052151075854","57,1075640265398","-10,4426556799306"
"2250","131,553643854254","-166,338412324977","43,8650508710187","-11,7961114316616","47,4282187494007","-9,22802635786187"
"2250","132,038356872825","-165,057984850775","41,0872128739383","-26,0342993595429","42,9252260549368","-8,46064722895672"
"2258","-157,373545812091","-94,8056028193365","12,0842902847664","-29,8376942960722","40,8303588272654","-7,97583205384119"
"2261","-78,7753442663698","-119,375730450323","21,5101759968906","2,07091842370811","64,4123251069535","-35,0339251368491"
"2270","-264,038496171166","-32,8978702709657","-251,219284758893","-8,40545085412418","59,3830487290698","-32,1287009030952"
"2270","-198,468542637367","-66,1352770456558","-158,039076856281","123,960181021345","0,256362035407754","-74,0762606399903"
"2282","-135,235235571324","199,816872327306","45,7350634796484","81,3185269425851","9,74964225155602","-68,5779111976845"
"2282","-139,609484336259","102,443569113178","-11,0752987911469","75,1264392347074","-11,9252423764918","-76,0499171434561"
"2291","-53,9979141850219","26,8104613608871","-91,3390577617935","70,4723695487349","-5,00875983959593","-72,7705848481302"
"2291","-78,0727109857252","42,2753853936552","-71,5325044058411","-19,1474120149053","-30,9519803582945","-72,0669861209978"
"2299","-85,9255466649889","45,451888076361","-67,0429380522918","7,91278432900326","-24,021198794223","-70,6224661604504"
"2299","-88,4870232463287","46,1043432240136","-66,0252846685514","15,1412753615152","-20,7968837340247","-69,7098466074143"
"2307","68,0160791965471","-29,1348223927442","51,2451179249743","17,0721956676004","-19,2968786463858","-69,1332713635055"
"2311","25,0650312169012","-2,58898245972975","11,8268883263773","1,99213233049264","-29,3425346575476","-57,823246419533"
"2319","165,046034367149","-67,1258360552432","33,0385257687618","6,96385030265235","-27,0159412087322","-58,6777931263268"
"2323","118,705726744086","-41,3817361906182","20,846583589503","-43,6942829000581","-1,37703775457382","-19,5393137807908"
"2331","26,5947235291291","-19,942490189359","89,0161967814939","-27,2264042832801","-5,44939268742076","-23,8123854569335"
"2332","42,5495032729791","-24,5388589594941","64,4682543010952","23,9601887478867","35,6300134271684","-12,8298339168341"
"2340","-30,9155969043877","141,41480091211","-97,1490200735067","10,633475667474","26,740837592497","-15,8912719367536"
"2344","-7,87880476152126","82,5017608396222","-45,7829292723773","15,7379279976211","18,0010948722356","-19,1936482941129"
"2348","-0,364550548999801","70,4009946515641","-34,1397388176988","12,1014616329807","16,9352209423345","-20,280025303447"
"2348","2,08648586354522","67,9154915752013","-31,5005680758807","11,1300657061824","16,4393586311822","-20,9663771211897"
"2360","-12,17835873517","-140,768577273769","-55,7289547229205","10,8705802739024","16,2086752222689","-21,4000008205787"
"2360","-7,8313359358195","-67,6323833378747","-47,2208213559732","-58,5136817791392","49,8665909059149","-20,3057363282158"
"2372","-108,516122502433","-149,518549202598","-31,1056423833188","-37,0480453023652","43,5248140702749","-20,6144013524464"
"2373","-80,3579815990905","-112,338006252283","-35,4528026389768","29,3365697937327","14,4831970673597","-38,5962633070369"
"2381","-163,233050023845","151,926627412354","-119,784651358028","12,0696486236252","17,9725529633199","-36,9568531693861"
"2381","-135,265647625181","63,2067076766541","-91,9002149665688","68,1077776093309","38,013259526791","-41,3939837734796"
"2393","9,43591874502255","-111,146564647407","-53,6597023317161","48,0770375401852","35,3365301265436","-40,1972763961279"
"2393","-24,3646123396642","-59,9588089301727","-62,9916965569348","-24,8557736057163","1,86082090106973","-49,0187564535915"
"2397","-35,3898358826574","-49,4448197884894","-65,1069867102551","-5,33804803728056","7,28736321686783","-47,5919955967244"
"2401","-38,9860975469612","-47,2852414650699","-65,5864611210559","-0,124349568376939","9,81188111602271","-46,6905958992151"
"2409","-33,4638835536421","-25,3064687138027","-40,8685344815011","1,26836658747515","10,986328904737","-46,1211091413194"
"2410","-35,6626206215289","-32,7920184352854","-49,2657034499682","53,6266077434564","3,85878489105204","-44,3930990156833"
"2422","72,418164673708","188,200787701858","65,8706342763649","37,6128727307504","5,54293266095377","-44,3013759024198"
"2422","42,6724870273023","109,592814204276","25,9686745884457","-13,4524065845887","-4,41705710634274","-22,3519151393071"
"2430","-136,085427504142","50,3763107190571","-124,942272440393","-0,0932874160664513","-2,05061029356071","-24,484673690165"
"2434","-93,3935636352134","62,2132130030458","-79,1493703633296","-43,3123038902238","17,4677002551675","-16,2545725176706"
"2442","107,999167494403","-5,344863315766","25,2169913271649","-27,8572412974411","14,5479435250075","-18,0549550263085"
"2442","61,6904394769279","19,7786759780296","-4,12620693316346","-25,461660759899","-14,4364760477491","-5,51020667032691"
"2450","46,5852307124524","24,9390627860545","-10,7774517634763","-23,8217381143568","-9,92051095428929","-7,58467919388543"
"2450","41,6581393932462","25,9990086677645","-12,2850944341996","-23,3836715908675","-7,81960875046649","-8,89529049656225"
"2459","21,639030628185","-33,005062400621","-64,0533811104789","-23,2666524866289","-6,84223404125545","-9,72330916983815"
"2459","26,1090992281933","-12,1245263981261","-46,7877376068285","-38,8312566010752","10,4950736824018","2,06754021002306"
"2471","62,7172848694593","-126,279223369021","36,925694936147","-33,9889722301859","7,56067809943681","0,516769009109719"
"2471","53,6583229906385","-83,7266519113908","10,9010816847004","-17,0996075618297","13,8694650760248","5,00989996559462"
"2483","27,2700151171309","-12,1753501755623","-65,93110688458","-21,5880135032182","11,804417890819","3,84857251926853"
"2483","32,6625470126267","-32,4786790872748","-43,3467168835063","13,6033620714891","16,9828568880243","-0,989790002577273"
"2491","61,2025508727934","-110,227573094402","-18,7208744847538","2,00390519876745","15,3919529896188","-1,04657312964488"
"2492","54,5118697615366","-85,1972325552404","-24,1389162573765","-21,8890991842433","23,8605380209195","-2,45066709545932"
"2499","52,3294704755115","-80,0559888153283","-25,3670278630326","-16,2715498408233","21,8002648760467","-2,33774629304735"
"2500","51,6176047380115","-78,9999749288281","-25,645404844836","-14,7709544815902","20,8417914819966","-2,26640513124947"
"2508","1,17095248252518","-123,648057400122","-38,1218094973057","-14,3701059452459","20,3958936895664","-2,22133317587933"
"2511","14,7160152296501","-107,818794575889","-33,9498455283278","-10,7972814124064","27,8623713001928","-0,824638100057409"
"2520","-52,8398379763942","164,622472793004","-52,5108050386348","-11,8428858947929","26,3359010866998","-0,942233376940027"
"2524","-31,8755385802734","70,5820374726202","-45,718031697887","93,5830992714724","48,6475117890892","12,6656671494812"
"2532","50,2843783303139","-11,5448957593786","7,24823952440736","60,7451561421217","44,0272448307311","11,2628734431738"
"2532","32,0837042918918","6,58619346025963","-9,74585592071906","-26,0060381984848","26,5299862756401","17,2177131892313"
"2540","-49,1747597012436","-39,9384590791367","-49,0645052733342","-4,17956666742876","28,3899700668156","15,9798648630576"
"2544","-30,6800453146539","-21,494644631048","-37,9768931092244","-19,1436253528787","41,5335322251439","27,5117918570302"
"2549","-24,6473483737369","-17,7062764535165","-35,4636557166","-11,1409194834553","39,6481363314743","25,7974385398884"
"2549","-22,6795736019708","-16,9281438449432","-34,8939783056123","-9,00318600666261","38,7710187483855","24,7143435320194"
"2557","-8,64719450817282","-18,5629145693663","-77,3247510382757","-8,43214110105625","38,362969034717","24,0300652188264"
"2561","-12,0700440497519","-17,8986972463931","-62,9425662225823","15,9806313621531","9,0122540760221","22,2295320261859"
"2573","-44,9890124666494","82,735306920019","60,9038432623904","8,50192576025483","14,3578124529459","22,0919902528819"
"2573","-36,7266835609789","47,4055787900068","20,9762020942977","23,8329032188985","7,63595524288892","31,5826304926602"
"2581","-27,3363761459552","11,4352435248057","68,6723095454518","17,9282110160422","10,5088352731525","30,5786319950354"
"2581","-28,2733994687939","20,0469197137327","47,483622112543","-14,8408137598329","5,70621357510214","36,7854227802209"
"2593","13,2663346419616","-75,092612497262","-152,385450837702","-5,59428319982443","7,47195394272065","35,7067522092848"
"2594","1,81596950835181","-40,6343172388596","-87,6899240040456","-10,0557860600403","-13,1935609588013","36,3934886621073"
"2598","-1,91896693186693","-33,5565671575881","-73,0253402535247","-7,24757096088628","-8,80750280760294","35,8273553664421"
"2601","-3,13724687750182","-32,1027939561782","-69,701308019751","-6,49742275783493","-6,76703547775296","35,4696833858812"
"2609","80,1561225528957","56,1311886577524","97,7451021333602","-6,29703841878957","-5,81777607884427","35,2437132006652"
"2609","57,3251636344806","25,2544902585294","41,7003059255479","57,8728151763423","2,29775190247869","43,3102666005262"
"2621","11,38030228623","-203,617939717169","21,9032728056134","38,0142728869562","1,07323073552799","42,4065577971764"
"2622","19,3937813423097","-126,62844466855","21,4158644111263","-98,9888653587619","-2,5660035907668","43,203831684229"
"2630","-147,047665663912","-17,49559061164","-216,320735981939","-59,5860113531626","-2,2590360341338","42,7075337848034"
"2633","-100,338355815056","-47,0796509698689","-136,208670088915","49,7133275576963","22,4403038051665","47,8668604183128"
"2642","102,364805611931","16,833150718833","78,7899386440042","21,9100592123977","17,9308482242332","47,1264224145738"
"2642","56,4835201967579","-9,0391297014763","16,5238350711242","45,6748000780618","-13,3279090791175","42,5539696381537"
"2646","41,5177367635108","-14,3533082896602","2,40993051925517","34,0229881715341","-8,87000379160312","42,6651831048655"
"2650","36,6361238848798","-15,4448430754746","-0,789278846176068","30,9104823785815","-6,79611197686435","42,7354456052491"
"2658","-23,5397124078836","-19,258243892453","-19,2477385154695","30,0790501181846","-5,83130295068636","42,779836083364"
"2658","-8,16816278199187","-18,0415182169629","-13,4317314586284","-4,80052066353263","9,96537566927174","42,8078811221332"
"2670","154,1844223877","-57,2727918245426","62,3664156326298","5,88222748030098","7,31425375821303","42,8255994309454"
"2671","113,141387465968","-43,3309139075473","37,5476386716205","32,996102154744","-23,079975759453","46,9414519920908"
"2679","-99,4302260815296","72,5925247026276","-56,7445145533577","26,2389320828788","-18,2198777417864","46,5417674098797"
"2683","-49,7678809362398","33,4032536110567","-28,1177878793474","1,90655635210096","37,7585376827723","58,6032299189562"
"2691","-68,7188895062823","-71,554615693004","29,7976019749637","8,40673803835719","28,8006292175992","57,2234268180174"
"2691","-53,9004227291303","-39,1130114994753","13,9253269743494","-19,3157445917534","3,1462942079543","54,9834746223488"
"2699","-49,0668623222485","-32,4494907131028","10,327546456134","-9,72114973161046","5,21147012407741","54,5683164885293"
"2699","-47,4902278054443","-31,0808004040313","9,51203483875406","-7,15818078542465","6,17222436900024","54,3060276722625"
"2707","-18,5210970486366","107,384492951388","-120,125852861007","-6,47354428801501","6,61918325125858","54,1403187109429"
"2708","-26,0718034372501","58,825329445196","-76,510970417925","50,8941711445664","-6,98593407706105","62,2449439773892"
"2720","-80,4229974660343","-128,814098973527","20,268380933168","33,2185986280152","-4,31526133863123","61,3652882372128"
"2724","-67,1515373666225","-68,355325977974","-6,79457066998878","-65,0781902426854","12,2750135023609","62,1777583807119"
"2732","-41,0629911756907","53,5335057403109","-99,8220834023315","-37,3358510462637","9,99308577575908","61,6910611798884"
"2732","-45,5533008117711","17,5695292037701","-71,9086997162184","42,8555522993198","2,79236162285023","58,647136389586"
"2740","150,492207283808","38,8961039400811","90,4714217489643","22,2767878513888","3,4424647727007","58,7240440423203"
"2740","96,4392957463524","27,2765924390401","39,2782460718964","16,7796579569292","3,74490358964616","58,7726327981564"
"2748","78,8080510964694","24,8899393021362","27,6742504185069","15,3112298035762","3,88560316634627","58,8033302269526"
"2748","73,0570049629302","24,3997196233328","25,0439639917909","14,9189739749968","-6,79242441645057","53,3498462920529"
"2757","-2,46676306288013","-61,8417491142264","-65,9920366345288","14,8141921137235","-4,76002075896162","53,9044414467838"
"2760","16,8985226716108","-31,5557874260139","-35,6272354007382","-33,7342605433415","8,46375399393375","56,9912628408296"
"2773","-63,8231972782628","57,2165417009984","-35,8377400456937","-18,7028306975977","6,61567433571162","56,9414564261566"
"2773","-38,1534050786203","29,4504199292069","-31,8854552919697","-0,824550623804498","18,0341835958152","58,2782091972501"
"2781","15,4127011958395","61,4338355408824","-11,4829662102218","-4,04879121881988","15,3462643520781","58,1227435406957"
"2781","5,88515730973779","47,0032441766644","-17,8583186572671","31,4802762097726","4,88709950382657","55,2880843833638"
"2789","-84,2609679714759","-34,9231853577735","-125,703179444097","19,9710257238243","6,0213217519877","55,4972019837924"
"2793","-61,6652746751158","-7,75091258418786","-90,1484551914923","-16,0279978234936","8,08376417816414","62,4704158724473"
"2797","-54,2949002547522","-2,1697149541432","-82,0892390903607","-6,64428499243542","8,04324675801998","61,8759564783923"
"2798","-51,8907952607664","-1,02333433132327","-80,2624505121879","-31,8636268538456","20,3026640878128","68,3414860860645"
"2806","35,931771672099","-29,5014596727944","70,8846150673036","-22,6003771779833","18,005949288809","67,4262816595779"
"2810","12,5781686807243","-19,3508800355416","20,1452341597946","-16,6601719229433","-1,47992076527586","70,9527318220309"
"2822","8,30820570588676","4,26924815058664","12,1907590033075","-17,0733866730645","1,45492782349657","70,180674293551"
"2822","4,91540817261912","-2,87916639124287","8,38771213387452","-11,9851462146335","16,63331833302","71,0611228897873"
"2830","-88,2511005961734","-0,75825504845523","-111,287386944555","-13,6259431971243","14,6945584914355","70,6173731502986"
"2834","-63,6406108474348","-2,32261885936882","-71,4142317077158","-22,7286116116527","-15,3682683225548","68,9688012218995"
"2842","-7,07240289955262","-9,82233803856848","-57,0561658632735","-20,1601740500812","-10,3539962455019","68,9272656131611"
"2843","-17,6207064901291","-7,36278389150573","-56,8016122739243","-21,2069504080175","16,5352600870277","68,9010242252141"
"2847","-21,0614040576934","-6,85759031086799","-56,7439124202759","-20,4865719384833","13,0445901458408","68,8844454278327"
"2851","-22,1837077200585","-6,75382331138055","-56,7308335510305","-27,2256345452935","0,677188959587069","59,2964348157687"
"2859","-47,6570124441514","-39,0353010400068","-38,9945764788585","-25,0258156305217","1,92366786940187","60,2389166102248"
"2859","-40,9660203191533","-27,6659317750439","-44,9742857418438","-27,903933402552","-3,63558272801689","59,4661387431509"
"2871","-95,6932322898691","33,8911264806012","-71,1563204052466","-26,672754450309","-2,22183873088876","59,9779127504979"
"2871","-79,5444235729337","13,534975249222","-63,0910219042809","1,38210453342793","6,10977522449414","61,6694610853325"
"2879","24,4781640072543","25,5052079550014","-31,1162574163956","-7,12370385003635","4,98578085297311","61,7381483499175"
"2883","-0,591236538001078","18,9638993926026","-40,8685134890389","-0,731460924152066","-4,74582008753027","53,5722266667188"
"2892","28,0554347895618","-102,617856900704","1,25416647603549","-4,02392450866726","-3,27312298724422","54,4131565256426"
"2892","15,3995469976721","-60,5908069271923","-14,1978539591258","-27,4307858989058","-14,8662664677024","54,9444396182589"
"2900","11,2713872450628","-51,9584310613814","-17,70037505875","-20,6833749602811","-12,2595899729265","55,2800939198689"
"2900","9,92484378455716","-50,1853369913575","-18,4942941520355","-29,2782058149236","-11,0469206366513","55,4921537647144"
"2908","32,9190327267247","43,4980328659713","62,8988929948446","-25,5741114679779","-10,4827666566353","55,6261290410038"
"2908","26,4193904176153","10,7406411740478","35,3483479734894","42,9974226681769","-7,15074614835084","54,3425525159754"
"2920","0,865893994357668","133,223423563566","-109,21623610348","22,3146851628506","-7,6006346917376","54,5316138882287"
"2921","6,53072879634309","86,3814447747388","-63,9847991605018","47,9815073242053","1,39876969364236","53,2828396848366"
"2933","66,9620402698699","-118,851268382428","-20,0388996095812","36,8377914201704","-0,414557443513995","53,4938884854978"
"2933","51,6738227954921","-52,0061643613142","-29,077649489253","-42,3854298776008","-12,0016308104368","56,3636639897938"
"2941","41,6655915561519","-129,800724472076","27,3933954415236","-19,5480385090995","-10,3921303977076","56,176732212854"
"2941","41,4010574455124","-94,7797637721168","7,19372969022762","-107,022747878906","-3,5042306347994","54,6904128670389"
"2949","41,3147704076774","-87,586441944047","2,6150562542103","-76,3895462648154","-4,29986490297352","54,7513852771863"
"2949","41,2866248771054","-86,1089302513925","1,57720490103404","-24,8847697719075","18,3517428579355","57,5263454433959"
"2957","-111,039728009685","-30,172863259387","-66,0445570513152","-36,1264876708124","13,889648196031","57,2795111840891"
"2957","-69,7262873083513","-49,6835687446756","-43,372432718171","23,2540054397055","17,9529407688857","58,491785603608"
"2969","84,3500007425708","-30,3612829689329","57,5264541303165","3,11609884436547","15,8432521739606","58,2576769509863"
"2973","50,6073625035409","-39,3924763668052","26,3972807382888","25,4627123560234","-0,486043496686353","52,6368936957135"
"2982","-13,9610598118285","-66,3718811496505","-79,9652302792804","15,4320812890168","1,91729608824092","53,0857924009995"
"2982","-3,02230550828588","-57,9134636035264","-48,0745006890147","-32,3020797399735","-4,63854698677582","54,7376173456206"
"2990","-31,2567353174421","117,900053643645","-14,2458663025799","-19,0531311572413","-2,688434414862","54,781208146597"
"2994","-21,4663805586652","57,0122329216184","-21,577904290289","22,6092325635966","15,1014071697088","49,3358699929101"
"2998","-18,2729144705058","44,5058458577176","-23,2398628582935","11,738347028323","12,3775378786929","49,8956114934255"
"2998","-17,2312539885829","41,9370280623464","-23,6165802575206","46,9576678971481","14,17991517819","48,8810257693991"
"3010","-30,2820006835599","-143,434359794177","-43,2085927964239","34,3656759483821","13,0184111280629","49,2400302862859"
"3010","-26,5389574560612","-78,5097301985489","-36,6495290215315","-64,306028350835","12,4780600916488","45,3621838629563"
"3023","-390,209720540776","-271,553126507231","18,0370963251087","-35,6638389381969","12,2266797864989","45,9122360835842"
"3023","-290,833639467198","-196,204331062382","0,432954843907637","-21,0812612315568","24,388000188914","38,0504313963631"
"3031","-273,482996083636","81,283878234327","-47,890620340281","-21,1858707161408","22,0456490648611","39,0834964451907"
"3031","-258,82347785183","-7,71991283619215","-33,8441614905862","51,5668793297677","-32,7614685555756","6,89889897332738"
"3043","-74,9435505516124","634,411293158336","-264,739700763725","29,001054699889","-23,2586528364522","10,5652976651884"
"3043","-121,96469109302","398,305345412893","-185,076966398776","156,40440102691","-69,4856348070835","-4,90519651952042"
"3051","-137,302278079941","349,809072503498","-167,019754454371","113,437189803929","-57,991197026514","-1,6791531789678"
"3051","-142,305167671149","339,847915198651","-162,92671263495","309,904356192987","-120,174259955421","-7,8503188397342"
"3059","13,4015826633193","840,289756871608","-436,864973128837","242,385909999082","-105,102856887445","-5,74914100963091"
"3060","-29,8092233654569","663,080746936872","-343,958764772478","-61,5741999510697","-145,669672565694","-9,89453578687388"
"3072","-45,5777517720422","-243,698838686482","336,778835458649","22,230050354726","-133,542031119558","-8,51351540092652"
"3072","-49,7212079559423","55,0482071928127","119,082139555474","-418,060896492991","-95,6696001448177","66,2428389810537"
"3080","487,895714733744","383,806320970478","330,416065062236","-268,674202787473","-99,050714247274","59,4724464534485"
"3084","341,258247893326","302,333392436415","231,319284984822","169,791860272636","-92,9497481689137","88,0323122619849"
"3092","198,019857902732","-425,062598893502","-206,102100641169","56,9176920519121","-95,1114770985642","82,0758787621537"
"3093","208,297655058405","-178,470078228871","-71,2527352789288","-96,2680009722827","-125,278032847302","94,7313541018445"
"3100","211,650117506019","-127,819858301076","-40,6863281586391","-66,1879334909462","-120,312017198964","90,7268367281916"
"3101","212,743640202803","-117,416279263806","-33,7578176555788","-380,467257327226","-27,4495270017164","88,1968607116029"
"3109","49,0664530206662","-255,258142477769","-41,0539732036917","-278,419540791196","-43,2483493419478","86,5984711811624"
"3109","93,6774227403418","-205,570926126789","-37,7077982721116","199,387244862778","29,2105088814101","80,1157618612204"
"3121","-0,569131821306044","459,66367955053","3,83725441020167","67,0220196248836","10,9195769936504","80,0201124803793"
"3121","33,6890632764088","231,303180985213","-9,74569723580546","262,135979974826","13,1538140968829","49,8588542199036"
"3133","-127,539383274667","-662,653150628151","-0,411250373998126","181,256056813254","7,19321842284671","52,8035591845539"
"3133","-77,1296712870488","-374,272202333466","-5,29540427969677","-278,766138143143","82,6942002714552","40,9817714499953"
"3142","-120,944126256345","103,103070539269","-126,988887951069","-148,650180399818","66,8185149802306","43,5129964014923"
"3142","-99,2357407650218","-31,8438234949598","-86,5732414687393","-86,1668030166447","57,8980983328635","4,06559019445208"
"3150","-92,154792770458","-59,5619791104843","-77,4121964679704","-85,4758475130272","54,7481718817905","9,14348790140988"
"3150","-89,8450943121476","-65,2553013334586","-75,3356555039949","197,167132540523","50,2132069373554","-8,171687705935"
"3158","-32,181992799529","-16,1759255928322","-25,2117454709942","109,668515485199","50,1034656862946","-4,11107812981594"
"3158","-47,3731586197918","-34,0949986917179","-41,8501210657637","-33,2729522631825","37,774145519136","-17,964298069199"
"3170","-197,950199755337","304,99292526052","-79,3148098847168","-2,45638244460706","40,0383403535173","-14,7164923859878"
"3174","-160,066159939584","183,641744603256","-68,8069590913436","31,7686398592096","10,3960147433466","-18,137470036862"
"3183","-149,382772505546","381,246496497836","-80,6117706249229","25,9110445803916","16,6059109865593","-16,298777031543"
"3183","-144,898012625248","297,834605639436","-75,2875761383148","234,024040279871","-18,8747252802254","-4,19137068838194"
"3191","-235,494980955764","61,7606214380978","-207,080430530387","168,616501769956","-10,3809084289563","-4,54214737052956"
"3195","-210,046345863576","135,270913855722","-161,954016009056","22,9117745033437","-27,9164100510443","13,0230921684731"
"3199","-201,745384850495","150,369962553039","-151,725177672052","57,990204938369","-22,074217571819","11,1204681098774"
"3203","-199,037736542792","153,471314269459","-149,406599189041","-142,317136204701","-63,8650491104344","41,3874756566821"
"3207","-45,8373702558009","23,1025677675383","3,62527002575382","-74,824501812746","-54,3068402363706","37,5095810297629"
"3211","-86,8657209657182","69,3247658121666","-47,6868810234335","24,6496204756586","-80,5558689867236","63,7922121494498"
"3223","-6,51490582333207","-129,354718277679","-27,3979184588808","4,22177803838794","-72,767354507214","59,3970661633552"
"3224","-36,305681578099","-54,1635779185509","-40,7990040470071","-41,0911309427554","-96,770107898337","74,4071520130434"
"3232","20,929619784257","198,16785554544","-3,05006550894506","-30,1954021780585","-89,9365886955992","70,8902316611676"
"3232","-0,401087993987305","117,996850866142","-17,4934852045909","-82,7368234313275","-57,5966382732086","82,3505048682758"
"3244","186,803706014159","153,573075068557","96,272344319632","-64,772020646376","-61,5515545075439","79,5908820853407"
"3244","131,867086855381","131,880448281646","56,0597305062383","82,1224919081011","-81,8088474973188","77,8474062044285"
"3248","113,947590105337","127,424772519027","46,9447070733186","39,3618844546478","-79,232877711223","76,7459121284558"
"3252","108,102520483437","126,509574618071","44,8785978527585","-11,9166941616685","-88,777977017574","60,9995952196109"
"3256","50,9600492886164","-146,457535846436","-92,1360807368003","-2,61455285334954","-86,2185162497","62,0513791396686"
"3260","65,3210368676735","-50,5251089456447","-46,1933010357161","-161,286956938828","-51,262579007277","46,2972418018455"
"3273","-398,662847815557","-212,075095674539","-202,472365854466","-110,672534466139","-57,0004945869046","48,3440849273185"
"3273","-270,007394330583","-144,257539063726","-143,896259076329","-20,9056480429423","-24,3698517287371","29,1139481197598"
"3281","-552,762050903145","-517,961279213825","190,35382492356","-40,926548805081","-32,1895329986033","31,9647225379358"
"3285","-450,992356063856","-378,720203513014","85,1185429857227","31,7046563749667","-12,8056289334073","0,92851841300542"
"3293","184,776812389772","-651,61274180592","673,063372828549","6,10636391071767","-18,787913799108","5,32044963581905"
"3293","32,1551280257572","-539,664997745947","461,333269835254","-71,7794344259744","-81,4275225969477","-37,0560570987849"
"3301","-17,6277639473142","-516,670878371298","413,340248063672","-51,5847821655723","-71,5685122738979","-30,8287080081646"
"3302","-33,8661926052725","-511,947875417952","402,461633704143","263,994127556233","-220,460270265618","-52,8905606096035"
"3309","591,865361825434","2159,3863305354","-820,054752281484","169,29356463284","-189,72719682997","-47,8288090313451"
"3310","418,969559129855","1220,07963505049","-409,163461431741","663,858650437866","-60,3209086171127","-13,1618447137992"
"3322","647,122119005295","-1305,83379025968","324,145435008175","495,970008474626","-75,1189472492863","-14,2599324213522"
"3322","551,542043598506","-524,657597914946","129,365114376345","-368,526713150872","10,0837589382489","17,8835850022154"
"3334","75,1304531448696","536,685323527901","475,346546978127","-126,456552701448","-10,2785225461016","14,1912327366149"
"3334","185,73217641176","252,685659649208","333,770418655675","-741,079715573515","-48,9122785901515","22,8042324943133"
"3342","-596,686783183335","835,024026678375","-506,958885748417","-513,261747541476","-47,8853455946871","20,2457578479624"
"3343","-362,900049276665","597,636601637756","-241,527629823272","505,873568546371","147,509884745903","76,0945821450567"
"3350","-286,642342075282","548,877112688158","-181,362127306717","225,111448849688","111,411001460362","69,3787806744372"
"3351","-261,768227918174","538,861890684638","-167,724367576979","219,427439896851","169,821583088555","58,2947707514298"
"3359","-81,251713776847","-644,041730613665","-345,512669562069","177,90909142583","147,995158864631","56,292109342757"
"3359","-125,369948971924","-229,010691759205","-283,812077758045","-640,700681373036","-20,2415412181231","50,9222084236293"
"3371","-39,3317472363225","793,017833222548","-25,1069220288389","-393,372908529114","4,49194284276747","50,5296096984407"
"3375","-71,2673832476187","480,942973787574","-104,466029705062","114,577637561081","62,0418718803132","58,4908904348383"
"3383","-444,902178402015","371,977662402896","-76,3478579243557","-4,73539547428138","58,8150577315341","57,5206724147932"
"3384","-349,776214336437","374,59613610494","-95,9742907680066","533,508387761096","91,0791234752323","43,2255126521251"
"3391","-109,520674371198","-197,343277864532","9,52338427574521","348,287476093471","84,0889044240235","44,194109369721"
"3395","-156,1529401802","4,18009703406652","-28,5633783354914","-141,339818220421","54,7456212984641","17,4416600348952"
"3400","-171,363682093467","45,5730931869694","-37,1965334767233","-18,1321621206817","58,0946370879873","20,5399840308347"
"3400","-176,325196734417","54,0752340992897","-39,1534172490025","-265,945686667232","-29,3647786056305","-4,86694512432232"
"3408","309,136620156454","-737,391413901017","194,482475104293","-170,143204865327","-12,0523559834717","-0,918547707102331"
"3408","176,486944280039","-457,95903630369","115,440898634129","-80,4355135022454","-56,1809620423396","-2,52868566406233"
"3424","-163,046648773822","634,92043385435","-271,327998463644","-93,4722268237524","-42,7103248257167","-0,545939438839165"
"3424","-96,7973868138644","282,398391940357","-150,997195410909","228,825573052437","29,5521236066403","4,81137945559179"
"3432","174,210570281447","-98,680920522626","50,0645445208979","126,919802621019","20,169818611643","5,19602910283849"
"3433","113,609279207632","-4,9547908499181","-2,36063959057062","151,684297801235","-45,5863195380646","-5,50671269206542"
"3441","26,8894487175723","59,1615885655107","-19,5638832653788","128,299546599131","-36,1771705952765","-4,26849632946484"
"3445","38,6027477078199","47,3311231061877","-20,4633554545225","-118,816575895473","-24,1259610444539","3,35488209690103"
"3449","42,4234492071494","44,9011399268607","-20,6672394924851","-45,8277996404726","-23,5195375712697","3,17118398410986"
"3453","43,6697044217676","44,4020202369284","-20,7134540407921","18,7241398750897","12,0625975198991","23,5784194923822"
"3457","191,371941080293","207,608057942355","108,729105540547","9,96766279670126","5,61599961284692","21,4713130881238"
"3461","151,550183394897","150,130654982379","65,0699479258788","42,2860505110403","7,22128487284683","28,3494012937953"
"3473","74,9559535092082","-536,44465351211","-19,3061345791477","30,9191429250549","4,96809032211443","26,6948433475169"
"3474","87,9720707270911","-301,467545360217","3,56827530675917","-148,870371406721","17,7329167230272","25,6495258893679"
"3482","35,3080191816279","121,868164893425","-58,6332763966422","-94,8968851677517","14,6713266447361","24,9891146956899"
"3485","52,129799717748","-0,178480763771967","-34,7325489276814","-104,739377015097","10,1774572527277","25,9400992699312"
"3494","-81,3098407389982","315,726991195926","-109,114769184759","-93,3685657745538","10,0868343373657","25,5409127863879"
"3494","-41,8358392461277","190,614123976867","-80,9750430227661","190,39441131754","46,8794751733973","23,9204950544231"
"3502","-28,9600152093712","164,915882102528","-74,5965901185912","104,194974964627","39,9960247075877","23,896746718182"
"3502","-24,7601155702263","159,637451113686","-73,1507813990405","65,5729725851933","41,3980788786741","14,3042065312222"
"3506","13,4337601095837","-194,982848280861","-0,116559700957268","64,2560186980411","39,0503378392627","15,2438266285542"
"3510","3,89202640984219","-70,8220248576014","-24,5618377106808","-100,718772684891","22,6102962051513","2,15526535995723"
"3523","12,4963623189032","123,373022483957","-83,3027446972378","-49,7878838231222","24,962114922691","3,88616748587428"
"3523","8,30296694291685","69,2607767038657","-66,6175902861881","10,6046867753642","38,3344868834273","3,61149821553439"
"3531","-71,7341641331066","27,6379039350177","2,77762837732108","-0,262867271420301","36,5555371221317","4,43796752466365"
"3535","-50,8410693661071","36,0885462574747","-18,4925051885852","45,3545855248488","32,6583733761856","6,32833421680649"
"3543","-157,845482321066","27,0567149989987","-90,7003337748088","29,5402084328695","32,8453478693291","6,52263104397116"
"3543","-124,748708248473","31,201572603116","-69,0677366165624","-64,793658795135","22,188848148667","9,3818229779584"
"3551","-113,953039630486","32,0529283078717","-64,1642595402562","-37,9927188704439","24,2312669263056","9,18820470760312"
"3551","-110,431655321133","32,227797170749","-63,0527847015222","36,748590939775","34,3901342027803","21,3798558956581"
"3564","-32,2875392009717","-70,0284578265949","-110,680735546049","17,7139629886362","33,1162085208477","20,0823034643291"
"3564","-52,7981069007579","-34,0319407815876","-94,4765990038287","10,8964389484293","-4,31124305794886","16,5260961454"
"3572","-59,4883447942769","45,1457419331962","6,72951343245788","10,0752987481786","2,27688287348454","16,2793536824749"
"3576","-61,6705995093594","21,408875267768","-25,3300209043973","-87,1849747480812","-0,797344530106938","28,4374420412145"
"3584","48,0893771603667","249,831250420807","27,6962147379213","-57,1657550000928","1,77247366077956","27,1186852685645"
"3584","17,8914264188674","166,749313899569","5,71571147300479","56,5584627629353","-3,17113745438652","30,3901789251603"
"3592","-38,8255119688994","85,0786619552198","-126,946331562574","25,937196081496","-1,47098771269271","29,4570448461487"
"3596","-29,325722005025","104,303471566321","-85,0169366851279","92,2710170469616","-20,632233127637","26,1310699386043"
"3600","-26,2270337713762","108,252256518304","-75,5127691965482","66,9905274269763","-16,5463637480322","26,02978382527"
"3601","-25,2162883963872","109,063338807931","-73,3584524000622","-106,118429059932","-10,0411992205253","30,0704517122573"
"3609","93,9542721514675","-197,646583940141","-21,4435836130765","-56,3603898982838","-10,0148882971168","29,6232669184884"
"3609","61,8259119636344","-89,6449465804866","-38,6760012393906","-70,7946860004055","-19,2113480487109","32,0771832687756"
"3621","94,8653174199342","122,766190676268","31,8977420850855","-58,6504665944845","-17,4896943511376","31,6275197846784"
"3625","79,6422732603802","60,3955383473589","5,89474559091589","52,0317415327929","-1,34091897994715","38,1845286257543"
"3633","39,5266291416336","-85,2157881617746","28,3738947684886","19,5978739709541","-3,82823961590428","37,3271189957267"
"3633","47,4415109559991","-41,1244232322444","17,4692604280426","-13,3262974826377","21,1059341380124","38,1536437979743"
"3641","60,0661165282872","125,856722436511","-98,4955730838471","-8,12121068579888","15,7057272068227","37,6758260565805"
"3645","58,1840724925842","72,1547284308632","-60,78140915908","-50,0526365974093","23,9369443375033","31,9010721496444"
"3649","57,5701781085168","61,124313560144","-52,2327112424892","-36,253624658634","20,7662436903781","32,2526951985606"
"3653","57,3699350176858","58,858661148664","-50,2949714528731","45,4117697997161","30,0346642911235","31,1066242936683"
"3658","53,9569885819306","53,0094964893375","8,66412265100736","22,2267471933158","27,3464879795446","31,3825590363256"
"3658","54,843736920287","54,8080753124491","-10,9715751219737","-18,6240562175728","39,9089536179021","31,5568892279385"
"3674","-174,179685041992","-197,86102931703","-27,8357182444894","-9,53638155230703","36,7532219412548","31,6670276447799"
"3674","-111,88367171572","-108,759382454218","-24,6583262562732","-90,2867603322553","55,2373063880116","26,2637329775834"
"3682","-26,2848634621111","78,23449350352","-38,1247384033595","-63,8573129426098","50,8364104435495","26,8500367333094"
"3682","-37,3638230013768","22,6431237283253","-33,1771801781631","3,8532667627158","18,0933735532517","21,7475740453258"
"3695","-24,2394617418403","131,462798616973","-111,855529569912","-13,0594543430085","22,8607672467278","22,5239375813988"
"3695","-29,9584930084542","86,8144111100266","-84,6896102316958","72,5321431381065","-2,54746187018955","17,5415509578018"
"3699","-31,8239547672001","77,6436112797922","-78,5318908530522","43,3959127496632","3,63220660770158","18,3937762107106"
"3703","-32,4324402625773","75,7599246737945","-77,1361159678348","25,2156163555227","-1,16682534734495","23,0368539920866"
"3707","12,5620880923952","93,3190098458651","-76,8197346242873","26,3591804382335","1,60058502852911","22,9702600268122"
"3711","0,238624744503024","86,9256542132578","-76,7480202270697","-11,4585641447654","2,88803044434422","32,5057237087175"
"3723","69,8667603329576","1,26627809834088","88,1878553471689","0,43932040441408","3,48697150243714","31,5300437880849"
"3723","48,5784082008911","30,6718018854999","32,5739943771958","-34,505661983342","-2,37352449249618","48,7004816422559"
"3731","4,81053700408074","-65,5804628182295","2,23466618687646","-21,8403870019964","-1,09992487346486","46,5484295750556"
"3735","12,5341174195263","-28,3507233381041","5,35762783574857","-61,7790001968322","24,0491083067161","52,0299024939996"
"3744","-217,606863174666","-81,7201012886437","-20,5344268098424","-47,4476555037189","19,7488575604855","50,4929902337984"
"3744","-153,675380621842","-58,6821966649299","-11,4033983200304","-71,345354606425","20,8178759422792","54,9948769988728"
"3752","-132,821895071162","-53,9502002007968","-9,33366122118077","-61,7290593462639","19,315201104843","53,8390813017365"
"3752","-126,019802545728","-52,9782458975605","-8,86451235551529","-12,3727046556612","37,0335317968681","50,3724331242053"
"3760","-296,204015730184","-190,962769746805","-129,344558859363","-26,1883225933776","33,2763944471677","50,1822723810384"
"3760","-248,715539769434","-142,304855957528","-88,6538616611632","-52,4061956225977","0,832844781078894","33,6434986142261"
"3772","61,3659389850407","217,636410584994","-304,64328514064","-46,4096799164548","5,73956492113635","35,1946237387871"
"3776","-13,4901585347168","96,5685163209293","-226,601770291947","-46,5407263287597","-68,7169140463411","3,33732652422351"
"3785","127,800604126224","418,058822864455","-153,938834722634","-45,575732276394","-53,3553086119237","7,21050713858024"
"3785","74,8875203049645","291,093083300237","-168,468272438557","244,071945356007","-64,6262338809104","-30,0208581464094"
"3793","-26,0626837095345","85,5543076887051","-21,0286849811458","154,444467482035","-57,8696561055484","-24,5429089822013"
"3793","-8,99111797531599","143,33654633749","-72,6084427444499","177,290196934909","-70,0742169362399","-38,8689008910472"
"3801","-3,42263066435975","155,205045380337","-84,3000652502281","156,392892879259","-65,7519819798677","-34,9197833223954"
"3801","-1,60627407381412","157,642840675639","-86,9502141215139","-110,853250977673","-46,8585895391436","-21,4790518786415"
"3809","194,822558363645","18,1648017279579","178,44846176518","-31,2417335220024","-49,0690685851638","-20,98745975275"
"3809","141,894681446151","67,515946812339","88,6065793399031","10,819083236737","-51,6322036056599","-1,52180852812242"
"3825","96,1755497719162","-238,196821812027","-204,850651870697","10,0546350005407","-51,8246167226378","-3,22378952847852"
"3826","98,2626584437577","-124,990368525549","-117,368823294645","-2,27968491958929","-19,6836804001366","14,8560049543223"
"3834","-31,6141343851258","-399,64123147101","-101,085909876579","1,42549342421591","-25,731181309596","12,2784666789951"
"3834","4,02201427781119","-290,054648123115","-95,3950496392756","-236,72132185012","5,22065395641558","29,8051011427133"
"3842","-21,1779431555809","574,121666757141","-154,398292482066","-162,336607443542","-2,38003657662283","26,878087150082"
"3846","-7,39778926631056","282,623888994473","-133,772601936955","-0,370850762492381","-2,84643777363212","41,4474906819259"
"3850","-2,90291086616368","222,750108101407","-129,097361140342","-39,1055320314798","-5,06341538138234","38,6521558318597"
"3851","-1,43674931278375","210,452005296145","-128,037620790873","241,67019055863","13,8573930991916","53,3047516791538"
"3859","0,715305556421867","111,017594627998","33,5755528744406","148,67277986344","9,65966845169945","50,5619761123207"
"3859","0,417273402735625","144,593719827748","-20,7914674375489","-65,0525071294307","-3,03666636445574","50,1973634671459"
"3875","-8,04901558936068","-162,564645784554","126,484751432703","-13,1441594151238","-1,94321285976912","48,9670083053213"
"3875","-5,81059139074601","-50,655118800498","69,8679627888132","-89,3875034725633","9,30896329921913","37,2439379533462"
"3883","-197,569185319953","194,861492345541","-127,391649037412","-57,7541084226411","7,54366312549917","37,8375306228609"
"3883","-145,117947026166","121,290719951298","-68,1046336871649","73,7300347356129","2,1180660565245","16,321039012442"
"3895","56,1105147147526","-426,816811428698","-79,4926107695261","37,8529118078227","2,59398790194102","18,7273390341012"
"3895","11,7482044997927","-242,398356617712","-68,073932104194","-145,018179147891","-47,8324554995172","2,46073907267115"
"3899","-2,72211212860872","-204,518719109873","-65,4856516186112","-93,8678631738026","-38,2916771455164","5,18381830198675"
"3903","-7,44211120691594","-196,738223718585","-64,8989641332731","-62,8755301462305","-43,0618481239577","0,0631092130307698"
"3908","-20,6984092876499","-3,11795671297233","-137,472478387149","-64,5966618586816","-39,2810111409023","1,82794502864656"
"3911","-18,0224138225626","-70,348262644877","-112,922771474366","134,224050187703","-37,5221027823104","8,41581186702375"
"3924","56,498319045582","220,924520744483","61,1082075779791","72,3342980159101","-36,7038293080004","8,57789771817597"
"3924","36,8058583679804","110,752087687264","5,55594055741894","54,069041771945","-51,6709882400631","15,5213978644284"
"3932","11,9705087733506","12,7494378175333","72,763682526673","50,1899108414795","-48,633959949228","14,9081659071336"
"3936","14,8695922415028","34,6196473598594","42,9977119724121","-79,0789585037655","-41,0819504327978","24,0982743612987"
"3944","42,5962708247528","155,76076807904","-80,789093307154","-39,6100776046588","-41,5686297786287","22,9044057397917"
"3945","35,6402952727457","115,643211350995","-42,8479416089698","-20,4025318310302","-31,0515577489422","34,464118253876"
"3953","33,3713609406689","107,403046297471","-34,2477922029711","-20,271690553432","-33,1588406114846","32,7673192867174"
"3953","32,6312687760564","105,710512513082","-32,2983898655339","-21,9696130692029","-41,8131004023935","46,745729198058"
"3961","-51,3008921053317","-86,6592843100996","-88,6030532909119","-21,4231728853686","-40,8392062492936","44,5770160988005"
"3961","-28,6782973255416","-19,1721312135586","-69,3656737185858","-139,112613646171","-34,2470011084613","54,1526213814853"
"3973","28,9153043395841","-258,34877173778","-6,48525724724574","-102,550562445545","-35,1801974415145","52,2023021417447"
"3973","17,7014687170956","-166,475766390707","-25,2321059284147","-111,845486095683","-40,2186859397878","57,8112259286983"
"3985","-93,080480454617","358,472059328311","-70,2680409184952","-103,328404970292","-39,5626747375065","56,3548346425048"
"3985","-65,2158817323793","184,296590062752","-57,4763701920652","60,1039826693115","-36,1879207189534","55,4347150173333"
"3994","-47,7577944170674","130,574871323525","-121,963383967968","10,7610771508461","-36,6179289213627","54,8534013740483"
"3994","-47,0632295949304","129,540404983235","-98,5807039067823","87,6897183758076","-46,0266759332072","46,2768217877297"
"4002","-46,836673023675","129,327925109546","-93,2805342219363","56,2393842455876","-44,4037818061075","46,8583059884196"
"4002","-46,7627736865028","129,284281643379","-92,0791407711149","-76,9287321869067","-54,3922677886075","36,2799204274837"
"4010","-127,081792655533","-130,94161442767","-74,0735275385349","-40,5014428655372","-52,0390778899253","37,5967026346284"
"4010","-105,28064546849","-39,3921360873766","-79,992181637951","-190,195131950749","-77,0356514976295","9,69601061191035"
"4022","226,550685425304","-1495,74864281294","-65,3738041888957","-138,182258260705","-71,6644740180912","13,0688972603423"
"4026","140,789061695388","-972,884955463917","-71,0602455722453","-231,726417342725","-95,2570295192532","-35,4242999441409"
"4034","112,814913281467","-865,488507732625","-72,3491955196345","-194,71452557648","-89,2326794236304","-29,0613566597002"
"4035","103,690167906443","-843,429226768252","-72,6413627741392","201,603153000742","40,9569657180017","-37,3553485625518"
"4043","396,979082642697","3014,10694836554","-21,2810403679613","84,4700413711317","18,5233577809251","-33,5953309719311"
"4047","315,645503964521","1659,4466962352","-38,6391574397072","923,0832833274","-7,26096379284076","-49,0066785613173"
"4051","289,115717073546","1381,19884219277","-42,5737348982764","645,098963856313","-9,2562597921061","-45,743267554785"
"4051","280,462100646984","1324,04660187461","-43,4655885315647","453,00662250837","103,389462320262","-36,8404106295164"
"4059","178,884331767781","-557,665204270867","-339,813729998879","469,693699675111","81,7941290834801","-36,2157591675841"
"4059","204,75119530653","97,8303041690652","-239,987186226116","-898,284686471227","116,256337072145","-37,1893360432777"
"4067","223,231466609488","-1802,60647526775","-87,9063933622719","-471,707737038077","103,288730417444","-36,8044229354"
"4071","223,25945243432","-1058,95708516422","-126,434125603611","-624,620345234825","115,67338380615","-22,8790474068867"
"4084","472,667027841463","-789,562180687953","274,47182051066","-511,467329604805","109,434930908361","-24,0812665954148"
"4084","405,020017985024","-799,228340381791","134,345472996569","662,45544048757","209,36318236443","-11,1586103137897"
"4092","-633,051169831058","684,714635746557","90,1696236284841","316,041125847334","188,851469887346","-12,9943279764884"
"4092","-364,654337649265","161,517222210363","87,1562506100629","265,093708110147","263,722163111417","-34,6773910072294"
"4100","-764,187526444614","-663,787584575039","198,192949673167","227,484311209899","243,55325705056","-33,3763275619519"
"4100","-603,509227848567","-433,305580735186","160,361721804491","-184,588839721711","181,987712396574","-54,4458529269766"
"4108","-57,3229413355929","319,313146282365","-229,479299297679","-62,6644296543245","187,346395254768","-51,7571683441935"
"4108","-174,165210919013","80,9013874117907","-102,844856904783","540,020227254421","37,895793283186","-62,3724852724017"
"4121","-88,4150814413916","1020,75584020454","-476,686271739022","372,013169897207","67,3688831882742","-60,0790355831963"
"4125","-134,44468227924","662,802387625221","-334,425186553731","133,052210016547","33,5019721790571","-47,6843228317311"
"4133","-527,741051945356","-318,78878178171","-94,6992373659115","181,219444959518","48,7465209070846","-47,853584925578"
"4133","-430,028396997786","-14,4080704594088","-157,36037607065","-476,535927120907","49,6994056166767","-23,332570542917"
"4141","-327,855769075709","-364,646020577704","199,061989195181","-265,239707989453","54,1427034599817","-25,8406716442571"
"4141","-336,528598564879","-206,585060548337","70,8525149364507","-21,6465677108462","-37,4119840057054","13,6213437605589"
"4149","-269,057311420731","595,763932987432","-68,1552364161513","-64,5764252881099","-19,0047500449148","8,55267585997866"
"4149","-289,049194991024","331,56679429036","-37,6642280180458","279,194980897838","-128,619715187327","23,1372436930622"
"4157","55,93092076268","-223,392691023578","-357,045389740785","166,025376186471","-102,614423311437","19,3514893529213"
"4161","-41,5417676237048","-58,3816307789563","-245,439758001579","-352,875579340629","-50,6119614426034","25,1690405145982"
"4170","-86,7264093673775","-546,716744152853","35,2173861681089","-209,487689028217","-52,4195497468914","22,8444559369801"
"4170","-93,4649581400548","-356,021006521346","-45,1658477695225","-278,623174948517","-70,1430866675074","9,06185327692138"
"4182","359,614730502455","198,198052613938","122,813195093661","-235,091083815547","-67,3883713420906","9,35427358066657"
"4182","235,402492699378","25,0349084833649","55,8891311430454","305,063952366944","-64,5720485366755","4,0661410563937"
"4190","437,589520327679","456,062994591996","239,332278927687","144,353586691428","-64,2618482436878","4,72520200916248"
"4190","358,539879850439","284,596366559715","168,913475276297","0,916943298460787","-77,9305879463271","-29,0639034531333"
"4198","66,6184815112417","-366,170598019322","-84,6745271027567","20,601238662671","-75,2895133964692","-25,411201632942"
"4199","130,398123416604","-156,838439155918","-8,15551042601681","-324,181048327288","21,0957254807394","-60,0454221362767"
"4206","-51,329543787897","-709,648558674061","-113,170605413398","-214,281476498679","3,9357445203854","-54,9266475251805"
"4210","10,3936315416171","-491,196017682299","-67,974456017644","-115,609460164501","17,439602208415","-84,5299733383675"
"4219","85,7626982015178","233,827458594683","30,9366515510124","-129,251566224384","9,72182179819385","-79,2327775293014"
"4219","77,3469512142943","3,74762222035746","3,35690673382909","229,274864306275","29,1531318411087","-90,9365268984857"
"4227","180,05221146446","554,090758531232","-6,44127327254179","116,046715148473","23,1929010260932","-87,3307276086678"
"4231","150,553118608856","334,131498026366","-6,66223410767878","283,348092801218","31,1635857152306","-102,839507314323"
"4239","63,9354656930869","394,833134485636","2,1543267710677","214,038696399222","27,8716810354618","-99,6376520196041"
"4240","81,6820934672762","348,301279214245","-0,847216740118564","-93,865570846503","60,1054655796435","-100,351221244203"
"4247","-21,3272043347752","-203,225443493423","-79,5540657566178","-9,11490881772978","53,1011592098922","-98,802040370694"
"4251","10,0727160561533","-14,5092921921108","-53,3946064497899","-237,742456856105","71,3296059253268","-89,6139811349628"
"4260","-48,3115216706164","-115,725669050193","96,1746469239921","-153,814895495398","65,8097830489687","-89,8091444127309"
"4260","-26,3555796089993","-58,5155605454372","49,0776221365172","86,9464482304577","34,0809860456428","-76,2502498372356"
"4268","-66,060704621675","348,04731904218","-137,15749141527","25,2601432229052","38,3202210332046","-77,6840045480647"
"4268","-51,0119176653529","211,55552606358","-80,3715447452626","137,014758063216","38,7576004424598","-70,3805058681338"
"4280","-149,879765221312","70,4602771597557","-115,379721164968","92,867358574626","39,961076631003","-71,7662977693044"
"4280","-120,128966211318","104,479246557189","-96,3150508575416","-142,466277364785","14,4296370494907","-67,1689361071848"
"4289","-319,651589146821","-238,480149225163","-145,193525117981","-76,330088677056","19,5519859663923","-68,2644126254607"
"4289","-259,732860036817","-113,924170705867","-126,272845659459","-46,5332554171077","23,4697713666797","-53,9060989124988"
"4297","-0,832717772874332","214,947006341977","-22,6776431486426","-45,5737365991567","24,2923904107217","-55,8347961953594"
"4301","-59,3833954642704","113,497301056879","-55,1956406405229","131,435690129946","-47,4597304177339","-58,421529035568"
"4309","-123,674750757151","128,551474369693","-128,179701759318","76,7195692829302","-33,8400125186243","-59,0557764208105"
"4309","-117,645621368919","111,643608660993","-107,723053813341","-79,9921881159076","-36,7125928597974","-67,66579851346"
"4317","28,2690865623428","-308,176365613855","99,0734041855593","-39,8540252825728","-32,0489650957495","-67,1054426363749"
"4321","-10,1357360387568","-162,407586130158","31,9481129337122","-115,775748338565","-49,8315511589728","-90,0111520973729"
"4329","71,0708344110998","156,463913999529","-16,9604830484412","-86,0564398497568","-45,1043064785389","-87,4825328336762"
"4330","41,5591931332239","60,9602703640444","-9,04663130324694","152,354567707905","-47,5094635064104","-92,7260979383007"
"4338","48,6710915661898","276,436315243008","-72,8659747306624","83,0404260173047","-45,6283826290832","-91,0388801585512"
"4338","40,9908855907882","189,695196383748","-50,3319533291661","40,2645621580756","-44,7532724634912","-103,655123784324"
"4350","189,129075375258","-39,8842147021687","25,7090201588291","42,8380024840549","-44,3461566338886","-101,625820578561"
"4350","147,449519025567","30,9600660933136","2,94528483989417","-140,159172488699","-41,0871928896535","-108,553063328424"
"4358","127,159015935089","-107,029445204494","33,2519967756042","-83,042536875792","-41,5710686569047","-106,929560264996"
"4358","124,540559798651","-50,3725558395013","20,1216419757562","17,1256302356514","14,9908078019531","-101,799204197458"
"4366","-3,52348715378739","146,108547401283","-48,4678075849088","-5,11681455277228","4,30433513121933","-101,557945240054"
"4370","30,7039518786523","83,4658585799801","-27,0150297301227","77,3181997160155","36,1676101192565","-98,6690835476144"
"4379","-8,34602602990722","79,5720184258984","-32,7922879156682","48,3387628277486","26,9909365307752","-98,8439570429325"
"4379","8,91646003245337","73,772221823648","-28,1018233759504","-40,847470221026","18,1174450653235","-98,9544387084643"
"4387","24,5901131527626","-42,2734289771417","-11,0786690216415","-17,671461651957","16,9893489907173","-99,0242388711273"
"4391","23,7026224489562","-2,10926032710392","-16,2200178142919","-20,1449077908893","21,0688899169099","-99,0683372532828"
"4399","-87,0586588860289","104,843452923639","-120,238507569189","-15,8056303890348","19,966760326678","-99,0961977515185"
"4399","-57,1873186271123","71,8115906166391","-85,8164569154471","28,6753465363403","31,7322979869906","-96,3773604852049"
"4407","-70,8771489947658","88,3566244106426","-65,6006800587752","15,5573868118842","29,205822137013","-96,6596520986619"
"4411","-61,3425652241994","78,7549821472052","-68,0183547063788","-22,6042390024698","15,7521967682327","-92,7333399583106"
"4419","-73,2968634914416","-7,56337755328442","-63,2463830955305","-12,7982141857737","17,4933460903098","-93,2527724836667"
"4420","-68,1961753207658","21,7067906949146","-65,1647166996092","-74,2950923918632","9,09465773340165","-96,3173788138989"
"4428","-66,5324077555787","-207,373641234826","58,5335005040839","-53,7225279873283","11,1874479757791","-96,2535373549469"
"4428","-65,9897118646824","-123,426869885569","16,5722684800794","-34,3640649555434","-20,0694012450241","-103,054301030678"
"4440","14,5304311697646","60,7135926840955","-28,4057005085447","-37,1929097041155","-13,6106082857173","-102,350890953671"
"4440","-7,20511238000062","5,53613045459053","-18,6008905849454","71,2224723611816","-22,8841368971723","-104,64292916461"
"4448","-56,1402959124715","152,127412253884","-71,3516336141","37,1830758647763","-19,1983369172822","-104,090994227564"
"4448","-47,1022148601687","94,2373306026629","-52,3086842312505","26,3573830184037","-11,3445080016526","-106,478731479224"
"4460","-80,9780608612331","-98,9078718570474","-69,2721555349395","24,4655553810056","-11,6907759342392","-105,987257330643"
"4461","-70,0278509942335","-37,5799874435855","-61,1172783402939","-76,5464742576854","-30,2692656088722","-104,308534050872"
"4469","-6,19871479603081","-26,7778106189707","18,7576807000989","-45,5294473721239","-26,9122885493424","-104,247949406078"
"4469","-21,3786130828905","-23,559038409696","-7,13700222861467","-2,58650937436796","-42,2331836137701","-93,2639172644174"
"4477","70,7512076159429","170,918848033897","-0,593264761189028","-11,1153197983037","-38,3607192654539","-94,3244198691318"
"4481","42,8025658515742","102,864697538626","-6,10999086531029","64,5857253377729","-38,0939676684916","-85,4168882913567"
"4489","150,853195929574","-99,5466075658841","-117,306884667884","39,8074679653386","-36,9698703811271","-86,7892834750938"
"4489","116,097682106033","-36,1219850014339","-80,5119682613502","-101,975603065311","-34,9121382554094","-82,183458028042"
"4497","270,468650469884","-73,3433244515345","-3,01179621879809","-61,8495949788164","-34,9548469858072","-83,2735872919823"
"4501","221,822132505284","-52,9886051116026","-24,4447739033303","-59,7952498942244","-34,9747157987759","-73,0165537669864"
"4510","318,099982242795","141,419813888623","22,1235450942943","-54,2464802240812","-34,9839591016114","-74,5363599263204"
"4510","282,504365000428","75,3513947477542","3,67922100396748","78,9341409289711","24,8682909649189","-65,9190073811464"
"4518","240,764939989975","228,67866651035","1,27176143063373","38,5101919477555","13,7125549187376","-67,474732021219"
"4518","245,150168963353","167,172160371287","-0,273939242457936","-76,2605293196409","57,6357874746484","-64,3529500440446"
"4530","-12,8607728032177","-1126,80536856415","311,481643183513","-46,9188112822941","46,0696070826377","-65,3806690437837"
"4530","57,9799486816772","-678,588962671379","206,147515646889","-276,484558038738","131,241044232221","-90,6579127486115"
"4538","-357,452427058578","-378,351556375607","-129,834597866039","-200,807614261661","111,864215870429","-88,6275825918329"
"4539","-230,96020349136","-432,682651664123","-29,9919163612678","217,968633558567","150,428075967539","-110,604590957139"
"4546","180,212784971099","614,971437783847","-269,813229243913","99,8347971859775","137,368626212994","-107,489236444362"
"4551","93,3312135035115","240,160081363845","-176,173706699641","456,441839917399","80,6453024248592","-138,358284022985"
"4559","-227,925883895551","-454,168585761746","41,8911808117761","327,700971734266","87,2566671080733","-133,860746552598"
"4559","-157,715104654347","-252,784021125714","-19,6798870430188","-259,475803973005","84,1932507590006","-161,120118895491"
"4567","-812,708514431038","-322,684707454538","-179,049245620972","-97,3261831704478","86,7680984325767","-156,342058974594"
"4571","-621,35748769368","-275,042341360531","-133,173618054668","-36,6830128255674","101,779010518228","-147,8504958833"
"4579","-209,114316633362","684,086573841157","-53,6151143803308","-30,4836250809275","99,7623369234314","-146,485691848318"
"4580","-283,646810675401","352,092104921897","-74,5815284849996","470,240010595767","-70,0020204784095","-159,305630193222"
"4588","-286,198590281207","542,322616738742","-171,54712221745","315,99647947928","-38,9792280552828","-157,405017340384"
"4591","-300,030942308931","437,396053493965","-141,526386315023","-238,136634741242","-85,9382416801909","-152,0995887096"
"4600","144,039594364947","-1007,27333840732","-62,0150643698736","-90,1601818010784","-67,7843572218703","-151,747722319428"
"4600","20,8887070436681","-511,009112166948","-84,9921731926016","-248,179372469902","-116,125851230386","-128,265688611932"
"4608","81,1476494326098","315,94200337357","41,0259525756479","-176,390459492244","-101,615119680592","-130,430197450984"
"4608","40,8032077620887","81,7981521276837","-4,40942402830622","440,627664566253","-96,399268932972","-78,4371317154371"
"4620","272,020460879673","1058,42122573429","84,5981428271433","260,449453734764","-92,9727682617523","-84,5889262849138"
"4620","201,440042194273","688,020065193855","48,773554984121","226,182098235114","-53,0091195944151","-48,7971448797311"
"4628","221,936966008443","-518,658210869877","115,132997095039","209,028385202545","-59,4173643836403","-55,1845950773827"
"4629","202,622753472217","-136,510497305782","88,1747417735467","-485,237542541573","-62,3985866299807","-33,2238912345141"
"4637","45,6793914329648","-634,083625648208","23,5442285862138","-272,694254277763","-63,7855008903439","-38,3495466267438"
"4641","84,4868333711897","-415,285380643772","41,8943815278275","-228,0484606444","-19,9219996930975","-18,3281044079988"
"4649","25,1711873119473","119,581553342715","-161,425697454425","-209,122393485956","-28,5159681083675","-22,6789474923093"
"4649","48,8233180207312","-43,5565264112701","-90,5124127549131","282,870757734221","-7,95749198533879","-30,9006033139899"
"4657","-40,5429882195313","-89,627361557964","69,2012238977108","133,295084315389","-14,3933463597092","-32,0948851973332"
"4661","-11,6929297113339","-92,0903328035959","24,4036341016606","-85,1465045541994","-6,64392967494277","-52,0044821131825"
"4670","-20,6944415469488","-429,980939680764","-28,3105712275167","-40,49800526779","-10,0387719169819","-50,5829773467038"
"4670","-12,6305989689698","-311,383829532158","-16,2593398167188","-163,735361346973","-8,54854241365622","-81,1539466838063"
"4678","108,840575528961","73,6905780678383","-25,9409828568547","-118,655304423787","-9,85526281938457","-77,4680891908679"
"4681","77,4626409194179","-48,2149571814183","-21,1355281701615","241,694372866185","-27,3457876484253","-107,976704107444"
"4690","224,566249292742","321,557484787907","72,1668487299567","136,953260930221","-24,4826712156977","-103,251452307092"
"4690","178,549228087758","177,508918588514","41,3157687115876","58,7208154053077","2,94061500839602","-126,262300696129"
"4698","-119,335578757406","-422,761374950766","-112,863596354314","66,8228690733101","-1,30161532954432","-121,800106157694"
"4698","-47,5011107811675","-228,05717606404","-64,8115490531829","-166,683677683872","35,0944119004612","-127,190295587942"
"4710","47,9042578618517","-132,432256482667","-135,49270071763","-93,0594253619589","27,0264501769864","-124,595712198973"
"4710","36,0240504430842","-143,790852946501","-105,514050552707","99,8949178680832","6,39048323511736","-133,90226093411"
"4719","-257,421102831044","74,6118280361129","-348,758191259044","51,4381041035581","7,79028758945698","-131,78195701235"
"4719","-180,138486807916","-3,52815838855913","-262,894523673234","85,2816021067949","32,9980333152522","-127,705951339667"
"4727","-518,147935110882","506,23951353538","472,993274462071","67,3220916404307","28,7250966234751","-127,130810409273"
"4731","-411,401520116602","317,946033528107","235,797515418149","157,832685117285","-23,910594892164","-93,9301797485083"
"4739","-135,553077778134","1442,17095871082","91,5923826040678","127,010448093571","-15,3975955700684","-96,9546684771633"
"4739","-189,575475557975","1025,08728802746","109,90529663529","399,502550904622","-108,128556778038","-56,4506772163301"
"4747","129,24006390949","908,909913567707","-501,288950244685","310,292367229935","-88,2685449605363","-61,8610450823215"
"4751","32,2328852885957","902,047026116131","-292,828810106297","-493,331171979298","-137,351103433664","-50,2287956126389"
"4760","422,392006494003","-1461,05559416002","-148,043884662962","-258,00018150395","-122,185127419986","-53,8797671452139"
"4760","297,656028406848","-630,437985752185","-170,225376662619","-1137,82035145339","-142,755762786503","-37,0313068889829"
"4768","238,557067442298","-842,078437279638","276,945685967808","-828,843487570961","-134,325565094794","-40,3867781262501"
"4772","230,279877561456","-672,549485738818","123,306287228758","620,929692093892","44,5616039296451","6,74920230252128"
"4780","261,056284629652","2389,76124594371","76,0674243709918","219,20228595084","13,7828954722544","0,528795915421985"
"4780","251,095084520898","1331,76131305408","72,3597557799587","1250,38831579639","48,5771943160847","-0,664696599507992"
"4788","20,2070404369142","1541,5623162218","-56,1603700698531","868,845259081582","32,7640818603081","-3,41872190568279"
"4788","80,8948421447503","1346,65554112123","-13,2921237071322","-908,763774250081","56,1032252489361","-22,9455148189806"
"4800","47,1282053714152","-3754,14907365883","180,851095694495","-416,609957679296","46,9609836163595","-22,2821619456909"
"4801","68,114037641674","-1981,85674480387","120,857685328291","-1134,25080974845","48,8469938406106","-25,9677270101098"
"4809","332,726821922156","499,800378604386","-54,1140276670767","-835,951579314882","45,7243972205215","-25,296195175064"
"4809","265,039521912478","-170,466079002579","-2,77499751728018","1148,16015989874","45,8064965845842","-42,658787860948"
"4817","-341,20051741988","2146,87303026567","-335,163814936546","579,168654003256","44,8446905766373","-40,6281354707485"
"4821","-189,946876422515","1254,8555751351","-216,506638302282","519,01834357965","88,9059592158106","-53,0274038042119"
"4829","-405,07300213522","-2384,76392298275","58,6555678650137","449,950611698697","80,4039955096094","-50,8610198382694"
"4829","-317,243900337324","-1206,34348272081","-18,9732078045397","-1131,5512454841","67,2400403072418","-79,5931695240791"
"4837","253,720714020249","-818,932807235959","190,416762879577","-652,012037980176","67,1159490170475","-75,7455816195784"
"4841","115,960761333679","-820,358471960923","109,879345099696","98,1871585605539","-58,7940140830788","-86,996945512643"
"4850","-134,853712659222","1508,73888427377","-364,121748601053","-60,4148806902419","-35,3694267547572","-84,1053378973659"
"4850","-93,6656119060582","689,136578610064","-214,563933194208","1056,51082098673","4,68896499024088","-71,3327206281052"
"4858","415,218589008649","1306,82447250122","97,7491412238463","685,871088441756","4,32479625929685","-71,2632300141044"
"4862","285,208941601775","995,697856933155","11,5413808165783","-406,073155271588","19,5032122839987","-69,8511077057526"
"4870","-138,828083032865","-2011,35092379928","203,02678334701","-124,760217455885","16,5644643125003","-69,9589563578461"
"4870","-49,1425661807532","-989,000160147573","127,430923630614","-668,25002276634","19,8016598082453","-48,135581145832"
"4878","-31,6052085577749","468,237840939414","-260,330259505197","-456,430461740969","18,3076570891067","-50,3479980900875"
"4879","-18,8847869566378","72,5552129475435","-139,224378675396","636,410573535258","6,86913876184084","-14,8038336776198"
"4890","266,465356115972","1209,814894816","-92,2665958134512","330,337192361641","8,5477494541548","-19,3477234644688"
"4891","191,542269834227","764,408569297281","-92,6226398365826","201,789343277746","-6,0191662696615","-7,16805003464745"
"4899","-222,895424639757","-1448,29474291452","136,056128324767","194,450827675629","-2,79593816973399","-10,4731697801459"
"4899","-125,078751042829","-720,785045768896","58,8909167837966","-670,480569018855","67,7688114824334","12,0666708654968"
"4911","-1,1125977717228","-393,688857849744","20,1198692472329","-403,526521726864","55,5967087288367","8,3069028161421"
"4911","-15,6767079286163","-425,503146738169","23,3316067270553","121,796834762116","22,3079436288481","8,66799363775877"
"4919","-73,9893835871848","779,316865305114","-167,459945051987","0,12453687077019","24,8214554665746","6,89612378011026"
"4920","-61,0100990580443","351,787463435688","-102,706809663654","471,888899007588","21,3864330363654","5,7766909431195"
"4928","-33,3430410527077","-303,120728255919","-22,4159855810527","306,909583330242","22,7884033695156","5,06945509782088"
"4931","-38,3184639381787","-121,639179392596","-41,216404067712","-277,817320321391","11,1623566185781","-13,1642161321767"
"4940","127,440136098822","-394,828502240341","92,8417722319729","-122,013274179123","13,7537259637122","-11,683894186208"
"4940","81,5080918656316","-277,941717867764","45,2288399320865","-224,222424913702","-0,388559226966219","-17,5897531017061"
"4948","-23,8602626243853","237,787153617698","-112,749946803696","-168,525180597213","3,03221407192039","-16,3209596415685"
"4948","-4,22983095155549","69,7181068090107","-65,5591172715274","231,050974029954","23,0410148685502","-22,3604581310885"
"4960","57,4092174672088","297,208176619328","0,11087024206644","115,788287160289","20,349442373973","-21,1760955487808"
"4960","44,5149455722366","197,934744141434","-16,0036642718133","-5,11084242909934","26,771194697054","-21,7960578490739"
"4969","13,5279872471114","-454,155099816158","58,3701289539687","14,5938163631449","24,7587008731987","-21,1877379454697"
"4969","19,4205087108734","-236,09466100039","31,2284926304511","-170,758653698817","23,8224552153568","-16,6987548093356"
"4977","9,62585479891784","7,89560357442194","-63,5901848741695","-110,271179427347","23,3868981361561","-16,8627027677059"
"4981","13,430986391821","-52,9886811246966","-35,0828058548334","129,427320777553","23,184269725917","-11,4934039199374"
"4989","38,1055740514638","271,890369535048","-48,1276385233691","64,4571022771879","23,0900036133987","-12,1011855716974"
"4989","32,1540524643368","150,620679608924","-40,0845205605327","102,553803352736","27,6504994630193","-8,38051169276637"
"4997","8,45315983472639","3,67906019982171","-4,56812525690833","80,7304354286111","26,7721181165533","-9,02986246317973"
"5001","13,7222860577662","41,4971823409242","-15,5175972074844","-81,0577908161602","20,2243471247451","-2,59901215709271"
"5009","-29,7520115722122","4,40005422577433","-26,8661684914764","-34,2756864926491","21,1782149642598","-3,53612629031705"
"5010","-16,9326718862237","21,7802866324279","-24,4385576841752","-52,9706804897948","29,2958868689358","2,71292073251926"
"5017","55,8752216710496","-28,4877913078156","38,1782343469177","-39,964605690624","28,0723630908498","1,66094682882979"
"5018","38,6240586390895","-8,81287820079412","17,3716297155016","-17,4287302848412","22,8988094278826","5,10098870163451"
"5030","-82,4962510911612","-24,5122365959755","-95,5177031109255","-22,4088045160034","23,4919860651722","4,27434010011218"
"5030","-53,0038696852835","-16,7368922071758","-60,1064131314821","-42,8007238175709","29,9070750743591","5,12029912054437"
"5038","-45,0577146821062","-164,091593700466","-66,2663433650123","-37,2479424531544","28,89148136586","4,65475953936831"
"5038","-41,4657987445192","-111,358318814081","-59,6626193863705","-16,7030379949246","13,0711768655417","0,255982227726556"
"5050","40,0489538882893","19,7112891257447","21,6340678348177","-22,2149529953655","15,7113076234164","0,476920467628281"
"5050","18,6378369912433","-20,3669516493236","-4,93835089731001","68,1549736858576","7,73084040873942","-2,1199340451665"
"5058","-58,6463798116855","127,531117821938","-53,5214429870566","39,2951608567845","10,0181940946366","-1,760576105847"
"5059","-41,8553259215135","70,9094509742393","-40,5338090296301","43,7160605365881","15,6866591556237","1,20289822126224"
"5067","70,7458277471702","-14,2992467565033","-71,2831479699283","37,896999258723","15,3237235466145","1,07516353410403"
"5071","43,4746260990576","9,19884658310449","-59,2531237662854","-45,1024875712982","13,6200965156943","-5,84663421634445"
"5079","118,269925336468","-145,693992040909","37,4601809902046","-20,2738361686619","13,8275408360821","-5,2196911084257"
"5079","92,667024068183","-88,5090540728056","6,38225855574936","-60,4290385504259","18,5283974060117","-7,56003965986307"
"5087","-6,07027054102949","-100,093034746178","11,7511072240407","-44,1555505326874","17,715314205241","-7,03862625423047"
"5091","15,7231128715132","-89,472389834338","5,96806819172033","17,3763576496345","46,4979377863428","-5,34098793545995"
"5100","-34,077926798485","111,909643336326","18,8438563625802","0,813150674212352","40,8880938353594","-5,26845313773639"
"5100","-16,3222749615217","42,2736078317176","13,7624209562503","58,772133919083","30,604384268502","-9,327285545477"
"5108","-3,83538876135748","10,0243380412591","-24,6293060286437","38,2545046053315","30,8202312369","-8,89157674183894"
"5108","-3,76235477950096","13,4003228318966","-12,331587673937","8,51347418378786","33,9902135200938","-14,0891823850032"
"5120","38,1068447928355","30,2451474581111","-78,7038952531392","14,5688617734574","33,4649420946097","-13,3729283133912"
"5120","26,7639463246022","24,7050823728576","-54,748556157024","5,78917325892819","30,1510103985316","-7,44753498086425"
"5128","-89,0815464398355","113,297126836371","-175,224957990579","9,44388725697318","30,6093141587419","-7,70398697710754"
"5128","-59,868599281581","81,4939745097552","-131,533434652221","15,6187786067469","32,3573080425687","-1,02491088427842"
"5140","-77,1208177095001","-136,801152366062","75,2097022935133","14,2682546926299","32,1705039213674","-1,8052008041061"
"5140","-66,74823120498","-63,6390742771797","11,0723247184213","-69,2704418019322","16,7357661458631","-6,40283124427739"
"5149","42,0855001105593","-202,947108447726","67,4674269804977","-43,58582749996","19,5552689682064","-6,30752453473519"
"5149","14,5854221018884","-145,561044302023","40,2505472473408","-47,1220326538459","5,51911527215116","-11,7201895854888"
"5157","-64,684921996853","-85,3197324099515","-102,465075420167","-42,0666461710255","8,98926271063679","-11,1398058554372"
"5161","-48,5417128806673","-99,9461385643292","-57,8145330031697","59,7904533427815","12,1384164551592","-14,8777892072357"
"5169","137,495987092194","101,633937008597","-74,2934996667044","28,9991668744914","12,6034552464522","-14,2393742243664"
"5169","90,1786794583596","29,0385795067213","-63,0287994406871","72,7602134128762","3,61109900882273","-20,6771335478523"
"5177","-8,94626674559331","39,2518522760068","-65,7954091063235","54,4499413237848","5,4277050617447","-19,7443843971431"
"5181","8,72067056235704","27,3496633148518","-63,4225186010964","21,8328068112919","43,1076205909455","-20,5233111588177"
"5190","69,719256727911","85,9213320751881","-16,778093289586","29,1199112604484","36,6369450956456","-20,0154219032189"
"5190","56,6160757038248","63,9519804348915","-32,2051663044746","34,5322360866607","30,5571123674753","-19,6945473718205"
"5198","-14,610587538185","98,9206548915979","95,5243317617109","33,9780105730726","29,7286728837456","-19,4918250976924"
"5198","2,15634897837092","84,1032371006687","50,4768732043309","6,10398367933804","47,7606690960265","-19,363749116565"
"5210","-320,442284759795","176,173507533901","13,6659931625322","14,6580970759796","44,1494541724589","-19,2828332082747"
"5210","-229,669094442641","142,084784460249","20,3220432834115","15,2102523572465","27,1216234361819","-12,3906146496762"
"5218","-365,767941455683","75,8611602279633","-311,555123357757","16,3577475730412","29,1999928699991","-13,0362453144183"
"5219","-311,161333041836","95,2587966090651","-198,781970456607","-115,034124893041","-23,5505318914795","-13,4441421831194"
"5231","12,9586787374556","-571,937143527022","-215,77949696723","-74,132354033563","-13,0909549086322","-13,7018434736281"
"5231","-64,3182610043813","-334,979503983628","-195,632339091966","-260,7540119348","-95,7076357245511","-28,9150685486757"
"5239","-104,589169162575","-135,56193275467","16,4139543022274","-196,605571157328","-77,1422921504962","-27,5264875995876"
"5239","-108,724932136565","-178,601469667671","-52,5213528100876","219,091109926139","-68,5053849950476","-30,753867702593"
"5247","-11,318865959724","778,052735690758","-112,480201934386","100,134640182462","-64,4873518832829","-29,7928635403288"
"5251","-38,5464760125793","436,549960203721","-101,071119384195","432,261704546344","-100,987679398347","-44,2361342665483"
"5259","83,1298643732897","694,816842996618","-52,3784536221529","310,981589498298","-92,9682399052716","-42,3611111685963"
"5260","44,8188517825822","564,864982405993","-67,3412504328264","-47,1957722644889","-110,724429778187","-42,5447276181556"
"5268","228,158741495826","-477,570524313093","25,0269005198579","45,1256223534063","-104,984905150224","-41,6607329117504"
"5271","170,961448837072","-125,687268541817","-8,03594119701751","-299,314992970277","-59,340849184199","-32,8929253299165"
"5280","542,303468016656","-166,470052332108","271,749017686977","-178,324151642203","-66,1064738544805","-33,3535954106486"
"5280","430,429635002126","-111,846855337643","173,168084854322","-59,3606284877972","-60,0452551444001","-19,9624428577398"
"5288","67,5441371675137","60,8867326570654","-65,5234975680977","-77,5823387300725","-63,2254752120216","-21,5021737086427"
"5292","144,176359924228","6,36629301545939","2,37210182971132","37,1184456133283","47,3342171426517","7,62588319989538"
"5300","185,910786203468","-151,989392339796","67,4152673664984","-1,24195441810017","25,7684281063932","4,02842176129217"
"5300","189,523926719348","-102,515724721827","54,1586506434547","-89,4683424227426","37,2226304705378","7,22849372175176"
"5308","168,942882636928","9,93836306083529","29,8738123852431","-68,0359339663288","28,5513162534981","5,25023680734497"
"5309","175,229656410146","-23,9635143253084","36,3691498230066","86,7163620432022","47,5390264822633","2,63219315799165"
"5320","-55,3799888443419","286,717140692119","-112,891533190085","42,0547754733524","41,3724256427071","1,97816421387344"
"5321","8,3986223635465","173,53109361142","-61,7245645267542","120,233920264893","87,6166870227663","-5,27613598906472"
"5329","-169,981750879826","76,7040455302325","-142,339630107088","89,1176285674134","77,130287911362","-4,85926144915631"
"5329","-109,166738735882","97,815724233816","-108,612707684711","-108,077581996154","76,8561903423137","-22,3827416500717"
"5337","-137,870436144582","-321,373415821034","-30,0346308996973","-51,7536155731951","73,7286755863405","-20,4537348556876"
"5341","-118,233149400432","-171,475062691329","-52,2232791051366","-83,4955899318819","32,3693368097128","-30,1807819091948"
"5349","-96,7634268699974","-117,356076458154","-30,6528579781788","-64,9747071596341","39,128283305931","-28,3261406282042"
"5350","-98,7603271343452","-119,240011187432","-40,763474389672","17,9520233416128","11,5769910577465","-32,6272923914379"
"5358","-236,664522411397","-69,3781854607894","-98,0284620924841","-4,89606319236628","18,7596708605189","-31,3446762330674"
"5361","-199,646791377428","-87,1365429638921","-80,0087599467643","32,3224528879288","6,75333979243925","-37,3754418112898"
"5370","-85,4694458722993","-119,497710423488","-20,9510138290184","17,2644986259073","11,1677945371658","-36,185561945855"
"5370","-109,226517511629","-110,144709466813","-38,5643500757813","32,303732845986","-46,6350777695634","-45,011355492259"
"5378","-13,1991811022445","186,090724066993","-88,6633386919027","25,3211083414952","-34,5259370439999","-43,5873198136215"
"5382","-43,8765120146183","82,9376216876206","-74,0193141408159","117,031043451815","-30,4273463617013","-38,5829833515748"
"5390","-18,7328780872885","183,78269381927","-115,033173263844","87,5291821612346","-27,5206136879969","-38,4213411244194"
"5390","-31,5314038549032","136,496319148763","-99,3298155740332","48,4567321265226","-41,5161866038266","-24,6370237861256"
"5399","31,2465132177619","29,875300954599","-1,78387355206408","56,0194518087925","-38,0271603102471","-25,9283607895861"
"5399","11,7237231040643","61,9752935824997","-32,6730614709968","-49,3985139358048","-45,6127071779177","-7,58912943423296"
"5407","3,68186828433392","45,2388533173542","-66,2746756531343","-15,5584286077473","-43,1416299666634","-10,0027605506863"
"5411","2,05873650969762","54,8011806014371","-58,8911788248853","14,2756333087583","-28,1789936290464","2,1545492889369"
"5419","-115,637760167659","-111,927068580512","-135,244042932942","10,2450968812358","-30,2181259061705","-0,164699336915126"
"5419","-84,0285825734909","-52,1731295173199","-108,551004095552","-63,6122595305655","-20,4232808461762","2,47470306942233"
"5427","-45,2632891421115","-310,884171135984","188,325523694757","-41,3415043491429","-22,8665557283388","1,14222605985672"
"5431","-49,6186349880142","-213,023540977439","91,6187496474353","-9,39929417592169","-66,9771413924492","11,246149003253"
"5440","69,4754026013827","1310,95148373682","-347,034220760748","-15,8666886892022","-59,4981207879399","9,62961056304991"
"5440","36,3220817784326","785,976671841464","-211,464019647851","367,103653895456","-28,392655697072","26,395166496816"
"5448","-89,9852720258399","554,31923064338","-313,733913708321","247,405117340469","-31,9218750758977","23,9873179246699"
"5452","-62,1848261786125","575,736683074749","-261,915507552711","-113,815510491408","1,73629005487546","27,9389641050252"
"5460","-409,639351905846","-842,981588479053","-81,7035119234027","-20,3070523803428","-5,60537073380477","26,435537132307"
"5460","-309,973778739836","-341,386989892307","-135,854723265271","-735,265536421445","-22,8338837024295","36,4314572213123"
"5468","47,2557537477156","-1180,52397565749","353,722957954873","-499,249774851512","-21,8488749867495","34,7466846830054"
"5472","-30,2213596157923","-827,883107897179","181,695899362372","-32,4441855206956","-148,777649623564","11,7907663464738"
"5480","93,4763164051496","450,52037587316","-243,883379414328","-140,748119996254","-124,827030396946","13,2876646213303"
"5481","44,8246330177691","41,1050537656864","-122,349754781419","443,758325035368","7,56308046698194","10,128717293315"
"5489","166,208024065526","407,455435446879","-46,9217469496872","245,895388590253","-9,84683415322159","11,1329559488573"
"5489","123,801455818271","231,703976451983","-56,8244236551818","182,643745847568","-28,6896998783943","2,18987790474874"
"5501","233,831388614796","385,832094025844","-149,508862458438","171,747566435326","-30,4557149624532","3,53981552396397"
"5501","195,721493491042","311,490081993736","-119,517713946657","18,0769009925144","4,02272218371483","-5,18485665360842"
"5509","375,779354530143","-348,041033159645","312,879421655652","64,0274195698284","-2,93733439651546","-3,69693446530271"
"5509","319,511513609402","-124,509034953484","170,891205759815","76,3020131187461","-6,17526868199386","-2,75689423080882"
"5517","-222,746327504625","-13,9898741653133","-231,919182711183","79,5808802883871","-7,68160966014861","-2,16299513486646"
"5521","-86,6226582712603","-27,2891864677761","-114,224516579178","-122,289466929838","103,65679913613","22,8401696111969"
"5530","232,284502995214","-12,0748761922877","59,6397495005667","-59,2143526199406","82,4532819630203","20,636681710894"
"5530","172,307210023542","-18,9498496934051","16,0496935250565","-0,776360604149058","29,6151190130755","8,29880506403163"
"5538","-24,680876945575","-691,54219627777","116,115516080975","-9,16603406122119","33,0339252504725","8,50397510085998"
"5542","17,0645795769993","-455,692981161396","76,7975113788731","-151,769903759252","76,0635610161755","7,26537803774015"
"5550","-369,360486020761","-30,3835401975076","-233,580702409252","-108,863152611298","69,0816645087777","7,48285655724228"
"5550","-256,406515302274","-153,024780636887","-133,934365687022","138,269189151408","107,272720067231","24,0388891626376"
"5558","148,676684152153","654,478832177955","5,6922747765448","68,2847454900269","98,0398354298529","22,4986678358666"
"5558","60,8087153414289","356,340454709428","-28,6584495610665","49,590057654345","93,7445436636695","21,5255860251579"
"5571","-182,10082125764","734,779576075071","-233,284300568387","44,5962142373051","91,7463023684245","20,9108119054427"
"5571","-133,334249129515","567,51114990703","-168,666996196385","64,0567111536315","27,8905703421632","31,4681655444589"
"5579","66,6923300712771","-1004,81765985746","168,725779855588","57,2551223425273","39,1838198770238","30,1380957790209"
"5579","21,9379838955766","-470,774738193547","63,2028542900602","-438,430756097498","-12,3493558057355","32,0342226142904"
"5591","-228,66813516818","-206,74651098615","-114,995751186309","-285,841507361433","0,676552251283856","31,2321585876"
"5591","-169,412072179029","-238,514988719551","-68,3881631834049","91,0965904869096","35,8973051426149","55,3533810443029"
"5599","37,3836509229189","571,502536610642","-109,250134316366","-2,21331748712429","33,2825862150613","52,5926991972893"
"5600","-7,16270258787486","282,880517957211","-89,5123480615516","315,970134890293","-26,2555914613659","54,9532126993577"
"5607","77,0620383294209","-291,452645438425","30,228031889185","202,965313896879","-15,95374370642","53,4445391164583"
"5611","45,5348787453682","-122,420947799788","-7,63032608320456","-239,645182232809","-3,48723579456071","55,2278275413813"
"5620","0,101078033889898","-599,162623185541","70,6814245546124","-119,878101222303","-2,68760860436604","54,3544744065938"
"5620","6,28125736311977","-412,085587928964","39,4324080009786","-214,384937656931","-0,780825373980987","51,0662679342998"
"5628","-95,4793962661756","205,995771071963","-121,930474628832","-166,63020236221","-0,893758045508961","50,9888431821363"
"5632","-66,6721869750874","9,94997342283016","-71,5067206594822","324,399476943616","2,123270471259","52,3081472259677"
"5640","167,015510955716","570,872916380855","-5,10392373094919","179,566434804895","1,5268424052081","52,1416578036573"
"5640","109,240914115189","351,086753146041","-21,0523517833084","59,4326529654923","-9,49410923858227","34,24961962293"
"5648","105,460047556747","-650,578977210148","48,0391051765895","74,3417562960248","-7,62123956786584","35,9457786699721"
"5652","95,2267858991529","-323,321590165052","22,7001177167461","-306,373583564002","5,52831731632181","17,862305990555"
"5661","-105,621329127579","-180,729588465567","-110,723195458543","-186,072676399204","3,64571026900252","20,437520452959"
"5661","-53,1349555499091","-193,441124133568","-68,9663582565182","-153,937136154332","2,76989010370198","22,0644907516323"
"5669","136,388261233932","476,922743768024","-0,981439378448712","-145,352887114422","2,36244397040544","23,0923788717907"
"5669","95,207876623811","239,61579808025","-18,5712466579658","354,274934149405","19,0555099650605","27,8464370284974"
"5681","-30,370154184217","-164,45786708368","43,0548406473653","200,738682146639","15,8214023957883","27,8499583010157"
"5681","-4,33181417347797","-49,4547882896488","20,0236722302593","-195,513995543884","28,1298917170824","33,3250609443807"
"5689","-24,2933566608173","-388,342206547793","2,38987522176103","-96,3635204657371","24,8560060261337","32,7841240682444"
"5690","-13,8045108090897","-255,949841926492","5,39280918448006","-192,911847918768","17,1938065007925","37,9152486664159"
"5702","-110,812112232401","-65,4478307310603","-105,646256107236","-147,702448634618","17,6292236185571","37,1569931664929"
"5702","-82,4545289856137","-117,318627875558","-67,8155645933798","134,702464412459","13,2274369006338","39,4143811083353"
"5710","10,4860410274151","193,260401615049","-43,2804900529493","54,1402533905737","14,1796523794833","38,8405548067124"
"5710","-9,1981465363987","78,0534806032596","-46,7191062443203","32,6199653435091","14,6226388854964","38,4780225349471"
"5718","-42,3998729638205","-155,578220127744","-26,2185889939179","26,8713297021311","14,8287235888735","38,24898171249"
"5722","-37,2297754573192","-86,5662815346188","-33,5717213222085","-90,7668179162956","-6,56236911371591","27,1585222414998"
"5730","-69,0196692044671","-115,461585524558","-12,1851811427163","-55,1910649666144","-2,51386184472317","28,1517861341324"
"5731","-59,3890531674632","-97,3966945782561","-20,3374779869412","30,5585968065308","-11,3739121794799","26,0428719137837"
"5738","65,9408093656636","71,4169991872234","36,3344999204327","9,46458955287106","-8,49575521613865","26,710501018447"
"5742","33,8215206059179","14,0914114240563","16,1803797981433","88,7406343965012","-25,5741887057213","21,6594181006465"
"5751","21,6708778773903","25,6465025632547","-85,921078388585","60,9173535881265","-21,5193605158551","22,4682423739748"
"5751","18,7075214455811","15,0199237274841","-54,0644927467267","-34,8915343921921","-5,81993683546373","29,8203392484815"
"5759","26,1099946613642","-67,9197593701764","-53,9368534973434","-9,48461135286889","-7,51630336481327","29,4652507393189"
"5759","23,5245697983804","-39,9556093558762","-49,9079214126376","-2,69775315644596","-8,30548133812468","29,2409127409727"
"5771","91,3076614567113","41,1614204440012","-11,7547661476609","-0,884804610608195","-8,6726200801268","29,0991803666398"
"5771","72,4174838170726","15,8228965835842","-24,1065617336455","34,2569550176866","-10,3782024785454","35,8507340803615"
"5779","47,8438268513584","26,7697476038899","20,973537148804","23,6442444191178","-10,1716678276971","35,116234108607"
"5780","50,8282705088554","20,0182359611235","4,19187708509044","-12,1152897152686","8,34181559611778","38,7568498230866"
"5792","35,0636002303508","-124,936490018915","-61,6785580923205","-2,66760295542753","4,95459654561156","38,0569198649472"
"5792","39,9214025096518","-74,7102590313477","-41,6094592012343","-71,1916973588825","18,7266391933727","41,7193762401553"
"5800","115,153807859926","-66,1883670510103","23,2328129614585","-48,496287451699","15,1336228947582","41,033244785724"
"5800","95,6934840142933","-63,4379664231177","3,9306595861374","30,3469481775334","13,4620918479256","39,2315408145726"
"5808","89,3458198287935","-62,8730328382837","-0,444574044243077","9,40805263062159","12,6844677548752","39,0932593662272"
"5808","87,2753074914092","-62,7569952137875","-1,43631154358796","3,8147222361203","12,3227040704745","39,0058958426839"
"5820","-25,545672740565","16,2292182381389","10,7521953036837","2,32059639591254","12,1544055769982","38,950701271487"
"5821","4,6538247974882","-11,5469763040918","6,51497332255945","-22,3387552928593","28,9587270382345","49,861586361369"
"5829","-144,507987057805","-47,7604117403232","-68,9253093675562","-14,9259174953971","25,7763773656888","48,7548708751969"
"5833","-98,162320791855","-38,1986684410636","-44,0254150134484","-7,74713231433292","39,6437286614898","39,8463526462041"
"5841","-114,847549839208","-48,7968785642487","-17,1013862530817","-8,82948975009731","36,09505153392","40,2181244829347"
"5841","-101,290019948693","-43,9737559169499","-22,9984963937409","18,6073627409459","2,21369769781728","32,243685724388"
"5849","68,8399347356775","-44,7776837816018","-100,588356429542","9,93646854902351","7,45152738213973","33,2055907625288"
