Timer,AX,AY,AZ,GX,GY,GZ
"1009","4,06893650522795","4,73942811128623","-28,4015771547949","3,79291287317164","-1,00526592968184","-0,0458847475390815"
"1009","4,16341059612812","5,08513942938643","-28,7065047921298","2,11576473238742","0,61484593721712","1,57442668715774"
"1017","2,48605416708186","1,68806994508269","-30,5286901788567","2,67167962617033","0,265277806485483","1,22922456481255"
"1017","2,98624464731871","2,80697219020471","-29,9818812245228","-7,52635622847216","3,21103028276153","1,07967584946158"
"1029","6,53743349937349","3,09759490763066","-26,3441089551137","-4,3312917240224","2,54552121388263","1,01175471941742"
"1029","5,59985798571423","3,17309909095979","-27,4374308008511","-0,0025522914352285","3,78830347966897","-0,559669065604192"
"1037","0,216905309344796","3,19271549923463","-29,4606902435665","-0,811684453742124","3,35389348204147","-0,282161463191677"
"1037","1,60640865687072","3,19781195716068","-28,9649714634981","-4,48406744252664","1,6113460345444","-3,23480300249362"
"1045","2,0221267834248","3,1991360469197","-28,8414175219228","-3,4943684504241","1,81820426087195","-2,59265907134291"
"1045","2,14650328769022","3,19948005323233","-28,8106226899492","3,67747441650235","-4,26697377210658","2,32300217966238"
"1058","7,28616072185216","-0,28081880024143","-21,7999153397123","1,6505039606601","-3,03674543348829","1,5836304425717"
"1058","5,82386761253637","0,814979073175717","-24,0525525913464","-2,35691582072092","-4,0216190203525","-1,83662789560899"
"1070","5,38637188072356","2,83986792453956","-29,8662784023421","-1,45938805436661","-3,4699010575714","-1,40954679841008"
"1070","5,25547984947779","2,36594596627755","-28,315303073299","2,23731329156994","2,9605544606238","1,86709441011882"
"1078","8,61794954677171","3,98301236626546","-29,6794928705208","1,25430447600043","1,8874861489438","1,37396626170149"
"1078","7,6239490495727","3,40313573476194","-29,0195062692097","-2,46591336893146","-1,69060505676956","-0,392931949620152"
"1086","3,92492871355312","-1,96810196966542","-28,855009886186","-1,48937412445489","-1,31923439908772","-0,205498542190566"
"1090","4,8182384073531","-0,363581139473283","-28,8140104780553","2,22906389133938","1,9394671313467","-1,65941800872232"
"1095","5,08550300412652","0,0532828161491502","-28,8037917034163","1,25203500207591","1,42272080638941","-1,32805097200167"
"1095","5,16546448353755","0,161586525410671","-28,8012447555483","-4,19142997021944","4,27718071909269","1,90457296037708"
"1107","3,48857243963484","5,41030680904101","-28,800609949158","-2,68896936318817","3,57643691553873","1,3912020129709"
"1111","3,98687198898848","3,77395523180897","-28,8004517287413","-0,550738556840754","-1,37701734487842","-0,385005519190152"
"1119","2,43514029692588","6,82920968909308","-30,5511702897193","-0,962494693775291","-0,631666679072219","-0,201853310947901"
"1119","2,97088590916089","5,62298277980703","-29,9875228920318","-4,52555650042114","2,79725824134311","-3,19785854790123"
"1127","1,43035750635643","5,30959792912672","-28,0962802890166","-3,50578241207691","2,35799200052875","-2,5756706659044"
"1128","1,96945497137765","5,22817870038969","-28,6249031928778","-3,22523465857859","-0,93161336453516","-0,749420066637273"
"1140","3,83155998264317","5,20702550554399","-28,7566582247163","-3,14805379774622","-0,428933447889898","-0,90955831501378"
"1140","3,38867332020096","5,20152978101894","-28,7894971128688","2,04785600938885","1,34470281967856","-2,52332010536"
"1144","3,25616840496779","5,20010195944043","-28,7976819431561","0,477291058222507","1,15200366864984","-2,26546184893404"
"1148","3,21652496105793","5,19973100299042","-28,7997219466581","-1,67967578090801","1,06429335787975","2,47347355846175"
"1160","3,20466424900609","-0,0209477161855443","-28,8002304012188","-1,27307407176963","1,02437051144106","1,65282977259973"
"1161","3,20111570537561","1,62268922453965","-28,8003571294523","-4,61099929385462","-0,538633969623955","-3,34492117781639"
"1168","4,90086933089039","0,309521661740439","-27,0496307192995","-3,52928838661026","-0,250062162417725","-2,64330228119775"
"1169","4,40940961707593","0,968352999842794","-27,6132761606429","0,21808316854183","2,970952056642","-2,32063962158098"
"1177","4,26237238782091","4,61990948758964","-26,0030022837515","-0,750985879850635","2,43705170804369","-2,17225252366682"
"1180","4,21838109783461","3,56860535555081","-26,6016543959306","-6,19226103824496","0,649204927484596","2,51633895011062"
"1189","9,30766546321603","-0,184917874089284","-30,2523796402816","-4,68919799644158","0,835435920745322","1,67254284096434"
"1189","7,83030150222836","0,839894698246661","-29,1622937156831","-2,55080145562035","0,920202139001708","1,2844952868526"
"1197","7,38829680210993","1,10614703641319","-28,8905985154694","-2,96251199771693","0,958784931434274","1,10603878223036"
"1197","7,25605575651398","1,17532096098514","-28,8228806593321","0,374007744835082","-2,11331928230889","1,02396965512328"
"1209","3,81486066737898","-0,546901360433992","-27,0552445290204","-0,708089820719268","-1,51164000072948","0,986227452123299"
"1210","4,78530773148275","0,00565514375171016","-27,614675357827","-2,73067549714232","0,307057519148919","-3,6514803065232"
"1218","5,07565064959701","3,62960080413129","-29,504867014765","-2,28710448888076","0,134868766960545","-2,78428363770775"
"1218","5,16251680975893","2,57112321662978","-28,9759821709974","-3,88996691889145","1,60132703007805","-2,38547456212652"
"1230","5,18850583621869","2,29612450937665","-28,8441618527318","-3,33092679328529","1,26881056232377","-2,20206901585843"
"1230","5,1962813554205","2,22467822663635","-28,8113066924594","-1,45223827154118","-0,42737290431504","0,962509930473977"
"1238","1,7969770808507","0,46592194769072","-23,5508438180211","-1,93539650205265","-0,199419787696511","0,4178462452624"
"1238","2,77995723593175","1,00898671467834","-25,2397155100268","-2,06831707505357","1,44916988325447","0,167364631791021"
"1246","3,07404986316661","1,15007813752918","-25,6606532747849","-2,104884554631","1,19955363740978","0,0521723757424959"
"1246","3,16203787894377","1,18673451962611","-25,7655686467686","4,78462445409607","-2,00372929235779","-4,6211533518962"
"1259","6,58999313842887","1,19625806344816","-32,7947499489233","2,67998176626616","-1,46175824450695","-3,77033678438726"
"1259","5,61558491980355","1,1987323361871","-30,546717182085","0,376086003438719","-1,21507086274312","-3,37906064025616"
"1267","3,62324158935196","4,67976339514574","-28,2356549944099","0,742266427178455","-1,10278688638901","-3,19911936170967"
"1271","4,02716293875291","3,58415575302387","-28,6596412237358","-4,33167125515318","-1,05167891622959","3,04410026521774"
"1279","0,746379437333193","6,77989866737704","-28,7653164011371","-2,72755082734339","-1,02841625045458","1,91525134040185"
"1279","1,76481919490718","5,61017148612886","-28,7916550941096","1,16353963484498","-2,56266076613913","-0,144004100080475"
"1287","3,77033608832815","1,82588125128611","-28,7982198027248","0,234008771394764","-2,26099836933875","-0,0910208358875637"
"1291","3,37035606747151","2,84270037458102","-28,7998560038548","1,70317987974724","2,51080717066602","1,47346219022567"
"1295","3,25068816312253","3,1068759676386","-28,8002638139031","1,10736023563582","1,68277598637646","1,1929414638938"
"1296","3,21488535652083","3,17551034160786","-28,8003654572967","-5,95612337091638","1,30588344630222","1,0639347280831"
"1308","3,20417370440715","4,93353607010436","-27,0496327949481","-3,89934244300318","1,13433436764586","1,00460671299433"
"1308","3,20096894193473","4,39028150181017","-27,6132766779817","1,84117068166312","-0,488582041788724","-0,562794156706836"
"1320","3,2000101260214","2,50894665329378","-29,5045184049976","0,420430323048635","-0,227280172348573","-0,283615297273019"
"1320","3,19972326296569","3,02016478643016","-28,9758952828005","-3,42021086117011","2,98132166864215","-1,69534258269871"
"1328","4,90045273341943","-0,327405961975359","-25,34262420424","-2,47680101044049","2,44177161410577","-1,34457207575301"
"1328","4,40928497748468","0,802875454353047","-26,4370604400957","-3,94215390185004","-0,893479642078107","-5,80360941247936"
"1340","2,56151980206934","6,31711156146748","-28,4605979167563","-3,34528383667189","-0,411576232615868","-4,85424523961087"
"1340","3,00869672406307","4,74974255795788","-27,9649484523012","-3,18108025684961","-0,192229662693516","1,74281895827729"
"1344","3,14248521933243","4,34253086557695","-27,8414117865741","-3,13590657969693","-0,0923903239546787","0,776697164824867"
"1348","3,18251269075612","4,23673487111716","-27,8106212604595","-1,3985866996545","3,04271908767176","0,33239409817224"
"1356","4,8953035934585","-1,0113338934477","-29,553704964183","-1,92063653890345","2,46971769832472","0,12806663513934"
"1361","4,407744433567","0,625186952272281","-28,9881546393742","-0,339364243396406","-3,97042533528814","-1,50601702737441"
"1369","2,56105889489254","1,05036470027553","-34,0994697315971","-0,904343982297276","-2,90176646401903","-1,25750445612536"
"1369","3,00855882768557","1,16082838173117","-32,3734241474825","-1,05977428625613","3,76398354057848","0,396899190073534"
"1377","6,54407455383006","1,18952749634391","-23,1894311066057","-1,1025343672384","2,79801353654789","0,157731435520293"
"1381","5,60184678163895","1,19698369523844","-25,9003942777691","2,33548650600606","0,813502870600726","-3,03249160694195"
"1389","5,319946644037","6,41950320210402","-24,825322174757","1,2813126879942","0,91021893651198","-2,49962120765895"
"1389","5,23560643466787","4,77634450885516","-25,5573690495208","-2,45848320053685","0,954240906262496","-2,25456312685135"
"1397","5,21037313404965","4,34944220899465","-25,7398258794979","-1,48733002755632","0,974278257890235","-2,14186506171224"
"1398","5,20282371646044","4,23853047881608","-25,7853017854171","-4,66994276746964","-3,65110014552022","-0,549920208979663"
"1410","5,2005650461898","-2,75106149816783","-29,2981522836387","-3,5455041929296","-2,75642014836719","-0,817811705885659"
"1410","5,1998892865923","-0,566998633345711","-28,1737021810348","3,66340657742633","2,28530748388027","-4,02124431146878"
"1418","5,19968710965681","3,480821982298","-29,6441999803862","1,64663378912865","1,58013595137398","-3,49444876676781"
"1418","5,1996266214101","2,53246960303049","-29,010709798551","-2,35798053489724","-0,285667834632907","1,36816634926061"
"1430","1,7979779332673","4,02627618722386","-34,1050914246674","-1,45968096548654","-0,13492030426254","0,604400768818025"
"1430","2,78025667566627","3,41437593009047","-32,3748253095284","-6,3872285476796","-1,61113790580425","0,253157900792323"
"1438","6,47577004193969","-1,96518170076117","-26,6912963273452","-4,7428350690072","-1,28306356766772","0,0916272485895491"
"1439","5,58141111643248","-0,362822436423751","-28,2747221748962","2,60911932438452","-1,13373492766059","1,55745895398919"
"1447","5,31383260558078","0,0534799316670166","-28,669378406085","0,631698945168055","-1,06576544594789","1,2315701543777"
"1447","5,233777207879","0,161637737182401","-28,7677433159776","-5,0869814776207","0,510004940326399","-1,99853442944281"
"1459","0,107379970896466","7,15051422832968","-30,5430179793794","-3,6602347735474","0,227243752975985","-1,48400487626059"
"1459","1,57364032836073","4,96626547607598","-29,9854909938667","0,182058802847674","4,73303891403728","-1,24738144025948"
"1467","3,71313829563233","2,65859067995239","-28,0957738546463","-0,760896461990555","3,78392856110247","-1,13856232555813"
"1471","3,35324336276532","3,05904318533552","-28,6247769681606","-2,74520301333221","-1,28257397749752","-2,62863517520954"
"1480","3,24556830362168","1,4228889890609","-27,0058687680631","-2,29110112115213","-0,588679166885837","-2,31389446769494"
"1480","3,21335357286894","1,99780649874158","-27,6023688442244","-0,441281920545187","1,27199182649293","-3,70926746087177"
"1488","4,90453071366018","3,88736756579291","-27,7510417185025","-0,932382324997553","1,11890801786639","-3,35097589162486"
"1492","4,410505046798","3,37828665265003","-27,7880972436055","0,657404399836016","1,04922930700118","-3,18620366098992"
"1496","4,26270012363861","3,24602443505127","-27,7973330369358","0,0947670464175569","1,01751385132107","-3,11042769996053"
"1496","4,21847915137839","3,21166193244605","-27,7996349845726","-8,68448010627574","2,54791093526815","3,08488805985059"
"1508","2,50443361736738","4,94292846618628","-27,8002087266143","-6,09971902462649","2,2444973141808","1,93400895705038"
"1509","2,99161741076154","4,3927217015943","-27,8003517272305","-3,66373897142651","2,106393420856","4,48497296850992"
"1521","6,5390059410137","-2,71100171094656","-31,3019033612941","-3,99358198341989","2,04353307436557","3,6581181567183"
"1521","5,60033033021122","-0,556590864840486","-30,1746371071463","6,26502915672476","3,55975402916372","-2,88260605878979"
"1529","5,31949294496469","5,22372009598298","-28,1429170109402","3,08725257098446","3,24988790070137","-1,89057446067685"
"1529","5,23547069484499","3,72547890553862","-28,636527022903","0,488129357584627","-1,52565170792646","-2,97447283259149"
"1541","6,91114781826315","5,07642114003562","-25,2580393791007","0,773090422080197","-0,699320148765578","-2,47293935497533"
"1541","6,41248478328333","4,42740388397569","-26,4159783487828","-0,873406832461384","-0,323201222106003","0,837941244465134"
"1545","6,26329243051398","4,2587853808454","-26,7045853779204","-0,326370985191325","-0,152004266812167","0,360559214188566"
"1549","6,21865636053587","4,21497730127213","-26,7765183721873","-5,35055393913816","-0,0740810477862683","-2,93921454324729"
"1558","4,50448663563679","2,46340159018309","-32,0467210842765","-3,73274560002153","-0,0386129633630595","-2,45672466425339"
"1562","4,99163327301681","3,00833191096345","-30,3602769689241","5,33678726690763","-0,0224690587813741","-0,694718812967425"
"1570","1,73574950478868","3,14990801566999","-29,9399442582355","2,83188603454495","-0,0151208847995839","-0,884402133960865"
"1570","2,76163888167991","3,18669032096578","-29,8351796911406","2,14276829610981","-0,0117762378714848","2,1085995547404"
"1578","6,4701998827473","3,19624658037607","-24,5567939720503","1,95318666658663","-0,010253864680354","1,48503039172053"
"1582","5,57974461000045","3,19872935281739","-26,2411985383402","3,62592354274371","1,53527198493102","-0,3418554353187"
"1590","0,21088812586947","3,19937439171082","-26,6610229077335","3,08610641869972","1,23874448000401","-0,182009317446943"
"1591","1,60460838512046","3,19954197661192","-26,7656607748254","1,21270629363621","4,19344075098453","1,4316181270228"
"1598","2,02158816905087","3,19958551615561","-26,7917409264978","1,69731940305204","3,53832123839417","1,17369808720129"
"1599","2,14634214249178","3,19959682798532","-26,7982411957613","-1,61914427833953","-1,39436634652017","-5,10538265268627"
"1611","5,58529721415645","-0,280788461472646","-30,3013773282015","-0,531529134954066","-0,639563373569446","-3,9930256469739"
"1611","4,61417997108772","0,814986955366384","-29,1745059976042","-1,95721003296864","2,79366392593118","2,6789961970058"
"1619","4,32363654567786","2,83986997237909","-28,8936423290869","-1,34942589500616","2,35635598646173","1,74734615675597"
"1619","4,23671039679996","2,36594649831831","-28,8236393055375","5,71734923651224","0,61247489115602","-1,76133777254555"
"1631","5,91151871812622","7,46340073283069","-28,8061916116726","3,66147383262186","0,818717617194021","-1,37492214696763"
"1631","5,41259575084927","5,78774934571139","-28,8018429134912","-5,52857467822156","-3,72190622881753","-2,73733305802039"
"1640","3,56251033482011","0,131822910229983","-25,2992430429389","-3,05682823332406","-2,78864874687043","-2,36388278490176"
"1640","4,00899307631141","1,6623799324645","-26,4262480325238","4,52273737188173","0,725805171215884","0,888094515875311"
"1648","4,14257388339228","2,06002765544107","-26,7071450144749","2,6079346006976","0,325468914916386","0,383623855149179"
"1648","4,18253921768667","2,1633388743577","-26,7771563411313","0,356265269928026","-4,49124971803845","-2,92860750510832"
"1660","4,19449623441809","0,449985622935661","-28,545364100631","0,736813589807246","-3,68366149532534","-2,45184666687751"
"1660","4,19807359093567","1,00484636370846","-27,9860757458287","2,56639763273894","1,31842482786153","3,92787525355366"
"1668","5,89995917678059","2,88919656414676","-31,3481935878523","2,0697303796165","0,595209876282151","2,8618014239896"
"1672","5,40913731288753","2,37876183718754","-30,1861745759722","0,208201118393467","6,44535789704215","-0,708701731653933"
"1680","1,86066032758818","2,24614789079097","-26,3950346366379","0,696079994434078","5,10815271587043","-0,350715722329351"
"1681","2,79901028928899","2,21169400697386","-27,4501233212891","0,830299253598345","-0,134997814229267","-1,72620093288631"
"1689","4,78056554079756","0,462548570999481","-25,9623377431375","0,867224011802275","0,478492645098881","-1,35876330890095"
"1693","4,37341656318585","1,00811029155883","-26,5915190843424","-6,02218670680625","-2,33193252201474","1,89044887626986"
"1697","4,25160381662847","1,14985043764426","-26,7483375026083","-3,91751697860312","-1,61114555169165","1,38470658566037"
"1697","4,21515930604443","1,1866753618558","-26,7874232394172","0,111278474666682","-1,28306704782399","1,15212426304167"
"1709","2,50344037042213","6,41682503641811","-26,7971650467813","-0,780368678719745","-1,13373651171318","1,04516358801185"
"1709","2,99132024646772","4,77564870564673","-26,7995931143698","-6,20034447388864","0,479066748487873","-0,54414273608238"
"1721","4,83810173850997","-0,871320907281141","-30,3017142831046","-4,69142181222226","0,21316170639542","-0,275037824497811"
"1722","4,39063051349693","0,661563150171134","-29,1745899809194","0,898371258279309","3,18179631450627","-1,69139794809469"
"1730","0,855123376281118","4,54020367893172","-28,8936632612567","-0,563833355101359","2,53302107419106","-1,34275800503929"
"1730","1,79735371814832","3,54789731732656","-28,8236445227135","-0,966097174242795","-2,39677880680817","-1,18242439399054"
"1742","7,18170051103493","6,77047851237186","-27,0554349158603","-1,07676306785951","-1,64066144608534","-1,10868967901027"
"1742","5,79261471523173","5,60772407441307","-27,6147228102245","-1,10720811269632","0,248331204021136","0,465336588218944"
"1746","5,3770214918785","5,30563362765521","-27,7541208457438","-1,1155837804366","0,108138481317136","0,189204637010835"
"1746","5,25268235615416","5,22714875153419","-27,7888646914492","5,78168101417321","3,13399319933675","0,0622162246243199"
"1758","0,113036102096843","5,20675791876922","-31,2990403094777","3,67917200313592","2,51126266962668","0,00381640232960018"
"1758","1,57533255630257","5,20146026039989","-30,1739235143744","-2,07392127152524","-5,49634834726703","-0,023040687856504"
"1771","7,11527517533365","1,71969566923651","-28,1427391536478","-0,656641809652568","-4,14114930808219","-0,0353918092284907"
"1771","5,77274127079812","2,81511273537413","-28,6364826933951","1,45815500362933","-0,434641481535099","1,49904503837902"
"1779","5,37107566127808","3,09970853659647","-28,7595443226288","1,03995199362244","-0,74756112024299","1,20470658291427"
"1779","5,25090345458292","3,17364820083683","-28,7902164496958","-0,799991146333521","0,654841075550491","-0,470771612091088"
"1791","3,51413447294049","1,45266404663389","-27,0471032359566","-0,306173761070685","0,293168394384242","-0,241295685966198"
"1791","3,99451975836965","2,00554223395001","-27,6126462056298","1,55457147942175","-1,41628602090998","-1,67588050947917"
"1795","4,13824368804063","2,14918324116233","-27,7536032686535","1,06647691320312","-1,19437340330022","-1,33562179756504"
"1799","4,18124368946992","2,18650202028279","-27,7887356894981","4,3819828188519","-1,09336608411668","-1,17914257291315"
"1811","5,89492392768367","3,93639177291927","-26,0467341683177","3,29410418393821","-1,04739087712512","-1,10718042502307"
"1811","5,40763084337435","3,39102343020966","-26,612554218472","-0,4549641608868","0,518368439247425","2,00614758794555"
"1820","1,86020961495203","6,72972175316569","-30,2550963338934","0,513638087518942","0,231050542396553","1,43791446561262"
"1820","2,79887544296213","5,59713522848391","-29,1629708298427","7,67967707704605","4,73477163927936","-0,363523252564719"
"1828","3,07970990134681","5,30288258315866","-28,8907672807593","5,6511099296472","3,78471724059924","-0,191973979992928"
"1832","3,16373127579422","5,2264340139818","-28,8229227227312","-1,8065336168092","0,262617918894033","-0,113081372039945"
"1840","3,18886918588059","-0,0140101167605726","-20,0522230283793","0,141810857458963","0,659474239118068","-0,0767999964542909"
"1840","3,19639006408173","1,6244916537038","-22,8661962614078","2,40270777064732","-5,33922148839551","1,48000211367363"
"1848","3,19864019580397","2,05018405761503","-23,5675565887832","2,02469803019211","-4,06963033382425","1,19594906403623"
"1849","3,1993134007984","2,16078144970474","-23,7423650421979","3,64559687298266","-1,94692131397606","1,06531787250196"
"1857","4,90033010892802","7,41009764563407","-32,5397246321753","3,0915187042887","-1,9807340380518","1,00524279771065"
"1857","4,40924829011245","5,77390088992475","-29,7323961649549","-0,510696996086927","2,63837426924284","0,977615287245552"
"1869","2,56150882576872","0,12822499990694","-25,5311760000212","0,498305552705398","1,74084033072089","0,96490986262227"
"1869","3,00869344012181","1,66144517418588","-26,4840554675054","-0,949002279217241","-0,212520490810249","-5,20140082460838"
"1881","6,54411482781202","2,05978479973846","-28,4723110515588","-0,347167878350762","-0,101626041031792","-4,03718277967549"
"1881","5,60185883099834","2,16327577901675","-27,9678678574907","1,54329368011206","1,49368237781163","1,11857215943298"
"1889","1,91831965803644","5,67055157290158","-26,0913814288218","1,06337430322616","1,21981425978366","0,489616623888628"
"1890","2,81626107903127","4,58176246738561","-26,6236821911463","6,1060215182326","2,63999142239249","3,28060445331981"
"1897","3,08491141773684","4,29888864934384","-26,7563538997981","4,49329284040516","2,28640932104965","2,56413253436552"
"1898","3,16528748993836","4,22539636646909","-26,7894212623164","4,04961868478759","0,580637471386016","-0,845594617626878"
"1910","6,59096537233405","4,20630263881507","-25,0469050418607","3,92756048673524","0,804226271657534","-0,41367044444918"
"1910","5,61587579731719","4,2013419759881","-25,6125968073362","3,89398133067408","0,905996534016415","-0,215035825082526"
"1918","5,32414391094722","2,45985905241908","-32,7566229411308","3,88474344465109","0,95231900762877","-0,123687124405142"
"1922","5,23686219272815","3,00741153880159","-30,537214330262","3,88220203062572","-2,1162623579964","-3,16191124123156"
"1930","5,21074883765385","1,40947478339623","-36,987076465338","3,88150286793501","-1,51297959190979","-2,5591391077722"
"1930","5,20293612123224","1,99432140915616","-34,5946530284293","2,15641827143512","-2,78321804955183","2,33841635595144"
"1938","-10,1067389834524","10,8472385756818","-23,4938126400502","2,68183413199262","-2,36138878500722","1,59071925024579"
"1942","-5,68715960575647","8,14727856231985","-26,727016937251","-2,3482966478229","5,55477858873759","1,2468660018834"
"1947","-4,36488905559216","7,44581305933994","-27,5328672551361","-0,732124601689917","4,15795741309951","1,0887337107362"
"1947","-3,969285931762","7,26356819295833","-27,7337190031675","4,88717360550819","1,97733747549438","-0,524105573819762"
"1955","-8,95337341453344","-1,48475066683487","-29,534537691475","3,43308608385547","1,98479105597075","-0,265823072589064"
"1955","-7,44453615530696","1,2423846022641","-28,9833773499162","3,03305533954427","-2,64631506586739","1,39307359910749"
"1967","-5,29229983026278","-11,9706425167182","-28,8460050419444","2,9230037821165","-1,75424213761225","1,15597211096153"
"1971","-5,64838364132368","-7,40346473187501","-28,8117660926322","-2,28194900835298","0,196633011797019","-0,493183771186392"
"1980","-15,9598102440697","16,4056384224604","-35,806264292903","-0,713871851972158","0,0846071658856877","-0,251602658734886"
"1980","-13,0448313652651","9,59138355831533","-33,5495870402515","-2,00737392731632","0,0336166882073476","1,39961332683882"
"1988","-30,881682521179","9,56119415122654","-27,7348542913066","-1,36322637103985","0,0104075011423979","1,15897962109721"
"1988","-25,2181955636091","8,55335076557513","-29,2855786491175","7,43844487004752","-3,08982238775758","5,66866700925385"
"1996","-45,6343657331251","-12,5908222480404","-41,9273902685368","4,85985282887018","-2,50094498774044","4,74259593807203"
"1996","-38,7425715724708","-6,08420284800774","-38,078260728833","-2,74910682777319","-0,688074462969578","4,31671152095932"
"2004","24,5486984647351","-14,8349095160305","-16,1098000154648","-0,842390587901516","-0,862915471532766","4,12085448321819"
"2004","7,48447838873399","-11,1083946135638","-22,6343368458033","-2,04273042740741","-5,57699608999431","2,490666225982"
"2021","38,0962459529793","40,3254052026338","-10,2544615103646","-1,37295321817735","-4,72269042145972","2,74097022821046"
"2021","26,2548185861466","24,6882091255378","-15,1688765743683","3,98598443617848","-16,6925019245483","-0,224153034853548"
"2029","39,7201975933743","81,5323675427274","-46,1566411672423","2,46026970901588","-14,1407661290898","0,412236944431953"
"2033","33,7488330327359","61,3008144746257","-36,8800937091482","14,1147795254434","-16,0689658174033","-0,835214990755158"
"2041","21,7574003181998","16,0200732821438","-36,3187464280511","10,3210254817724","-14,9466188479741","-0,408897029667452"
"2041","24,1697470648773","27,2558702055447","-35,1788351068557","-6,24669591466023","-3,62193304192865","1,32727630696599"
"2045","23,1906690179598","-103,819950412763","7,12347058269026","-1,80460444703144","-5,46730882008227","1,12571304955331"
"2049","23,8977438418028","-60,8742200995336","-6,33301797984594","-36,8052879443624","-7,85209604837841","2,57313443714271"
"2053","39,4166274734698","141,704685965741","-56,9574060500307","-25,4342471798586","-7,9375726983675","2,23877904386096"
"2057","35,0596400870995","84,3358781067141","-42,5751299762352","12,1918592723286","10,5615161293917","5,16524849427477"
"2070","59,2683255357489","-28,0197462316329","18,784551205304","2,54309270598936","6,98169245805868","4,51108228054896"
"2070","51,5111939382231","-1,21039874095741","1,07796109848084","34,3864872879325","6,89710746979912","1,13000846821888"
"2078","49,19037881339","5,75482753240987","-3,33526490106344","23,1468518783192","5,85860716729584","1,5751098275113"
"2078","48,4960264260498","7,56443431437574","-4,43522619262506","-45,4911644682044","2,29625018140655","-2,84054634623784"
"2086","0,665458538434912","2,81399846486339","-48,4783326528831","-26,3740146118709","2,6747825379929","-1,87123191049735"
"2090","14,3552842185431","4,57980727089727","-34,4557247627397","3,03375296422001","12,1160754998164","0,114656317679602"
"2094","-68,2905094006987","-66,3093838889699","-120,249359676761","-2,87594230733889","10,4134412916854","0,0279327138732528"
"2094","-42,0168667434765","-43,7268129941056","-90,6327371601573","-2,77685301682876","21,9971215666605","-4,63230076227046"
"2107","226,068545481587","181,404730226865","84,821736813666","-3,74959278520874","19,2696315458456","-3,77546328981141"
"2107","153,275600320969","113,8952302419","32,5523614910429","-19,5412312956714","-0,509827120415579","-1,84130131401008"
"2119","97,4807586229977","179,885182276405","31,7799436187982","-14,8856334125768","2,48721434437347","-1,95181294610923"
"2119","100,787795396536","149,029760220678","24,5874246405117","50,2161709420745","-20,8659576769158","-12,7834538114007"
"2127","-93,8165487651906","-229,648006357188","-101,509070929127","31,1261817661771","-15,4955529009725","-10,7647421809876"
"2127","-37,0391919691328","-115,030718947473","-61,9376141631462","-3,44879045054767","31,7490331316637","-12,9166046961632"
"2135","-111,896301209959","-234,90916687897","-45,0717129989917","4,03936678590614","24,2532136171769","-11,9062098587699"
"2135","-80,2924033184773","-180,054293235864","-44,8680219961312","-128,442178747047","64,0966849348547","-8,36131252957319"
"2143","-108,254936967353","121,329354641011","-71,0786235846886","-86,8888784661999","54,2321216130985","-8,73107422524662"
"2147","-94,6208993343786","34,6306002526542","-62,6114064466888","59,0843520311171","12,6661071148556","-16,6017059697255"
"2156","-71,832835563495","78,2331299067592","-76,2578422455612","21,242718825284","17,7466254790928","-15,2212763430106"
"2156","-76,0149954379004","51,5613237480184","-70,6591072494587","57,4042831001766","-3,1133835206913","-26,9073754684892"
"2168","63,901435821732","95,0974608331325","30,5295384606348","40,3526096327505","2,39182699907251","-24,2816147350547"
"2168","22,7622919639179","77,4084054941924","-1,25000071589056","1,16371710718738","-16,7300431950026","-23,0740717999223"
"2176","-45,6728153861279","-40,2999326186373","-10,9215547377736","10,3825491153776","-11,4336891024911","-22,5187432349006"
"2180","-33,1475527566045","-5,88125167174136","-12,3321122425143","26,7178592450405","-24,4712922058719","-36,1244092978289"
"2188","-82,1254599181702","-132,674216684375","-93,2185502445194","23,2118296370675","-20,4055800000314","-33,381424921096"
"2189","-65,7789005997091","-87,6157752766275","-67,3788481362867","-41,5737195775831","9,25199084934179","-44,4409081705868"
"2197","2,04190585291722","63,306202140995","-15,4188011040434","-22,3967261621453","4,75114090785338","-41,526977397721"
"2197","-14,6671462090794","22,5166201753536","-28,4681748616776","-30,9201246906182","8,8818338237411","-43,2671437758118"
"2205","53,4688186933168","245,105257998732","5,04529099319151","-25,2649776699839","6,76198927546036","-42,0674168506057"
"2205","30,8540572189877","168,935096224361","-7,6017456212409","81,5092244317127","-20,4650537498458","-46,1360334943679"
"2217","-69,4567747622979","-77,079594971288","-47,5198362889509","49,8836347776785","-15,8579075447455","-45,0071214504708"
"2217","-44,4682413875409","-10,9956597448248","-36,4691011967672","-15,7382542864263","0,142610000550839","-39,8676031438841"
"2225","-76,1108062100561","199,334882258642","-87,9882917190993","-0,791344444014365","-1,57448107697523","-40,5040256320118"
"2226","-62,5777776163462","142,979995041177","-69,8290380015253","-48,4261012719171","8,45778599146123","-14,6147179374353"
"2238","111,552627093787","46,5495402807934","-26,7863133012299","-31,5307919767037","6,02414374448504","-19,7086633590482"
"2238","63,6497807727949","68,4963405606815","-38,0582583458395","26,5888983191721","-12,0767321718105","-11,2704642367102"
"2246","113,948963079878","-294,722903755263","58,9255052646241","11,5780754642793","-9,31565509053417","-14,3898792292208"
"2246","90,9977090754021","-177,089401275651","26,0979328476414","-99,494837803993","-31,2313974168816","-14,284328486438"
"2254","-50,2333634158996","149,305474448196","-94,1325888367528","-68,0518569007647","-26,2067219574378","-15,2357874856825"
"2254","-13,4875401065161","64,1047842663441","-60,0990849850921","-23,1789119360779","0,797671569385178","2,80805565087806"
"2266","36,6249999785169","-74,6238621690884","-41,1119583102165","-31,8340170749652","-2,91081735881753","-0,893886180778171"
"2266","28,6179054759881","-43,6663810463879","-42,3795688104498","71,0033237736015","18,5736942792909","-2,59634659469441"
"2274","119,76714652536","18,3225722990307","2,82419730831832","38,2946730837712","13,3527368047105","-3,37927933452493"
"2278","92,0376052748179","3,42766723467663","-11,9091254427521","-74,1972652519659","-4,4720003420268","-2,19921993550371"
"2287","63,3315671237327","116,150888879383","-20,8335623170272","-45,1446691402176","-2,58523398207789","-2,65653058373597"
"2287","66,7431595819133","78,4370453325149","-20,0579068467888","45,6427532347663","-6,36093878511535","-7,48719077151795"
"2295","-124,428272527214","-166,287438611081","-67,1350468191879","22,6190766031702","-5,07951533245665","-6,70872966023156"
"2295","-68,6238409530988","-94,868299946593","-51,8686475213533","12,8353002583074","12,4969085144592","2,8899729499113"
"2303","51,8217244426535","-217,268910608261","-44,56210357651","12,1437075755222","9,49711811377411","1,30425387647345"
"2307","26,8571953348452","-168,069309687476","-44,7410059224919","-84,640521010234","25,1248743327042","0,575008503940931"
"2315","-26,5338229077404","72,6784651684152","-4,51816199020741","-55,2666122339171","21,2381145690209","0,239640895473467"
"2316","-15,5075989240139","4,22615407670335","-17,4929397680493","42,5087747505091","-16,0621675962032","-15,3157581869925"
"2324","77,9344893014846","76,9319346931244","-118,769247165382","17,4075413297304","-10,0400282824511","-12,4694230377228"
"2328","52,8909328558134","43,8213244312114","-88,0115569634451","48,4496270482892","5,05971463533228","-6,54009090266378"
"2336","52,2015450027624","70,0228752850876","19,447757156879","34,989545361358","3,93262059675942","-6,81329137421649"
"2336","47,9952907016562","56,8301924148261","-10,7688680596125","26,1118958385679","-7,39422591890833","-10,0191654874152"
"2344","2,51564606869576","192,618184888746","-32,3061842473165","26,6695856657255","-5,54983362465406","-9,49349275075794"
"2344","14,908832028068","147,896704558652","-29,6741880914532","7,84919569278958","9,19316927769777","-4,63139399515163"
"2356","-57,9200045899214","-27,3004459860651","-13,2613621300792","13,6715605800535","6,90369892635663","-5,39539704101585"
"2356","-34,7092785531145","21,1823031215894","-18,1705964986538","20,4480150298426","13,5857719585819","5,03406932010325"
"2365","45,3700733637855","-230,731098652653","-64,9138918099834","19,3122701568372","11,6272316594477","2,83040443975381"
"2365","26,3285906042118","-144,179683153322","-50,5642843998499","-77,5941481379946","4,55643691972868","7,97744392328018"
"2377","27,4349313933694","-60,7863219836744","-17,2248735599327","-48,2538546974405","5,33804389255938","6,34448029717348"
"2377","23,7659316354583","-74,1202359125656","-25,9152919950716","-38,4572203750877","-11,2993564102368","-0,566959723198132"
"2385","-242,658963069749","68,591840357736","-134,877547065382","-36,762090363064","-7,87215340064576","0,254585948529819"
"2385","-166,369216465623","21,6692777519296","-101,035517862931","51,673757860818","13,7706245021868","2,17251782228937"
"2393","-38,0939428503778","51,2431785487202","-78,5945987210066","25,0031449589079","10,6217046219044","2,05454224086403"
"2397","-61,7159430181555","34,9266520427098","-81,0013790658768","17,665852690379","12,2780857713856","-8,78053116843737"
"2406","188,039825461103","128,138392813591","46,2040838972227","15,6473067337558","11,0320159501079","-6,76339810693794"
"2406","111,762931252666","96,3553516944242","4,90902838659034","16,8168813516625","-68,321632705258","-24,3171557727836"
"2413","471,625492683915","112,46064814042","115,418867736566","16,138640391584","-53,4408016125737","-20,3898319250749"
"2418","354,290866789109","102,644898950143","73,9625615411025","48,7250038251633","-79,1090283326832","-23,2040728933546"
"2426","-22,6777329817016","60,0702449107822","-104,442858917769","38,6897649035841","-69,7923602545886","-21,4982946995287"
"2426","65,5390278871846","72,0090992041356","-52,9089834103286","-8,91820561961225","-25,3860638061564","-19,1737192494989"
"2434","108,940286375292","-88,4673629122535","24,7134688448269","3,9844727955815","-31,17377931581","-19,104686330344"
"2434","111,925279071319","-36,1600923074344","7,06024438851726","-59,7366982006626","61,9714838469737","10,1892822088994"
"2446","-62,3656322066684","-95,6585083276411","20,1678993121611","-38,2668860899279","42,3681417209461","4,66108270508846"
"2447","-11,510806995752","-69,1165470073151","13,4348774910815","-51,3341891835281","48,8936747923388","-0,961476551859584"
"2455","-253,118930761569","17,8281400169775","-168,571347963188","-43,9291055175404","41,8638826556161","-1,54719642406238"
"2455","-174,404385877107","-5,58311855237313","-110,934944308267","-0,494495587961755","30,93998808649","-6,43690984134736"
"2467","-225,690071027051","54,4618750150173","-182,356673378144","-12,5452978400525","30,9677908434677","-5,68560631116693"
"2467","-197,033963584112","32,0619177585127","-151,157968249827","10,0128168552587","46,4287748977474","-14,5807960453279"
"2475","34,3463091630347","116,732370957694","-139,880424473871","1,21872900115623","43,4661059340952","-12,6715433032091"
"2475","-27,4282523061976","86,7302530548241","-139,069586864665","17,7732220565413","-16,5860542474795","-24,1144456252586"
"2484","258,535681667658","-9,81437358635532","151,758335287039","11,3274913697896","-5,91982091859524","-21,3768427966598"
"2487","165,091716753487","16,1027641669054","58,2448693791533","-0,795132595912984","-107,658373756757","-54,0004378000341"
"2496","223,876291792719","28,0567714416035","22,6820797764143","1,86983961807532","-84,9664142390139","-47,0034771719498"
"2496","190,463737505443","28,1624928908372","20,8183388333939","-18,0957128932364","-0,48580124113878","-26,8444072502556"
"2504","-210,720305639071","-69,2609104478547","-60,181051516879","-11,5883910936562","-10,0330069214224","-28,5735920716986"
"2508","-100,74843504047","-38,5720840529389","-34,3695018782678","-23,5973144555375","27,3319080204274","-21,6682303176235"
"2516","-231,124801798527","47,7097888113103","-364,081714785047","-18,9010623244204","17,3391874191788","-23,4925712811809"
"2516","-174,131416561825","25,1263272219683","-254,259847423175","-60,7313932595477","49,8668198869939","-16,6309702268838"
"2524","567,467448438829","85,3863873170381","256,321581802338","-47,2392414252092","40,6723275248668","-18,4754359958664"
"2525","363,342485727299","63,0423056102698","107,579920350209","44,4420589120862","-29,9405181216791","-16,2434407571461"
"2537","332,886094394665","48,5362110985168","217,570922270909","18,6642950342015","-19,081161206795","-17,2169839107751"
"2537","305,77400795344","49,767442363942","160,985299994901","42,6206929761596","-131,545640953469","-33,0658691289432"
"2545","-129,242152785631","123,175476288615","-91,2213013668086","31,2112836779106","-106,73577031583","-30,3545032878873"
"2545","-8,39233429242674","100,24731556953","-18,0817800739588","0,474190750493294","34,3228310678329","-12,1663058992543"
"2557","-18,1579300350195","-279,851290082894","-251,961490672279","8,01817831752666","14,5280634111313","-14,8018616527631"
"2557","5,92035308839123","-163,603145027567","-166,254138401253","-153,771176133123","-80,99250653751","-8,31332455513482"
"2565","804,003319513638","-232,592257232882","476,626822457175","-103,280681179256","-68,4703258761263","-10,3293561257884"
"2566","577,77753599621","-193,516034642082","281,859761377421","-89,390354788119","-62,7706414122053","-11,2564949351812"
"2577","55,9765579060809","138,572109104309","61,7413451673961","-85,5690183676975","-60,1763326518752","-11,6828703870317"
"2578","166,861686464354","39,8505634643276","104,878590027306","67,27277901697","-82,167982428664","-24,1998885981687"
"2586","12,9471383822072","-13,6409809779811","-315,056263676647","21,3207417834448","-77,1778575421337","-21,9562534936148"
"2586","76,898259794813","-11,5383990662858","-173,721668099544","70,7751013290902","161,452919117024","23,7389469913654"
"2594","677,710288215945","-219,81542961046","570,561838156634","48,3803788408539","117,069794014221","15,7533965611579"
"2598","515,464057403796","-153,927028029249","351,068550687127","-107,846208716897","-77,6980630875027","-3,32019216487896"
"2606","-249,120772621481","185,127077630806","-199,102909023958","-63,8253534872832","-53,3499807696441","-2,09181290719325"
"2606","-56,8728590636685","88,2153298964693","-53,2287461024669","86,2765049993235","104,49159184071","33,8957870751639"
"2614","378,225771745638","-385,932994026675","102,180766312091","47,5706893443229","81,3358802674431","27,4458754201244"
"2614","286,400627036028","-251,119519338833","72,9153446033751","36,9224195427616","70,7961625398277","24,4796701783071"
"2626","-54,0220661208763","-158,667779358022","121,645428130087","33,9929980114473","65,9988299497096","23,1155625738703"
"2626","28,1286710192578","-167,648273155685","101,791011795977","-168,625301967517","-76,7645532444148","7,08706337287366"
"2634","3,38327146634255","381,660075889571","-360,10537971198","-107,367166294589","-50,7457461541844","9,71582778217926"
"2634","24,9798264131785","207,373618107663","-214,2293619017","75,0750776291328","16,7111433686883","23,2456874118526"
"2642","133,49010305287","-36,2891584599815","4,2079006905187","29,266352599747","11,4152991060064","21,4678409390615"
"2646","105,954718105365","14,4058180298093","-45,3483582658695","89,1094919517734","10,5496380281451","40,6717593778333"
"2654","237,183406326708","-55,9526461761863","47,3456202177222","63,5728032864998","9,15561759912163","36,5033165499399"
"2655","194,445022635145","-26,232189294937","10,4488531596394","9,97537157325899","2,3417737228546","43,8270217368704"
"2663","-177,213675409627","125,925471808423","-308,631536316298","22,2303028052892","3,24033627107681","41,1950698399828"
"2667","-77,4082731618706","82,456927737361","-211,159771977962","25,6017293454603","3,64933236644201","39,9846796935287"
"2675","306,221558080294","-278,615472808767","170,288917099306","26,5292349104088","3,83549392676403","39,4280417441932"
"2675","212,997735780822","-171,424207681796","61,3619527302131","-7,71344615035167","33,2720539348749","54,573222562783"
"2683","15,0250645038467","194,022372056644","-116,352409811297","2,86612695789047","27,670607133114","51,5382349745844"
"2687","55,7946693472435","94,9675444295161","-74,6462936437579","-42,5203335433612","-30,492972032934","47,0622616940928"
"2695","-86,7818803645876","-47,3604884573115","-146,537003496565","-27,006500507596","-20,9671187892653","47,0038373129688"
"2696","-38,4386032598501","-17,3381491200641","-117,455188078351","101,453717273307","45,1620526773346","65,4583719608346"
"2704","283,87253429977","-227,062432924949","129,647067344818","64,7941185683167","35,261874857867","61,9453002065928"
"2704","199,303096750088","-156,550036259159","54,2353286419121","-26,3611569120632","-20,2238464264663","66,4901656231338"
"2716","-6,28520675578004","96,695704831475","-76,6089559797929","-4,43867952009863","-12,4791204179232","64,5802723320165"
"2716","38,2059174095763","27,4904389284671","-45,2208476709979","1,59236387836564","-8,95397605993239","63,7019447215914"
"2724","-14,8148152779954","49,5349681422489","-77,665046570598","3,25155064926826","-7,34944637986795","63,2980167142922"
"2724","8,32219248009143","32,2622665823639","-62,7515037175856","107,201540871844","35,0913714336876","80,0535431708244"
"2732","136,00231728934","-34,8722710571797","49,5125733489843","75,7989886462499","27,4090347440409","76,7591262955086"
"2736","103,202257701902","-16,314219078479","15,4934968772309","-32,8838473787231","8,46395879599599","78,3243135526614"
"2745","-56,2827644369226","119,021830617817","-120,790819630733","-4,78333770617315","9,84078381003916","77,0441166902695"
"2745","-15,9982436589318","79,1829328940383","-81,758595770268","1,22243799219329","-12,7050244940409","82,6158434907727"
"2753","164,434983040003","-73,8633645814748","6,75398374619664","3,87467342301036","-7,96713432875941","81,1781863763089"
"2757","119,417844653296","-31,6256934702623","-16,1849635693419","-31,6184133388792","-25,89343057606","97,4583183064843"
"2765","97,4453289298248","41,9948901983089","-39,4098927259537","-20,3828365278785","-21,0528905758246","93,9452755318649"
"2765","95,8714883058072","25,1219511537208","-35,1985206081813","-17,2918422874757","-18,8496360962425","92,32968659823"
"2773","74,9908357178608","3,33632113697875","-53,4072077402663","-16,4414858211438","-17,8467871782369","91,5867045823716"
"2773","80,7436638434079","7,67628623209166","-46,945577408513","23,4649756145957","-3,48682712097933","105,106071998235"
"2785","124,985204413541","-29,4804358036137","24,6952521295697","11,4435523737307","-5,95064596738193","102,323400333834"
"2786","113,221596655982","-17,1339708866781","2,55115604099252","2,96168893700465","-7,07209520857224","94,8832290389681"
"2794","50,1735698028615","-69,6124982854582","-88,7552246529683","3,62826258321617","-7,58254199016197","95,4616201433473"
"2794","66,3105645190168","-51,2467285834071","-62,5126099412626","-4,81281909884672","19,9921119144395","101,888080103662"
"2806","98,3515512426888","-51,6957758595036","-12,2028981605057","-2,13502607592692","14,5431867398277","100,843500307862"
"2806","91,937724387746","-48,8124409848499","-24,6636047832418","22,7501470537215","32,1458432549145","88,0421803785613"
"2814","64,5065760630019","42,4267603231927","-13,7632723020438","15,5962510062893","27,157993101321","90,1550699331328"
"2814","71,2995960571563","14,1312418415458","-19,0464515918178","13,628158771149","24,8876878887094","91,1267520905549"
"2822","0,196906030653658","-7,14165331597878","-51,8768857154221","13,0867213473538","23,8543196840335","91,5736122745195"
"2826","21,9240687253714","-4,66847668657044","-42,0596089035973","43,9858282423708","24,928797406483","96,3994664705998"
"2835","79,4489623407503","-44,0503954674363","7,65773473741209","34,4864119732013","24,4178642988304","95,6187951650441"
"2835","66,6595306389046","-31,2820497620255","-6,95061490749052","-23,3235030950127","31,9094689430389","90,6394268820123"
"2843","-12,0027447072945","-88,8715523913476","-73,6189171073648","-7,22745867467394","30,3194007875869","91,3494996563382"
"2847","8,46270568734909","-68,833644136528","-54,2354583408224","0,650472369602286","23,4163224392475","88,5958162725714"
"2855","92,8231590089332","58,1859103596434","-9,13685232484925","0,81775224261307","24,2742683929748","89,3294438749196"
"2855","72,0625163080874","21,1863382333861","-20,8963853906652","59,5101087803483","16,9406125742173","88,1267098773813"
"2863","84,5602178066601","156,009743097777","4,18477296211899","41,6568308459376","18,6025738360589","88,5735928613951"
"2864","77,299338936536","108,037657229328","-5,56394887119772","36,7452557487389","19,3590438982558","88,7791067847719"
"2876","-111,962687466841","119,936944563478","-60,5164797204452","35,3940433817972","19,7033641710196","88,8736191609702"
"2876","-58,5869909108645","109,028449450085","-44,2129586258446","86,7690819324676","27,5842520029487","81,216499206928"
"2884","52,6278576386966","-1,69767686440869","50,8899794414468","70,9027531210367","26,1713727411179","82,6951192935832"
"2884","29,9016392388664","31,5350238038139","22,5936262971948","-16,257024944864","30,1627753530143","84,9152285734935"
"2896","-33,0246024489101","71,4925690945206","-161,285571073403","7,7646447452306","28,979530443159","84,9362192685106"
"2896","-18,851171474048","63,8737745444069","-106,115990692059","-13,2250838121616","11,4477942373369","89,5662232920604"
"2904","-72,4384177627115","-19,894756488591","-38,0919160456415","-2,99952077876181","14,4679249813342","88,6954838058162"
"2904","-54,470902208967","5,34168610161547","-52,1374593708452","-8,81085041187412","-2,69540589827592","105,23633156133"
"2912","39,347098988317","84,9864152190845","14,3921211117134","-5,40959222346008","1,4924108239881","101,843187583641"
"2916","15,41600995403","63,6785846192222","-9,02591293363002","-4,47387974092716","3,39856715211438","100,282738078104"
"2925","-7,05114350667143","98,1671494409731","-137,4157303959","-4,21645798654509","4,2661867706949","99,5651137523041"
"2925","-4,77297217594067","84,1274815755295","-99,415865773908","45,8762360240956","-15,4217292377892","100,775207385962"
"2933","116,666507820415","-199,691359152227","8,09774441493751","30,6571242933611","-11,3830205683472","100,331708974079"
"2937","81,9993427586939","-112,429164483043","-21,1053479406347","-33,9010000700905","-12,6343991487964","98,5876346388074"
"2945","58,0209348596447","-213,31171480345","11,8834487135871","-16,6614403158696","-11,2039854889349","98,785564360626"
"2945","58,8469619778024","-168,521595154338","-2,8943575037721","-117,137131182478","-26,0012374281107","94,256238132787"
"2953","190,05687440997","208,555905533058","52,9481643312915","-83,7787722831911","-22,7364594527007","95,1732776338754"
"2957","152,312873289471","96,522859626104","32,8664663734026","158,258824672241","-4,25727791002394","81,733956310529"
"2966","215,856318468956","126,582614773642","13,855199764489","89,8452430408727","-6,84616272226931","84,5534398185502"
"2966","190,867545338382","100,392316087612","17,11679357919","71,0241366263943","-8,02453787450942","85,850072580051"
"2974","-34,3130711897121","25,7203518847196","-106,374097969469","65,8463044150385","-8,56089545706736","86,4463720488771"
"2974","26,3163325934668","45,3201360782429","-66,1532152360639","33,3737821272084","14,3674659574658","82,1002493275283"
"2986","-9,97036660693781","-132,308106615002","-45,623933850134","42,4403396300897","9,80370137615694","83,1015410215666"
"2986","11,1732080152291","-73,4569695565321","-46,5071746199402","-56,8340229821209","52,5265805049707","86,6422519691537"
"2994","8,9949656633373","35,8033844042314","4,04466656911351","-25,1451693714691","42,9726288418559","86,2705650274089"
"2994","13,3432688689404","10,1898674512212","-12,3556912347081","-38,8509194682968","24,7204882783712","89,1798663303102"
"3003","-102,71204071035","130,56949532433","-75,9691211467203","-29,6214775199507","25,4127146711901","88,5178047760173"
"3007","-68,4340142133799","88,8448311799141","-57,8242598896506","66,0617950520644","24,1829604248176","91,2935677075585"
"3015","-29,2646929614077","4,91636505577534","-91,8184742257285","38,3850047455285","24,6232167697763","90,57009411566"
"3015","-34,5458311568689","25,1112555679525","-78,2912603260995","30,7709052765471","24,8236069667683","90,2373808514513"
"3023","20,0010378239033","4,25509527419537","-13,643180561961","28,6762075142184","24,9148179885066","90,0843716505351"
"3027","3,32062670173622","13,8365420740415","-32,5301636166053","-27,0966121167557","-7,48515698098089","88,473888388497"
"3035","88,4733134901752","-13,2574415934536","8,2821147801525","-10,4401469570478","-1,23255912751831","88,7332543846213"
"3035","60,9496949250116","-3,29661802087911","-7,54575117062679","14,840882689352","-3,02108113799196","87,3124154985804"
"3044","51,014233942118","-134,703684220009","83,0502115953538","9,79588983700151","-0,83515748716284","87,6589957345655"
"3044","49,0416959838031","-91,844013458333","51,6305308957085","-1,94138029673671","-9,10919448461987","80,1177975244141"
"3055","-29,7859607950311","-33,7235776471069","-66,4983270397034","0,82960574236761","-6,87526378225791","81,6497280597638"
"3056","-7,36998999544148","-45,6235463362849","-32,9410003038311","55,0635852671261","9,5898770970791","76,1937693162828"
"3064","53,7626150602405","-57,4161988137833","-78,8506028250959","38,9837732703821","7,08426726792485","77,6846662014506"
"3064","40,052555439611","-55,4799993369974","-59,2932041533727","34,5600923944673","5,94379614695475","78,3703044539278"
"3076","-3,16803649309279","-53,2367692026165","-98,187628822167","33,3431035082852","5,42469123180289","78,6856178856861"
"3076","6,90102348087307","-53,6539648104308","-82,8817531651422","-3,21443684418112","-5,62541864711579","64,9695729238709"
"3084","132,3722334893","118,516862617843","74,9998176156206","7,7283005360546","-3,65506494472271","67,6617959125453"
"3084","97,911300379895","64,2478569521094","26,3505366877277","46,9614696599154","-8,93755645623847","65,8196698756573"
"3093","-41,6608461669164","128,457184999556","-38,2976474610693","36,7548184869974","-7,34197271672503","66,9725072788741"
"3097","-7,41869758903039","100,13914635154","-24,4106904234663","102,942579719384","11,922279467486","79,8236130501779"
"3105","1,12521421946111","-20,3306641853881","-78,7244912970672","81,1513456951685","8,69073297031798","77,7336191619992"
"3105","4,68142194922454","13,370569972167","-59,2617718634185","-69,7345407556765","-8,22848978184755","99,8742201244736"
"3113","63,5731049547598","-9,19714508897102","-56,1616026675913","-27,2444172687364","-5,92956307489823","95,0563079024613"
"3117","47,1925957327324","2,93962970838737","-54,3889102849547","-15,5550550596199","-4,883167308089","92,8406315875179"
"3125","-73,3636421720216","-86,1374528152076","-4,92585699105093","-12,3392209400058","-4,40688239761908","91,8216795380862"
"3126","-41,4322245861162","-56,2802031474953","-20,5975864716254","2,34461795583749","-4,19009318350264","102,133899166037"
"3134","-13,1698646007497","-27,6407845790692","-1,74378578115883","-1,6157441851061","-4,09141786895016","99,8763144968423"
"3134","-15,7141987798374","-32,2000950682132","-10,0446267169114","-18,2293007600736","3,6776604635141","103,458440262413"
"3146","58,3604483522844","79,727986652358","1,89251902385005","-13,799818905217","2,21388919778627","102,105799294747"
"3146","36,5224497660208","43,8075610731407","-3,13224285149394","23,6415031551706","-13,900700456135","92,2430410834073"
"3154","65,705975817288","93,6418229678484","-28,8952365162894","12,9419009708319","-11,2355312477208","93,7073254535047"
"3154","53,4372404354294","72,5890575241393","-21,3164566824329","11,7232497546889","-5,38793520294641","85,1400235444466"
"3163","39,561730692571","-70,3559098705041","-66,6979723060149","10,387989362319","-5,72630195958733","87,2000663496803"
"3166","41,4103904102601","-28,4938537495594","-51,0089521977073","10,0206488820143","-5,88031536971813","88,1474451812148"
"3175","-5,65934715215205","-1,95609814882788","-6,83115547600705","9,91959066951766","-5,95041720458984","88,5831286768002"
"3175","8,25810732398241","-4,061433047012","-18,8201928954897","-33,2305175134512","-15,2513227450565","85,7032583062299"
"3183","27,7293344883548","40,6366355231871","-4,30078464461574","-20,1014466263854","-13,4847888036382","86,3788546483494"
"3187","24,55482783393","26,2494568230045","-10,6819382374771","11,1087385290402","-6,50138903797678","94,3901345722043"
"3195","27,0066945895527","-48,8363755647331","-14,023147741977","3,69490229972201","-7,32277532635412","93,0743866635082"
"3195","25,740255620326","-27,3441167615908","-13,8559174941555","1,65529850637912","-13,8759749903062","92,4692964619029"
"3203","13,4556493830948","23,4847455436625","-26,0695426651466","1,09418769880989","-12,8587757758584","92,1910257159196"
"3203","16,7802830960152","10,6903831406632","-22,1136910770159","13,0140675278222","-4,67161559778402","96,6834044660635"
"3215","-16,2413432588342","146,581861616425","-54,3921286271471","9,29331883085249","-5,94508976873988","95,7493734451105"
"3216","-6,12090878217369","101,887267558711","-43,4372710832325","8,26971203382011","-6,52473329439077","95,3198283817753"
"3224","-54,1174884485532","109,417484213546","-110,737180283185","7,98810987246366","-6,78856794804284","95,1222878747722"
"3224","-38,4773309534196","100,373878822055","-87,5111445109866","6,18574668443319","-9,99832262903911","90,4110915797986"
"3236","46,1402838333538","-154,303849642286","47,8338509015566","6,68990260566177","-9,45929730932701","91,2444921141358"
"3236","24,4565799094815","-75,4706224874031","7,56750876901154","-62,1670902509653","-18,4829482187181","93,1678758386327"
"3244","6,0634402899391","-1,04326853427099","-111,015550793152","-41,1101825293169","-16,5902170951936","93,0524074711197"
"3244","7,56049424789733","-12,7066039104167","-78,571430180882","-45,6666175626441","-26,5425385959617","92,9993055225506"
"3253","135,569537055863","5,14552228046666","50,3173091880851","-40,9201281461857","-24,0725077580267","92,9748848348543"
"3256","98,8678847026788","-2,21639026054328","13,4417968618817","22,4817889221475","-24,4930639382057","88,3433034157045"
"3265","16,4530692777704","190,772682317252","-11,505951688598","3,92414758208193","-23,6844872686296","89,2133174844008"
"3265","33,795817077812","128,912379274038","-8,72397852882185","-1,18120334582431","-23,3164497832989","89,6134222345187"
"3273","-15,4415875020342","100,659349644936","-88,5654617868075","-2,58572494527996","-23,1489312340938","89,7974236395842"
"3277","1,82733415801808","100,319046254736","-62,4653130642447","17,7265872967844","0,0998114272222566","92,962276611296"
"3285","90,33388086117","-33,7643133600151","0,0641961809602236","11,3146617860276","-4,31812615604212","92,41773894572"
"3285","67,81368588355","8,40004062007165","-16,350823635117","-43,9209683994709","-1,6945271792323","87,5469645284865"
"3293","-29,0672226573768","-119,860941177154","-18,6913780711332","-28,1167182608606","-3,50035128191461","88,3069777843549"
"3297","-5,05250865163208","-73,1838991705424","-20,2747425488817","-65,1662606215576","-7,41196880484154","84,0361442637354"
"3306","-60,7978394712011","-22,7726584123247","-43,4292374341106","-51,3588768061","-7,19240834864895","85,0720601873445"
"3306","-40,4759898001382","-31,6755213512937","-36,2003101373992","-4,43805224528058","-0,913139994142634","73,2275250387567"
"3314","-3,78132789238997","166,133785585845","-11,6387038623208","-16,5297698391255","-2,05502372407949","75,7804237257983"
"3314","-10,8028463125101","102,525807800273","-18,5169198965885","-19,8562950427588","-2,57477161233637","76,9544586385734"
"3326","-16,3052078172138","199,112698206753","-32,4865662169327","-20,7714479021045","-2,8113437433382","77,494377431047"
"3326","-15,9514302180931","159,206540828475","-28,9683888588667","37,6231230036495","-15,2776869140483","70,0420923518612"
"3334","212,063664224329","-298,391201080723","139,981256346319","19,6879219344668","-12,9519559901305","71,6149125317892"
"3335","146,282292878381","-160,277787771728","86,0906044667108","-57,6916654117939","-21,1623573186961","67,7178751633771"
"3346","61,9705315014252","-106,993168940146","-25,3836573809492","-36,9793894721964","-18,8994617544511","68,9256936129971"
"3347","74,7457420873363","-103,149511343437","2,83227421863515","-100,27697192766","-14,7798003469311","67,9410319631166"
"3355","-50,6940727659085","91,0106401960608","-231,73973391798","-77,6906273271496","-14,9046660747138","68,4882027301751"
"3355","-12,2237467062779","30,4545903598702","-152,204931272659","82,0384614613381","32,9283195347855","57,9590188726952"
"3363","366,662090254523","279,231277543431","384,092091179101","36,9811714596897","23,7003201402533","60,1168253636238"
"3367","264,018937427796","191,864925131269","222,75983571283","24,5855618504977","19,5000385595628","61,1091640601111"
"3375","51,3224394619162","536,347590640649","-108,076766286132","21,1754335987126","17,5882086381672","61,5655238368965"
"3375","94,6869005681707","414,846214706753","-24,5351439147001","42,6608801615561","-7,99932006043043","50,9945775414532"
"3384","-31,8059701799868","425,044100842612","-290,837373918997","35,5716929925635","-3,64592089915494","53,133178193756"
"3387","12,3492976628943","403,693571683742","-193,211075354526","78,4686012083636","74,0324159617633","55,6568013693631"
"3396","71,4818914032172","-409,303490431734","-186,386081033547","64,269873048391","60,3890380838786","55,8173729697522"
"3396","62,17345898819","-156,524912332683","-174,685005772733","-232,867989830758","68,0825177907101","62,0516848094175"
"3404","370,63771746176","-1166,29151248696","701,859633752173","-144,612918303483","62,5843365189565","60,9187393439537"
"3404","279,925505484364","-810,634818522646","421,331376169805","-137,582186789653","50,8127478864679","26,5151446673149"
"3416","-395,224828433898","214,510929099053","-177,316963723911","-125,647978072056","51,4547082080297","32,6935135621085"
"3416","-216,219481585512","-55,1501718341614","-24,5252755594507","-122,364784780748","51,7469074159954","35,5348408828167"
"3425","-40,2051185079335","1230,40150190132","-156,266694656703","-121,461552866243","51,8799068775946","36,8415192441891"
"3425","-59,5443133014559","785,395393277757","-92,1021899423142","544,595342282694","133,816588373329","23,5813862402497"
"3437","-303,444445950094","-483,968510667432","-319,465061676462","341,8327551292","118,111468807907","26,4832754246157"
"3437","-236,415635065967","-150,756724173867","-237,133439428175","-555,696222413571","27,5420378887205","-21,4659362568951"
"3445","-170,439627109805","-1144,84688571348","42,4992425115246","-314,613398705143","40,3178140673708","-11,5169674395598"
"3445","-177,700614664842","-782,117360728209","-35,8045475003636","-358,682749946167","-20,2948885005648","-0,78113733317359"
"3453","90,5566409023443","-219,765878460887","-60,5734150202947","-306,806569947195","-4,88379561545043","0,1560892894488"
"3457","11,8151086412613","-342,663653462023","-63,7468571940142","466,417559764444","-58,1176570994466","-10,1937144795502"
"3466","-362,111104292167","1026,26304314315","-131,066616134255","239,137509232379","-43,3479586307561","-7,95341412092421"
"3466","-267,984107816341","576,918256192424","-109,845527751102","176,611006234754","-36,6252780389963","-6,92313789042584"
"3474","88,4346018404899","-143,671521841499","24,9997505565853","159,409480768882","-33,5653351136462","-6,44933128362738"
"3477","2,06962817018677","16,1150125556011","-15,3911420685314","225,397790134403","40,4345972124769","-4,69131872230874"
"3485","-113,91266161827","-168,596740173451","-55,2211350182148","202,551685356146","27,1169306666732","-4,88283848979427"
"3485","-95,612788716757","-86,5859407146282","-48,1484422742557","-262,554793972442","-67,0003089683929","-28,0726689807726"
"3493","210,906560651947","265,357829378585","4,38635172625234","-124,509190347634","-52,8393785395107","-23,737279666634"
"3497","125,612461618717","166,79489233037","-11,5197709453058","-10,6365160711455","-47,9386220370454","-14,0429228762786"
"3505","171,528014213885","-431,336202401137","61,5491069972557","-23,3092610268587","-44,7079589877012","-14,5846522106435"
"3506","143,265245249379","-257,734181310949","35,7609405546032","-150,987873462559","-12,3408091974624","-5,59308284968689"
"3513","-43,7761489585275","-17,7296136526303","-12,6847456327777","-114,113249070776","-17,6083479920636","-7,45801223212342"
"3514","5,2639267846707","-67,3750143486634","-0,759445535924189","-103,968754174847","-20,005958267986","-8,31566170170652"
"3526","72,6612415151961","279,94699997904","33,7264840874388","-101,177925023609","-21,0972715471783","-8,71008018189323"
"3526","61,8254872074612","163,183303580072","24,3218262913356","111,75160062626","0,0336593854159428","-16,5920511643929"
"3534","111,308869417045","-397,9117968173","-46,3017713131904","47,3301630326911","-4,34823638804851","-15,2168362613912"
"3534","95,1135405014606","-238,687606411499","-24,9041382991151","-115,283622743363","7,5607651269162","-29,9855673887827"
"3542","-1,57588015113733","-2,41848379046587","-89,6012692151473","-76,0199352352822","3,98135062645142","-26,7774569568875"
"3546","23,4961241018938","-53,0343750933843","-65,726511767892","102,09635782411","22,4349468646353","-33,0026858451808"
"3555","-9,82228280606213","250,530647208283","-28,2622754496156","54,097530191998","17,8344164639365","-30,8655632840587"
"3555","4,20935946851355","147,398626734689","-36,9246141170039","40,8926807879438","15,7404064540408","-29,8827367769308"
"3563","-112,350473763763","111,903350227156","-32,080600779869","37,2599243981378","14,7872820228062","-29,4307514950917"
"3567","-76,2233930268286","107,681468471299","-34,8732691890538","89,7321847608321","12,808618238778","-35,3833587886867"
"3575","119,974144156837","-208,390535922736","25,7072104058684","73,1677101717932","12,9079956128861","-34,120862168744"
"3575","69,6734463442718","-109,507903010723","5,80641053419503","-84,9047155156342","2,13939851441919","-36,6204951725659"
"3583","18,9071257273498","48,4371397031292","-128,709796419233","-39,3916646581078","4,23788756835564","-35,7700340988492"
"3587","24,7186190946326","13,4721914380241","-88,2368853903719","-11,3466414431317","-7,16561261054703","-27,678336843531"
"3595","-51,780174572174","16,5694508801544","-100,909189893939","-12,6312382477585","-4,35611054070791","-28,9571021820964"
"3596","-28,6674435505735","10,3741371131656","-91,0676604617836","21,5132042460186","17,0055102262505","-18,7643662899453"
"3604","24,1695450287821","3,54397578942496","107,470157623814","10,9066049467906","13,7286168721302","-21,0768995076467"
"3604","12,9775638439737","4,76945967634157","44,9541212431285","7,98864729355512","12,2370828777355","-22,1403944079006"
"3616","9,62909426034093","-22,7552582235496","-0,390386871623637","7,1858945331397","11,5581856979912","-22,6294777188812"
"3616","8,62728337740874","-13,9063419397805","5,30785706234217","13,864620034265","-18,1026513454688","-27,4747496166882"
"3624","38,9422322032873","-39,4504472327344","-37,0408511049337","11,7019891702223","-12,6032880680205","-26,7030081836217"
"3624","30,0120012099241","-30,0869561361318","-22,5959279889304","5,93235590794072","-7,01049308722333","-32,5085650333344"
"3632","44,3483656439121","76,7573808128294","-76,7706602790715","7,34508509105771","-6,46483690129643","-31,1784424022488"
"3636","38,6375866008096","44,516168419885","-57,2732791130089","45,6813673673451","-3,12680633508962","-36,7272091864414"
"3645","40,3306394512747","124,889611496486","-33,155374803717","34,2279756730657","-3,60744469411164","-35,278993148945"
"3645","38,8371749680571","94,7711050722933","-38,1441800050487","31,0770588705182","-3,8262154547133","-34,6129830961794"
"3653","28,1854614649991","60,8432281183136","-11,3754718718093","30,2102172430259","-3,92579270400238","-34,3066963413721"
"3653","30,9986317080859","67,0285659919182","-20,7035854162516","29,9717423945164","-3,97111699024936","-34,16584024501"
"3665","42,0451809889475","25,1307003231105","1,48206881793197","29,9061361158514","-3,99174711347997","-34,1010629094872"
"3665","39,3501395713719","39,2453882185957","-6,98833426405562","-20,133787971123","3,72302731069692","-38,6916236669314"
"3673","-39,693679191427","-19,7345208995713","-61,622254386165","-4,90015882549641","2,23453869335395","-37,8027448899598"
"3677","-17,3423807511357","0,942151565748669","-45,239322115485","-24,8577609286005","1,55702766900369","-37,3939645796848"
"3686","106,701041257055","-65,0338859092876","44,6311345640051","-16,348251910118","1,24864695129588","-37,2059734312879"
"3686","74,8129358166998","-41,1748487691117","18,0306272735589","-14,0072200425745","-3,52621654724943","-27,8788179667079"
"3694","-55,4853835667362","-38,4565187181703","-97,1463322283003","-13,363184036155","-2,69957724503346","-29,5894169779879"
"3694","-23,4686477493202","-35,7502805713044","-63,8532684116928","12,687379030964","11,5801779951345","-27,2958586823393"
"3702","-5,38565362702385","-15,9050487164296","-60,807512460249","4,8540907854399","9,07985255596993","-28,241090027694"
"3706","-4,97549837393002","-21,7491406748514","-57,0483821436784","2,69909249228384","7,94178671538508","-28,6757859307194"
"3714","32,5651503050996","4,57563566371604","8,66659688676496","2,10623576367322","7,4237766046937","-28,8756952217471"
"3714","21,7967381871627","-4,58503250033829","-11,9544700568414","8,84270528954294","-2,08100203982618","-28,9676301223548"
"3722","-13,7404966247131","88,7456482717878","49,4346977504116","6,69596025414124","-0,407264424799026","-29,0099094276652"
"3726","-5,37269372092507","57,9935084650046","26,735456949268","52,6774648491962","-1,19026706970036","-41,3502883196669"
"3735","2,23327080470035","117,871491993892","-80,4661110906444","38,3273330543793","-0,546664100779457","-39,0254197808658"
"3735","1,50885905379569","94,4281445463917","-49,185244724587","34,3795006045694","-0,253717213804374","-37,9562520751437"
"3743","130,554088595574","-103,083927662636","-20,3796429555805","33,2934213075555","-0,120377433330274","-37,4645599369086"
"3747","93,1624474641597","-44,3987265452281","-25,2000770486185","-4,95299705399423","-7,78385013141838","-35,6983221222938"
"3755","81,9754403611994","-29,1519658837468","-26,4015317013857","6,5251168995467","-6,2720106569789","-35,8860592349544"
"3755","78,6284589467746","-25,1907677240367","-26,7009846665743","9,68283498717931","-5,58387109108215","-35,9723963566764"
"3764","26,6026344365383","-219,063365914124","-21,5233469352209","10,5515477008988","-5,27065261110554","-36,0121013381881"
"3764","41,0373035036735","-157,432608025266","-23,2328621318581","-70,2793985173019","18,0444078629197","-22,1693087132213"
"3776","47,0567509986832","236,201548397151","14,8577307902615","-45,5166181464842","13,6566559651203","-24,8032425961008"
"3776","47,8576776187773","121,470019099833","2,35150649793864","106,186763729557","8,56982989515673","-29,0947780630856"
"3784","145,043774456003","-77,1367365763955","30,7480740254758","63,9215395685126","8,25447410324978","-29,0683826143464"
"3784","117,120368120506","-31,7359406668883","19,8256914184514","-66,7235164418062","8,11093452684976","-44,4574129876"
"3796","-134,450475208226","-91,2885053491113","-161,473940716799","-33,6649836631081","8,04560003634141","-41,5345676838146"
"3796","-66,7166236322876","-65,760612169887","-104,66142432714","-5,59651037351821","29,6435227429968","-32,4898159844891"
"3805","-60,0582136273099","-62,6087034973962","11,0426048782819","-8,8746558809142","25,4741862538432","-33,3302877093206"
"3805","-50,0661191974795","-59,7898190726811","-18,119091029242","-9,77649911095136","23,5764415195438","-33,7168064353323"
"3813","-4,55625499077024","27,952249400785","-81,4116664297025","-10,0246031715334","22,7126505816018","-33,8945598577782"
"3817","-15,9403997159001","0,748155225182158","-65,18683475123","29,5796632617495","-2,39784526839648","-35,5164225686416"
"3825","75,8992948560074","94,6116300614578","-50,6383772146764","17,4751038341284","2,17268354381322","-35,2622897884991"
"3825","47,3763267385816","60,9979132884765","-53,0122905053645","58,9922442795976","-14,284957167188","-42,8460030194414"
"3833","52,4492133146251","45,3040953695224","-22,0903254801662","44,4139313147744","-9,7759335082787","-41,3336244228268"
"3837","45,9669433858798","45,2267491030173","-32,3832729543602","40,4033244570171","-7,72357435526053","-40,6381070947118"
"3845","-32,5091409244442","-50,5040221915602","28,0785800531298","39,2999754339647","-6,78940802312016","-40,3182504432153"
"3846","-10,9879850197504","-20,3754400290372","7,14821345309513","-28,2743622372787","4,44962415088071","-30,9304522648388"
"3854","-4,54918434974028","-12,5478570514694","1,93148694042394","-7,86458613538277","2,56526165874775","-32,6131627180794"
"3854","-2,62279367389928","-10,5142049220664","0,631259570877466","-2,24969858309405","1,70756187695759","-33,3870127851518"
"3862","48,9780118159874","19,5974498117575","2,05794629198511","-0,704999510088624","1,31716516785615","-33,7428933379555"
"3866","34,4161835588388","10,4206349437173","1,41353654921767","23,8684506940762","8,86363401317611","-23,1257383474466"
"3874","-114,509792842213","65,462850195394","-187,828941010758","16,6287972544354","7,29853823619039","-25,24308840271"
"3874","-74,0661670852835","46,763141686959","-126,996115331014","-28,4851937894531","1,95165940799638","-24,676704949578"
"3886","60,4926484114689","332,517264419358","-17,2930881666489","-15,8964022947176","2,51793616029502","-25,4162347823245"
"3886","28,7505878647717","239,757867405722","-43,9504858479832","137,632497664741","-4,94847787853136","-28,8365658787449"
"3894","49,8685241785037","158,232024327866","78,9614626517705","92,8694876736053","-3,34694378866928","-28,4095182801978"
"3895","38,1866877143402","170,0511304489","35,5962829927424","-109,183310881322","14,3751838837176","-28,2131263149953"
"3903","34,6916609237021","173,121803784407","24,7878587172868","-54,7696013848113","11,4417130684809","-28,1228089730237"
"3907","33,6460023660985","173,919582790436","22,0939453924301","-39,7999682736754","10,1064937098805","-28,081273555562"
"3915","19,7266349555875","-534,13215399497","-104,632066685776","-35,6817062114944","9,49874580718411","-28,0621721198238"
"3915","23,5621731299396","-311,088162684713","-64,2175118758466","-125,968029733117","7,67728605072463","-26,5132707733582"
"3923","11,1031851213228","242,815301595093","-55,8952652465364","-97,8064969241602","7,84821752374153","-26,8009572505281"
"3927","15,3756464754998","101,722681797193","-52,8210118201277","123,827598140144","12,5605186503065","-19,2326747971419"
"3935","-37,7721878924836","143,374723863979","-55,5562947280958","60,8008550404853","11,7054030156334","-20,7521497472757"
"3936","-21,6732070130933","109,196169549813","-54,2380421211696","112,457399703443","42,2128408341284","-27,6113982457224"
"3943","83,4914642582277","-23,2374021361995","94,9049514730574","86,668515404773","36,0988223632353","-26,765850576108"
"3948","55,9551253571879","13,3555764581467","47,0776500564097","-6,67081906417334","5,50892992292114","-43,3182836218607"
"3952","47,7166739398563","22,8626476770473","35,15707761267","17,6508067766943","9,58541776399264","-39,9304675231365"
"3956","45,2518552869608","25,3326407367327","32,1859702497741","24,3418745034307","11,4409008498397","-38,3724682189914"
"3964","41,1127886556446","-47,1137933234953","-78,8523082605625","26,1826390812882","12,285455676467","-37,655970699356"
"3964","41,8744432286166","-23,9358032998133","-43,5277113003392","-30,2323966171062","38,9320287972044","-38,866582532104"
"3976","-87,1596438304462","76,056457095196","-59,2339499149657","-12,7526100738043","34,0606717979692","-38,4233224312153"
"3977","-49,7646690386335","48,0350348833701","-49,148604300194","-26,917600118013","38,0227220965751","-33,5991238524304"
"3985","-16,4660657140721","247,838004049486","-9,86899463047943","-19,8144986376461","35,8261169798543","-34,3805565483683"
"3985","-19,5036329178939","180,747991445362","-21,0788660060225","152,903952509699","30,1917958866234","-25,4992227077732"
"3997","-47,6254712920683","300,792946309679","-79,8970926874","101,420136742006","30,6272383811671","-27,4148475409102"
"3997","-40,0390951962591","252,981332147751","-62,5570653682673","-11,0623182331257","21,5564399792341","-28,2958109905362"
"4005","-37,7693675057501","240,559593377399","-58,2352022124632","14,9928868246076","23,4277111160343","-28,7009511756872"
"4005","-37,0902996973523","237,332352532606","-57,1580123791527","22,1608756266703","24,2794521437847","-28,8872682921281"
"4013","-181,456433112601","34,6313791225358","-34,1296774766007","24,1328448878083","24,6671366241823","-28,9729523816142"
"4017","-139,648572079362","97,9684731669171","-41,3900491401999","-85,7177551797775","-4,50822755459044","-18,2315386091749"
"4026","752,181208239482","631,261474899261","165,140562819739","-51,9385064438563","1,21210699130844","-20,2917441530068"
"4026","502,003037535348","472,81413562183","97,6166664006407","-75,4185261526983","167,56810402635","-21,2391978252692"
"4034","-280,385607465841","-638,570795930621","-878,628506741655","-62,8780615112672","137,287878195137","-21,6749157388391"
"4038","-98,4643230307059","-312,315142571883","-573,949809942825","-601,044249465508","171,395136462632","-24,9555288739314"
"4046","-314,465889286593","-1007,15896669132","449,148994895284","-435,097937792164","155,919637770435","-24,4642273489071"
"4046","-220,090254060062","-739,683481930902","163,148191147888","145,271776338532","133,427370994219","-22,6981691706991"
"4054","-191,854507522085","-670,191776674634","91,8647777196757","-5,06401826653013","133,189631500641","-22,8859888951038"
"4055","-183,406804037566","-652,137422632619","74,0979569156846","-46,4225602503877","133,081420308465","-22,9723640085693"
"4062","-492,128579441871","816,056454828465","183,468988646349","-57,8006156198634","133,032166135606","-23,0120864618409"
"4066","-401,493412591303","356,50186573396","145,72884375785","718,720490828916","116,016585187456","-32,2710556621433"
"4075","-513,843611209477","12,6218378987446","-495,701222190463","480,347464144107","119,271652815266","-30,5290989415895"
"4079","-465,457072184437","52,2797826474116","-294,572537155938","-639,139968169267","-172,76500147698","-123,675134599151"
"4087","413,033610306005","-240,21062575232","-505,305762093179","-336,119635229708","-115,690473994566","-105,51142042736"
"4087","167,864585559681","-142,201355403697","-408,829333353942","268,16106626809","-71,1740327326724","-101,778586356115"
"4095","41,7884891762486","527,133852141394","98,4258520070311","132,40336956377","-62,9116139487037","-97,0619191238884"
"4095","35,0684495342863","331,031078655554","-51,1448491311829","258,920139157359","-22,0748429087623","-68,7108160377382"
"4104","33,0579164597257","280,08242387614","-88,4241503998596","198,725882797087","-27,487288891846","-72,6726234107527"
"4104","32,4563957159103","266,845663489275","-97,7157181501273","182,165976452736","-29,950856150281","-74,4945915903827"
"4116","-171,821405549159","381,73987499492","377,925365834331","177,610217901748","-31,0721908769096","-75,3324839296709"
"4116","-112,938199158132","343,590067392004","223,475102719173","-44,4293147588094","-14,5894234653523","-17,1933735044801"
"4124","56,0513168452475","116,154258562326","-609,864520607432","22,4858893165574","-18,0870102772249","-28,4561802960959"
"4128","17,6103952556189","182,06509677963","-363,567758211504","-545,568585029804","-124,727634919582","34,1293898714031"
"4136","285,043167949558","-1205,1475296458","-298,678743618302","-361,844772534527","-105,266937133236","18,9114346840507"
"4137","201,054963023671","-758,553534890273","-284,505675593354","-480,340368759313","-121,126394705516","25,774006845532"
"4144","95,9886578626489","177,10564129759","585,652056376976","-414,939425452629","-112,345097771325","19,929987672313"
"4148","111,554426399332","-50,8045975969756","307,531913157313","475,848360036716","41,5006523509314","26,4831236476967"
"4153","116,211466259415","-110,017019102944","238,212691350681","214,910982159765","14,5261739053545","23,4968000079517"
"4156","117,604781353834","-125,400754724503","220,935429602394","143,125087613276","2,24827919387224","22,1234402926982"
"4165","-349,702566341736","1111,36086361741","-116,014809005591","123,376231785233","-3,34021434643428","21,4918553960116"
"4165","-214,513777076316","719,678811432571","-9,99696167339286","397,375713252508","57,454236874985","5,80023099449867"
"4177","89,5590116941194","-1320,65873428365","-356,48431414096","310,75509370937","44,1258699945987","8,583918424383"
"4177","25,5329391512362","-736,750437742794","-229,843516178052","-711,787523488961","-33,0030780106752","-125,666199727912"
"4185","118,631127059196","67,5251672974581","-66,972460213454","-414,096920727195","-22,1096364090795","-99,4055576409473"
"4186","80,484680898642","-98,5192966827586","-101,378151855957","566,468933763214","77,0835074876018","-91,949083416299"
"4198","-106,112127759629","1005,12929550286","73,8760942112144","315,230198320452","61,2329616029626","-85,5199770791065"
"4198","-58,9390388201345","632,863695641832","12,5568136839109","473,798252646509","72,5563098293682","-91,8040413670754"
"4202","-44,8255721450562","536,146901705512","-2,72652666924738","385,421553067885","65,7103252289895","-88,6939762108072"
"4206","-40,6030387882935","511,019309382148","-6,53577704436342","361,108438220423","62,5942583775223","-87,2637098657313"
"4214","-302,966092194982","516,672371798957","38,0345056589284","354,419711933921","61,1759273134595","-86,6059545728127"
"4214","-226,461104802202","511,141070687815","23,1432922319799","-392,573861111687","6,46119765754285","-87,8435809617473"
"4226","259,049777618177","-541,373238855212","-216,920553122771","-166,077581191392","16,5568536778091","-87,4127443981799"
"4226","132,307207510394","-210,82265139589","-141,754546990506","177,390737420295","-8,19976139821248","-33,3105177746991"
"4235","-176,041862859125","256,158847793953","-224,563984777631","108,881533259998","-0,468157705831483","-43,4298191252573"
"4238","-109,295188362856","158,48338985768","-187,203574989242","119,357288621118","41,6718366918781","-8,04047470115157"
"4247","-162,460661982986","289,724201259799","167,007533652903","105,239250093126","35,8525750850747","-17,7655139653335"
"4247","-135,366958498037","233,821336523312","58,2918201561819","-10,7627280432892","-11,5963158026469","-6,83672578801885"
"4255","-127,260936826873","219,297443229956","31,1952978744667","22,32422892149","-4,19348913340996","-11,8107610133022"
"4255","-124,835739128453","215,52405026716","24,4417063636531","31,4267071592299","-0,82396610090262","-14,0982356559498"
"4263","112,303169001751","101,43108314489","-49,0226501598962","33,9308694536568","0,709729874146833","-15,1502065415113"
"4263","44,2515031579656","136,789058754596","-26,3330535912481","-70,5986434324557","-38,7578380018485","-7,93340555634635"
"4276","227,989321080311","-621,45033541944","143,893398562294","-38,3555223820742","-30,7221758064672","-9,61452088687593"
"4276","162,960865842298","-377,445392894822","92,3209806050221","-43,2843279543193","5,37688435181","-19,6283389001229"
"4288","-181,350374761707","618,6925725395","-162,137635658889","-36,6402805584578","0,807988319251786","-18,2335243770884"
"4288","-93,3630315404981","341,4950790591","-87,5594110729601","265,318800110188","46,6181976112495","-23,7525404547188"
"4296","104,743780586279","312,982391569503","-33,9562250106831","174,390082954365","36,4694970175719","-22,290642570637"
"4296","63,0143086333926","280,574627538844","-40,5960595038705","-42,0881516113849","4,04315007832112","-40,0997435003568"
"4304","50,5294888979056","272,154899697055","-42,2509851581732","9,35700866199231","7,28374427919256","-36,2898476994609"
"4304","46,794221794512","269,967404846663","-42,6634621444715","23,5099708798214","8,75875609383113","-34,5377410816027"
"4312","-97,1917978114269","-202,19352413048","-107,544314592692","27,403560451219","9,4301329211853","-33,731976892561"
"4316","-56,2702125404705","-53,863712538197","-86,7153482682699","-194,036383321898","5,10122280799724","-30,2811857363228"
"4325","-76,3425907575461","149,991686403739","4,26324684795258","-125,956227697638","6,130845412474","-30,6942252687243"
"4329","-63,3479393031888","107,95451890729","-22,0610657979812","110,109574318405","12,7788273933237","-17,0231228871325"
"4337","-117,287858394374","-2,15804913958326","-165,181313931618","49,0531056263166","11,8047699697255","-19,7360142080522"
"4337","-99,4258571488402","26,2340575778674","-122,852891367705","-60,8881835884457","-13,3559155550732","-20,983627026176"
"4345","58,9915570100277","-25,5561058675401","-61,5308886197388","-37,1338841396242","-8,80823143081716","-21,5573830524288"
"4349","16,3876242540235","-5,01149515880888","-75,2468697748476","2,17406047778687","-19,0969386300544","-20,2811268219679"
"4353","3,64117922155218","0,326115625427034","-78,6654684026919","-6,012019377452","-15,7800194897779","-20,6941981750093"
"4353","-0,172362169011468","1,71285832344679","-79,5175267750486","-8,26407337607243","-14,2702670749914","-20,8841627013728"
"4365","104,137232897447","-55,3532635290499","170,628497938529","-8,88363088129961","-13,5830774699522","-20,9715241729704"
"4366","73,3450682747239","-37,1793778678803","89,9753943928161","-28,0278907173625","-27,1737876198888","-21,0117002356585"
"4378","18,21051062263","179,845986523924","-31,6707105282994","-22,2946249389743","-24,3598315358762","-21,0301765271357"
"4378","28,7150942833251","114,230453567543","-3,99002947917311","-41,4160661158204","-4,54101636371631","-16,4183227029187"
"4386","-22,5681844139267","-282,179164985298","-231,692412550939","-34,6765227474696","-7,52014404245715","-17,2974091587465"
"4386","-5,91135699715036","-167,168717085366","-154,445410788768","-94,9185431963287","-11,9658107333973","-17,7016861462071"
"4394","141,940595812926","-112,925608190533","94,1570842175838","-75,4915898115535","-11,9893318800187","-17,887606292635"
"4398","102,175638625297","-112,832929233881","25,1192682346423","36,7962351842029","-30,5380329170841","-17,9731078223285"
"4402","90,2785716593539","-112,808850695451","7,91214463774698","5,68748591103871","-26,9807910904193","-18,012428529204"
"4406","86,71915119464","-112,802594949444","3,62340667199223","-2,87077206244954","-25,361651699117","-18,0305114570151"
"4415","78,8509658527167","165,630088597221","123,356774761898","-5,22521514525","-24,6246727428887","-18,0388274895639"
"4415","80,4969251461815","77,968538590378","84,1993593521266","101,070378907518","-1,116730448338","-16,5025349728778"
"4427","-119,706833877062","-271,962941526236","-93,633080960691","68,3131204706931","-5,4166888902251","-16,79602003753"
"4427","-61,6047363617634","-174,877199698102","-41,9563947334826","-108,013203535651","6,52960780106995","-16,9309888531859"
"4435","-49,3239233718476","41,7676000177058","-86,8514077789833","-59,5219415473371","2,96716883728343","-16,993058727921"
"4439","-42,6496919663453","-11,9468058814392","-65,0411307932374","65,9363767064724","-1,74400195065942","-20,1018374518365"
"4448","35,8838242816792","8,90175759542411","-50,8513036720659","35,4509321811381","-1,88837182305107","-19,5315121884391"
"4448","14,3798511342955","-5,68166290216462","-52,3146027261249","-12,6083716093009","-23,5817450531863","-39,2907492009328"
"4455","7,94619128245392","-9,47052138298729","-52,6793183145878","-2,8298584731148","-19,4558545005243","-35,3776879894629"
"4456","6,02133866077759","-10,4548891168859","-52,7702207586909","-0,139713739818918","-17,5778849264735","-33,5781373447737"
"4464","228,252255907431","-115,122280498112","90,7692782184293","0,600365921095882","-16,7230949905686","-32,7505544505147"
"4464","163,740347216347","-82,3154848335365","44,5453505748611","31,8520280960463","5,29363806868575","-35,4501969183194"
"4476","-183,817981152635","331,673142376743","-114,039265453505","22,4496025161872","1,31493026670638","-34,6917168130576"
"4476","-94,8021169249016","206,229824393088","-69,5652129319211","30,212275892336","58,2076042230662","-8,16091701663137"
"4484","-39,25607186606","-115,233310909287","-21,7144930430024","26,3478474877624","46,1032767603573","-12,9598510742352"
"4488","-39,6375447885588","-32,751325538546","-30,7880837323068","-74,759037292862","1,9729624325403","-9,00633197505144"
"4497","19,776859690076","-138,356190598531","-106,581439496181","-44,5743247301741","6,88629591942375","-11,188175432324"
"4497","2,55274073751773","-92,7929561135084","-83,4723273651529","-37,9951686671307","-3,23597972545676","-6,03110064552901"
"4505","124,960694960213","-47,8916714475893","27,3329138186434","-35,1851918551109","0,156693580194396","-7,65944920545328"
"4509","86,583282573723","-55,2260534100082","-5,04976583181818","44,9328981047919","6,33542554391046","-3,78794839949708"
"4517","-57,5622452592984","134,289783545807","-18,3731637863305","20,9740054536971","6,14778095808586","-5,00751068212851"
"4517","-22,6883824101282","73,527113445125","-18,6939141905809","52,3303579695076","27,6900321352444","-0,948015983644857"
"4525","-202,745969153694","155,191484507619","-146,579192383149","38,9567335136199","23,4953557983171","-2,08112305583803"
"4529","-144,616445037938","120,408368772346","-105,453575382556","-23,3687907492009","7,68258096038406","3,5582478505134"
"4538","-13,2703557442086","-52,2067361551027","-19,9207503573072","-6,51502540782967","9,48512633866727","2,15169911583458"
"4538","-40,9736148306214","-3,05315639859734","-41,6023776532122","-79,4985752839505","-39,1290676309397","-3,11549960740945"
"4546","56,1885421062321","-185,184507855114","7,26714799356963","-54,5769153732966","-29,2566485681083","-2,53779518263225"
"4550","23,2579733187159","-120,50330495788","-11,5525135071129","-49,4456658759798","-21,673382534879","3,88834898535138"
"4558","44,0203261456135","-30,6105949474508","-21,495437639744","-47,0340193794024","-20,2217294431242","2,84362396200227"
"4558","32,2321045410136","-49,2559397934377","-20,9736319746722","45,0487325842136","-16,4713189066753","-3,79729507757799"
"4566","18,5003571706163","123,399689517459","45,6852277686761","17,3814111594072","-16,7642554769131","-2,85134138382419"
"4567","20,3920283912294","66,2566382342927","24,2994155453479","82,2153912130587","0,0955715083400239","2,20403747306872"
"4578","-38,5705478558359","183,665289853421","-94,8300968969805","58,0517214967","-3,23039019666979","1,52892067561185"
"4579","-21,2112488073273","138,168748591558","-59,5221752955718","4,83201793524434","-12,4684230665046","2,75856280235468"
"4587","160,86717868016","-202,548208191162","42,0682156321229","17,1908651086852","-11,6732715548965","2,32405441169389"
"4587","111,342259205232","-102,068478965754","14,3888082386689","-91,5271166131619","-23,6700080831327","0,584114435076556"
"4595","127,139836125219","-162,972959614731","-3,01461070231818","-56,436275794151","-21,1305276728722","0,783945478489767"
"4599","113,866229507963","-128,796302160819","-1,35227371298045","-31,2584833180345","0,108188122528956","2,41596131369693"
"4607","67,3745870471204","31,4798825364382","-72,7190273529085","-33,3318775158707","-3,22464752917245","2,16649778365589"
"4607","78,4649987353953","-13,8794213206705","-49,5066200382687","45,4427592400599","32,3343453546041","20,5331767591936"
"4615","-67,8886657241013","9,13984684343281","-66,4809670749988","21,114272202706","24,5196284752475","16,9797016677093"
"4619","-23,6754435790357","-4,87961180000992","-57,711687344449","10,9715324047994","24,0522924075317","10,7251678375764"
"4628","32,0728586110766","83,7083383792133","44,2671912885486","10,181186094627","21,8395764120818","10,8488135517671"
"4628","23,7518979286317","53,724009249483","12,6846113492348","44,4616007291651","20,8324209234833","6,28532536565732"
"4636","19,5615784701419","-93,2816250746326","-147,503039826739","33,8924084194505","20,3739968960436","7,18665436013524"
"4640","19,3078989811607","-51,4745541223643","-100,428530997584","-65,609224360984","12,4411727907619","-7,80000887874317"
"4648","1070,33585457245","-802,81785302561","954,756179619608","-36,9828945346302","13,8304123704681","-4,69212173765033"
"4648","766,787342895366","-560,021264360389","621,752531323876","-61,880522163267","6,73858392249047","-34,0651954119728"
"4656","675,970271125504","-496,941281565465","538,754034733869","-49,730052445011","8,51061704365573","-27,573375021377"
"4656","648,799192343783","-480,552730757223","518,067323127383","-46,387364076707","9,31718819315256","-24,5878966611459"
"4665","-721,68303052201","1396,15397804879","-791,4033814595","-45,467764605519","9,68431283175572","-23,2149256756394"
"4665","-330,710349403176","807,733426975209","-372,778483851319","530,899236310927","372,887151012601","3,59846807982296"
"4677","-365,109864630866","393,829187337001","-667,612398633284","355,462264285306","303,205127969712","-1,07050579732719"
"4677","-286,401673429471","436,29442970857","-513,097394355966","-601,820022606861","103,101376911905","-7,83803864546955"
"4685","-883,650969357233","-151,299625654174","-136,689471807979","-338,17579730338","121,020735934276","-7,95031250004968"
"4689","-697,338823476816","40,0399802832511","-235,87280692776","-132,828524695832","8,68007093293389","65,9236667827977"
"4697","-906,924265262185","681,417134915831","-251,839670140609","-153,335898852991","35,5462979672311","51,8970599550097"
"4698","-813,629023731857","508,050694726945","-260,81928312295","-158,977636386528","47,7749201994421","45,4464607960292"
"4706","-785,716514462631","463,009073160296","-263,057379856451","-160,529722097424","53,3409865290099","42,4799393827815"
"4706","-777,365518624849","451,306994769906","-263,615207571115","61,5543875310327","-18,2775032286465","81,1587262796442"
"4714","684,432495129611","-482,737125152764","53,1329556349467","-6,34855307505704","-2,87588241191717","72,9464459534431"
"4714","263,780101924691","-190,407285134553","-48,9200974523211","-558,020883877425","-250,763002615654","38,3674187908272"
"4726","-115,494139065134","-208,428754258897","72,7076667741229","-400,790216754947","-198,593060417683","42,4651092535241"
"4730","-79,9671907830598","-159,110838008724","19,0224144535047","410,042209968523","-48,1707208595587","7,38676170256118"
"4738","192,587484246586","153,015634547053","252,498672045411","188,108493355078","-61,7034231108485","15,2548231668355"
"4738","120,131674157525","62,1079292407269","169,690762338609","137,402161753486","-84,8562258106155","-36,5709975849837"
"4747","-149,865029115712","-52,0005216020365","-19,0212146417676","117,452457028134","-84,3946195147605","-24,404815689364"
"4747","-84,6439130025704","-29,6465687540491","29,9438340654779","111,964138676429","-84,1845115228636","-18,8097944795006"
"4755","-65,1307526505973","-23,8388802325522","42,1479809237991","110,454259771235","-84,0888772807501","-16,2367388892261"
"4755","-59,2927135366808","-22,330008571594","45,1897669420255","-93,4984052832786","-39,2451931736972","-68,9575263350683"
"4763","617,677610780961","59,8511285328275","5,68047387299562","-31,6073637820603","-47,8338242179558","-58,2029244797718"
"4767","423,216777222421","34,2022716568444","18,8330984978427","106,161798902061","-108,901904242136","-91,7599880312688"
"4775","21,4723805064438","-167,363193111297","-47,9190348308664","74,0631630709928","-99,6980841861532","-82,1923137947818"
"4779","103,276601887347","-107,73108723833","-24,5564703028596","94,5557479094608","58,9744832999392","-54,6905485019816"
"4788","-64,4409547019532","-146,184332687271","95,0657318449985","83,1934167868301","31,1970132415422","-57,0429519559114"
"4788","-1,61948231087756","-125,174712184212","59,8806092130714","-180,391178512218","-18,5223667919345","-68,9056009387026"
"4796","-16,8405645666605","57,7835105267928","-1,41174114190899","-101,905343083685","-17,1529920476862","-67,3610324975368"
"4800","-1,39447956364436","3,31713364829919","13,3116306350465","52,5034217558097","15,911793486649","-42,0088408948882"
"4804","3,22675281378393","-10,8335516446254","16,9813133201377","17,9824694108705","9,96179551976992","-46,3497969195216"
"4804","4,60935485708626","-14,5099829722701","17,8959523860571","46,433117464005","7,25355229207356","-26,7844922781321"
"4812","-0,0794376456134684","165,515046403525","-104,429140870978","32,2601111953695","6,02084911785545","-31,7867397058626"
"4816","1,51774735496837","108,286608632264","-64,9176922352853","68,033529133084","5,45976320792411","-12,5255517921344"
"4828","-198,700604190679","46,4330825798128","-49,8175056139228","54,8750736007196","5,20437537011541","-17,6676573574578"
"4829","-140,602872534884","57,363172451982","-49,0539048419318","-29,8148552925277","1,99846540166034","13,8501475199286"
"4837","-97,7086904244921","27,1391859642238","28,1697683752961","-6,11371095722749","2,53924070797077","6,34465272215649"
"4837","-99,8754072246949","38,2868163814262","3,41715143248069","-51,3401100433043","2,78538382754378","30,6151072011436"
"4849","10,0293384566837","-131,096180925842","6,00154956592389","-33,7822428719768","2,89742007366325","23,776678575631"
"4849","-22,0888426826385","-76,1028805859744","1,64569013544495","-23,7772608104359","-26,4034101082688","19,0916840331956"
"4853","-31,6981112161315","-61,8152974764023","0,560027002511074","-24,0248127209637","-20,7401835572388","17,9371343102083"
"4857","-34,5730573828599","-58,1032992902352","0,289434147754461","-81,0143604667875","-49,0591275477155","8,16547491072032"
"4865","110,836918110109","-166,771129505919","-64,5560548152067","-63,6926266393824","-41,9489787215553","9,67165408305542"
"4865","68,341358660446","-132,003671396442","-43,718274424855","18,6928678694476","-40,2575059250396","-9,65719955076093"
"4877","-31,1142428064982","-8,11806960906509","26,2534215730008","-3,64224422108581","-38,4876031836443","-5,54621230524581"
"4878","-9,86983754302204","-41,9318610949833","6,69330729616715","45,4097454231804","-12,9646750657867","-26,7573926165822"
"4886","-68,1448176605341","74,5770930748761","-10,4372007547539","26,9043278572817","-17,3474782850582","-21,5120555623081"
"4890","-47,5798003671845","32,8468051202252","-7,70684290830413","8,01420608289926","-16,2527202176664","-37,5812168310012"
"4898","108,244684258244","189,063665652402","-68,3028529127433","10,8173872112632","-17,7544223798379","-32,9711522186533"
"4898","66,8649866459686","133,649725484709","-48,4059238714585","78,8593618659524","-32,3414440138637","-43,1719968575753"
"4906","54,4848140432217","119,252857672053","-43,4467734067822","58,5782363217222","-29,9809761233732","-39,8631927153191"
"4906","50,7808557613144","115,512466676794","-42,2107448075813","-2,19781051093154","-33,5410675818046","-35,2612958344154"
"4914","83,688994007079","-68,1796909068243","-22,6443366050335","13,0822280777189","-32,1615040316902","-35,1449613200079"
"4915","73,5346056240368","-10,9039946280524","-28,7675658165176","-56,884481719361","-14,5404100427375","-25,8507595290157"
"4927","-23,0482733158763","10,9373448369197","41,4873461070116","-33,1328657267548","-17,5198680651049","-27,5765133772239"
"4927","3,05560658798225","12,6118533843534","17,9978211350145","13,0739096567631","-8,06218887859131","-9,88875534113354"
"4939","116,316036504045","-169,673481426889","29,6508248230679","2,78575160137985","-10,7573646166033","-13,7544546857663"
"4939","88,201824760898","-112,032284311533","22,5552428131294","-29,3677686724532","-19,7082844768612","1,40906170365923"
"4947","-68,180448079772","-10,047056326168","-107,018607984575","-21,2134512437107","-18,7824485737459","-2,61749366573797"
"4947","-27,9676321698514","-33,5506938277491","-66,3138542037292","-53,4679803632561","-18,361038544948","1,69122932400389"
"4955","-15,936572724419","-39,6570771890992","-56,1685198052415","-42,3414512506436","-18,1692265707376","-0,327261873821197"
"4959","-12,3370637593227","-41,2435515275187","-53,6398763300518","34,8899099342934","0,456074911678977","-2,79564874348835"
"4968","63,5757272684334","-95,6017444375975","64,2911535788893","13,1368558291744","-3,06630091359961","-2,93081810133826"
"4968","42,2876732204279","-78,7243228987755","26,6845197892821","7,15242208971023","-10,8489021104784","-12,2336817181563"
"4976","-147,769438852636","183,209259451667","-94,7371447281388","5,50605799715691","-10,3912860075209","-10,5119112970928"
"4980","-96,6316197678042","103,261145843123","-61,0005237030512","-29,4447145502015","2,17566910346279","-22,0410335665161"
"4988","-81,3319664757401","181,681219874165","-59,5949726602962","-19,0599428966216","-0,104266576929126","-19,3430818329287"
"4988","-76,7545442264836","145,055216674736","-55,2446503018889","70,0416008237563","8,12697923911865","-22,7226902363114"
"4996","53,8769129539816","-134,19052222713","52,6358705253629","44,5541259111229","5,87357139946994","-21,2769149602379"
"5000","16,9598468699301","-51,7402087870748","18,5242277125404","-33,1782582373965","-30,683262732438","-19,0719104530011"
"5005","5,91482536228171","-30,3191320667337","10,0221735033166","-13,5630394317724","-24,3227303448428","-19,0578661873737"
"5005","2,61032386623467","-24,7538102539507","7,90310447538319","-61,6384005425849","-36,8759545162029","-6,73047211240355"
"5013","74,7567252687632","-98,1362537997108","31,8855554106928","-43,8643048996549","-32,5897689640543","-9,0613121488628"
"5017","53,3418250536731","-74,2014445495637","23,8629895390017","-25,175375452983","-29,0940054669739","-0,892524529202936"
"5029","86,0535662570821","-66,2428461159632","-88,4343246124232","-28,0339061496538","-28,5028489877118","-3,13583731352672"
"5029","72,8404188829565","-65,175155399948","-53,4235322183011","-15,0211720824348","-17,4199436084194","-2,62738198828173"
"5037","-41,6657469167871","152,626501203439","-35,9435821849162","-19,4412681104121","-19,3753698785208","-3,39355198693695"
"5038","-10,9242402958938","84,2126535327514","-36,5868444114281","48,3384192798974","-7,90675222939153","-9,90636828363141"
"5050","-37,4439729267383","49,0363920938686","-19,2395924162463","26,985136476884","-10,686614970154","-8,90150230584003"
"5050","-24,3782712975209","49,8973923305152","-24,9159285677066","40,0844976859743","-7,3174182429986","-14,5998491217504"
"5058","-20,4692132163976","50,1210852596979","-26,3307099646128","32,6882334559626","-8,78387079140487","-13,2204224100435"
"5058","-19,2996828294933","50,1792019993184","-26,683332914985","-22,8181959384241","-9,45135172250215","-12,5860474043377"
"5066","149,430937027463","-31,5948222956038","36,2560664957243","-7,0884447604866","-9,75516707190618","-12,2943090724285"
"5070","100,912557670768","-5,8401951155155","15,943208525855","-21,7348830939853","-22,2521171422925","-9,07990971090049"
"5078","-13,9515017543028","-30,4724854417855","-120,426458609821","-14,7642317685397","-19,9403174716677","-9,60166183009281"
"5079","10,6829285680518","-18,8720994500496","-79,4155077108364","0,952586435106189","-14,2535636091797","-6,76137296329383"
"5087","-9,1598714031156","69,4112607027942","-69,1938561290511","-2,72359509414447","-14,6651404330054","-7,45517216930434"
"5090","0,903466350905173","43,347797291445","-66,6461912061682","-20,983863632267","9,86484999113285","10,7071643467274"
"5099","-30,1020428266428","94,0027618596099","-1,23316023804039","-16,0074049981435","5,0300942166657","7,05971561545857"
"5099","-19,3784169280384","74,1632198009822","-21,9294853217564","31,9337481210673","4,37430544170728","10,002666414483"
"5107","-16,1700720823133","69,0087900019581","-27,0878788579166","18,1227308197271","3,07581197692514","8,3560796941294"
"5107","-15,2101843776862","67,6696388020687","-28,373567199507","-16,7248475812298","-2,14971825408737","13,7593099980355"
"5115","-77,8531665916316","-82,3349743802102","-11,1864347765719","-8,31168641836742","-1,52820761459471","12,2441641956385"
"5115","-59,5949887147924","-35,3070557867757","-16,9026794510743","-85,3422041580669","-5,87981517512959","10,00725735705"
"5128","32,6091589082459","-122,279990245448","-16,5766497320824","-60,5338964649128","-4,86052370158855","9,97854174900067"
"5128","9,19522956922952","-87,8760705258094","-17,4953894316068","-20,935986012425","-24,4794036740411","0,724634410587353"
"5140","-38,6294270532435","-71,9769532303126","-107,01303575907","-29,0422940196127","-20,4092720733494","2,46891899578053"
"5140","-28,9378328130206","-71,8462689774244","-78,3245933095065","-12,2985873990284","-12,3773504771273","-5,96961555177759"
"5148","79,4122922664714","84,8051538358673","-60,6696804491815","-18,6922639678585","-12,7214841407954","-3,85035481565059"
"5148","49,8289924217521","35,5041155065683","-62,2693345901078","33,0204458603923","1,02537378181451","-16,7367949338088"
"5156","40,978121599347","22,6954155710344","-62,6680355936564","16,2470130338946","-1,71750897575048","-13,6630507139141"
"5156","38,3300764277098","19,3676399379389","-62,7674086307171","72,0037404930579","-21,5039739091216","-19,950072349717"
"5165","52,8451594749411","89,8510229226627","29,9979972304399","52,3428482521935","-18,5101214665065","-17,8413672276813"
"5165","48,1878503073318","67,1630206753778","0,119032875071198","10,7112471729071","2,93540952216498","-16,8716094199844"
"5177","26,3846710943121","66,489126496292","-0,325028089164445","20,2580711304604","-0,303290660973725","-16,4256342118998"
"5181","31,8614933641362","63,3140448221382","-4,43570673372133","-13,3382609044957","5,94672419613899","-3,89960240448589"
"5189","77,7212724993744","-22,7803716790799","-38,7246624431501","-1,58087217097166","3,79152523708044","-6,13909230861627"
"5189","65,4418169687393","3,85179217671402","-28,2709104740321","25,8021680925818","-6,45844788241774","5,15193953002345"
"5197","9,04271753402962","-177,169979231381","-46,6744923393375","19,3354546485948","-5,12389826399343","2,34449403565487"
"5201","23,1689696351553","-116,200500906766","-39,2614379614316","-63,5135241446822","0,118043541352677","16,4545665464924"
"5205","27,3953281958319","-100,360271581983","-37,4137934336462","-39,3059201721424","-0,495997089697592","12,943550160922"
"5206","28,6597900329516","-96,2448867704906","-36,9532828091418","-25,7466517391852","17,7625068118008","15,949243887386"
"5214","-38,9945141456403","122,348578697114","-56,0968421759661","-26,016391928286","14,0731768009937","14,3315115777921"
"5214","-19,2356471499868","54,1404476298033","-49,8682212733414","87,7522890497172","13,9387481314553","4,34684234347374"
"5230","-20,1273575484543","62,5224854295148","81,2403043968692","53,050934731791","12,8775606258609","5,75506189675901"
"5230","-16,3941436605262","49,7001881851382","39,9180560565026","17,6309395015309","4,67037842555077","-4,37814019232397"
"5238","34,0464204026741","182,104020796352","-89,4327276616843","22,8866243592379","5,93473923101866","-2,03822838586506"
"5238","20,1374656571247","138,503315815334","-53,6723761949472","29,5071807419338","-2,75876283999624","-2,5022594552231"
"5250","-1,03203381335644","21,0237550705767","-111,288198390826","28,3285471026834","-0,715758832238532","-1,71565949291517"
"5250","2,6343757429916","51,5018737242427","-87,6484813682917","7,30558883868188","-13,6893468932912","1,72631835969442"
"5254","3,73130940271182","59,4202683395222","-81,7564709271896","13,5220101223107","-10,5944971472664","1,30922573806956"
"5258","4,05949517555977","61,4775138669046","-80,2879344381545","-76,1870935397503","3,17283991232432","14,9784641725032"
"5263","4,15768333903292","-49,3604249432948","-46,6575115340199","-47,866763074797","1,43927858383309","12,2647156538222"
"5267","4,18705973570778","-14,156773819566","-57,2753975391292","-57,3245432359782","-2,43944730284339","24,8777608991328"
"5279","-60,4351325244407","-58,9566755941161","41,6221430531264","-49,9264518426271","-2,20491565647242","21,6782870028799"
"5279","-41,7691040204334","-39,595953759797","8,2715642460041","-4,76887329000474","-0,553331655313358","21,7470200103766"
"5287","-345,732897577727","97,6888284035373","-336,186336106518","-17,3456735233465","-0,801584980607043","20,7786291576063"
"5291","-254,674215334207","57,3562228446046","-230,039713431742","-3,55672620554251","3,71991702342086","14,1728149115504"
"5300","-392,409934057071","255,700868229766","-343,644156186696","-9,76327995373817","2,77795590840673","15,1349127058956"
"5300","-336,618354363328","187,231974523903","-291,959155145005","52,3502623209612","5,43887204480969","9,41689752602831"
"5308","-319,926367078637","169,443352942779","-279,077081916475","32,4381790920997","4,65003348486329","10,7872790899275"
"5308","-314,932379795221","164,821764355182","-275,866328171276","16,6108571970357","-93,0334935356471","16,0378451432551"
"5316","353,281340647463","542,983365327067","500,519718821264","18,2566383045312","-74,4958197386852","15,4524916349973"
"5316","161,200665146102","423,231975054854","251,027732933509","23,8840821939382","-107,768569519076","25,964115895827"
"5328","25,4955614119414","-1440,30454319423","-301,368388495724","22,4322356125785","-95,913230031766","23,7982340434959"
"5328","30,8946700510489","-871,462299096432","-159,048704718749","-314,321167659795","-64,2549101583557","27,42253238299"
"5340","423,697518737073","-704,531600714626","340,374207433087","-211,964638258636","-66,8450849996455","26,0892858685385"
"5341","311,218122950986","-672,162022749145","199,85137482554","-587,430350736973","23,1210946805723","30,0964991122719"
"5349","-171,449229850445","1751,63721459466","-616,010883843676","-456,723877563561","5,07073839422615","28,9393486836074"
"5349","-51,8559191738581","993,354522529383","-373,358028058554","427,881473696875","-95,8351645784821","-13,1759620428425"
"5357","-16,0754298579851","796,348216007013","-312,878744043169","179,243260258503","-81,7642102490242","-5,54408088210719"
"5357","-5,37045473487449","745,164818026666","-297,804766103866","1057,80680718301","54,4063899073567","11,8267444114013"
"5365","140,700794905448","1588,04257414566","-111,968866036529","750,506446556462","32,3867649827287","10,8152930607522"
"5365","100,40307856616","1315,02717622145","-169,650753916802","-218,903988773058","-17,8014992987762","-40,4737146409737"
"5377","37,3221593460855","-1357,49403176436","113,601356107966","27,4036889194527","-14,6455452306969","-31,0606615061458"
"5381","48,4493131691531","-556,830771607367","14,1996796047847","-886,298851475595","-11,6642259030934","-3,63000384190945"
"5390","82,3930627165807","510,842148349556","-183,900435051767","-568,665500229874","-11,3072274766187","-6,01510849112075"
"5390","74,5485133948114","294,229857096785","-134,275304591335","313,89322381076","30,5657551733484","14,4496591060846"
"5398","-113,187322984678","-221,458537254638","-60,6301077688343","95,6919673657784","22,6249586077829","9,86105947340215"
"5402","-60,355013717383","-91,4374173618994","-77,2746313389953","266,798672660322","26,7347339632068","47,7938800416616"
"5406","-44,5483948807875","-57,6571651314218","-81,4231457467217","179,871453119792","23,6053684299137","39,2385424222039"
"5406","-39,8192962948948","-48,8808567770864","-82,4571297906968","-282,165530400032","43,8086450598368","39,9244381598572"
"5414","78,9518330570817","376,266449532294","95,8624735617139","-155,275484694019","39,00451158195","37,2398700046915"
"5414","45,4863382962993","243,722222056686","38,3072088266944","279,807952427463","-0,258161817660447","42,1657502087024"
"5430","62,6870188629671","238,869751566466","-173,873634253026","167,502777255721","5,87076159917849","40,4310791718186"
"5431","51,8331993956371","220,609051172285","-113,758012760427","222,851365932341","24,1087749567294","42,7135671501751"
"5439","-82,3768751273827","-1132,78562475046","23,7783849335935","188,078191549905","22,4101183247728","41,7632447532004"
"5439","-45,5304766155096","-709,40552740759","-11,9417677030785","-514,894863238529","47,899105300498","22,8448045294303"
"5447","4,61215403176111","352,477294276227","-12,0909401432494","-306,288197649449","42,5008531905156","26,1445339582962"
"5451","-3,38593783479615","81,3607014125616","-17,1281201811565","-205,776581256087","21,5057515305863","16,8812052578685"
"5455","-5,77884458651757","10,9230148401219","-18,3835970275489","-203,125056764592","23,949472318087","19,6211571180746"
"5459","-6,49476568594584","-7,37711071572034","-18,6965145925288","492,735975493294","15,7927760917355","8,56027926554135"
"5463","-57,7334171932979","734,411683931906","-11,7714748088567","281,172737398029","18,0801164507811","11,4735686840637"
"5464","-43,0632380038984","498,132778824876","-14,0454640164454","183,297529501848","14,4867397470613","2,0325227611941"
"5480","-33,5716988915659","-457,713646102487","-154,672877335414","179,371301416333","15,8511529491189","4,69074547765972"
"5480","-33,7319755669194","-192,04817324918","-109,72313562703","-301,228880249133","2,56869268942955","-3,32748438656852"
"5488","37,6543145140018","258,075791263199","-128,282657865751","-155,445714191298","5,52295397730054","-1,01493263786161"
"5492","17,0120006177637","156,020646597119","-115,908470378996","17,4770677626541","9,95730230560509","15,4497399780231"
"5500","-58,8972910808217","164,310001616912","4,47648264836405","-11,9505350168694","9,97567170610366","13,0215643424524"
"5500","-40,6081900870523","146,463624840798","-32,5185304259189","161,067389836278","-8,55396213275865","21,1455889669363"
"5508","-35,1363708105198","141,827031113604","-41,7392416169456","103,665961605545","-4,98804154507719","18,881690438492"
"5508","-33,4992861771508","140,622416773072","-44,037430151103","-93,2393024796822","1,26954687890779","30,1614971637879"
"5513","-89,1364002461079","-218,170536641559","41,176906544858","-42,4094663645061","1,11779515820218","27,3488894297142"
"5516","-72,7821737784904","-105,387057733384","13,4158985795591","-50,8493838590229","1,0487227699123","33,7560033170856"
"5529","131,106150207274","-4,73728740761193","-163,326836301279","-40,1712705590883","1,0172832923111","31,702526589663"
"5529","75,1064181715267","-19,5878846694333","-110,378549708599","57,6354349783119","-25,2591864856027","23,0575827894525"
"5537","83,8643843222853","-162,661686379677","25,371447072714","29,5428175341305","-20,2193706268301","24,0819194025958"
"5541","71,4846338371885","-119,833102172223","-10,7939517071176","-42,0066925052524","-16,380579420251","10,6919422056857"
"5549","-85,2925747478808","376,808173939823","22,210303738668","-24,6905171237483","-15,6332880185345","13,5341182425842"
"5550","-42,1979175719478","226,838500620374","6,43635050149517","47,3440947049873","-4,47931516179123","5,60048539805182"
"5557","-29,3046552989054","187,875496795822","2,50481878805358","28,1613745845812","-6,40239385537462","7,95194188478996"
"5558","-25,4471884356048","177,752679072546","1,52491594560245","147,076301743418","32,8879398238493","12,1135707766243"
"5570","-7,28494039703703","-223,381740697847","-126,524650721504","107,790719625907","24,7716064558399","12,0274334919086"
"5570","-11,8510735844225","-98,5988239636161","-85,4399813095143","-65,1569200559127","-0,550342156779523","10,4477034927015"
"5578","207,888797621165","-146,22841699667","115,632665602713","-18,7361558299378","1,92394031794667","10,7212123940764"
"5582","143,63160605637","-112,602865606394","56,7484150381894","-147,406608513598","-7,76367814977559","12,3871114295785"
"5590","47,8701488884087","164,123144141133","-50,7181873636578","-100,804847059376","-5,17316320401613","12,1532302100712"
"5590","64,2197856223847","82,0181902360794","-24,5033786930577","68,9808534936502","-2,44921315321262","10,5055552749853"
"5599","24,8901491746481","118,113245723235","-59,9877391571407","24,6902153128254","-2,20936075011319","10,747817449934"
"5599","39,1233235156365","94,4909535881967","-44,8319322644825","136,697759662684","31,8861363087051","6,23887896721305"
"5607","43,3816715750517","88,3537430546932","-41,0544685846192","95,5119030120577","25,4052843014429","7,16529444733376"
"5607","44,6557041808989","86,7592596355047","-40,112965967586","23,8101259159034","44,0830746040818","-0,109247344477192"
"5615","-36,6022589340177","-61,5714962460215","-45,1305779571436","39,0844114502372","38,5845899620756","1,54531396601303"
"5615","-12,9133986174521","-15,1086996738101","-43,3811776239539","-22,2594197995324","28,3576961608779","-8,47459971687466"
"5627","142,144876764313","-48,2824386205719","9,57758630517548","-1,13558310355003","28,7027507253265","-6,08258848917313"
"5631","101,535941065882","-30,9011712539632","-7,22286525180171","-7,39849770886001","21,1356436282174","-6,52265991619021"
"5639","-51,7813008872866","17,1194371653087","-4,40721147881123","-2,12147404543705","22,691345552306","-5,72504131975133"
"5639","-14,6514746169818","4,59547387382343","-7,70543229028818","56,2517203508414","26,4891156924197","-9,97858078050056"
"5647","-64,7721491536007","180,581668256166","-33,0380994005992","39,3106384382646","26,2177356549077","-8,93471161136139"
"5651","-43,7674883545659","123,303917381705","-25,3520641139938","31,2002310320383","56,990870703314","0,786047674055198"
"5655","-37,4832151201221","108,422820577356","-23,4363812775119","30,9689951104948","50,9977888659341","-0,74353959954429"
"5659","-35,6030566894294","104,556624039964","-22,9589126486095","74,0276866023836","22,0077757159564","-1,44697090704491"
"5663","-86,0650009096837","235,806916100611","-96,3717432491405","60,8734662752527","25,8124759492514","-1,7704670637615"
"5663","-71,1624427801048","193,906514495011","-72,6693042561892","27,9314700625667","13,6407540230492","-0,379120553536133"
"5679","-24,1834429423905","-37,9841089602661","10,2716909651818","35,8688716509667","17,1005868398777","-0,739263834166927"
"5680","-35,1280447578764","28,7693421970221","-13,0559291846753","-105,113544536894","1,6822267862756","8,33581388058341"
"5688","-232,295445904119","187,068004954906","-57,386827891175","-60,8988996428357","5,66429679204833","6,50928857714925"
"5688","-177,284916554609","147,194929258588","-46,4359499171769","56,4833191049562","5,93197107162802","10,2896512517876"
"5700","-41,7695369019034","27,2034403138539","-68,2171430931644","27,7760770272631","7,05380759307484","9,0281760845614"
"5700","-71,225408084259","59,028945236381","-59,6459313265534","57,8261218228803","9,10926356733419","17,6887465146193"
"5704","-80,0381541999691","67,2973987347985","-57,5096253304356","44,0931219911456","9,0448394705703","15,6715963241504"
"5708","-82,6747930424992","69,4455916204077","-56,9771681431301","-59,7286832564452","-41,9639704673927","8,58347540301684"
"5712","32,1918050379808","-50,0696891016685","-118,120987312114","-30,2908663509815","-32,1815017735081","9,32376851781101"
"5716","-1,44186575750529","-12,1204624800136","-98,3605953247266","-25,6420793220428","-36,997841511022","5,04386603796346"
"5729","68,4337732721755","74,3075109824625","137,664579863067","-22,3631619889122","-33,1900808275757","6,07561130066456"
"5729","42,3394956875577","52,7620071884633","64,4919674855081","7,86206185060979","-36,0914122449389","1,92974273245749"
"5737","7,31944223118511","273,389593331551","-13,2714929194456","-0,822744868758981","-34,4120028075098","3,02312792335491"
"5741","12,8419778859962","200,709938788222","1,34658638304942","64,0587953134968","-12,019930093879","0,445723434571089"
"5749","45,1089114028754","-220,157503615331","-103,556970000592","42,9082097570403","-15,8277956396577","1,26041871819705"
"5749","36,7626843724927","-98,5013423064328","-67,7033426044594","9,49124376076657","-11,3816790367322","-1,44515054368785"
"5757","34,2656209046534","-66,8943555507698","-58,7671126670186","16,2979774813632","-13,3579531049842","-0,689396070745967"
"5757","33,518537708891","-58,6826743582647","-56,5398288105621","-121,545709695141","-18,8919867572464","4,2785133825434"
"5765","114,934156027354","-254,931360267144","-80,4953080651645","-78,4675761293855","-18,4108967205795","3,56317088629502"
"5765","91,2924637362758","-191,91792395288","-72,4660197177269","-80,4155858027567","-18,191920371181","4,77431389475644"
"5778","-97,7680056035681","367,39390130872","34,5806959685687","-72,9514983581979","-18,0922495446386","4,33129807259116"
"5778","-47,3320062570975","200,706405526589","1,26123389159529","77,4426635564828","3,58077815111489","5,66767951087214"
"5790","-95,1724926292877","-18,3595925031108","-68,3199054689266","32,81726283948","-0,554373019115277","5,28225872362761"
"5790","-72,4856344080564","25,7257718233208","-50,6624480731876","122,309112153163","26,915267671977","-2,59557437212308"
"5798","-116,722532299698","-276,055531596078","-70,772079955133","87,9290133335602","20,4185439391325","-1,21845652501591"
"5798","-99,9575355237462","-174,460090458203","-61,7842449020397","-61,245490613966","17,4614491384902","-3,66537716578197"
"5807","-94,9417049172604","-148,064996876981","-59,5440988831492","-21,2845525395892","16,1154769193272","-2,79067456815499"
"5807","-93,4410451193983","-141,207396207518","-58,9857604004882","-77,5617866406691","-12,3041578095605","-11,6291151590298"
"5815","32,8682612052214","-221,214874556854","-13,3268910982988","-54,04408981018","-7,23984009324462","-9,69376444607236"
"5815","-3,34192630547388","-195,001288342511","-27,9467830199756","50,7446691477891","-32,7417218410441","-25,7450155109545"
"5827","89,5742724690001","507,886801312296","-87,6149300554351","22,5728687005627","-26,3493390068727","-22,1267142989031"
"5831","56,3733779433203","290,501264085155","-70,4867385884653","147,639291466069","-9,53624050988016","-28,1633033875653"
"5839","-2,88346544401322","23,4597342045566","-118,740413709494","105,046033455272","-10,8834714846572","-25,9394285742564"
"5839","8,38779337708798","75,0807729802499","-100,767256389701","65,7300221166778","14,7654728828845","-21,8364723354327"
"5847","38,9730263447857","-87,2673828441767","82,2897249636419","70,9138827544138","9,44002811258838","-21,9495921805647"
