Timer,AX,AY,AZ,GX,GY,GZ
"1007","1.02559290685952","3.60442133004374","-23.4364179426978","-1.08421304180814","3.03788059754284","0.0402968042442481"
"1007","1.08346132023182","3.99114274545273","-24.4776749253731","2.31926062399213","-3.69775119775449","0.0406481964478216"
"1019","1.10238325289556","-2.92404879765094","-29.8614429793839","1.32146657073799","-1.90729197386569","0.0407678920508789"
"1020","1.10952149139643","-0.641078784190664","-28.4832231536067","-5.74688823874627","-2.93560076888941","-2.4844798703678"
"1028","-2.11515939397208","1.67774459812848","-19.5790530730312","-3.93374874944208","-2.29840496204707","-2.36996901606623"
"1028","-1.36094628241883","1.25412946972549","-21.885664154968","3.38929496140877","-2.07360021763629","-1.10250484692667"
"1040","2.15764046831859","9.90598601278627","-27.6759120120463","1.65602401311409","-1.99426695678959","-1.07803756916656"
"1040","1.51728231753532","7.05657084223827","-26.4274425117555","1.11951622264261","-1.96626942523143","0.097842274484818"
"1044","1.26983602999199","6.34829405884768","-26.0497845895472","0.953448222376571","-1.95638876423293","0.0894525880706218"
"1048","1.17421804266669","6.172238281471","-25.9355443030057","5.97343891948855","2.98836202932168","1.22322275413467"
"1056","2.75085014790297","-2.62867787141375","-24.2034837213052","4.52730244552736","1.73342427247195","1.19855532884393"
"1061","2.36009116611601","0.183685640326963","-24.6795410564405","0.698742670000319","-0.356546339168924","-1.08506717915395"
"1069","-2.63164783660852","7.88847581542102","-26.5210501127795","1.51366888133572","-0.0941221990302347","-1.06886846336155"
"1069","-1.56055195448164","5.80364917108317","-26.0781005835097","-1.61501253787216","-4.94277333451538","-1.05499904143093"
"1077","2.08050159875144","1.78256388188071","-27.6416130670607","-0.583449381068195","-3.65392085534096","-1.04304612981434"
"1081","1.48747483769819","2.7830460193931","-27.1145704831303","3.11678538444622","-4.84615718337572","0.09049306024355"
"1089","2.87189860709301","1.28030421866587","-21.8626320188451","2.26213807308985","-4.26691177675661","0.0844466830340977"
"1089","2.40686662292281","1.90676892545363","-23.2739377989029","-1.38333502131776","0.878774702792435","1.20055280065437"
"1097","2.22716930525996","2.06248874227369","-23.7008531846402","-0.511737048392202","-0.305250417514852","1.18128327646438"
"1097","2.15773079979277","2.10119588904147","-23.8299936934899","4.82944773076184","2.57106867853405","1.16440689672862"
"1110","-4.32342451528358","7.36510976055014","-25.5665615437455","3.48273211270458","1.58615641175775","1.14960567932561"
"1110","-2.82786779041377","5.67355650135845","-25.0918676426268","3.06587630443107","4.53274483759837","-2.22235907965786"
"1118","2.5907863445288","3.50165767661089","-26.6457775574471","2.93684478317936","3.57263146562876","-2.19090400901461"
"1118","1.68465869425406","3.96179057240391","-26.1158302278609","-3.8649544442346","-5.00164377199655","0.0752918318880593"
"1130","-0.279067221333363","0.573303782541808","-22.5605163559218","-1.97035032487941","-3.02760901589213","0.0712064048119271"
"1130","-0.037888746880131","1.73103040864324","-23.4850455298943","-3.07436863162014","0.963227536072918","-3.289494252729"
"1138","0.055307262023636","0.267374741091171","-28.8572223885169","-2.41610109349584","0.371641934449392","-3.25018003517869"
"1138","0.0913199953128802","0.903555055849012","-27.4822883297574","1.16858556018028","1.80995216129356","-0.977771656009562"
"1146","0.105236009251861","1.06168987334988","-27.0663752708351","0.278172047772255","1.31754920427995","-0.97554070789586"
"1147","0.110613425134031","1.10099731485025","-26.9405629298867","-1.68790708337578","2.7908621837848","-0.973575513396955"
"1159","3.33985283163361","2.86219875587471","-25.2050018395435","-1.29647766379772","2.31081212075425","-0.971844222238661"
"1159","2.5876931505626","2.29997914926","-25.6800002822452","0.51514835598571","-4.44695505205791","-0.970318862247352"
"1167","-0.930117310188374","0.408797861514234","-24.1261824902583","0.0759102708549803","-2.83185267017211","-0.96897484807863"
"1171","-0.289467043887295","0.938708484554232","-24.6561576867006","-0.0600493516121691","-3.90895146890316","-0.967790558068917"
"1179","3.18525403073454","2.82185875483104","-23.1189701830335","-0.102133632477541","-3.28907263820032","-0.966746968011633"
"1180","2.52795319550333","2.28995186838531","-23.6539759873379","-5.18655477427471","0.223865939706308","0.152881693809828"
"1187","2.27395948967391","2.15773621118195","-23.81581349452","-3.76036178761007","-0.536375626363422","0.139601033256328"
"1191","2.17581142847714","2.12487147403495","-23.8647688114908","1.7524896371348","-2.45176198055693","1.24659511525145"
"1196","2.13788512677912","2.11670231335771","-23.8795776348683","0.458910878368282","-2.12772494836418","1.22219220873216"
"1196","2.12322967314152","2.11467171180833","-23.8840572555386","1.74896765464314","1.28080748731194","0.08199527574345"
"1208","2.11756652351428","5.6170286121037","-20.4904057893241","1.14828556035552","0.483719733210781","0.0771295979869234"
"1208","2.11537817339605","4.48760658568015","-21.4638373126488","6.03374792180383","-1.4446700855629","1.19152844435092"
"1220","-1.11262891665403","5.95829790429005","-33.6408200457694","4.54597020107701","-1.12522213300421","1.17366288980074"
"1220","-0.359993044766004","5.32386643552794","-30.3243175231295","-2.67640872232194","0.634602833520918","-1.07945112928332"
"1228","-0.0691600441145599","3.41473550461155","-25.9260798129049","-0.911988798325048","0.255666309612407","-1.06515554851062"
"1229","0.0432234303214112","3.94018439961447","-26.5956272808194","-2.05630368828861","3.41611089072494","-3.28992270767654"
"1240","4.92739277405231","-1.1834976686807","-20.0081501278538","-1.41050935872058","2.53146993771925","-3.2506479717583"
"1241","3.81472990344492","0.542912894477435","-22.0154598196777","-1.21061332007592","-1.07490638947642","0.140011765243912"
"1245","3.38477553446111","0.972045347971377","-22.6226644407374","-1.14873847163532","-0.347640133153658","0.128260869857096"
"1249","3.21863288308697","1.07871444892084","-22.8063418540124","-1.12958603171952","-0.0909790914094208","0.117904612619934"
"1257","-0.0727293075967703","4.60809074484713","-33.0469232816726","-1.12365767853607","-0.000400311249432317","0.108777466397621"
"1261","0.655424932851557","3.48538490736871","-30.1446656930901","2.25910707376692","-1.61552189376955","0.100733552231177"
"1269","0.93679775946879","-3.79940844959039","-22.4767291846684","1.30619163721367","-1.18551779872082","0.0936443064389108"
"1269","1.04552564040488","-1.61018354166904","-24.1572034528543","1.01123082351661","0.613323765172917","1.20607747413008"
"1277","-3.75320201583424","7.69114440590973","-24.6655414264965","0.919930086557697","0.248156669501838","1.18648591733212"
"1281","-2.6075228311205","5.00316784232487","-24.8193120020649","-2.48926041856629","-1.52780313456988","0.0505385828325368"
"1290","1.0623511471083","0.832158073862007","-28.2608336354146","-1.54452468112971","-1.15456078961863","0.0494065353313149"
"1290","0.480461153509541","1.79537360689642","-27.3018826811888","2.12883394691709","-1.02283906013455","-1.07027201831949"
"1298","0.255607649699197","2.03479929957661","-27.0118031517832","1.2658675265691","-0.976352871595182","-1.05706616232984"
"1298","0.168719923957256","2.09431314704832","-26.9240550422378","-5.76311034307689","2.33422852063605","1.19193404098877"
"1310","-4.70559737129509","5.61196810040879","-25.2000082574843","-3.93882599670147","1.50257266079379","1.17402106811828"
"1310","-3.58912747935294","4.48634869845105","-25.6784897399933","-3.37414588492994","4.50324712282225","2.27691481225067"
"1318","0.0694594654232079","4.20655440967025","-25.8232288245772","-3.19935754710101","3.56222136597449","2.24891625816232"
"1318","-0.516792055349712","4.13700617347407","-25.8670119245967","5.30706988230186","-1.71114176674664","-1.13180172560245"
"1331","2.48383053211892","5.87114944824101","-24.1827529008384","2.94010809323387","-0.572175278714215","-1.11129348401918"
"1331","1.64332890780335","5.30220401549842","-24.6732700510056","3.89791510223503","-3.46439611006115","0.0254615873583751"
"1339","-3.52219931645373","3.40935089468489","-28.2166564225446","3.19439002949783","-2.48509575764448","0.0273056979965655"
"1339","-2.51825893774417","3.93884595155452","-27.2885192186849","2.97662429714551","-2.13948884071884","0.0289309481464317"
"1347","-2.13031703420082","4.07046210226419","-27.0077607480531","2.90921815054943","-2.01751998741241","0.0303633123521789"
"1347","-1.98040880885552","4.10317782057522","-26.9228322283217","-2.18304099851864","2.96678807602274","1.15030643759061"
"1359","12.5997452297678","4.11130993976299","-21.8046318234453","-0.759274150537143","1.72581056443546","1.13733386716648"
"1359","9.23379764129562","4.1133313339398","-23.256392929363","-3.69949799763692","2.9349425464999","0.00722013823623702"
"1368","-3.36193449578953","0.61097214497541","-30.4855589926003","-2.60960059974078","2.36165982015986","0.0112291576437865"
"1372","-1.2291680540849","1.74039360250638","-28.6723580988291","6.18008524129544","0.512253497558826","-1.1039183681795"
"1380","2.82213545677475","5.52399461036543","-23.0313609495137","3.90080188451743","0.859575679441411","-1.0867193473598"
"1380","2.38763718293794","4.46448120040026","-24.3249777489543","-0.185646128608744","-0.664938057088069","0.0471192317207692"
"1388","0.606157944486338","4.20111882366853","-23.0187893342981","0.549454610820745","-0.202957359330251","0.04639299670608"
"1392","0.917760046021286","4.13565505433307","-23.6236716080278","4.15792384027074","1.60716913369557","-1.0729277987497"
"1396","1.03816910116155","4.11938277904156","-23.8066465188259","3.27487187080031","1.24598462575198","-1.05940676210226"
"1396","1.084697479784","4.11533799295835","-23.8619958313048","-0.379393463452236","-3.82274553012445","1.18987108832323"
"1409","1.10267694166677","0.61147093855692","-23.8787388174252","0.48948300227615","-2.61156159414147","1.17220295587956"
"1409","1.10962455211795","1.74051758721662","-23.8838035160037","0.758430801317445","1.11005569392181","1.1566316906583"
"1421","-2.11485222676112","7.27545625176889","-27.2803421075962","0.841679596125714","0.423459363930348","1.14290843488029"
"1421","-1.36085217462411","5.65127140243201","-26.3077839302619","-4.20394655446262","-1.46593669737246","-2.22522838465168"
"1429","-4.29665349784831","6.99897993315512","-29.4085947971662","-2.76574515473698","-1.13272737705199","-2.1936322002948"
"1429","-3.43110368822776","6.33397873397683","-28.3465799496741","-0.630106422832523","0.63195414228975","-2.16578587480018"
"1441","-3.09663856671588","0.914387465066285","-28.0253239294109","-0.969051187539044","0.254731554500727","-2.14124437210301"
"1442","-2.96739480019365","2.56724412165006","-27.9281450332787","-4.45489622162718","1.76869307681457","2.35510752632109"
"1445","-2.91745251888986","2.97809334109418","-27.8987487348194","-3.53388775459626","1.30298837526894","2.31782900954612"
"1449","-2.89815385924117","3.08021779359613","-27.8898564506147","-8.32019784719819","4.43281141898856","-2.18974826448614"
"1458","-1.27711575065591","4.85703360737035","-29.5846698321195","-6.80172901498658","3.53736375575983","-2.16236288742133"
"1462","-1.65071539571729","4.29869525254526","-29.0973453406746","-4.64124469207662","-3.3670022450304","-1.0195468775605"
"1470","1.4320799733279","7.66277119224212","-30.6474345432032","-4.9724988732763","-1.80363635934557","-1.01236112872881"
"1470","0.623331494896592","6.49897678119612","-30.1163314606364","3.37729061381568","5.33644604556099","0.112652559918126"
"1478","3.53797697145596","-2.54746075132018","-16.37564836672","0.961843877240726","3.8562673245641","0.104148780376759"
"1482","2.66425213511044","0.203873713057282","-20.2191366410378","-4.85721634613777","1.68680645698909","0.0966542357682467"
"1490","2.3266280257777","0.887770657548227","-21.3817792819118","-3.65841997092973","1.92117752610681","0.0900491493339007"
"1491","2.19616356550266","1.05776635844891","-21.7334748807799","3.47450907103399","-6.23154973190113","0.0842279595105933"
"1495","2.14574958461575","2.85145287260494","-32.0248812604291","1.68240126540442","-4.10874560467143","0.0790976328606796"
"1498","2.12626865116072","2.29730805389548","-29.1379980537064","-2.2532487949676","3.22876930946837","1.19325692709034"
"1511","3.73232157787031","7.41385720004092","-19.7772089771344","-1.47147079002009","1.81826690447464","1.17518696081111"
"1511","3.35293136983818","5.68567361229176","-21.9456008763962","3.84191155271118","-3.62078020511212","1.15926155167999"
"1519","3.20632768438937","-1.74962285097037","-25.9965388755486","2.48659010358491","-2.54028559272766","1.1452261820465"
"1519","3.14967719596835","0.402191623625005","-25.2219343801537","3.75753534751412","-0.511878072249731","-1.10450495912218"
"1531","-1.71295584825382","6.19135884531467","-26.6851223204372","3.15093756237352","-0.796028570417953","-1.08723632146466"
"1531","-0.59197093661304","4.6303673792904","-26.1277318900705","-8.87007978371064","-0.896308711615145","-1.07201713867349"
"1540","1.45477996405526","9.49664548257107","-29.3541296434927","-5.59100707888866","-0.931698784070958","-1.0586041799083"
"1540","1.24568394333831","7.70625222757649","-28.3301044187025","-1.19508912927854","2.34998748720773","-3.28414458087396"
"1548","1.16488521263626","7.26121564900659","-28.0203401351408","-1.83439804838633","1.50813419034633","-3.24555617820186"
"1548","1.1336630264814","7.15059327277014","-27.926637451801","-0.341821765258671","-0.436053928897371","0.144494773494704"
"1560","1.12159817224647","5.37166513708386","-22.8057828911108","-0.879816955504846","-0.1221813872988","0.132211936169435"
"1560","1.11693608013708","5.92947843378892","-24.2567411235697","0.644119486937466","4.92985180448297","-0.997293914674747"
"1568","1.11513455792943","6.06813362607916","-24.6956512465577","0.115831368016086","3.71277530829766","-0.992749164165954"
"1572","1.11443841504153","6.10259903316537","-24.8284201242221","3.3332373494796","-1.65800946294535","-2.10742453791856"
"1581","-3.72657279208954","2.60830442580058","-29.961092081011","2.32913756253406","-0.553424247265482","-2.08980940246031"
"1581","-2.59723278604564","3.73973048974563","-28.5137085722479","7.08972797173803","-0.163602789598596","1.28175740510195"
"1589","-2.16083405063918","4.02096813571991","-28.0758797914941","5.56329799370793","-0.0260300910865991","1.25318413572937"
"1589","-1.9922011719267","4.09087514602633","-27.9434380163214","-6.74243973959213","-1.62456695248841","2.346682713255"
"1593","-0.313457444127046","5.85968269669691","-22.810865006967","-3.55149799987772","-1.18870990913876","2.31040405962573"
"1597","-0.664758526208074","5.29935373449995","-24.2582784470057","2.50760517838394","0.612197230869824","-1.07761126577583"
"1609","-2.4140887669466","6.91150404793388","-24.6961162818725","1.38311053298173","0.247759101946244","-1.06353439181135"
"1609","-2.09006367333532","6.31223492514733","-24.8285607958849","2.72550478407132","3.41332034168016","1.1862333279213"
"1621","1.26230733468106","0.908982624392559","-23.1711215600772","2.14102297741262","2.53048511927258","1.1689969276585"
"1621","0.557728076603079","2.56590064484996","-23.6697516084413","-6.49221897749473","-2.7223418713421","0.0351254064408294"
"1630","-2.9416963920524","1.22632857154512","-27.2155921051686","-4.16451074041736","-1.57612793083869","0.0358226076095721"
"1630","-2.29394142419401","1.8933522432506","-26.2881972661574","3.31785619351047","0.475472733925931","0.0364370644208031"
"1642","6.02426724809154","2.05915376861539","-20.9151535532268","1.63391169492432","0.199507376374636","0.0369785970369187"
"1642","4.23858333182664","2.10036691738267","-22.2898253913913","-0.577793161653815","0.102115870115886","1.15613661001908"
"1646","3.54856066485016","2.11061123586874","-22.7056591294407","-0.262393535548139","0.0677452318027589","1.14247211080533"
"1650","3.28192261283855","2.11315765768758","-22.8314474760843","-1.85523112724848","0.0556154186041296","-1.10693217512122"
"1658","-1.66185367142789","2.11379061966433","-27.9620078450547","-1.34827033525479","0.0513346610897297","-1.08937547364897"
"1662","-0.572224070988866","2.11394795450221","-26.513985587878","0.499116704140737","-1.59726399746302","1.16345908505342"
"1671","1.46241053336168","7.36827953097153","-22.6809570509908","0.0709479112460256","-1.17907436669665","1.14892554901175"
"1671","1.2486325423235","5.67434440858456","-23.5214784465028","1.62887948304145","-1.03149019742439","-2.21992538566333"
"1679","2.77960534279236","15.7618692844442","-27.1707399583001","1.11111405126637","-0.97940596238522","-2.18895856523452"
"1683","2.37120272753985","12.269317044576","-26.274629638325","2.64131231484269","0.686063120491274","-2.16166691027506"
"1687","2.21338808900844","11.4011762073764","-26.0035591953911","2.11496244960685","0.273827266136159","-2.1376142493912"
"1687","2.15240547233395","11.1853831536289","-25.9215612723738","3.64250352936435","-1.51874367111055","-0.997735426474243"
"1695","0.515259879700092","-11.6368570423625","-22.5017506318381","3.11533117236138","-1.15136359559388","-0.993138277014016"
"1695","0.882635282609629","-4.3097625137112","-23.4672690904297","-0.428776915985605","-4.31588658685858","-0.989086720698962"
"1708","-3.81614598821751","-5.99133429943512","-25.4568385368535","0.474197088349622","-3.43268495403201","-0.985516006125491"
"1712","-2.63184559468375","-4.40932121490778","-25.0586767916621","-2.62723044486646","0.173183419696325","-3.21973056636114"
"1720","-3.78778984142559","20.5039499928725","-28.3332407019247","-1.58723125262833","-0.554262099537302","-3.18878686723319"
"1720","-3.23446896797634","12.696621322685","-27.3237855821519","7.18700934030052","-4.10516226042028","0.194526660067697"
"1728","-7.86139732669215","-34.7812413306286","-16.8334090972587","4.90294513647696","-3.35831779527234","0.176306000926902"
"1728","-6.64933158365084","-20.5827745938369","-19.6601044974616","-2.5659124354784","-1.44765943973001","0.160247783275934"
"1736","-6.18096602973266","-17.053473397101","-35.7927000329321","-0.877786314633776","-1.7733650397253","0.146095366937246"
"1740","-5.99998055649699","-16.1761979019234","-31.6727574544267","-5.42664653635451","1.40586537706406","1.252303319845"
"1745","-13.9979479564127","-0.195256850122437","-18.5439654112116","-3.83467862495838","0.52785417225984","1.22722568339726"
"1745","-12.0885166429608","-5.22288747921444","-21.5725487284539","10.1818102610984","-1.42909450921153","1.20512427964792"
"1757","-33.9408058835171","23.3017224958146","-56.4387506515189","6.52040612009835","-1.1197253240744","1.18564588706858"
"1757","-28.3849514369193","13.3920613322208","-46.9856627760978","5.38707287427596","5.57780650639224","4.52452145431567"
"1769","56.0545552262666","-27.6026530890412","5.10146019359915","5.03626640860799","3.94144634500434","4.46713676554264"
"1769","37.6836073531304","-15.792675529415","-8.14235535029834","-3.52464481675545","-9.81274833120451","2.17920103493786"
"1781","-51.7078982966562","179.80031136625","-103.813742760371","-1.17454767713417","-6.66676967931188","2.16279923247959"
"1782","-35.2504982336756","118.418699219022","-78.7540247583101","1.24335483089233","-17.0861313262053","1.02966325837318"
"1789","-28.8910417926332","103.161122381698","-71.1735419681952","0.991780623832879","-13.7632498386511","1.03100871137045"
"1790","-26.4336253069947","99.3685590585245","-68.8804707003341","33.0327418935937","17.0570178494786","3.2695559847231"
"1794","147.169106379093","-250.108888989436","147.396090951943","23.9505453473281","9.93386239286269","3.24243078907049"
"1797","107.252546410854","-137.978210761471","85.8190439706275","-27.8841945588469","-10.6979523647523","-3.49355966719987"
"1806","-58.2349896926144","-92.5916720897002","-26.1704912447146","-14.9288680671309","-6.97916886933526","-3.43011772505008"
"1806","-29.1825618095945","-91.3099775082065","-5.04695961930072","-63.3231498984632","0.921586431224267","1.1005178792846"
"1822","246.671096519293","-61.2170637557974","167.698159961437","-47.3028807325926","-0.290141641708665","1.09345425274085"
"1823","189.266264500344","-70.7368929395753","121.952994032212","91.2026794245089","32.2239834437562","-0.0314518071709348"
"1830","167.08393148706","-73.1032290485277","108.115230852718","55.0750174708691","23.6986107116742","-0.022853172366959"
"1831","158.512250661485","-73.6914272685203","103.929352718446","5.01154478142319","-35.3110857842288","-2.25263652971531"
"1834","-38.429700109809","-208.697808558401","-50.1121558931642","12.5151407202279","-22.1363200694397","-2.21778752618153"
"1838","5.46813596690965","-165.256233695863","-6.70920877690415","-111.947097105339","-2.66299484902637","-6.6617974279711"
"1847","-164.74425969368","60.9679940145499","-193.885344805729","-75.4725333983782","-4.79062328793268","-6.5783889022177"
"1847","-114.517608569356","-5.79963580141205","-132.505514185529","40.6264470880748","57.0478521970559","1.32588588619528"
"1855","334.103412487344","80.9384079149608","166.149723250592","14.5631613442192","40.8713967378174","1.29207541559624"
"1855","241.459217841047","43.4988120885667","91.4919564463528","57.2096043052528","-10.9559316545583","5.7370005964531"
"1867","241.158492375211","-48.1247661106374","53.6306965847702","40.4101770261343","-1.24642152723068","5.65439872376095"
"1867","219.042286261647","-23.8995635716728","51.1777892228761","-20.5751764178252","-27.4674008815291","-0.0118036460549797"
"1875","-20.2458869183933","6.64210661191979","77.5958450576258","-6.45228637471474","-18.7211010472104","-0.00553686974567452"
"1876","30.288553007017","0.233824445082379","69.5872206025199","4.68110381873384","56.8374425656708","1.11866691071501"
"1884","-524.618707398914","72.2010175687848","-313.076094244173","4.12727931836114","39.5029647836478","1.10944934351181"
"1888","-383.04556327317","48.0898435614568","-204.830496283538","12.4081754703996","117.386902609578","7.81341022327418"
"1896","-250.887097668531","-6.94351416059419","-195.85160244955","9.97140382566792","93.8730845185534","7.72173999877416"
"1896","-247.818520486754","7.3768893823084","-179.135516411502","-2.61611664348946","-14.8975893355878","-5.78321973309805"
"1904","397.185949999671","-18.8378236740117","199.371764030799","0.487603437443888","7.7159267324024","-5.68540071712209"
"1908","247.428103598578","-8.3539933335157","93.8689792464715","-17.1467995833795","-111.12926086768","-12.311275434491"
"1916","84.6760388640774","129.112137092154","112.879829728278","-11.6052670030048","-76.0711623247301","-12.1507863719043"
"1917","86.7855055837358","86.2819800488453","88.6305498637137","45.8953724217672","-55.4632964739311","-14.2467057713362"
"1925","-280.295763348476","107.161477953061","-295.550503626345","30.693840934544","-53.1905318276855","-14.0938798847911"
"1925","-194.143037593701","94.3514775710932","-189.764016644731","14.1551787319633","21.7305109934199","-15.0778722389227"
"1937","226.407411724451","-162.790162966788","101.954049980467","16.0358816006471","3.1710514857807","-14.9450836426064"
"1937","148.916207370465","-81.7076490238808","37.1978116794634","-40.8577799896718","22.9746010080729","-18.1840967460633"
"1945","49.5881415247752","-72.0616201694355","48.1643200749763","-24.4683675330796","13.9635127119171","-18.0387013455858"
"1945","54.2058632972714","-63.6639147121605","33.4816530215402","-32.9189873175481","-35.335071105046","-35.8094535780715"
"1953","-148.934513355282","227.409581758479","-125.432603198689","-27.534751101255","-24.7331364889044","-35.4711596099763"
"1957","-100.4318684536","134.76148133155","-82.5036463078842","53.5837076019996","30.0681399824396","-15.0367611261549"
"1966","-41.3499936781466","-112.451126072965","-28.777698716065","31.6927211273842","18.4081720350294","-15.0275323773926"
"1966","-43.5196190350224","-45.9005605319785","-36.5257751681262","11.3929726749637","43.9408112778096","-3.8325914048238"
"1974","-58.8802306837204","-116.929682332985","-45.6595560446128","13.1094871822434","34.9515879081823","-3.96627442155143"
"1978","-55.815866951529","-84.5853327086564","-44.4224949067817","-81.0252233809493","-14.3392795122456","1.50931191170509"
"1986","71.2275595372708","35.5460483182251","-15.1907323927932","-54.1632242567541","-3.734621686611","1.33505155299116"
"1986","42.3195870619378","1.40700687687548","-23.3482197737848","13.3177784974072","-9.87463748098793","15.7243222925397"
"1994","-126.981922424072","-183.973419655766","-68.2534147548223","-0.794479822747817","-6.04152317987765","15.405863590737"
"1998","-94.4032873333981","-129.05327978022","-56.8370894678623","-10.2341142650026","11.7821084075444","20.7186035557796"
"2007","-14.0438842397585","12.4526242616086","-41.5011655029319","-10.156012839929","8.07228316970608","20.4008235579439"
"2007","-24.9914627365762","-25.3733695771548","-43.862098627674","-35.4888105943308","3.46886520148756","19.0020771786798"
"2015","59.5251224325405","35.2814871560325","48.786406581312","-28.3302017107228","3.84426342595468","18.7693350685748"
"2015","37.1839591790362","10.3584149979366","21.8122765934498","60.0993471230373","-27.3179246320401","7.3774074679919"
"2023","49.5274528398614","11.1690307444708","-38.9699108860845","36.4713999603956","-19.3154370017674","7.33748237743111"
"2027","41.2972165914806","7.37052483375321","-26.3563239373508","-16.484831190257","3.27379262317438","-1.64715037234754"
"2035","-39.3349805185672","172.812261493749","-34.4232779906618","-5.87664564865691","-0.754195534763352","-1.56548017013884"
"2035","-22.4928148851476","118.935977878645","-29.8635052256507","54.8827657725109","-16.9995125313187","-20.5110753964407"
"2043","37.2634866301213","-4.79614744496843","-38.6692084779336","39.6899387335931","-13.7326810202343","-20.2081931746842"
"2048","27.3544727585418","27.4478599486086","-35.3329049310741","48.5109437536413","-1.05016124847491","-63.5698064867828"
"2056","-2.29185285677733","163.317176393371","43.7614663344319","43.2413547833443","-3.57434691189304","-62.7852310157322"
"2056","2.25223578018341","124.090100612408","21.6872551291747","-46.2939408651599","-25.8773055637337","-75.517938548266"
"2064","-215.438820746829","611.745812280542","-263.380657632511","-22.0082611983617","-20.7482889233956","-74.7395188030525"
"2068","-163.558838871813","448.961991371606","-185.612769523244","130.888987976146","27.1802649401006","-25.9502102528003"
"2076","-41.855828105763","135.275742588819","-187.550786573964","92.2160595069411","16.0948302137579","-25.951253426589"
"2077","-57.8274401010638","213.303009775357","-173.137030397567","59.9598508412308","12.1826464704382","-2.4598770486074"
"2085","232.899676511374","-664.034397791877","247.111384496875","61.9754207545131","10.8019895977651","-2.7564748344785"
"2088","161.242235314786","-370.113435470272","129.235156457053","-353.255044924826","-96.7459761710507","1.45685082673727"
"2097","262.638878310715","424.5357552689","-65.9873244876185","-235.783465528015","-69.7009516586629","1.17013583906295"
"2097","221.820494600826","210.061050911824","-31.0414869056834","-5.01842485175401","-25.567589529965","9.86689440002675"
"2105","107.619059940165","352.909502216377","20.2695931873339","-48.5885355250513","-30.992393236793","9.53151513359794"
"2105","124.489425462682","276.417224246295","11.7910272096695","264.184701990133","-4.90637718732875","13.7106619294494"
"2117","5.14916240638981","-369.60863286431","-16.2362603133139","167.999010061201","-12.7003072012616","13.3938244497816"
"2117","37.0337856357781","-172.190748728604","-9.71442318426491","-152.533797425466","37.2559344864588","-0.309579518570391"
"2126","168.759592686355","-256.227490189661","-12.834098574024","-79.7499650791709","22.8860952724514","-0.386653228282845"
"2126","145.660982267547","-201.116433883825","-10.7777901830385","-175.553351448918","26.0502451723484","-18.3534717701398"
"2134","212.573528731142","108.574285070127","110.366968441694","-135.207866125232","22.166911871074","-18.1879748147969"
"2137","191.429825774783","16.5538523208628","76.0128619745691","127.469278531021","-30.2632890862527","-34.822330410159"
"2146","52.5594521018097","121.534859102482","18.0907655361082","60.7770854521435","-17.7665399652472","-34.4825082099758"
"2146","79.8972643355232","74.6299015980803","28.5695206768078","126.347215912091","39.3505273474697","-40.8951008625084"
"2154","-332.297030838366","-77.1436909136325","-160.078559472701","95.6434754675499","27.5078299452568","-40.5466422104725"
"2158","-229.576847539243","-34.8699279513605","-104.143987138087","-0.0741189759414382","87.5648282359244","-39.1208581426935"
"2166","-233.450469614551","26.4295203888285","-141.544066413367","21.2979219637063","69.7596679680099","-38.8642871972212"
"2167","-207.947311810931","12.6666738362272","-120.857468155233","-34.6338801330326","27.2400775514697","-34.1634432844987"
"2175","-7.68987361478642","222.920214750699","-158.734924773233","-14.9467383627934","34.2344007777019","-34.0204990523269"
"2178","-48.3065414766915","153.182764455773","-144.192731601006","52.0038587703803","-34.121999001627","-24.9450735499139"
"2187","355.529386591957","156.865353675318","108.041711492","36.7274212717224","-15.2457977131981","-24.9467263514531"
"2187","251.57936921694","145.780731848226","38.3418061212969","35.3797567603544","-112.350697831893","-33.8976289961702"
"2195","146.86785048713","-44.3776615018212","0.282779870607074","32.9626072362565","-83.6201893781548","-33.7862318030615"
"2195","146.405302351381","15.3548230924026","-1.22995117760972","-60.7611527450247","-24.0682082707081","-34.8067360622267"
"2203","31.6623326767158","96.7568489102812","0.00995589294756527","-34.7719499746505","-33.0515951993777","-34.7061261106757"
"2207","58.3234386369892","78.9908835044056","-0.614976270737266","2.01052416935958","42.8382796242157","-23.4306491249885"
"2216","-165.343402917702","-58.5339304213659","-80.5866698231274","-3.60400752240193","21.6207326264336","-23.4933542030257"
"2216","-106.772579502657","-16.7183602874026","-57.7778457422011","-22.2465509727216","42.1332989113639","-23.5486173953811"
"2224","309.574014316682","-72.8786696775693","6.83686011966421","-18.0170732820029","32.3724311903149","-23.597321910628"
"2228","226.458359209428","-48.8383915837504","-7.61740254466737","-77.5646362460551","-0.719879561903419","-33.7083728862507"
"2236","297.610035849137","-41.1112886115025","115.322975372849","-59.9966995244972","5.60144446826172","-33.6194367501834"
"2236","261.104414460932","-40.1905689822069","77.512037872966","9.67885889449765","-74.5220803449374","-59.2707128682835"
"2244","6.57440959418955","49.361265492567","18.5442613454472","-6.75410732924206","-52.798639539029","-58.8776763017447"
"2244","57.2191121174379","20.621091320291","28.7067016769213","55.7779065324488","35.5751334263883","-63.0060086090983"
"2257","-224.950396531708","104.551572645258","-311.11485355729","35.1337622393046","17.7633047941335","-62.6443873425315"
"2257","-146.986130753241","73.4141033448057","-211.909763338444","40.5769281469133","88.8904280320346","-61.2070028091843"
"2265","505.982927143527","-79.6944700626757","206.82770067613","35.2617792717976","66.9920485015654","-60.9402081500961"
"2265","372.302750757936","-34.7525422034747","104.49441493356","-35.6925053155881","-47.7968692924357","-73.010565129701"
"2277","299.669605663054","-133.921505991353","200.851675594852","-16.6553497762555","-23.3072641657912","-72.6484030918523"
"2277","284.60275909925","-95.5718537411348","154.999432009568","-27.667329751825","-75.6068401862104","-89.1094339641724"
"2285","-421.513399541209","13.7922446609636","-264.574002961622","-21.0759245225826","-57.0639919480068","-88.6168573490476"
"2285","-260.370286777682","-16.0232113649813","-152.49359570113","23.225968505573","120.777147517779","-65.8091250987108"
"2293","437.649325936959","172.725837391736","151.313380847777","11.938961195848","79.5394326141108","-65.7082316145185"
"2297","313.37755184533","107.643033171311","84.2139982871437","62.5401112991882","0.749716009897433","-64.5006314948234"
"2305","194.358991876724","-99.440505601188","226.876968138698","46.2029454143267","11.9438738350943","-64.4363502628683"
"2306","192.3679273769","-41.915090481558","174.032050237285","-28.1630407586024","-105.9900793659","-83.3972707233947"
"2314","-211.796641979931","79.2212348130125","-403.826946553584","-10.1819267494641","-73.6103952026762","-83.1078949255732"
"2318","-117.973617930039","48.3319915415889","-247.627404400954","-35.0445075632979","90.9959635025919","-59.3605667173065"
"2326","158.704935561987","-223.812176464624","280.015871536484","-24.7403500128472","56.0875346922637","-59.4315892280395"
"2326","116.618858925925","-140.458828433051","156.626237951406","-8.02713228135005","-15.5272366569589","-68.4436287328456"
"2335","-207.837932215228","41.3918804001182","-247.359428897007","-10.8538040798365","-4.80095403208417","-68.3861126314263"
"2338","-142.214287068746","-5.4056385003484","-153.563772726639","-33.7048015039316","26.9849753670739","-72.8101455835047"
"2346","241.358876778871","116.070683242999","-42.0132331458084","-27.7779882059752","21.2026135861859","-72.7091309874118"
"2347","167.578936940668","70.2659526091576","-57.269559515843","63.6512063265739","4.33815695849778","-73.7387856291933"
"2355","80.98004034541","-167.054267723091","45.0581575312174","38.9517549172573","7.38648661922112","-73.6462400859882"
"2355","83.5165583475042","-97.0447596652861","13.0119574887107","-32.9312579037801","-39.3032709415456","-90.3448891651922"
"2367","73.201652627369","125.274852408244","-15.3544492364734","-17.1815763888922","-26.7806500446591","-90.0617300499772"
"2367","76.2157743373823","63.5366554954611","-12.9351945577086","7.97908180627426","31.9926356576486","-95.4055802202014"
"2375","-140.452910150768","130.507691339722","-185.348711302634","3.767189679984","19.7344377197415","-95.1152182450679"
"2376","-89.177864023634","100.154626627413","-135.503236599391","81.9153094468606","31.8792509563984","-91.503274397286"
"2383","146.855620079051","-84.2847227841344","39.1401638135656","59.1048986917454","26.1653021653055","-91.3199987538218"
"2387","104.063505591598","-29.130660142752","-2.03077836827865","-37.5503625546667","-8.79297789538472","-97.8705589003336"
"2396","56.8697741914843","79.1562042586544","-78.9899780143378","-14.4685624407597","-1.1301769610067","-97.6436936566348"
"2396","57.6332071772093","52.0729810633182","-64.2698843728207","2.81885496034041","-16.5438492054715","-95.2063914504499"
"2404","11.1343710842817","78.6181121829126","-36.0520583998252","2.16991813735534","-10.9835202213819","-95.0583500977379"
"2408","22.1663250040681","66.2164135885942","-41.5162582705038","34.0878817138999","25.5676334823957","-84.8597516550094"
"2416","50.6329955530858","-12.1777918019548","-0.73157916179666","24.9676130593629","17.4669768865558","-84.8715305230156"
"2416","46.6330654721005","11.3358250532307","-13.3943470325889","-23.4979817835349","11.313981523992","-82.6445499664082"
"2424","101.562741143556","10.1748621615066","-64.7548844419127","-11.4997865007306","11.1425151787938","-82.6818691321893"
"2425","87.7886260595445","13.8862825705491","-52.2912791407841","-12.8573180141199","-21.8597559153795","-87.1894822308433"
"2437","67.9438160163356","-69.2598521975359","-17.9660204419681","-10.2775217220764","-13.5066558028907","-87.1621284268567"
"2437","69.2753990994722","-41.9274185186637","-25.5827418746987","-7.78851925459391","15.7946609099646","-79.3072557437979"
"2445","13.3146227415495","-85.924911819633","-22.7942654082692","-8.01808552570173","10.1354493167097","-79.3846052408429"
"2445","26.6903006558486","-67.8613325359715","-24.950760391067","-31.7556523843865","14.7265969350688","-82.808817091166"
"2457","-40.75221277327","73.2403206718284","-91.8057205431548","-25.1032634810766","12.3468683560031","-82.826640911403"
"2457","-21.8132992623604","30.3138425357977","-73.0291274795392","24.2889007152096","-6.61093379172475","-82.8423493872889"
"2465","148.476715987018","-39.9050047913221","-14.7266681266532","11.5775112075439","-2.30137103683952","-82.8561935694775"
"2466","113.280058567167","-23.3592459075723","-28.0903647289223","29.6189326395502","14.0433170342748","-85.1057562134686"
"2474","43.2040663514733","-40.2636501043231","-55.897885030811","22.2033865603349","10.8115547750549","-85.0883390760071"
"2478","51.1253529244981","-32.4655639495064","-50.309569035671","-8.82988814708062","-11.7411161996296","-83.954308267617"
"2486","120.343100785063","-13.012891862652","70.2061070768454","-1.43577719899146","-6.70022605266353","-83.9548650859344"
"2486","106.090172058883","-18.1775571642971","36.6617052058769","10.9957491294304","-3.27414713634149","-79.4806328211844"
"2494","84.4467584651509","-7.20131801135665","-70.2430530226734","8.84374338020132","-3.06504252559363","-79.5374057966761"
"2498","86.0833264857329","-11.4729632744503","-45.5813929779063","25.0822705712301","8.53836850877166","-76.2313986632755"
"2506","89.9428893672606","1.47668395747736","-58.4913606398112","20.1086653695266","5.6333523444373","-76.3177509355193"
"2507","89.4342988203097","-3.30443288279932","-50.3965836624311","-5.09734824686874","1.31396121427831","-73.0378126057518"
"2514","115.055061390061","-30.7643335021062","-12.3003714471747","1.10050478273144","1.78959593879738","-73.1471398164655"
"2515","108.955417638624","-22.5900184098182","-21.7763917662156","6.39988781074722","5.25162903025152","-67.6500882425163"
"2527","85.6218482304838","35.4876506923005","43.2572737953435","6.04023308177125","4.4734223034586","-67.805430871399"
"2527","89.6053074830243","17.9239691248116","22.9297450708359","7.61937216397942","9.14004753734901","-66.8236565707371"
"2535","76.6223662684098","95.8754279093461","4.89821119154078","7.10817120192314","7.78695592000426","-66.9583999802741"
"2535","80.6055076628591","68.2517578945185","6.44373112755407","27.2355148522226","7.30943355310791","-67.0771519409281"
"2547","54.7137977441337","57.8825033176309","-103.426466590046","21.4656350002668","7.1409101449637","-67.181810329844"
"2547","61.7087422200463","57.3050262374727","-71.6618422984349","29.8224435846605","25.199403402752","-68.3927285325469"
"2555","-34.0167012916336","-147.755923012541","-29.8005851702869","26.4091695053562","20.5724636837425","-68.4599340549302"
"2555","-10.0068568436853","-81.7277544791409","-36.1376917088999","-55.7896720149099","23.8808245810303","-68.5191635755222"
"2564","81.5636270776282","41.5220932369039","40.03050462245","-33.2331019875322","22.0483850817157","-68.5713636921963"
"2568","65.94822619743","11.1582064951477","17.0711350635589","-21.179656333148","19.7546071328205","-64.1426456604286"
"2576","40.5511656455483","164.742315827468","-42.4966005081069","-20.4486913369987","19.9451052031282","-64.2395312056028"
"2576","42.7372521663764","110.918591541916","-29.5156458265733","60.9198812639012","3.54145499645212","-65.4435990514879"
"2584","-37.0970386214983","59.0081945752809","-71.4215377096822","38.1063138297762","7.75240880621463","-65.5047672225374"
"2588","-17.9465466132883","68.1048699041283","-57.0979330385601","9.06866985361131","20.7681207350499","-63.321314409453"
"2597","0.748637581526157","-262.405833291489","-74.8326319303708","13.0804986408171","18.3615226063106","-63.396995413516"
"2597","0.972816922686054","-154.560606898114","-67.1973203808229","-105.700704383862","9.27676543540154","-57.8702907899514"
"2605","76.8977386700138","-36.67920491325","40.3575390491709","-71.4676607706764","11.0706449544808","-57.9994996153827"
"2608","59.2365911493793","-59.3775217941826","10.8925324930412","-11.8478498797535","-17.9438560025495","-58.1133738405229"
"2617","33.0490146837154","55.8291030121467","15.5594904609272","-22.3934233291046","-10.183423666494","-58.2137333872334"
"2617","34.929630625934","15.4659189682871","8.97122999266647","63.9369886544991","-9.09176133518959","-53.8274591882324"
"2625","105.040308448844","112.270155694499","8.67580600258692","37.6592848716653","-7.70650051942971","-53.9617513002736"
"2625","89.1324250626763","75.3327051838482","7.58644121115547","34.5968067128453","-5.57053732650483","-54.080105523757"
"2637","20.0556637987553","-2.15460858629118","-67.4332318879313","30.6488621051661","-5.81673012940569","-54.184413379248"
"2637","32.3630724620267","17.5844335729469","-46.1264378051288","-4.38246267098092","7.27308887867287","-52.0389804005067"
"2646","-6.44778756156712","-115.872083942838","-110.976339507831","4.77411128669061","3.89264403285282","-52.1481690164632"
"2646","5.5549484225553","-70.0452607169309","-88.5932228166355","-56.6292719599579","12.5821718017803","-42.1762722968345"
"2654","79.5770084353102","-30.6312318039884","3.05276024583213","-37.6357768306257","9.64881105535328","-42.3878477574478"
"2658","65.1805584812394","-36.8341190601046","-19.2246294146956","-45.2803415186797","-4.56311078529492","-38.0995902842908"
"2666","72.5261387447173","-41.878827287953","84.3742454715514","-39.6466029247329","-1.57866957562277","-38.3202664236537"
"2666","67.3646124733135","-41.1327862622409","50.7125665207297","21.2635072200869","-3.8196000982956","-37.3960718034572"
"2674","-110.510200798878","6.34128875271052","-54.5301643727532","5.11732673179304","-2.61045153327599","-37.5815612938049"
"2678","-70.244455458432","-8.85811947423308","-30.36574649132","20.4050947951163","14.2871508681758","-33.2703137528945"
"2687","32.4483639466158","129.229672758933","-116.4187688242","13.1371962330782","10.2505187511644","-33.4707283029843"
"2687","18.1308477724335","82.5540416797185","-87.4495268230783","46.3872882753234","12.1201184001116","-32.528676754123"
"2695","102.958804834868","-137.468349433551","80.8788814296372","35.6793601928033","10.7799226868796","-32.6984285894901"
"2699","79.7379616796133","-73.159134196429","37.7976747593227","12.079301855532","-25.928982965797","-30.6106726500193"
"2707","-103.501738819907","-176.271141405943","-49.9243932614435","16.7742544783604","-16.8839989371767","-30.7706931509758"
"2707","-66.3090892602478","-133.90160821539","-32.4600321257762","-84.8908491204347","25.8381953827911","-21.9622762999814"
"2715","93.285133180293","16.7446176055875","-8.50458401043888","-55.3597712637909","16.9153735200046","-22.1992489659688"
"2716","64.9554153614775","-25.8093739675995","-12.2581392518478","18.0187997292693","3.88387439899679","-21.2894167883968"
"2727","15.2823289829857","65.1960030653847","-115.243773548986","2.73204602353381","5.2849010370282","-21.4875641759085"
"2728","20.0876914395544","29.8171347710812","-86.3965913242829","90.9758258282174","-12.3386269515952","-22.78087603275"
"2736","26.7853182736171","-217.171553294396","-45.4178508859687","63.2903766230288","-7.55818273799952","-22.9206966686148"
"2736","26.3734103140719","-142.565328307507","-52.0219158388273","-26.4215560391167","18.8352126498682","-17.4505195372538"
"2748","43.9636292247027","-71.477595656758","54.620585276178","-6.19055173518298","13.1497605152806","-17.6295471297262"
"2748","39.7608286925693","-83.8073764303809","22.8795933117281","-40.4995015961317","-0.386319673197594","-17.7873275932778"
"2756","63.9540773539922","335.222648358393","-24.067024919933","-27.1193272174701","1.83663421459215","-17.9263825531014"
"2756","57.3028147268967","198.38059691513","-16.2682234940723","-22.977693059025","2.62114147810021","-18.048934366021"
"2764","24.0746047498851","-89.5915885230621","-32.5816475049968","-21.6957117472004","2.89800356231953","-18.1569416378861"
"2768","30.2345842634203","-16.1725977640167","-26.516404949294","103.795506109145","-1.94555224839491","0.765442221935242"
"2777","3.570465796641","-199.337444229408","-56.934250999759","68.6394478807555","-0.654901567597488","0.442103376077561"
"2777","11.2669367289051","-129.866579439139","-47.1355500119406","-111.28907348158","8.03602427670939","7.98790387594708"
"2785","-6.73554817920024","-26.7781534180882","-78.1215403575878","-66.9832736514375","6.10315692796191","7.63816311417551"
"2789","-0.692055170917961","-50.1535481652587","-67.4947011621319","-12.6979150446627","8.71520056123142","15.1606950973096"
"2797","-16.106121124556","80.6476533564761","44.3600921400272","-19.8946889321678","7.63702229318707","14.790447343817"
"2797","-11.0624131656066","35.1608004182601","14.1958015262677","64.0913644762102","-4.27309532668931","17.820183120933"
"2805","42.5211562687483","-75.9773860876068","-30.5763664317078","39.0879993320206","-1.47631961908276","17.4903475841341"
"2809","31.2268798015843","-46.6029136822045","-23.1198009050588","17.8248603103052","1.15778421962246","19.4370186758999"
"2818","23.6353923176718","-170.658636937552","-78.5793253304259","19.2431715822011","1.08739126439718","19.1526573827584"
"2818","22.7018953016238","-126.495066015666","-61.3556502044679","-22.5794327220737","-15.4083305347842","15.5460020515299"
"2826","62.6806924380901","182.22587632471","50.7971611370706","-10.5249984284487","-11.2298699015468","15.367387279509"
"2826","53.1292698550375","88.9643870003725","21.7230200061773","38.8488237882839","1.77437479302031","16.3286513924311"
"2838","83.3236115867037","125.331103287636","80.8283180769043","27.131756793397","-0.63627026112982","16.1758319596153"
"2838","73.991286934793","100.370748038954","58.7074775627735","101.26629634226","-17.957895278606","20.5158722511316"
"2846","17.1369326540991","-3.91375299923108","-78.6917560605104","78.2135414697852","-14.070905861783","20.3408333064152"
"2846","28.167314843995","26.1643343648528","-43.2545751541099","15.2925633895805","2.12465097683228","25.7799718642279"
"2854","32.4296670257641","33.6408197979255","-32.5349437532671","28.8163095886328","-1.15974149471637","25.5735893793907"
"2858","34.0767220242822","35.4992436316728","-29.292290290695","33.0023842706983","-2.31884324860071","25.3917005226125"
"2867","58.9168868272528","-130.424737634234","-62.2614635848581","34.2981214862531","-2.72790425074831","25.2313983717485"
"2867","53.5156050602832","-76.6683251641135","-52.2345307494672","-73.4905533097888","3.71608489341063","26.2088017502167"
"2875","-5.0468799863642","304.494334813627","-23.738867312724","-42.8549359250678","1.99024645714251","26.0702061628097"
"2879","7.32344756791997","189.239623649967","-30.1190222587066","139.055279863514","19.4991444408929","27.0667399535068"
"2887","-99.2334902415443","342.739660460649","-3.19144271386349","93.3628840963571","14.6782459147122","26.9450043666602"
"2888","-71.4091438622188","276.895038337554","-12.045937912","146.838076318497","26.1535960451239","25.7190357006825"
"2896","2.27236827646181","-208.855365681861","-65.6494918216795","123.39052746516","22.2033856417751","25.6385659152917"
"2899","-8.25567593690731","-61.597944018038","-51.8643916808041","-54.6042636601037","5.98551735378246","28.9236885939613"
"2907","-28.459722393882","-165.108753662933","-68.0644831645463","-8.69990636901712","9.26203584549191","28.8189304497344"
"2907","-26.2669551818207","-110.838350465678","-60.9649578897884","5.5091053222977","10.4183587768327","28.7266050806187"
"2916","-25.4196276867678","-83.3369544061744","-29.9598191353336","9.90729375490482","10.8264390989575","28.645236955541"
"2916","-25.0922040186632","-84.500955011028","-37.5808659997102","-130.730360553919","-20.3242150522208","28.5735256605625"
"2928","84.7578087543832","-55.0159656991967","101.006563510825","-90.2626566634477","-12.3176569669899","28.5103251158456"
"2928","59.2059699830544","-64.6869061610746","59.9288079768033","22.000946453411","-24.3158373078332","27.3359445093045"
"2936","36.4236013404191","206.132404453545","-35.6747389654052","-2.24952336405218","-19.550139997589","27.3009402737723"
"2936","35.6200551877972","117.449737710006","-15.5944994435459","66.3150227197585","-21.1624437382388","20.5580058679834"
"2949","14.3329999227348","203.994671193049","-101.185469113003","42.538159136565","-19.7314451927758","20.6153279737506"
"2949","19.1072716668641","163.507074114813","-73.0764576913738","116.320697570721","-7.69681303759202","18.4284855492956"
"2957","-11.3194724474911","-203.848782400483","-1.76595267690827","91.1589859836894","-10.4496460624927","18.5011792236071"
"2957","-3.07695255355247","-91.1621254579992","-17.1947579822154","-40.0333826831441","3.40263727749173","15.209203308552"
"2965","-38.6178217047997","-8.85734033937652","66.4082487981143","-7.64203097284102","-0.708724700783683","15.3079215636266"
"2969","-28.3514982502559","-19.3989076084995","39.6978851000083","-88.9008717687987","-15.3363773975161","16.5136046120268"
"2977","-61.4967499818052","132.106696078273","7.85304162404938","-60.0533384849953","-12.4986526258474","16.5761962921458"
"2977","-51.3047138040081","81.7663193542405","12.2200805546728","38.4706243325569","-4.90883358543893","17.750040294596"
"2985","-18.3218614476524","81.5132690816344","-127.351675720381","15.967253022337","-6.23029481834267","17.7845716106133"
"2989","-23.5766518726967","74.4503685835384","-86.5716758154396","27.5967822710166","-23.1675337161802","23.4084084734668"
"2998","121.228642729902","-130.471226207767","20.8243239010516","20.1965302428951","-19.1448897972531","23.3648041603298"
"2998","86.1841982814125","-65.4084184512035","-2.68873719919337","-69.9982804949264","-34.1961294705496","22.2076940899101"
"3006","72.6423498048715","-49.2358098495139","-9.80136133162248","-45.9167439240719","-29.5078936566443","22.1879107103218"
"3006","67.4095186657977","-45.2157978334008","-11.952906884689","-38.4626621141402","-27.8533586394091","22.1704752370579"
"3014","76.6825170445296","171.20944442948","14.5563099122562","-36.1553618525612","-27.26945325753","22.1551090188352"
"3018","73.2657822651432","102.006088861726","6.57526135026282","8.51091500113071","-25.4162980715478","21.0228857250507"
"3026","-16.801450286666","168.872947182781","-284.41453538459","-3.66330270990022","-25.7622972342851","21.0250355407849"
"3026","3.39483588329321","137.493987149227","-202.437997822043","-31.0981589322573","13.6457057452463","23.2642917145017"
"3039","37.0163617020665","353.877290162968","166.952800345287","-25.5902110122175","3.55326574799957","23.2377912863865"
"3039","34.0083670071347","279.663509790555","75.692309469211","-18.8139130000031","-1.65556609508629","22.0957551990886"
"3047","65.1176346011525","24.7730903990578","477.554636164668","-19.7164106415922","-2.4938257358906","22.0892568110019"
"3047","57.1388549287733","96.4151885304082","346.116676537984","-6.47204650136724","2.15160609965919","38.8637409044311"
"3055","54.0557007498026","114.223205928263","306.35712334445","-10.3724503841806","0.791035076183732","38.6474166470873"
"3055","52.8643105771662","118.649730163509","294.329988454047","-11.5797624487045","0.310873136569063","38.4567659148186"
"3068","-1027.08157705406","-2067.78706980863","-1125.02590639711","-11.9534679584256","0.141418191346441","38.2887417544174"
"3068","-775.393473513476","-1362.26786655787","-720.376425548304","-417.780709185917","3.37579135053381","34.7846165777788"
"3076","628.864053649876","2417.54709438009","486.733308362748","-303.398501385681","2.51724068523003","34.6963636047175"
"3080","361.49621558469","1299.09258984625","212.880057537673","758.118981010804","-178.965424239503","-16.8407299330211"
"3088","487.308596363154","2029.90342755666","199.637978233551","479.695944244651","-133.012847632443","-16.2613625639416"
"3088","393.924924108885","1635.56047630231","154.632292524639","897.272758475664","-13.0290891520344","-20.2254779481225"
"3096","85.1445299208785","-3229.85572588227","-200.179937256155","728.527456407849","-33.6853722859741","-19.7191291459654"
"3100","134.825836860506","-1717.24822884125","-106.509477091934","-897.527928443795","87.497634372685","-19.2728741993405"
"3105","154.023650987131","-1341.26062761207","-78.1744690460087","-469.849210725831","52.2645803987177","-18.8795811244111"
"3108","161.442056217258","-1247.80169887173","-69.6032217226254","-337.467618676811","39.830410301905","-18.5329643665303"
"3117","61.039503894996","17.193763405372","409.98797100238","-296.490863960225","35.4422415638016","-18.2274843453899"
"3117","86.2420233926432","-377.36735515461","274.062739299596","-846.731916582919","-63.2845838850911","14.4834828238004"
"3129","-228.348965214654","-25.3253664039258","-440.962996590667","-684.050858207124","-39.1264724609976","14.3122878806073"
"3129","-148.91298390147","-194.818578859073","-260.255944698048","688.248166079624","97.8720750568781","55.5525982265759"
"3137","112.52465469822","27.516686967011","-265.005266520268","331.022937599113","68.2205163845072","54.8984776161023"
"3138","70.5491949270006","-68.2176189053772","-231.441920848744","-489.546064668276","-31.186624725551","47.6099040310026"
"3149","17.2167117035256","724.152546781188","-229.776634824049","-323.541006211916","-12.2686049113619","47.1863438244142"
"3150","19.6080127198242","455.11134704157","-224.272891244421","216.387737256071","-30.2985262452235","56.8811788095227"
"3157","20.5320575016472","388.235997342588","-222.608026800091","94.5146568154744","-21.661503149327","56.4254235088006"
"3157","20.8891262073412","371.612846681316","-222.104410747146","56.7906557178","-18.6133934287269","56.0237575889222"
"3166","-145.171711240111","-494.223120935929","407.821644044075","45.1137517315174","-17.5376787101648","55.6697616816093"
"3166","-106.340818041227","-217.443255147339","227.372216759901","49.951663910237","-20.4522218545619","64.3072242729288"
"3178","347.558147018633","-376.330318535977","-137.856243329887","46.4491677370105","-19.4807993159057","63.9195863269969"
"3178","250.953451616317","-285.824745177856","-65.3366587895939","-209.89517166797","-15.8437967194673","19.9494042985067"
"3186","189.419825174135","-202.027770468557","-228.427577747129","-138.242752824824","-16.5602545956401","20.1976364447701"
"3190","180.642046453262","-216.19842539864","-168.7620476833","41.1494206388935","-6.93057366426568","-4.19456828321098"
"3199","-19.6067059847168","402.037128594781","348.35254106284","3.67760228650545","-9.53214300971007","-3.69188786326358"
"3199","25.013318221477","200.711431674264","210.778014014494","61.3878169544207","65.3157764281051","-13.3169926812639"
"3207","42.2553551927869","150.668068806491","169.162169232744","38.2511563695641","45.7305107957241","-12.7997828419541"
"3207","48.9180104514712","138.228831265421","156.573512204034","31.0895468808709","38.8186341118516","-12.3439558542101"
"3215","-106.638323199392","634.294604671098","-40.7498880013046","28.8727770803877","36.3793493868043","-11.9422267551793"
"3215","-68.7482873611171","472.601265889927","13.5604283709506","237.804251485688","43.7539359969175","-13.8255366665892"
"3227","-210.62417881655","-772.57512028447","-328.184068070134","178.475884805451","41.3565166409791","-13.4853339454887"
"3231","-168.447756556173","-394.087590281327","-220.560661281401","-296.313841540415","15.804119494335","3.59470450951122"
"3239","-126.332682698203","-39.0440637308626","75.1080741184646","-173.277946272026","21.7863700611624","3.6476711929829"
"3239","-126.058606800061","-99.791186404262","9.54690020938003","-172.384240028393","5.77961130362315","22.7119244984133"
"3248","-113.044052715244","256.412285681695","166.25519929783","-150.107606540555","11.1306328972395","22.5136179259772"
"3248","-116.014978287616","132.953489715852","109.658947584642","144.166820426332","-28.1581251710816","30.1696117753015"
"3256","-117.163001164545","102.265438363042","92.5387664213278","65.2550965721649","-17.0236022050902","29.9169865336415"
"3256","-117.606619321193","94.6373346830638","87.3599675752484","40.8291450287068","-13.094094629383","29.6943430450961"
"3264","80.6923884450621","313.421506877289","-46.6118570854525","33.2684546817825","-11.7073239671192","29.4981230527233"
"3268","34.3189453353029","241.804508582051","-9.13789617005864","117.141863157703","-40.8654985545223","25.9691483465944"
"3276","109.987036132269","-374.986611108292","-104.744851383554","92.1036304485","-33.1557703771186","25.8589950048365"
"3280","81.2266441844902","-186.301872341288","-70.6656428526191","-196.263749084505","-32.082002155526","13.4564264957854"
"3289","74.9538168624718","111.05394559257","60.1659384003841","-119.523586471965","-30.7030563871092","13.5258041176156"
"3289","69.52987553736","41.9674366437524","28.7420641177742","20.8722658510909","7.66661255539704","11.3495864515373"
"3297","67.433960115494","-69.7826044751003","119.389137689853","-4.67028425105883","-1.79226805875507","11.4316439299343"
"3301","66.6240580180511","-43.5602202675203","87.809581173331","58.4229230020789","-10.0716850020241","-1.92020623309267"
"3305","66.3110962445944","-37.0421437962581","78.2568685421168","35.9524877842975","-9.99359119417836","-1.68744880671325"
"3305","66.190161786029","-35.4219508897359","75.3672041933849","28.9970984583177","-9.96603094660575","-1.48231520623272"
"3317","12.8952661362155","-176.885117504483","-120.719785694987","26.8441610449082","-9.95630460251757","-1.30152701527932"
"3317","25.3010917151126","-131.048500458627","-65.0354592429491","-56.6550268475258","14.7534468549321","-8.97296015143561"
"3330","-211.942168484671","312.948482922697","-104.208740348215","-33.5009597173726","8.47381645158725","-8.73394185046904"
"3330","-153.617534787833","176.312447838315","-83.0585298480956","97.0699724400923","22.7285383471686","-15.2353749198701"
"3338","-60.0822203590464","25.0030758818058","113.459705762825","64.4862642924463","17.7592017935841","-14.9652130374106"
"3338","-67.9383728781128","54.3922297656049","60.905829732369","-8.14673818780973","40.7117818449406","2.05309707819912"
"3350","-164.561824175345","58.1946059249656","31.4284278536245","6.37079517241334","33.8120244390157","2.0516613878873"
"3350","-143.898987236122","61.1397594389643","30.5116101296283","-51.6827178921243","-6.50600558010795","2.05039608637825"
"3354","-135.914468967107","61.871833825179","30.2342757646584","-32.6523202247569","2.2652748886077","2.0492809518011"
"3358","-132.82909728384","62.0538049531369","30.1503830256983","-26.7617434058435","5.36076565689152","2.04829816223177"
"3366","-44.5034905508828","-0.952472247817973","-81.9102099689002","-24.9384028815927","6.45320171918671","2.04743201086548"
"3367","-64.3727744901858","19.3861092589446","-49.8081730894653","-32.8263392126013","-22.8088471018861","7.64007240430782"
"3379","107.056812959991","-59.6270257530157","-57.0724445402817","-30.2679326943907","-15.1357773955613","7.56897404214234"
"3379","62.3005081927259","-31.2672557246768","-49.2698629115142","-37.9283402695596","-65.1346721449169","-3.68049381171727"
"3387","86.9589088893999","37.0821877736935","177.160823959647","-35.2995056059045","-50.7798857112878","-3.59486638512115"
"3391","70.4873899700177","19.0717527180517","113.655366669168","39.8946649121613","-25.9488531508107","-12.4688472846263"
"3399","83.4854465472889","-132.525275408463","-24.3800553880492","19.1699030607929","-29.1856819887367","-12.2896574767082"
"3399","76.5081460201721","-86.207623982209","3.86468059641292","5.99300154851112","-15.5042066141858","-22.1998607983286"
"3407","73.8119826767244","-74.6944834692909","12.4086209162499","5.91428748535462","-19.6758487855339","-21.9339137584444"
"3407","72.7701332184276","-71.832671603004","14.9931349378748","5.88992271674302","-21.1480716697581","-21.6995295126775"
"3416","178.863871006573","-53.6070051553417","-45.3351756807116","5.88238096466351","-21.6676368989428","-21.4929621649542"
"3416","153.860535215324","-59.0766662393539","-27.5842924649981","-38.0720398152909","-28.4393494509358","-31.379037133723"
"3428","-13.9321474319689","102.4468111087","15.1303635956238","-25.6774776343411","-26.8291685617179","-31.0918253119964"
"3428","19.2295274171833","49.5965689996881","6.05140744482396","71.1346421771692","37.9755128872411","-38.6694652536829"
"3440","57.8611292036656","-182.469225033618","150.987837234918","46.1013953012747","21.8458673220708","-38.3477852048982"
"3440","56.7891243832601","-115.153628553113","107.830633534308","-47.8609821177957","22.7418723879156","-35.8269208857933"
"3448","33.7847507823274","-19.6066590933449","-7.07447563434177","-25.9456398295931","19.0580833926316","-35.6052346343826"
"3448","38.895417636828","-40.8566274941548","18.1671043994965","-19.1620712716536","17.7580297838252","-35.4098582735236"
"3456","40.8702777679239","-46.1387146587669","25.8025998598238","-17.062318423849","17.2992251704409","-35.2376693256769"
"3456","41.6334017688471","-47.4516787200921","28.11231228062","-48.5312034580694","17.1373074834803","-39.5606388907308"
"3465","-93.6124941304032","109.850732919606","-190.166928886463","-39.2719292137637","17.0801647770082","-39.3705551861691"
"3469","-61.874113858281","58.9512639798264","-127.195685912792","54.8792439459134","33.5308777015082","-41.4403922579275"
"3477","-164.174024435682","135.622196810622","-18.1794175033965","30.0223405738369","29.3365328930283","-41.2645795139155"
"3481","-132.704680720992","103.680227512867","-38.2023526197454","5.42360689868832","19.6208583363504","-43.3469938579242"
"3489","21.4507846104588","-60.1369047328976","84.7510233501703","7.80943441032645","21.1920794932711","-43.1822657060605"
"3490","-6.98057373458236","-11.8567945349894","45.9440177186551","8.54793186474805","21.7465824080426","-43.0370876147836"
"3498","72.3935228056648","-120.704574020767","-76.1326870944021","8.7765227781845","21.942273180876","-42.9091393682431"
"3501","47.0652028743925","-78.7607770265299","-48.0604913032606","-24.9620174879341","-25.754215081777","-46.1524183651346"
"3506","37.2778520953326","-68.3348419117317","-39.5687438279705","-15.4052812950991","-13.5868816032955","-46.0107825786602"
"3509","33.4958311980803","-65.743275796892","-37.0000179712332","-56.3992219559982","-15.8812344393606","-51.4793599828469"
"3514","7.83067444108573","20.7210179690596","-43.0129998688793","-43.0882871449554","-12.6909392536755","-51.298922520021"
"3518","12.9131634233051","-6.78662365731687","-40.8319072400089","3.29353641751754","-28.0359248434243","-56.7333032599016"
"3530","37.4672653675328","44.173041638776","34.5180099616857","-7.34965930169044","-23.4513555096689","-56.5227276185321"
"3531","32.9554434008589","23.8400437206784","13.3111136405479","31.6175190975508","-11.9508780795073","-60.8118662516352"
"3538","53.8021187571804","-42.5141916372808","-18.5664522098955","18.6792301447476","-13.8922207554263","-60.5919666954953"
"3539","47.8576757322637","-24.0078093354873","-13.2093116906034","26.5076290690867","-3.0477285297002","-61.5168457334356"
"3551","64.9235972424042","-42.1762938047008","20.663767906982","21.9307936313277","-6.22057630361523","-61.3319594336206"
"3551","59.5181980939759","-33.6924190433449","11.9102637740373","-40.3426327057035","-17.2228401523665","-61.169015578507"
"3555","57.429447726401","-31.5835892729709","9.26235738388833","-23.6184464867391","-15.1056718889077","-61.0254100223039"
"3559","56.622314343973","-31.0593991917273","8.46137435532","-30.274977168247","-2.82888215649129","-55.3054439318805"
"3567","-74.3896170555719","19.86239216171","-170.018763576245","-25.3354073291003","-5.49625484895051","-55.2643277062594"
"3567","-44.0151513321782","3.51997994884267","-119.008421953738","-8.59225315010768","10.033276401615","-41.8039221867707"
"3579","108.103651315582","-98.622366078274","84.8449024580513","-12.4096585661075","5.51383545948082","-41.9410076877949"
"3579","79.8852872726513","-68.0118050052813","35.5098668157581","-18.6626742665308","-15.8461849402983","-44.2991852784881"
"3588","-61.7188717396231","-11.362899986883","-118.60908822863","-17.598202360953","-11.3843940072296","-44.3774925844078"
"3592","-35.4374468282032","-25.2817282673238","-83.2295684051588","-10.5068514625912","34.6615999215733","-41.0904640709522"
"3600","24.7392048528171","-168.855985773085","-21.6022812410513","-12.3118291647493","23.9117870671604","-41.1935425662945"
"3600","16.9926223834548","-124.54412085337","-32.9602282973364","12.486439698311","6.94134491385074","-44.6404298781039"
"3608","13.9991936770781","-113.52955704237","-36.3959701594006","5.16237533913113","8.95227100307695","-44.6782380190545"
"3608","12.8424751556398","-110.791675976737","-37.4352708432516","9.65717948479267","31.074094154883","-41.3555168118971"
"3616","-47.3069903495662","-73.3310758573582","57.3105271278764","7.04847931828966","25.8811526098328","-41.4271386491909"
"3617","-33.5499026181196","-85.0195253017491","29.9708213457431","-20.8064428040378","17.4601491368535","-41.4902603531281"
"3629","-39.5289640272202","195.806879700499","-109.007101963704","-13.4285200414347","18.4882753490677","-41.5458907259093"
"3629","-34.8393885440929","103.611668176796","-74.0474695275584","54.7833358327117","20.4982014289105","-44.9509610939228"
"3641","-74.9803453336136","208.549230342231","-133.069928983076","36.897302235858","20.2075286072258","-44.9519151573241"
"3641","-64.4915843645551","161.633473845322","-109.924030058595","71.9321029344823","5.28115531139913","-48.3087982413545"
"3649","-94.3237204857659","97.4287381682275","-48.6023666950802","58.7766048969637","9.01345797735696","-48.2672839237698"
"3649","-84.8514326079764","111.469419837459","-62.0527639521399","17.514289056048","2.09519300848984","-42.6372928072111"
"3657","-81.1911580855554","114.95950052975","-66.121465160947","26.7421523179929","4.6536537805457","-42.6754732580876"
"3657","-79.7767574938147","115.827027016401","-67.3522339784151","14.3843165368339","8.85074132899581","-24.8102304266161"
"3670","-380.969803245703","84.5169125542697","-447.965269647555","19.5591320999759","8.3319441939874","-25.0652480108681"
"3670","-310.356598697836","94.734183158933","-339.099468936868","-46.457675010091","-13.263288636218","-7.39110791918484"
"3678","-334.704879586637","274.168394793371","-219.595253351222","-26.8921966852774","-7.88450700943794","-7.81454802676623"
"3682","-312.113524398942","217.770209172089","-234.445618725698","-47.8834313491248","-4.33918211071043","10.8298388028131"
"3690","595.380679704105","112.676955790269","862.741815485699","-38.3809561235683","-4.08799415318012","10.2614958227223"
"3691","389.053923315258","138.554012249596","545.637428272953","-13.4635629466112","-25.4114899486195","22.0660924621809"
"3698","17.2671767191139","-1497.85586073667","-305.674566874588","-18.7507541445323","-19.9368090417379","21.4697107206384"
"3702","54.6016152521189","-966.616916711501","-118.193662967512","-18.6968607563797","-120.124179564763","28.7748732604277"
"3707","69.0283615603339","-834.567289406151","-61.4813023006482","-19.6801788588969","-93.4815121296936","28.2130536321238"
"3710","74.6031342693864","-801.743822174321","-44.3259985583398","-155.221739112737","-171.374653309472","13.1750614303757"
"3715","0.919039312796521","-579.910359565568","-612.89267997051","-117.176615032105","-145.864083193127","12.921789419565"
"3719","19.4460854755668","-646.769398250891","-446.882242786948","-308.256095318107","161.261819862046","16.0546181705057"
"3731","-29.8700326726752","1210.64248571294","596.374783892021","-247.401909126971","88.6502588133464","15.8156404560923"
"3731","-13.9267308148389","602.337829754458","326.956624667562","281.954987474497","10.3179486380851","-1.17518645191888"
"3739","-346.617886112064","-1494.70760210742","444.066394476305","143.809548926964","14.6735307140768","-1.14952928169493"
"3740","-265.176157912963","-904.968460021159","362.491717080354","721.449284548969","100.212152516136","12.2972518746834"
"3752","-566.103136486449","-611.257297506962","-599.20616037617","533.249081369451","79.399764811102","12.1481589601792"
"3752","-476.387118454984","-622.249755455257","-338.116625080906","-395.594897551845","113.232020122083","8.66071825497862"
"3760","-441.719120681857","-624.982141684783","-259.137894002525","-168.104749224744","100.171831459652","8.58716962777397"
"3760","-428.322738453033","-625.661328682124","-235.247085986428","-709.636833240631","107.092348704988","27.5399225544683"
"3768","423.983767444335","363.728261148373","-285.735305772629","-515.260043042066","102.534682788489","27.2433485518544"
"3768","228.331421261395","44.6600175949054","-267.0078272416","395.210228299013","-48.9587739424002","28.1006529241237"
"3780","-365.231830443864","-469.005357242593","808.084232905104","174.032771811499","-11.4226437204165","27.8562117706312"
"3781","-273.596106075349","-348.686736911439","503.296067254596","120.784760439313","-14.646569487365","27.6407810765325"
"3788","-385.022143647808","1812.71207470293","-30.252206468459","95.3026297489975","-5.78433181121454","27.450917858753"
"3792","-337.079311221559","1132.96919928298","68.3511845864407","-225.320984135364","35.2262811872232","26.164907000168"
"3801","557.621061804378","-925.787785699461","-312.61740285201","-139.565259560152","26.6994216130832","26.0315208746118"
"3801","360.350522610375","-358.531315869453","-185.85915538945","776.163666718489","50.0435967700017","22.5579228648689"
"3809","284.121385790206","-217.528841803748","-147.515199830332","533.613948726792","42.2820380043433","22.4965740716449"
"3809","254.6649787459","-182.479972817542","-135.916278597582","561.654644068869","-62.5765612930073","21.323825449341"
"3817","-105.250983118222","-1214.11781292562","-45.8349761456766","509.334224645974","-37.5824268855882","21.2902595129329"
"3817","-28.3294446705649","-876.551182189136","-69.5856765768768","-903.184757549074","-86.4097725768225","24.6167194566165"
"3830","-147.054907890714","1414.16031403074","232.175409020953","-514.409019397321","-68.641532337111","24.5483926397945"
"3833","-100.932714160338","723.560586247195","141.457151134436","-208.118132074031","49.631073222908","62.5233203961706"
"3842","-54.0657567204949","-858.003032196602","-254.343034617126","-223.310339181463","23.3709035655491","61.9913552504269"
"3842","-53.9554614598659","-446.130999797769","-157.071297168493","710.195135784435","-5.66168246176547","106.269754121601"
"3850","212.32797997964","-482.115342508504","-54.6542739727349","444.147884291217","-3.90763256534454","105.293159412011"
"3854","150.225031781559","-412.059940974455","-66.67345919715","-92.9381362843829","-70.8192122106257","116.737955943361"
"3858","126.227256166053","-394.646327444533","-70.3092234438741","9.81486678658553","-53.4331164543677","115.82447544034"
"3858","116.954053343938","-390.317839854292","-71.4090302453289","-570.327747032532","-55.5327930068881","122.850172737444"
"3866","35.9188338567376","614.327950110005","-124.36431952895","-387.902272607828","-51.2737942105197","122.042055011018"
"3867","52.6052638792797","291.051927673648","-109.383121457488","469.845165603372","16.1127749831499","134.754014300697"
"3879","-34.5344607037235","-498.634010451629","187.119204161425","261.348139546649","-0.105691227192749","133.957308729649"
"3883","-10.2069290553059","-289.925594475217","104.810188569086","196.810983257575","-5.829383749499","133.255156773194"
"3891","131.507318096388","-259.064285076449","-88.1408432006278","176.834465507403","-7.84934393963171","132.636336737448"
"3891","104.26843336292","-239.393114786514","-47.507899667302","-375.369118289058","-79.3869931611116","101.886578481274"
"3899","-59.5473662600535","156.065605276044","-164.226815453102","-223.295532276198","-61.6334932063032","101.786224593048"
"3903","-27.8489471944701","31.3644540073553","-123.533905992683","35.0846939786468","-50.4268049613117","87.1549310313098"
"3907","-15.600067388058","0.367591418910911","-111.224433882141","-9.93754634204429","-49.4718293874334","87.2600903609443"
"3911","-10.8668642525481","-7.33727321587256","-107.500858801141","79.244844586483","6.86618255807318","83.9967270528937"
"3915","63.5732696871958","132.61343155279","229.731157636458","45.8499285075448","-7.25145288833783","84.1206621493179"
"3916","47.3383715528321","86.4008631100436","133.742740395319","77.7746499448257","-17.1750006545113","77.5178040363862"
"3932","70.1093473682198","-317.40666128034","-155.011442157525","62.6564730856623","-17.6771404627612","77.6985780755361"
"3932","60.9084911129069","-193.780765435475","-89.3586386118308","57.9768660849358","-17.8543516631519","77.857897716164"
"3940","34.7629727127855","-252.374150157125","-25.3637951409976","56.5283632737007","-17.9168916351438","77.9983091823743"
"3940","38.6598407017908","-215.938659596942","-32.0055641526501","-158.60903638305","-31.115666166644","70.2912912614444"
"3952","-53.4220170456872","59.3355653579769","-40.8046906442828","-98.201621648488","-27.7736730403999","70.498948006578"
"3952","-31.004220863688","-24.2397469927229","-39.4663976488221","-11.8848096579801","-6.82918818953225","66.2072368940331"
"3956","-22.3415525334528","-45.0139936325086","-39.0615683917894","-25.1667231165898","-11.4376266343453","66.4248692745203"
"3960","-18.9941306017682","-50.177831030324","-38.9391088646863","124.554360131998","-11.4169122691311","68.8540343806229"
"3964","40.3882841710071","216.507514017391","115.570732167599","79.8982966961329","-12.4096019195738","68.9949043503921"
"3969","27.3347932590888","129.797270853594","71.3094540778891","115.099156739551","-4.52449444368118","64.644332767064"
"3981","56.1758683200934","-142.21083059505","-210.284954289367","96.995059904682","-6.74174482284669","64.810090281578"
"3981","46.3206153555542","-66.8236606111941","-137.466342453632","-43.8459830024015","-27.289294379866","60.481452570522"
"3989","102.214842929673","-386.11088255058","72.9839124192237","-7.44123503030214","-22.5407726778711","60.6665408288993"
"3993","86.8134492832298","-272.475844654072","25.6444266799098","-195.647539647139","-14.2766103327438","60.8296626739816"
"4001","-70.8145349962287","372.273972801086","-2.25563917854525","-135.904004621087","-15.3600876724342","60.9734250961705"
"4002","-37.7250248718082","180.538904537929","-2.69531791178945","-17.6738544022076","8.96385900735958","54.3880411871139"
"4010","-24.9386006804785","132.879476346015","-2.82831929154413","-40.0774682231517","2.5480734403698","54.5842155785199"
"4010","-19.9976800386839","121.032811486238","-2.86855177421648","172.748257734656","11.813480752334","50.2823848465979"
"4018","-27.7698975226044","205.65963687872","-38.5282906054019","108.625298756517","8.08335484892351","50.4910986117241"
"4018","-24.7732320924726","176.695257250299","-28.3152450510808","12.7060709592531","-6.40975503453432","32.7761500728905"
"4030","-94.6128151655331","-110.73332638725","-47.293374640719","28.0156992903778","-3.52454847979921","33.16362491043"
"4035","-77.6001755453023","-22.1792129758001","-40.0341968132187","-110.934945793915","-18.9772035305785","23.4369871949303"
"4042","14.4936150967543","122.432767731787","58.9193670531508","-68.9450532658216","-14.4306320494553","23.8647141371518"
"4043","-2.91956998488902","88.3788488146922","31.8524967016113","33.6469315691053","1.9976992624251","15.2922321262299"
"4051","-151.643464824454","57.1454935089717","-40.8402673137127","12.402756026269","-1.20454428734931","15.7371387085512"
"4051","-121.113243000527","62.381844074","-24.829590838372","48.0885586445977","-25.3938856806539","13.8918819443377"
"4059","-109.315777113958","63.6834394263907","-19.9864135340848","34.1345685778692","-19.9305962830461","14.2656216365908"
"4059","-104.757009013699","64.0069759124083","-18.5213682290417","-32.7318814956275","-19.6496234268707","11.2389633723248"
"4067","79.3392098276572","-84.7842228126248","-6.1956739337482","-16.4293975250158","-18.5504647138947","11.5715111804408"
"4067","37.4775354563647","-36.7691286801925","-9.4671916948816","-35.0497138866196","-42.8688772477433","11.8645919653244"
"4079","108.434737675631","-28.3369178754124","74.4183482956977","-26.8133561308686","-36.4511386138388","12.1228897028876"
"4083","81.8539676247588","-24.2409301722243","49.793449970257","-7.35926538102813","-40.7745928822705","11.2318517214058"
"4091","-94.6161696837055","164.180304142677","76.2945640794098","-11.3375406642319","-38.3003920882999","11.4465627957227"
"4091","-59.8076304893747","104.016015356119","64.3110644808421","22.930805382368","7.04415728532616","18.3478762979138"
"4099","79.502356958977","-75.5734697416927","-102.274218748348","12.5380626963203","-3.9532038207653","18.4301367386252"
"4104","55.3344199573598","-26.2138803174698","-56.6657224556699","83.7015974377424","0.401134317499731","19.6213151984119"
"4108","45.995463497441","-13.944607778774","-42.8693013945378","61.729212174274","-3.0621671859626","19.6711237053705"
"4112","42.3867108035546","-10.8948447968534","-38.6959291159475","-93.8329208103614","-40.520342503107","14.1216171520587"
"4116","102.308287157642","-365.677224714337","-61.1985433997605","-53.9848675261855","-31.7397847846005","14.2307301978635"
"4116","87.4631386678504","-250.865189037203","-54.0055106727765","-132.935597151564","-20.405580325133","13.2082128757094"
"4132","1.0476505600646","495.760181500366","75.4831033483108","-103.373622351901","-21.4056027397325","13.3070486760965"
"4132","17.6550411351373","271.348235661422","39.6529858674179","79.8947281874217","2.94779619063146","13.3941545695803"
"4141","-61.4473221395735","117.486216824287","-98.4982526939062","33.6227228513806","-3.45759532157116","13.470922670308"
"4141","-39.0139992394758","135.240861372843","-65.2885508234001","183.275002526077","9.10565603290253","9.06385687582372"
"4153","-9.36878153510682","-217.637769052867","-118.050345481876","132.597641966289","4.5393791051619","9.17982495452443"
"4153","-10.9132982902029","-101.352519930637","-97.0106159187279","-25.0878301471966","16.1045882715705","3.68862610536979"
"4157","-11.5101293199467","-72.4475912155977","-90.6461664924017","10.1029750610474","12.186090206844","3.84912685327965"
"4161","-11.740756327967","-65.2627168628473","-88.7209413425874","-141.28886059463","-15.5502019068297","6.22794075179998"
"4173","22.0553203817906","237.769322936229","45.9641911774289","-92.1499537401129","-9.33867423883721","6.3244352330594"
"4173","14.1147755139099","141.09374778704","7.70600355809334","31.2500157026379","-5.49946320887811","9.7655199265143"
"4181","-85.7684480821533","59.2659624533924","-70.0696006213049","5.44664260237661","-5.14455928770958","9.7982141082079"
"4182","-64.3652499596806","71.9260971666741","-54.5964666827757","115.792132033435","27.9224491415653","17.6577933689429"
"4190","89.1276242570536","-58.0357260817805","9.49672015549267","79.9479386264226","19.5921956161723","17.5845918694063"
"4194","58.4402279402712","-14.3402295766696","-6.11530030893741","-22.432201225898","13.3581727253709","18.6387587285887"
"4198","46.5820268016498","-3.47887595544721","-10.8378854728966","-0.122452216571114","13.1581107872567","18.5678162744426"
"4202","41.9997894299148","-0.779078220652215","-12.2664520496354","-21.9547035273931","-5.03046068895564","16.2679318242258"
"4206","78.955062264173","-14.1194382996464","-2.51356915947518","-11.712552507961","-0.449427143591188","16.2409993851589"
"4206","69.2352916416522","-9.43544063035448","-5.56335396165112","-16.9945711480967","9.40271453661496","19.5733055577451"
"4214","-89.4243655126106","-197.425672026489","-94.7560738538299","-13.6295415308757","7.87965427508031","19.5101311349956"
"4218","-54.7335136624992","-136.154249198967","-69.7365801025672","-63.3018923949578","32.0484668349109","22.8104965496993"
"4231","-63.9184304638743","236.367825785513","-133.463402290196","-48.6772305069213","25.5779325641367","22.719172122164"
"4234","-53.4676592660795","124.965331518048","-110.740557716379","72.4916915617882","6.82352362929078","23.7573668960324"
"4243","-49.4292799380363","97.2741051605765","-103.86697150044","40.9977308987687","10.2048663044571","23.6723479356342"
"4243","-47.8687723651016","90.3909198044235","-101.787734135837","48.153891948119","1.51565539034491","21.3600575894827"
"4251","178.635540683086","-107.480280051384","90.65909770182","40.3689752651638","4.44912795866151","21.3221915955134"
"4251","126.16117091786","-44.6649614255414","35.8736353369807","-58.3972269973672","-30.7515485637957","19.0514580663767"
"4259","105.884063506237","-29.0510093482322","19.3012120331352","-31.9688373078238","-21.1742922670953","19.050216895217"
"4259","98.0485985578815","-25.1698621248189","14.288108149246","13.4019049176563","1.97069223155006","20.1678037770443"
"4267","-21.1569889493126","178.960846872392","4.28414426719845","5.44574399457673","-1.8611633221329","20.1527546096992"
"4268","4.77967550681187","113.701449284593","6.25797788996485","38.4827946500812","31.3753750715552","32.4449797373124"
"4280","-20.6966738332442","51.9427731219967","-55.9525648217335","27.7089227719485","22.1049507172462","32.2783543692957"
"4284","-8.54122602768879","62.5914697925549","-37.7710506622746","-70.2920012980353","-17.4026283601816","33.2501849747644"
"4292","-24.8206763684388","-116.910397989047","-37.3637118589749","-44.6267311155126","-9.34532997001029","33.1066779952363"
"4292","-18.111369608557","-57.5290296006103","-34.2404932023282","-99.2296278946434","-14.7372517344935","37.4549255311012"
"4296","224.904765250938","-277.460381940845","80.4369892170112","-79.1311432299855","-11.6401260189034","37.2871197888197"
"4300","169.810881538759","-198.128537270801","48.1265528354849","-45.86251820279","-13.8412888190594","29.3084641088225"
"4304","6.52643881849021","54.531213507654","2.70518279725068","-51.5647096752065","-12.6181057446696","29.276721267826"
"4308","31.4301844280275","-15.6653600858343","9.96536681648198","75.1455909945945","28.99076851777","28.1300649411387"
"4317","-17.035434939675","287.397775902126","-54.0410787150882","38.3668817363519","18.6750425661774","28.1194946471379"
"4317","0.236516032073648","179.729930307027","-34.4028192888884","109.815356899887","28.2112017621137","24.7541365939663"
"4333","-117.33498593527","237.035701983876","-240.650218550033","82.9311707100585","23.5766274671964","24.7881817581027"
"4333","-85.7668793454037","203.28015050837","-178.039382724844","-52.1752940939131","12.0585026825582","21.4621441670411"
"4337","-202.654813566325","-137.882295452647","-254.159992556925","-18.9954926820024","13.9936173940355","21.5308432113592"
"4341","-167.822563230105","-32.6847639960671","-221.186228237537","-105.081675166664","-3.44142446571553","21.5913890015828"
"4349","-659.413480608439","-311.284863277063","-107.664072929609","-74.7283737715201","1.40553877824923","21.6447491720216"
"4349","-536.373681728653","-206.536260771645","-134.323991986251","-107.594581837803","-0.178085233311413","30.6412225163239"
"4358","-764.751038677329","-833.782683655312","-18.470791771108","-92.7678281747842","1.26303473478187","30.5699876580019"
"4358","-682.00044916","-616.696811002268","-56.4255773621351","-96.6307511907358","-136.583762544545","20.439080257315"
"4366","-174.017710418521","-245.726975322079","471.899263403834","-92.8264616098634","-101.231561453446","20.5105165437342"
"4366","-272.723393730274","-334.515308436499","313.715800951753","440.847530390652","-319.347652757134","3.79326347016882"
"4378","1314.01062848923","1224.95668147215","-374.092911622822","291.038384574736","-256.323454574537","4.06002652702363"
"4378","920.155223577691","709.593351141488","-205.152799133681","212.548357224104","-166.550849149794","-15.8411235532788"
"4386","774.416230317171","-910.729148804894","120.946562211131","207.252935567187","-175.869012919813","-15.3803902189148"
"4390","714.099875616258","-461.491379697094","57.5905531905382","-585.523737688222","20.1401338257972","-10.4996140627081"
"4394","645.61221357564","-989.096967243155","737.796914121577","-362.91597676168","-31.6858719764012","-10.1980920806334"
"4398","647.147261527968","-755.243454117387","531.557115107891","240.175843379531","159.204271707394","-3.2202704543136"
"4407","-318.794426456951","1823.19427502516","-352.421331928806","110.853954761928","99.571707925756","-3.07058193101562"
"4407","-93.0529038482198","1025.11442026812","-135.821922950742","571.201884140016","206.999514604513","21.6723179430774"
"4415","-239.791237066512","-1059.55462867581","-180.639022118052","417.695745215725","166.912084498629","21.478711906328"
"4419","-151.493755979691","-500.739099268772","-129.196048135373","-716.788703640678","144.5293068229","9.00259493070508"
"4427","63.347134076181","-1353.1446284266","-42.3395793691518","-424.951507101724","141.630154366096","9.00715287312754"
"4427","34.3657929674117","-999.026369598384","-58.0657814501831","-4.97699184926171","91.1943706378075","2.2990853763475"
"4436","-122.055421694406","1843.9971986824","88.2548847087871","-69.9801211941264","103.394973676449","2.3871363602169"
"4436","-92.4995925409532","977.68522830475","43.5164079855055","778.798063717603","122.524505127917","10.2955026363355"
"4448","-565.152871164999","452.343518873951","-202.574782772051","527.524738579153","120.275547717515","10.2652980726131"
"4448","-447.795203831312","498.759762320504","-140.01656364856","-190.939367150677","126.070215207138","12.4760397088885"
"4456","-352.424937467432","-841.807185296495","-76.9578218510635","-34.3292551817951","124.115223320079","12.4244088700175"
"4456","-346.572029207883","-403.030808680381","-83.8827585593334","-440.587969304302","-6.69466319460024","14.6162671175456"
"4468","-16.7534635537483","-180.121522223092","-23.1699083487501","-297.339317527318","26.14094865812","14.5479939846638"
"4468","-92.3052157322333","-189.713144259386","-41.8044695947187","298.092718193426","-33.0957483971704","18.9625465578399"
"4481","89.8792079450646","319.320474348173","-33.8613373188774","156.399857127756","-11.0010939202428","18.8531767213218"
"4481","29.2787790910774","153.850542181147","-39.4585657668724","-41.291364753008","-31.2041183869436","20.99414847874"
"4489","-228.107600635264","-442.48375351019","-32.6641927362715","-11.4837449264587","-21.3340096213122","20.8810281025524"
"4489","-182.566656386676","-273.714078830069","-35.6089171013319","-176.375119641827","-1.37984980602674","25.2560559368875"
"4497","70.6140290973919","265.643213996635","16.1229147236163","-124.414794509088","-4.33778591154947","25.1118521871722"
"4497","22.4479235696392","115.710812585217","0.771624769670525","244.975907640608","-82.7948098674277","19.3913588972912"
"4505","253.94062633827","311.382538313941","-2.17458699862912","150.315310591517","-63.4832407902169","19.3497780406395"
"4509","188.393866463835","227.020498213674","-4.06580642910286","-68.3175348769957","-13.8436688086394","20.4318127810982"
"4518","277.629567834414","-627.630376265631","148.137400031637","-23.992083453471","-22.3252645849248","20.3854308271814"
"4518","241.111961996332","-364.070241076893","104.178372523069","-333.150586744616","12.5645002055284","8.03906526984261"
"4526","-5.35477021921318","-193.471465726895","-36.4318347529914","-237.846007549173","1.87751940513637","8.15797563493147"
"4526","43.4057361978033","-211.06586847714","-3.96596288176763","128.056615785587","42.5773289063613","-5.16139536963085"
"4538","-108.791822615479","331.007121964168","-92.6003323205558","42.3163357698577","29.9407830258942","-4.90001343566828"
"4538","-61.6038914721659","153.74975927481","-61.4119393820623","98.6094842417069","69.9525674743272","-4.66965250562901"
"4546","184.145317804203","-449.017389970068","160.21035609691","67.0341918725169","57.0732092465794","-4.46663098350595"
"4547","138.107546700196","-279.846724405917","102.250376126103","-176.023621280559","29.4686972569027","-10.9997887070448"
"4558","-87.8342497623787","-71.4101830813568","-169.907818639866","-113.258555665057","33.7267317215632","-10.7575863729808"
"4559","-46.142512751423","-114.599283469636","-102.234783031184","75.2159236825186","74.7595537501844","-13.900171043131"
"4567","-125.23328571413","256.477156707803","-120.806486116488","33.5553981594694","65.2405320109136","-13.6697914081199"
"4567","-96.795484094183","130.715322185569","-103.424365599796","88.2785959047689","43.7631871181659","-17.941476400397"
"4575","-269.754773441626","-266.594235495505","24.0539043702912","65.2173486165964","47.1835728212714","-17.7061946146122"
"4579","-222.589574957626","-156.353145411104","-9.38433561539446","-121.11019289602","35.2139648079708","-21.9735592470454"
"4587","-60.7553482233013","-186.747825482674","-31.3818167999766","-72.7851146682244","38.9897456375429","-21.7344698449627"
"4588","-87.2194852286498","-161.303006104609","-31.0359829614588","-7.1128590012537","-33.7966924643636","-24.8797980019923"
"4595","162.340760680131","93.7249685295225","1.32119274421232","-16.7849881054729","-14.4839051814032","-24.6518362547806"
"4599","97.7756475516422","15.1170623916772","-7.89086736143648","88.4108990490311","-29.0803324546301","-32.2816944277089"
"4608","59.9177980950669","-139.282613514302","-53.1150671449035","56.9727227769677","-21.2315878540389","-32.0060353113258"
"4608","53.2887957223173","-100.661613941058","-41.795239768039","-44.0435999417063","27.6567908404195","-32.8817723754446"
"4616","-84.8135602192333","155.890122142495","-131.733708747125","-21.3117016040723","16.9100898843638","-32.653576308111"
"4616","-54.1789711380081","78.6609761346461","-103.939801657235","82.0811167274835","32.8825045084861","-24.6216974721234"
"4628","164.197158309379","339.693122462347","89.4956206525076","57.084827293677","26.519362455569","-24.5430480391994"
"4628","120.581901808929","244.577668343184","39.0092036743523","64.5617810616349","-0.432586106841047","-19.9990097804993"
"4636","50.4799621910822","-316.75436438896","23.7372275489228","57.8761609979588","5.05574586934339","-19.9942613897477"
"4637","56.3912221880305","-149.284205998845","19.117504686106","-136.906267312882","31.6989633945706","-17.7527150418453"
"4645","-110.750530210739","-119.916302251509","-145.240260148384","-83.1982736594965","26.1016765082233","-17.7771970953645"
"4649","-70.3373233731926","-105.616346575835","-98.9579468217583","-41.2167893990667","42.2442935960601","-20.0361351001399"
"4657","80.8199000363021","204.438575602507","-25.5450839157139","-43.2220447631141","36.941218047349","-20.0269806486146"
"4657","55.2299632505949","106.508672549126","-38.3379328301924","109.989560435025","8.71629182433009","-21.1375934041238"
"4665","-65.9955520156241","199.51218222278","22.2973963851865","66.4139362018151","14.7553746161222","-21.1163978050018"
"4669","-43.8394265600959","155.629988115251","2.63938529153928","-29.9070288821821","49.8283983908243","-15.5043139661624"
"4677","-101.43468296254","2.85633059186949","-32.164654376811","-10.7217523586176","42.2060918983592","-15.5582764456105"
"4678","-82.6905996261881","45.8815082168705","-25.6927626225106","-31.8306728404963","16.4568569315754","-20.0805576169852"
"4686","-188.398176143863","-46.7581773094502","-225.737925460799","-22.3646255111786","21.3696410553601","-20.0661310678498"
"4689","-159.245620198193","-10.7855477329107","-167.250933389167","-71.8389618588695","16.5150701718141","-18.9347359225208"
"4698","-26.9619558454304","-315.349978041152","-124.096260420949","-56.1530075196478","18.8018335004303","-18.9376156014308"
"4698","-50.8449994553874","-212.055307940242","-126.042112895358","-93.5592749200945","-24.8625141578177","-29.0082802666553"
"4706","304.595378422573","-7.73349285828817","268.887534631216","-80.1378291617111","-13.2721895822125","-28.8837508977922"
"4706","215.944388099207","-58.9453873638114","155.352462214803","87.9916712943837","-30.5939671739358","-41.0794890162987"
"4714","17.1027026109001","196.293830008972","-14.7917875846944","43.0336598682971","-23.7070316024064","-40.8278277897681"
"4718","42.2664445940106","106.738432304899","13.7401329526386","110.259888725419","39.6657044222215","-38.3686724065877"
"4727","27.7864882627187","72.2177050098173","-87.9667667857649","83.0687689312055","25.0307080297105","-38.2013714283127"
"4727","37.1911541756424","70.6369162237278","-53.7327715364768","-16.6329405631774","33.0425445428559","-33.5792028561402"
"4735","186.047564391315","-173.204903489451","4.15299165116168","6.50587676375999","27.8700183708672","-33.5055967161063"
"4739","153.568549061665","-94.816464024927","-6.33675417915969","-55.6409053927453","16.1620438744116","-30.0846839583771"
"4747","-55.8388178133181","-152.394470307147","-82.5025085497699","-33.8775183495471","18.0301583306368","-30.0697676919512"
"4747","-14.7578586690135","-122.706587963551","-62.5424003057363","-38.9742392950777","74.6904280115501","-23.3445372000319"
"4755","-31.1549993128104","16.030216225524","16.488107741966","-33.5518535298918","60.6865212104056","-23.417462105895"
"4759","-17.4911703533646","-24.4840904857046","-2.60542187794539","74.6258515486772","52.4501975836771","-22.3630514793836"
"4767","-126.77543576959","245.674233243374","-27.053688134971","45.1106527071819","51.5434995431721","-22.4337790966901"
"4768","-98.004981320295","152.827265533441","-23.4492087706896","54.569774934637","39.6938993657814","-19.1400704577497"
"4776","-96.5690078579414","-171.497730343562","-146.276604138072","46.4977056638966","42.5120324094351","-19.2372616299089"
"4780","-90.0141200476321","-80.1149277705238","-110.431489786047","-94.6190018986178","15.5060908140267","-19.3229180808762"
"4788","1.26575529277716","-31.1285173694256","-23.2008127726123","-56.2995818244141","22.9753679970376","-19.3984087600121"
"4788","-18.4619423417431","-33.9520056335212","-41.8138180819285","2.89464131985416","-0.742040753324428","-19.4649401487405"
"4796","-59.9703001964382","112.466351311934","-83.0917599896812","-6.78266649252375","6.88779937136265","-19.5235755423652"
"4796","-55.0099293423513","64.861441850314","-74.5782025034137","49.3881367491586","6.28628620716016","-15.100529044054"
"4804","25.9723095191147","-29.2889199969467","79.0749116991187","31.7749742319391","8.0740049497735","-15.2024130208413"
"4808","8.26540676210144","-5.6917979907815","36.554476543546","-32.843188582078","-12.7072305819139","-18.6482475804534"
"4816","-0.190462326658831","-5.08057325319401","-20.4429010954094","-17.8447806983439","-7.04117948154244","-18.6851279106269"
"4816","-2.45797304738862","-1.92864162298128","-11.6844215402223","-9.82131668560807","1.54679006510281","-20.9549927552863"
"4824","45.0732391669308","63.657771866643","-68.4476244955625","-9.33777262379099","0.577588195975434","-20.9554683380938"
"4828","33.4402152694832","42.9605327146676","-50.6183078639614","7.71654984873431","3.5297210108094","-17.5998452287881"
"4836","45.0807980688703","-72.5243048206913","-58.8050240037768","2.99546195424412","2.57156432064993","-17.6424699863524"
"4837","39.5789435218431","-38.2302758860215","-53.2814788785013","-30.5847129786082","8.82177096757743","-15.4426745060002"
"4845","77.7924392975725","-27.9544065022657","36.6595454261447","-21.9789571500639","7.02754434860616","-15.5039524028015"
"4848","67.5588702596753","-26.4001421027431","11.8664113138853","-24.3865678871311","3.10016425896074","-9.9645540435454"
"4857","-68.7091982149319","75.5691878327778","-24.4909862838921","-22.1318080153001","3.71414441221205","-10.0825756353557"
"4857","-39.3658051183862","42.9156202922247","-18.4889802262282","14.0658814447945","28.6371443337413","-1.23714433724588"
"4865","-37.7084371249016","-54.5240220835835","-79.4810139421012","4.27033834363746","22.4327718878023","-1.44149545845738"
"4865","-31.0679982025318","-27.7445138325516","-60.9309047939958","-68.0707857007486","2.12520674662019","-2.74027478523116"
"4877","160.286941287306","-133.179526144179","27.8581027461257","-49.4629057078209","5.9584218461647","-2.88491400759687"
"4877","117.230176415999","-95.3874204208947","5.71648732786436","-6.51288605136864","-20.6892850371891","-7.48711033804459"
"4885","113.500858845966","117.172507634592","92.3814007945004","-15.2183456753675","-13.0935824995223","-7.54311455697806"
"4885","104.059778690493","54.0083540940138","63.5972538614264","76.753040778009","4.41082397270477","-10.948514402802"
"4893","-10.9255072612777","101.359202023447","-43.565046075303","49.2214168211741","1.58834033788384","-10.9497588413402"
"4897","13.6419630212269","77.1291633412255","-17.9812915555075","-10.0145340530863","40.1223620499738","-9.83217483911656"
"4906","-73.6795372441474","-359.745659807758","-118.882498609979","1.64985756051883","29.7214835123489","-9.84722654431171"
"4906","-47.4222472213606","-222.339275213298","-85.4047839571377","-99.5484246192308","19.4625362021137","-9.86049190184757"
"4914","43.4031122330753","-125.132773614185","125.027500979085","-68.8728491289766","19.8420298456691","-9.87218291680388"
"4918","28.4997809038312","-136.970233476292","70.6825793926721","26.8360272714278","-8.02453703439436","-14.3572094327905"
"4926","-203.160456297262","292.690752052217","-112.111902070044","5.46128779108689","-0.858984904196775","-14.3099496387044"
"4927","-152.678434955132","152.491229774726","-69.406635264653","159.439216435979","28.0232317890904","-14.2682986724188"
"4934","284.746200930594","546.742501397365","-76.8584708554283","112.100796238656","22.2161147393644","-14.2315908740445"
"4938","194.775507352542","399.741215663245","-67.1126267659614","60.2576647786035","-47.363892003047","-15.3179203345701"
"4946","161.622678776515","-454.716967170959","-28.516972145668","66.2103937895095","-30.9195163838279","-15.2753234001223"
"4947","147.811787115636","-200.10893477851","-37.8419127695692","-241.302096656727","-18.5277459936616","-24.1872279007005"
"4955","-615.907952803282","-958.242281425526","69.6750356163042","-153.488018643796","-18.1545406239023","-24.0414608924427"
"4958","-441.023973595876","-677.690863741346","37.198561093237","-266.615058978196","72.5670040716573","7.41006737413364"
"4967","131.605335123648","-124.559521591704","546.810533830925","-218.631853321322","49.5837324263342","7.1289046816955"
"4967","39.8803318868085","-263.06811889381","394.96648996167","467.335184146609","-115.000694718708","1.28770683911444"
"4975","-77.8565939432056","853.192963480888","-951.253340624103","282.666087582022","-78.084525996009","1.13974673658901"
"4975","-72.3524103208149","473.66106246134","-592.480439373879","127.457550958768","23.8863837024759","-2.34669559960788"
"4983","473.551219865386","-1860.75889210096","266.343635274847","137.415054742403","5.87314877411923","-2.41936434499083"
"4987","347.498899565124","-1162.02373985189","84.1351108643005","-760.520517947843","-100.956302876383","-38.281192704796"
"4996","-102.991748375282","-930.542500708402","562.033654044511","-505.463131750228","-77.657706057414","-37.8869123834014"
"4996","-28.0700135757665","-906.003399517","392.596401386705","439.00410014316","60.68459630741","-38.6581062960692"
"5004","-383.151026718948","2722.05520587028","-610.957147331062","219.349897622448","30.5072649429448","-38.3377743368918"
"5008","-282.361170938795","1555.87874887594","-353.528815790704","925.592108721762","8.32770489717385","-34.6994173652456"
"5016","392.336780554026","-525.710505258467","-372.415273181397","686.198890879209","7.50027039531784","-34.4928633272637"
"5016","259.053067267546","-20.1294337891426","-321.128364813339","-620.250604934275","-113.029159940459","-46.6163115258897"
"5024","21.9878882124765","-2039.96032047506","40.6764240974555","-295.64263339495","-82.5654509918764","-46.3009398013775"
"5028","45.3813358944184","-1317.0280224131","-53.8788097845114","-631.304992970936","2.30451640738297","-30.3614661315341"
"5037","-87.5740898933806","2199.14638131582","245.136671815464","-477.204288658833","-12.7438475086981","-30.3137011492491"
"5037","-50.9506278436057","1168.15896035412","142.587877693363","956.676479180501","-9.81915716762081","-3.42326695416708"
"5045","-88.4332000561672","1244.65912154171","113.264705911655","580.512964353046","-13.786998638067","-3.72420965349891"
"5045","-70.9171880720022","1073.67470367708","103.394542287924","305.173441099895","11.1661090461784","22.8589017491037"
"5057","252.113160411568","-1214.16106702187","-26.9038950794595","313.946183038606","3.97236199317643","22.2871095567538"
"5058","180.938310341354","-500.846522511243","8.68125348601595","-934.282340957942","-39.7435963766703","10.5963705919279"
"5066","-67.6255835846865","-1349.87697503221","-308.172486183603","-580.652932717505","-30.1714858442563","10.2930972939"
"5066","-26.6754608550494","-974.919776180789","-211.019706824775","-58.7187784165855","-13.6166690581364","21.2126241969255"
"5078","-241.593589578495","1470.45462107492","-117.126184404444","-141.161816546251","-15.7742743570616","20.8362134589508"
"5078","-181.642094978903","735.299323372127","-126.723700755105","653.194622825895","59.2303253525053","31.6912829282453"
"5086","-171.384328359867","442.222233954591","216.663748673724","414.075855026518","39.7003540795408","31.2580646131091"
"5086","-159.420529719348","432.372302930918","116.537329793934","-47.0562591876361","34.4550793701916","28.6388994727416"
"5094","-101.549323193326","-484.322975731616","110.014461095071","39.2071469731139","31.6039586019282","28.3305788152479"
"5098","-112.186774085667","-190.185167051361","94.0413146330938","-338.112398847161","-27.050313801348","5.68523488732394"
"5107","283.870732162121","-33.0028944270792","-299.518758431396","-215.906057538967","-12.7501146334301","5.72745735767143"
"5107","188.914982741914","-41.9322262230911","-189.569394216537","65.3480392522211","-60.4102153900784","-0.947415665600964"
"5115","66.7024728759559","67.9397897659412","15.1377592082387","8.40606566559081","-45.2300403214416","-0.830109753231109"
"5115","72.4772046034003","31.2505863967542","-23.9389959482917","71.9228371096033","9.53986454863562","0.391954955358324"
"5127","-177.009922418796","-7.64354268787333","30.4430408039408","43.5835098932256","-1.13117481559391","0.46898410795126"
"5127","-117.416554743873","-0.311424359116027","7.89342917853426","4.38312478890426","37.9271726833583","9.48631738185712"
"5135","-57.2761724921719","353.548709610105","-10.8102775155982","10.249228071446","25.7113350458158","9.43346678105129"
"5135","-57.0367701677643","240.507432016275","-9.46808765913476","81.3740524088353","-26.3653314304563","17.2176537782208"
"5147","156.048396483286","-209.685973617399","-99.0297528402754","62.3896849150094","-15.7438157230581","17.0780076254924"
"5148","106.38861002636","-80.590178114946","-73.1218638330579","-141.271032489648","-66.3492562112049","19.1922962826113"
"5156","-30.5922818044403","-397.035676127044","-129.789936285751","-87.311181299797","-51.2085270912902","19.0556595764765"
"5156","-10.5243373854817","-276.694273251606","-108.931842988025","-158.512883856715","0.253280972180136","26.7660042661256"
"5164","100.499469973887","-108.418074747373","104.473060808062","-128.552312873385","-9.58522569194523","26.5612794663049"
"5168","79.4012080442156","-145.589798513558","47.0273467110121","-119.278463319603","-13.0573534686276","26.3808515592426"
"5176","-28.7935723812613","316.305347974713","-21.2748920994161","-116.40788099345","-14.2827092781193","26.2218369714866"
"5176","-8.60211994228819","162.118244570329","-11.9360960996441","176.931085775317","-1.53844871596637","37.2685018528745"
"5184","229.942291336938","-93.3853388902009","153.849172934894","94.7298041171369","-5.04084530909178","37.0041402626542"
"5188","179.120447484259","-32.8956544470853","107.998674963111","-55.8087807545759","-34.2773781176186","27.8217073052922"
"5197","83.6436133906255","-49.3855381527179","-111.268846292965","-28.4057627986201","-27.5953035024255","27.7290523768766"
"5197","93.7495253072413","-35.4844149804194","-56.5965548161066","-30.0663549369283","29.1167829073503","25.4100323051179"
"5205","-181.494822738329","20.5139004498741","-126.63103202505","-24.5803665580496","16.1311628553764","25.3662352744228"
"5209","-114.854541487361","4.43335565070995","-96.8162324791585","-5.97761178016492","41.195963466583","26.4463168580354"
"5217","22.2336177273292","-141.429668774452","98.9280064618268","-10.2194054632027","32.0416341959133","26.3982135493916"
"5217","6.20712349204365","-96.6867207650935","48.1399989684559","-43.6512219948924","0.810466112787655","26.3558191774886"
"5225","29.0586305889982","-183.645129052179","117.651956118547","-34.999544027775","6.78860985943361","26.318456201433"
"5225","19.8888931723418","-149.260309065849","88.679095962664","-1.89317820322178","-2.63124653434039","26.2855274913928"
"5238","-27.2211498601427","164.035660489235","-232.425700927213","-9.64559460075267","1.04437242352011","26.2565067853522"
"5238","-18.4253780768846","67.9113819161208","-145.558852483302","86.0017219404566","20.4595099305008","28.468291778192"
"5246","17.2450922873776","194.640899811375","-83.634346109084","57.6079275204403","16.3113463450557","28.4175804695459"
"5246","11.0288492383487","140.141951823597","-85.9023853257458","84.3188124165743","23.0828489749742","27.2542068671734"
"5258","16.6946768399458","72.3008376531221","6.77421998681891","71.5867699302335","20.4725940017219","27.2289033163014"
"5258","13.8840617790567","86.4376277116337","-20.1914098115536","-16.8774875984123","14.6101397268398","30.56264505941"
"5266","-84.0168581099615","16.3915034368929","-16.4659018118546","5.73971600347566","15.5412088390283","30.5007358325969"
"5267","-61.8476596454162","40.9801959476861","-22.3389478184446","-48.1161996341204","20.811058151648","39.3956200381493"
"5274","-62.9625386707297","-3.6993068383597","-44.4855642608542","-28.7864980567422","19.6708515940814","39.2348527162423"
"5279","-57.3933494045869","14.1947459086351","-39.1848433503936","-22.8032761599414","6.09175551445227","42.4492076302417"
"5287","27.0513100897705","-156.500426382761","-1.93382396325115","-20.9512587284746","9.29952857494753","42.2820804927218"
"5287","8.68235336986975","-98.9299849409413","-11.6655123503573","-55.8777562983058","-9.33346471687323","46.6095111286573"
"5295","-46.823187431192","-88.122609315944","-82.5094470168006","-45.6887346365815","-3.90927299549862","46.4233590517398"
"5299","-38.2715977274734","-83.436228847267","-63.9395057061613","8.17907139673367","-1.99501025372413","50.7340226423514"
"5307","-26.8991950435247","176.940422639347","-34.5571133961487","-5.14694968533307","-1.3194438223043","50.5330934456221"
"5307","-27.504679553727","93.6620327067618","-39.6690357561634","71.8704917524952","-6.02229205555206","51.474691426493"
"5315","-13.216423820985","27.424390439914","-39.5178722937812","47.7100963217492","-4.68198397198099","51.3045398529247"
"5316","-16.6951665383573","36.9597541904526","-40.4721458404752","-22.3155948718008","0.732290714158046","51.1545819956978"
"5328","91.6840702164133","-42.9872969495381","37.3243398776088","-6.99100704568516","-0.356946385525044","51.0224212494145"
"5328","65.5638952566854","-15.8596696848799","14.8575225362825","-44.5091300805984","-20.5064064383273","50.9059454396025"
"5336","-68.7751601327921","-63.4109331930034","-10.6111522311737","-31.1223075717639","-15.6173941443773","50.8032930662399"
"5336","-43.6863592171415","-44.2307116463103","-7.31534310618096","-35.4309398800767","5.87305244709047","55.1875465529751"
"5348","-4.94710997547622","-41.2145305772244","-199.83374421702","-31.7646129877117","1.45729049163289","55.0514735483152"
"5348","-7.97751774533883","-39.4648009300708","-144.069931323401","-3.58231822802164","-11.6307007043549","53.8128690400215"
"5357","132.846578964508","4.75589849459988","15.3887143644408","-10.8589076552682","-9.24961080158186","53.7212630435557"
"5357","99.2637229512973","-9.25219862650834","-20.3755664917006","19.0075645401257","-24.8801747047633","53.6405289154424"
"5365","139.53482464927","24.0458674706699","135.161175746234","9.25228721234754","-20.3963894054492","53.5693763741932"
"5369","122.096354180117","11.3227403685894","84.2105319148955","6.23268607245025","-18.8140074430325","53.506668269894"
"5377","-126.679316971872","-12.8570067403115","-114.532224304943","5.29801340885455","-18.2555657452632","53.4514024104356"
"5377","-72.8110290422932","-6.86734658828158","-66.651258488032","8.3896290931175","31.3541528980411","63.4708222933865"
"5385","-116.53851418582","-120.97293598486","-103.092520875579","7.34659278883346","18.862021518276","63.3011299114366"
"5389","-93.4356568682847","-83.3360684749392","-84.1158836427156","-48.7616039583298","-6.95874551442286","60.9142152488965"
"5397","147.847358079802","-109.009319731586","65.9122649118439","-33.1290625310226","-3.07120592026715","60.8105814083657"
"5398","97.0837634447842","-95.3908986769656","26.2952894956443","12.2809150026555","-36.2880927438294","58.4818854100142"
"5406","9.69734164455641","256.528954744294","-68.8663762353558","2.33689878621804","-27.0107331131804","58.4295607989501"
"5409","17.9295447355432","145.005383210784","-48.6524690913561","88.8535138725307","9.20511765190026","57.2647653621003"
"5418","-101.521509231656","50.7296895171029","-176.640586452322","62.6334464932865","1.98612860106526","57.2382087211329"
"5418","-71.6796977446617","65.2956578893047","-136.356573635985","54.5174142487596","-0.561539785882794","57.2148038422293"
"5426","114.118472473166","-232.32979282644","60.8570648331838","52.0052170662938","-1.46064271624445","57.1941766719045"
"5426","77.914464902342","-134.310306276408","11.513545894484","-6.24820145929274","-1.77794699474725","52.7012745501693"
"5438","12.2899553855193","-164.240038639455","69.5799332322868","9.72031844306876","-1.88992750527197","52.7415934213028"
"5438","18.931380632526","-140.679647591961","44.1448256170359","-7.31290667404523","-0.282358851768964","53.8958079684395"
"5446","-46.2726355605069","211.960042309278","-99.3494727771822","0.414711593319888","-0.715028466650213","53.9130394676192"
"5447","-29.4687235922589","101.61539993744","-62.7560290428002","85.6394591080555","-9.10316243485891","55.046906669418"
"5458","72.2258950720868","-57.170188741505","6.0284792104051","63.0195133183204","-7.06343617759558","55.0462056614623"
"5458","52.5226549010632","-21.6393918982712","-7.16443185918254","-30.1958626095743","-17.873207649734","48.3335033504785"
"5467","44.9089433101979","-12.8075309555071","-11.1552443378505","-8.04929710972236","-14.6881065027133","48.4174695833692"
"5467","41.9668584710694","-10.612202546283","-12.3624520690241","-1.19415684243954","-13.5640458559447","48.4914706407774"
"5475","-110.846608852953","51.2335672223748","-68.7452363196803","0.927749964484387","-13.1673512835304","48.5566891972016"
"5479","-75.8966766238511","31.6065193378297","-52.8008442732777","-3.48683989155226","1.79643836807143","45.2581253168555"
"5487","-41.4147999385536","-48.5836851820306","-20.8176654974912","-1.85331058362672","-1.92265961422615","45.3510374712998"
"5487","-41.0903384837452","-25.5164983529823","-27.1428584520536","37.5330159051493","5.0002654469176","44.3142419917204"
"5495","-39.3513795920582","-135.377140991872","8.28886325762064","26.7244680152005","2.44344927768491","44.4004941771119"
"5499","-39.6794123747501","-96.6851105583966","-2.9931567307034","-0.287665406983541","-18.2239371460413","40.0017868890119"
"5508","11.8284129488516","-6.50164654182152","-137.113682570673","5.35113007447079","-13.5177073210322","40.1251214802914"
"5508","-0.267971032535099","-30.0848170784868","-100.684703275991","54.429551488344","-16.7980857826866","36.8777763802049"
"5516","-4.94224684337786","-35.9468663786556","-89.6650561042998","41.621047564391","-14.9557709440203","37.0158286316605"
"5516","-6.74847706800115","-37.4039911509242","-86.3316488516215","37.6563655005591","-14.3055957961951","37.1374967383931"
"5524","45.8017250208275","67.3196619006638","-64.9532648316818","36.4291570802319","-14.0761411373185","37.2447251829843"
"5528","33.1081355032229","33.3507341912936","-70.4863735390386","61.4062658392166","-10.7009879630269","36.2205469255017"
"5537","-347.761223217861","263.10169765144","-496.535937941784","54.1375587123785","-11.5098556614402","36.3179189116106"
"5537","-261.936480989157","184.210705639605","-375.414538667672","-10.6595613659219","7.96974029333227","41.9971384667074"
"5549","310.163818237865","234.658069558049","503.185909870846","6.28345295583884","2.84432487228446","42.0023439863687"
"5549","197.234395541597","207.197729307941","272.959673924604","-10.4481318940874","-125.790266527236","36.4135279617382"
"5557","1349.25961540747","1781.91396795287","1247.2815000993","-2.62714536418756","-94.1869667672271","36.4879968137572"
"5558","1053.42435447212","1270.33988799027","927.010668031003","552.57573380346","-165.388177129892","43.2657121457551"
"5565","939.107910292416","1143.17833976812","830.1297881077","397.430535105221","-140.515943840166","43.2390431397935"
"5569","894.933833921083","1111.56989833294","800.823638577631","349.407644202385","-131.738232443346","43.2155392314576"
"5577","-6.37812283254095","1802.53391227511","-280.863441507643","334.542871911551","-128.640472122897","43.1948247845877"
"5577","193.337573034956","1575.28626881573","23.9297521666967","-351.315635781759","236.459196879571","94.6358832375032"
"5586","294.715276520974","-4225.89358919253","340.199128493661","-160.612945438118","144.307277719256","93.9718782994804"
"5590","318.889574219579","-2387.88809429607","303.86958113362","-451.509987239041","11.3133893674903","44.1647249714431"
"5598","-501.149509061778","1289.86470238846","-141.680824916559","-334.552843992441","25.3782406056424","44.2687219489184"
"5598","-304.028409138519","365.040689645129","-20.4583665039908","1549.32759304559","227.992447710447","54.4285032358905"
"5606","-631.252202207205","2161.56340736015","-496.434956099982","1039.45478912355","179.497447448291","54.3825140612806"
"5610","-507.697779912637","1451.12358143622","-338.416318764687","445.491305331411","47.0868214738823","-3.82941607647669"
"5618","-379.274934090195","-1503.23914635229","-392.466393545713","519.638734824877","70.3575130464113","-3.13271069451265"
"5619","-379.649872360085","-651.602659262985","-348.816364509005","542.589969843217","78.5700210366947","-2.51869082971369"
"5627","-379.794755730868","-439.912078245542","-335.612373391724","549.694183603095","81.4683142515851","-1.97754330289984"
"5627","-379.850741456559","-387.292324664219","-331.618209234843","-1219.71398517262","-4.80450324334426","-45.1291688150116"
"5639","142.927782624092","1382.47243929102","160.168456939397","-719.407991591573","17.7487779381326","-44.1595270535388"
"5639","20.9394758125999","819.381410812808","19.9323160951633","923.063370721202","-91.2351397153036","-42.186282353553"
"5647","-387.641240653753","-250.595429737106","92.941564091496","551.465974895852","-58.6968799584604","-41.4472238142247"
"5647","-321.524700925368","14.441307198207","47.0266229860101","-116.33848629432","33.4935731761388","-18.4222622992767"
"5659","365.592105008544","-713.076891777496","170.635268112046","3.95256587327412","17.0286970522815","-18.1299204824893"
"5660","221.107276331027","-440.915492021475","127.026479258567","-393.262595221711","-122.196078634557","-25.7030392607755"
"5668","165.275554986839","-373.264556771174","113.834963161923","-259.214645986226","-90.3301827590485","-25.3773746236532"
"5668","143.701102244729","-356.448619447427","109.844572658011","-217.722095163526","-79.0843234050409","-25.0903601098684"
"5676","-42.1295627503565","385.083680585469","-443.051069661409","-204.878692607998","-75.1155238738995","-24.8374086938011"
"5676","-3.93811178748575","148.405754400871","-285.300194371718","312.998109045965","-16.066809142079","3.35254100510327"
"5688","-63.4049131620906","-38.2795330651115","293.737452821674","169.299177693989","-30.227804850367","3.19688633514155"
"5688","-40.3840308588522","-11.683741398353","155.89444856349","-204.821338805689","53.7173568937389","19.8399161260755"
"5696","-7.28460741219789","40.4643540461394","-70.8304659537595","-125.624785506747","29.3426178972809","19.5077386614292"
"5700","-9.49435252217399","27.4267632323959","-30.4140115645654","-33.4920748677056","-7.26001652576141","-2.03994998002216"
"5709","188.122189764354","-727.177802897683","-48.7432250409342","-44.9737633200378","-3.17752809724874","-2.03034277569174"
"5709","141.485028845327","-485.749239143276","-36.2877522100958","-166.860289523548","1.55740720991773","-26.6328522585612"
"5717","123.46353138744","-425.737539656264","-32.5200123883967","-134.588452557337","1.22842304210228","-26.3155174674923"
"5717","116.499677580205","-410.820480881964","-31.3802834068626","-124.599184962425","1.1123205576342","-26.0358442073851"
"5725","68.6284497367013","-69.0864110867728","-15.7579896993365","-121.507155612276","1.07134658922358","-25.789362779504"
"5729","78.1300850445301","-177.141854477125","-20.0322969129179","83.9961841068872","40.5869966422353","-45.7083874498451"
"5737","-205.415670797757","659.454288403191","29.5998371775656","26.6066892743523","30.5325465967841","-45.2634073357706"
"5737","-136.983213448531","374.406303433184","14.6133955216236","127.175164071893","30.2783856489588","-57.1767260438015"
"5749","39.5234147701945","-347.980105719802","-79.8876273233078","88.3046410649938","28.1886891821251","-56.6761631542064"
"5749","14.7289763665967","-155.543101189093","-55.4738778655262","-158.701767189055","4.39197908556297","-53.9976459439761"
"5758","87.4405451650489","-93.6977466955758","-95.6188899643283","-96.1589305135694","9.99383280781424","-53.6370171647769"
"5758","64.5376961587687","-86.324897804721","-79.7626249137358","4.34258848247112","-20.9709639364192","-53.3191880795152"
"5766","55.6875940725444","-84.4922348210187","-74.9661565607547","-12.548659697864","-11.8988145285226","-53.0390791884206"
"5766","52.2677441265786","-84.0366912907561","-73.5152405608175","-17.7770945794016","-8.69714347937558","-52.7922138305645"
"5774","-24.8920463079908","119.242518214439","-79.8663562866813","-19.3954789059254","-7.5672351141073","-52.5746466384938"
"5778","-7.70807583821894","53.7714640983758","-77.7875480356858","81.531465833904","27.420369667242","-37.8400507357048"
"5786","-15.5900852067207","231.906199346429","26.3889840390305","52.7719018710159","18.7679177808059","-37.854167723587"
"5790","-9.63584547596445","165.185003948767","-3.09795550030146","-28.8201827570803","-17.2273954971724","-22.2050787986796"
"5798","26.5501828949535","-126.374467856925","-78.22028580356","-11.0758001497343","-9.93057610471047","-22.4132354820529"
"5799","19.5331613920747","-41.8471659192536","-61.9445451894934","-132.368154633315","-0.767088740412414","-22.5966879741545"
"5807","-154.217908780119","-71.6277778671208","-130.013827391341","-94.9124006401961","-1.53318342377812","-22.7583681869292"
"5811","-115.358669660696","-50.0303200806955","-107.604562778871","-52.8901610911575","13.0202438617399","-21.7821793209508"
"5815","-100.342711030152","-44.6618577653548","-100.825833476331","-57.8828012612126","9.15632404637083","-21.9218452815947"
"5819","-94.5402553284013","-43.3274235038674","-98.7752900180002","-59.4281988385492","7.79270009653546","-22.044935581299"
"5827","-47.1178140875373","186.441713486781","-48.9274125399004","-59.9065536950362","7.31146074235207","-22.1534174319335"
"5827","-56.7928691846333","112.555238854472","-62.848592526227","93.7776808664951","-2.74090200075894","-22.2490245751882"
"5840","108.894480276807","-284.119719051167","99.295616332551","50.3483520297657","-0.288502169482844","-22.3332849909891"
"5840","67.9192641247718","-166.720887022624","50.3437095580882","-123.688713017431","-40.6002188512099","-43.662479564856"
"5848","73.0622007550335","-30.7018757404364","-32.3642129826582","-82.5593004280491","-29.8267103295095","-43.4603093327226"
