Timer,AX,AY,AZ,GX,GY,GZ
"1006","0.739988913135181","-4.65447789819744","-27.694567509299","-3.6846576614387","0.877672193923666","-0.153324425904944"
"1006","0.766107647289419","-5.1064013831953","-28.949605904811","5.08715933521351","-0.760856196419237","1.34490399835332"
"1014","-12.8822323989694","19.8505966866576","-43.7048647920527","2.15625210380312","-0.384752948929206","1.17463453243446"
"1014","-8.89131557076252","11.1118092288821","-38.4147677273059","8.47482783874507","-0.231830907444339","1.08795002233623"
"1026","4.22080043041474","-5.0439261676573","-19.2801994716234","6.01021579527169","-0.167422821635004","1.03494561400958"
"1026","1.08641887090699","-0.451566309003214","-25.7643992690169","-6.88759742756942","-0.140124215151855","-1.37862833867394"
"1035","0.162339884546958","-15.5846014554206","-25.1395525645007","-3.02199376776813","-0.128540938695452","-1.34087994589507"
"1035","-0.110098593702672","-9.77653294337752","-26.0247426908195","-7.35353026570287","6.17869217681768","-0.155923399912815"
"1042","-3.60077584166234","7.55020973918421","-37.0849431034177","-5.40617051457712","4.85561659938051","-0.155934614232709"
"1047","-2.62990349416229","2.20484842371108","-33.1171538875873","7.36594822507886","4.29407390874153","2.12260988102899"
"1055","-7.45920386960397","4.65553000262743","-48.7344410878041","3.46979977237794","4.05574242269659","2.08528551634555"
"1055","-5.88298676718555","3.17243937595238","-42.603974937446","4.27994879615738","-2.34771951556668","3.1838919460367"
"1063","3.10760748960236","1.07054361142626","-8.78489334692147","3.47682938834955","-1.0654950616397","3.14075090678101"
"1067","0.758230426031273","1.62720179509939","-20.5709460625003","-1.98928963510059","-2.09686685880571","-0.270033434750838"
"1075","6.88629582459687","-7.20076152571132","-30.0015621186704","-0.317653576476821","-1.53460461484362","-0.256027959705804"
"1076","4.69298292863477","-4.06279738836867","-27.7343516645898","0.0885836557996411","-2.87154482311247","-0.243880127817167"
"1084","-11.300257513126","1.96630266134348","-34.5828089984241","0.187306513586943","-2.43897279462886","-0.233300939137789"
"1084","-7.01541301141268","0.237989017997058","-31.8411504687015","0.211297920270856","4.04692926374697","-0.224058891853397"
"1096","6.18410003142132","-1.91563034740931","-20.4398409469379","0.217128257920856","2.79969429069923","-0.215965253673438"
"1096","3.07560386551066","-1.36988195077141","-24.3449544801967","-3.29541936835256","3.84591642210473","0.909561526525807"
"1104","3.86432974273817","-1.25477011244603","-28.6950016875645","-2.14903078608624","3.28995699931906","0.901822647924914"
"1104","3.0968633040382","-1.23049017794823","-27.4942831215967","6.91447324128085","-1.67273633695782","2.01275463416959"
"1116","-3.95011542110114","0.563706321532397","-34.5386985968209","4.11706558894501","-0.779016779159684","1.99292486477591"
"1116","-2.02771818103885","-0.0578532494264457","-31.8330455853822","3.43724587796707","-0.399701778645116","-1.37652156344269"
"1125","-11.6920229826755","-1.97803080056184","-33.1521656979199","3.2720376220133","-0.238711825633631","-1.35068021011776"
"1125","-8.54127045622495","-1.38304375008951","-32.3945419676357","-2.03905766918926","-0.170384011190541","0.90625628369425"
"1133","2.61870935275698","-8.41384730403542","-21.3577807149068","-0.329748092098043","-0.141384125550246","0.898973153135758"
"1137","-0.0910856166422579","-5.89681771125091","-25.329876662231","0.0856444738369507","-0.129075911479524","-1.34129247330424"
"1145","0.815186054119101","1.79038714210578","-38.7735269542932","0.186592240202183","-0.123852024203216","-1.31963794847945"
"1145","0.0823746746424209","-0.588191177674865","-34.2436748795542","1.96810659006345","1.4539422643773","0.93313094119943"
"1153","-5.24920875720546","-1.08989218985851","-29.7788376725552","1.4010461973511","1.12359421074321","0.922720981688048"
"1157","-3.8210756358906","-1.1957133450977","-30.9584646247671","-0.493741793790832","2.5589641002732","-0.203240344895792"
"1166","-8.51556557930483","-1.21803364468693","-27.5426920294138","0.0457910935854517","2.16816787749281","-0.197725046352266"
"1166","-6.89960342635316","-1.22274154806057","-28.9150750201736","-5.09403959126885","-1.14884927150196","0.923880333663506"
"1174","-16.6542519635899","-4.80188508260192","-40.0647926708159","-3.34310967504286","-0.556667138526834","0.914556475932716"
"1174","-13.5301347374214","-3.5568149998121","-36.1134514296831","2.35334412473373","-0.30533151079638","0.906321574907462"
"1186","21.4944875872892","9.22932790727681","-24.4898737608837","0.737683504991623","-0.198658927736002","0.899048246677349"
"1186","11.8205088292728","4.92624176757081","-28.3541475526791","5.61599605058531","-1.7289617976349","3.12602571056029"
"1194","-14.9040859194198","-12.0830629005781","-38.1454682374697","3.80151258480812","-1.37845730080287","3.09311431244593"
"1194","-8.78307831796762","-6.67074605466372","-34.9445339636425","-7.18133260823594","3.49703627055467","0.830658340435196"
"1206","-3.56811555158972","-1.95100401327304","-41.6214280757321","-3.85035892573251","2.56630714013765","0.832215183640669"
"1207","-4.03063098423212","-2.95549365327372","-38.8482463713481","-4.79785545001131","3.74686158285127","3.06696692113972"
"1215","2.65372230520695","-3.16736536879613","-21.9923673474029","-4.02811392261897","3.24791586228167","3.04094965296098"
"1215","0.62441519136473","-3.2120543551737","-27.895253565439","-3.84105306924544","-3.26615670755726","0.784597685997601"
"1223","-3.38422518389101","0.356670153270913","-25.3473367103407","-3.79559396171441","-2.03087794322982","0.791529010637273"
"1227","-2.56605964544806","-0.890597559882903","-26.8791802649833","-3.78454659172625","3.220134043051","-0.319032134223745"
"1235","-4.03002485833892","6.00262386528732","-41.6907156086841","-3.78186188473828","2.4487835079741","-0.30000904742797"
"1235","-3.46163367757723","3.45657479784809","-36.4121999157235","-5.53819170419188","-4.18090388919341","-1.39988828199728"
"1243","1.82147509981751","2.91955006186155","-28.1772843371588","-4.96501102358778","-2.99469469921396","-1.37143085671183"
"1247","0.379050594945667","2.80627825938547","-30.6641938305498","0.445228807947026","0.659913887083285","0.887069893653458"
"1256","-5.16174223646371","-15.1083661722767","-36.5699181373536","-1.23998688611737","0.211013273570025","0.882044424883071"
"1256","-3.79528860119345","-8.88700788002746","-34.6550410263526","5.37840479277902","-3.13066470645214","-0.23907619163999"
"1264","3.42828459106444","12.1050583631969","-34.3031998507709","2.98679144122806","-2.54894919362897","-0.229382745367549"
"1264","1.55795124484739","5.53280446449958","-34.2385522490404","-1.10837755398226","-2.30205583863797","2.01254223495489"
"1276","-7.5193548843185","-15.5332743430628","-34.2266738428175","-0.103576305370916","-2.19726865762765","1.99287652290534"
"1276","-5.19554236867644","-8.976631525209","-34.2244912941905","-1.61637401854613","-2.15279458377302","1.97550543953481"
"1284","4.01545929310268","-0.437372305177259","-19.6940171859634","-0.984010713641363","-2.13391877066155","1.9601612406932"
"1285","1.73106313138797","-2.63623127973332","-25.0241753132773","6.19759379693946","1.02524685863221","0.829926367339718"
"1293","-0.647604821860193","14.7907275703815","-44.1661345310112","3.94285116000711","0.366068934019575","0.831568493244016"
"1297","-0.348887924505868","8.46650432394734","-37.6832946638537","1.63792642868352","-1.48927838989998","-0.283661988644193"
"1305","-8.78671081578269","-7.18003290105549","-20.1457998424778","2.0777888086388","-1.27673018614478","-0.268766262197355"
"1305","-6.27436471833306","-2.48027468736627","-25.92344538471","-1.32928132767753","5.11578873379365","3.09443432283247"
"1313","6.40257720284472","-1.48897941101661","-28.8012941064033","-0.157259843221418","3.82891982312527","3.06521340610876"
"1317","3.14001569248459","-1.27989071320852","-28.3300725181195","-1.62942007107813","-4.59514250294658","-2.54400273026772"
"1325","-11.4632842939339","0.553286526507617","-35.5085263985955","-0.987181135962295","-3.1705070316374","-2.49873020607234"
"1326","-7.76865508322648","-0.0600510419763923","-32.8275017195996","-4.34507017737346","-2.56585918677647","-0.225378250610148"
"1334","1.84649318664108","-21.6583222362535","-32.3348879276219","-3.16109681393536","-2.30923282609839","-0.217283131616574"
"1337","-0.318751755645563","-14.2139319588651","-32.244374643672","4.15455873144961","-2.20031473508952","0.906548370610671"
"1346","0.748065119433964","3.45795146582331","-15.8814114341772","1.93239287525952","-2.15408740864625","0.899250168750996"
"1346","0.0625859616931444","-1.81461112855233","-21.8748664300334","1.39236713076755","2.59226397930989","0.892803527959355"
"1354","-5.25504290063665","4.22957602288716","-46.5874777945634","1.26113128988657","1.60672395554726","0.887109087253875"
"1354","-3.82279566839918","1.50444462254051","-38.128194368091","1.2292386512348","4.33959255423851","-0.23460184294389"
"1366","3.42017490874902","2.71872225278338","-22.0438052343096","1.22148817397687","3.49948442957437","-0.225430507501474"
"1366","1.55556033393111","1.9748434454717","-27.0884456716348","-4.05134208226918","-4.7349624110866","0.899351628478186"
"1375","-9.22523800421137","-10.7055858224598","-35.2803888085688","-2.33273342251371","-3.22984979533248","0.892893149550522"
"1375","-6.40365208140356","-6.38020206096606","-32.7855835216076","-0.158098763538175","3.71126299426503","-1.34617358695129"
"1387","28.5317774281524","19.5791820303702","-8.71581707879838","-0.629623943605185","2.65722985644771","-1.32398395804147"
"1387","18.8315026862598","11.0546583541806","-17.2932173868584","-0.744212931507721","-2.51685734474469","-0.187702516669133"
"1395","-33.4785181004865","-8.63412718676523","-51.5619007746319","-0.772060089419122","-1.7128581732574","-0.184003437902567"
"1395","-19.900651158905","-2.78697914560682","-39.8584582819123","-9.5637386975675","3.35510889971401","0.935944947373895"
"1403","7.97489482449595","19.9152321585593","-24.9942436926771","-6.70027264370573","2.50606992111998","0.925216726481928"
"1407","2.19321270635382","12.7036901611351","-29.2630800555276","11.565422940348","3.7212955307678","-0.200940633927638"
"1416","-9.74242242870434","2.23722124171076","-42.761253688039","6.0043111668794","3.23706504563054","-0.195696919500431"
"1416","-7.26130753754452","5.02958401270074","-38.2414197790037","11.6807913048243","-0.119607739144763","0.925615871560684"
"1424","5.40642674403129","0.251336620539409","-19.248350233575","9.06027673074267","0.455743635931815","0.916092856743468"
"1424","2.1411506210413","2.24348603467673","-25.758547217821","-17.9312885860691","0.699935905451919","0.907680996039983"
"1436","-7.3474150103904","-31.3287503212175","-34.2197729815032","-9.4907180339707","0.803576684072535","0.900250638967039"
"1436","-5.14485075024683","-19.4099655248329","-31.7744459171467","6.61634842991875","-5.4547444072897","0.893687262779239"
"1444","-4.49548685058159","42.1434846526284","-44.038953357867","2.53065146653216","-4.11091887194944","0.88788970735052"
"1444","-4.3040402345537","22.1266300889644","-39.2924445563796","13.8366303433163","-0.389414307378047","0.882768616011378"
"1456","11.0990064418449","-3.56432287048669","-9.3601707566336","9.58418388129285","-0.809922739236477","0.878245058310656"
"1457","6.64015996798984","3.01681957223614","-19.8603888954196","-14.2900053478008","-4.1395504286445","1.99093023133537"
"1465","-21.957256690408","-45.6891619707299","-36.3197811374113","-7.09185707577579","-3.55272049715317","1.97378627708266"
"1465","-14.38839776433","-27.9624584337017","-31.3440440953386","1.68534971857083","4.57422929128892","1.95864269514848"
"1473","1.48449245997181","43.7614017935663","-41.3273526838777","-0.181633242906405","3.02349247042264","1.94526608025436"
"1477","-1.83583390619788","20.8897383189984","-37.1616944334381","8.14956801470658","2.36532433157823","0.816769343222457"
"1485","-2.81473841142067","-14.3487407690747","-30.9475153789155","5.17419779160744","2.0859827352731","0.819946641248624"
"1485","-3.10334077295627","-4.78140778671103","-32.8057167479445","-6.09076348815775","-2.75930767513259","1.93943412706203"
"1493","-1.48324880549197","-11.7087968740117","-22.2495894600644","-2.82834902203339","-1.81575963310955","1.92829878552358"
"1497","-2.00561041970414","-8.1699546118024","-26.3099975075465","-2.03552440185371","1.73585801754261","3.03514364369092"
"1506","2.95592068509692","-0.267224187456844","-32.5048377988001","-1.8428539472288","1.24324569774929","3.01284082790699"
"1506","1.41868808072968","-2.60034283234793","-30.6430831086918","1.71793289477728","-0.541407377704434","-1.47358334619265"
"1514","-9.26559092453391","0.485695246795851","-32.1172618282505","0.583267298136524","-0.298854919640133","-1.43652742987061"
"1514","-6.41554900090675","-0.863382975658272","-31.388128700452","-1.44945883203994","-0.195910114468653","1.94624752161961"
"1526","2.95059654778238","0.641138312498229","-36.7029345561137","-0.94344736072649","-0.152217987015611","1.93431718695102"
"1526","0.711940181830335","-0.0415209269126615","-34.6794815781141","-2.57745984285333","-0.133674049823317","0.807097976850274"
"1534","0.0519355435500994","-5.55273643094148","-23.4101357652359","-1.97455387825653","-0.125803579177059","0.811403738781211"
"1534","-0.142648193899115","-3.71518812477027","-27.3394964244338","1.68592747398267","3.02869113131849","0.815207100458078"
"1546","1.50516251098532","12.7740736184202","-33.5102579552877","0.575489412816109","2.36753076204423","0.818566682403641"
"1547","0.990972984076416","7.25206685409495","-31.64407901293","-1.45134899622325","-2.63981225961021","-2.52850848824804"
"1555","-9.39169064754056","-15.3815641109949","-33.1174448165561","-0.943906704171741","-1.76504304846634","-2.48504385593953"
"1555","-6.45272594478078","-8.15555682342487","-32.3881623228815","-7.84851822417186","6.48411474925178","-2.44665071682198"
"1567","4.64481420258397","-10.2095636408189","-26.8053859202861","-5.52646137415289","4.98524579979657","-2.41273732441507"
"1567","1.91661066145985","-8.64280449345294","-28.7796017583602","2.06576865842566","-0.377639883702772","-1.26610005993041"
"1575","-0.592901370123954","6.00026585636622","-16.4285319336975","-0.089184688428941","0.346228898124205","-1.25325348388454"
"1575","-0.332760155892081","1.08885165355708","-21.1591356879354","1.14410565071178","2.22903249993702","-1.24190585812267"
"1583","-1.96124308925759","-1.73616236775957","-42.0071914025167","0.443817092913076","2.02813736785551","-1.23188228374991"
"1587","-1.4413553144871","-1.33202771393756","-34.8378311804278","-1.48334770702449","-4.35943572220894","-0.106347351404426"
"1596","7.23781005736756","-6.61401149928148","-22.6229719224344","-0.951682958844671","-3.07046768833708","-0.112140868015271"
"1596","4.79661697787015","-4.72811255259009","-26.3786031239315","-7.85040799207888","-4.09897735518936","-2.3506202274514"
"1604","-9.56452571172003","-4.33032980877092","-30.70118431845","-5.52692062129596","-3.53550035774341","-2.327911760684"
"1608","-5.79850325748904","-4.24642758720284","-29.4954191235398","3.82263930412147","3.00596076044716","-0.0744911030006645"
"1616","0.427336840396752","11.8729468126361","-31.090129919979","1.0947483122458","1.78230632182843","-0.0840016359138934"
"1616","-0.737149945386379","6.27292165681614","-30.3831434601736","-1.32515986728515","1.26295941936403","1.02427844671268"
"1624","-6.19600068575331","-7.4317890140431","-26.6207228857208","-0.913240506096669","1.04253672764084","1.0032433920852"
"1625","-4.80538873794303","-3.32245154050897","-27.9294124771608","-2.57011904103389","-0.62659285052494","-0.132018190892158"
"1636","4.13048507814157","-6.03384112614759","-28.1698722339141","-1.9727699331218","-0.335009580668646","-0.134816410390095"
"1637","1.76497523723956","-4.60574026784351","-28.2140545174717","-5.34156799929738","1.36432217277198","-0.137288131068722"
"1645","-7.45831970388963","-9.67174424837786","-40.9359865576923","-4.16024572250237","1.08555739617787","-0.139471449109946"
"1645","-5.17754786858522","-7.74028981764667","-36.2735253475117","4.91174781267673","-0.608333895838456","0.97528090223222"
"1658","2.3155862362203","15.9250800928909","-28.1518041521263","2.11640326142031","-0.327260063109287","0.959962926066158"
"1658","0.524725316091655","7.91669207349279","-30.659512079327","1.43708492062285","1.36761124508931","-2.40361048807281"
"1665","-10.2343288388321","-2.71785138543875","-25.6715030946952","1.27199850652181","1.08695335361984","-2.37471906906004"
"1665","-7.40633225738178","0.0390603071100487","-27.7550020122588","2.98886182866324","-0.607741419604497","-0.115836891674252"
"1673","1.95331384444695","-2.95758933390744","-28.1378259043338","2.4060900887176","-0.327008602658379","-0.120523160016623"
"1677","-0.28725869995006","-1.58965687843835","-28.208166297174","-4.76346279137266","1.36771797065018","-1.24134354809803"
"1686","-2.65300649665442","-12.0355776455332","-37.3023863797911","-2.50579139432553","1.08699865038639","-1.23138558457505"
"1686","-2.35048045584426","-8.23888076086846","-33.9733662387516","-12.4990306786308","2.54343210830272","1.0107723102852"
"1694","-2.26128919220414","-0.28176241748475","-26.0966526580273","-8.9275651956924","2.16157574521724","0.991313164052421"
"1698","-2.23499366574824","-2.60340930472755","-28.6493784961287","7.75320456507485","-1.1516471230603","-2.37591822462898"
"1706","-0.522062944726226","9.43042475503152","-32.7509368193938","2.80692768554514","-0.557854610655009","-2.35025796433164"
"1706","-1.01705367303908","4.96865806777268","-31.504560691069","1.60489461187031","-1.88141265256185","-0.0942299310967094"
"1714","3.95254696486324","-21.0194925566359","-25.8267730570708","1.31277923996546","-1.44316092691297","-0.101437319430794"
"1715","2.41769343454978","-12.5010364539372","-27.7835314493599","-4.02915673289995","-4.40831118406103","-0.107803743078897"
"1727","-4.85552771328755","5.39739402502672","-39.0406227414093","-2.32734198884706","-3.6667887025422","-0.113427326572442"
"1727","-2.99983166534545","0.17261580903041","-35.1090104259616","-0.1567885494641","-1.77649246721895","-2.35175658084331"
"1735","-5.86308852149169","11.5941076498997","-47.1004265299119","-0.629305538330068","-1.9742075544429","-2.32891552331917"
"1735","-4.70723898352141","7.00318283971295","-42.3037396901481","4.52681119933394","2.66860909942543","-2.30873958135116"
"1747","0.749065308134071","-17.2231351674878","-15.9947644054896","2.77983908300344","1.63912656889865","-2.29091778681007"
"1747","-0.642297388199416","-9.33306497918148","-25.1607305453918","-1.15867065024837","-1.94896364215189","-1.158494537783"
"1755","-6.16803608669815","3.06559758268819","-30.4774113581485","-0.115798420420633","-1.47183111033632","-1.15820347282492"
"1755","-4.79714416527669","-0.319217747846267","-29.4543028863862","-3.37632646033752","-1.26932516205313","-2.27462728742371"
"1763","0.722559303073899","2.54499148197624","-31.0825751870238","-2.16869264546643","-1.18337701063695","-2.26078574664738"
"1768","-0.6501119355985","1.14912406729309","-30.3817553470102","5.15271280956841","-1.14689865138634","1.10148350393825"
"1776","-12.9910528946079","0.854701096648475","-26.6204678326083","2.93194428347894","-1.13141640224321","1.07144009237254"
"1776","-9.62943098495172","0.792600008299136","-27.9293656134814","4.14924036590557","-4.27599968488465","-1.18845966201777"
"1784","-37.6263815184623","-2.79864916882513","-48.1487141148179","3.44506491984173","-3.61063267916747","-1.18467223886107"
"1788","-28.8804921049976","-1.55613246554209","-40.8638346859173","-1.99700896473863","-4.90381287074022","-1.18132673571451"
"1796","-5.8398747566877","-10.2394312568557","-23.1789724221893","-0.319529510589997","-4.4526680913201","-1.17837158894569"
"1796","-11.0469991059143","-7.07095379133201","-28.9295405431804","-5.1828189821944","-2.68561478747342","1.05760058424666"
"1804","9.58514421764395","2.54273279542345","-26.3536366292683","-3.36468464279181","-2.9356369907368","1.03267747202765"
"1808","2.66794928693377","-0.429502866828641","-27.8803378175327","11.1330122791485","-6.19290642936806","-1.22269942424331"
"1817","-6.19210329385502","6.09988014324716","-29.9771143491412","6.65620995221188","-5.57536600296684","-1.21491687420384"
"1817","-4.80423970195466","3.47708855292938","-29.362377881498","2.05430302576102","-2.1621134331819","-2.32472331707646"
"1825","-19.7416713432057","-13.177800425316","-27.4331665359523","2.93595796294013","-2.71345105473503","-2.30503652558058"
"1825","-15.1455514192919","-7.69072854237812","-28.078691575725","-5.63469549326018","3.35485726726843","-1.17096588915516"
"1837","-27.4319410141587","4.20108222821224","-48.1761513961968","-2.71751640447811","1.93038597109838","-1.16921965547239"
"1837","-23.0542361746227","0.709359315700259","-40.8688760357144","8.53330339680793","-4.97650079993141","1.06568466172238"
"1846","22.5710404362869","21.4417716979032","-32.2611944021936","5.26745230041467","-3.90794135781947","1.03981829192368"
"1846","10.022365366727","13.8147503762421","-34.6796115384306","0.959828016276952","-6.60557461849096","2.13365095172446"
"1858","26.7848814652379","-30.7317833632308","-4.24756828818706","1.91299885878937","-5.75051181129529","2.0998542128268"
"1858","19.726836176344","-16.1277493823053","-15.6559583561414","-24.2100974721002","-8.53875792191116","0.953319990612965"
"1866","7.41490138867348","-68.508730400413","-12.3033684017392","-15.5584735418823","-7.72215327860301","0.940564433771032"
"1866","9.78507494918303","-48.5571751698837","-14.687360625562","0.599882638897141","-2.64883615537423","-3.53742646431283"
"1874","30.9459924474814","70.1519180972252","-44.185543587185","-3.47335001293902","-3.49560445039821","-3.492921274372"
"1878","25.1846916563271","31.190602656077","-33.6055652225772","35.9473739272269","2.44731634362534","-1.22024715518084"
"1886","62.7052339718682","-55.7466141165525","-8.05022208971402","22.5273095269482","0.969627715658948","-1.21275073814634"
"1887","50.7671067700704","-30.0838239063396","-16.3546612526214","-47.4993298506534","-5.95984570692343","-4.55617176342314"
"1895","50.6578434002926","-114.124669600837","-1.5341938622505","-26.5170461290395","-4.90087255580236","-4.50947935477711"
"1899","48.6256301799234","-81.8509630758348","-7.81106837323513","-24.9319432698997","3.42646560283275","-6.70159689488845"
"1907","75.3093411125566","-5.26970477401093","3.74942722767885","-22.546735140984","1.96077818485763","-6.63793614842744"
"1907","67.1762800719789","-28.1168228256607","-1.12643731779746","50.0691850566483","15.5189013190151","-5.46502247846285"
"1915","-18.7752565391064","31.4708641363033","-67.4076617658977","26.7161425316987","12.2732785604396","-5.42896545204557"
"1915","4.88435907076653","8.03938147873688","-43.5862312390197","5.2280984445891","17.1980707098151","-3.16375375690405"
"1927","-52.9370437510168","-13.0045752396105","-80.9832211218932","9.00612233803833","15.2882650223094","-3.16284904143186"
"1928","-31.984052231042","-8.44326632585459","-64.8545763686696","-18.187466813785","12.9021227008023","-2.04536897116091"
"1936","30.4642273731229","-39.6845281232533","-47.3610121553684","-8.79599163933514","12.8893893796919","-2.05827750114638"
"1936","15.8753398682028","-28.2740831256275","-52.1467295455016","4.0281970236787","-2.87178644734783","1.28036290148597"
"1948","139.462585239617","34.9612208728911","117.70229735155","1.14470248656215","0.438810411835898","1.22944767763344"
"1948","100.898796003354","14.2991108881011","54.9105043699287","26.79869589816","1.84390336117073","-1.04888854682928"
"1956","-169.657739250702","-122.450608561608","-149.150382323642","18.0330716324009","2.44025691318771","-1.06138640949539"
"1956","-97.4236965903697","-77.2945074961937","-80.6447060335254","-26.2647046677629","48.3851003788761","5.62765949690783"
"1964","-111.936270857092","-103.551473860256","-48.0785633644739","-13.0298505542399","38.8851417182038","5.5362213875421"
"1968","-95.2148937288739","-89.0897176473834","-53.0948321605159","20.0551521674058","3.34159917320526","11.0388569498539"
"1977","-69.8229289543388","241.361397207034","-75.8116353524121","11.0953950576949","8.25610759913483","10.8994399442689"
"1977","-74.3368248871278","128.061712484003","-67.9856404071373","100.281092099381","-0.687102795805305","9.65960932502632"
"1985","-5.75531236859954","-83.6888963531001","-17.5086886697687","69.9547994461163","2.51719437330193","9.5644432803912"
"1989","-26.5359892733138","-23.3523383346425","-35.2340099256197","-88.5155015105839","-27.6343717238695","-1.68642788111382"
"1997","47.4807914067078","-205.635068967877","46.8733035987141","-41.026597347837","-20.4313852947048","-1.62453706910262"
"1997","22.3025498964749","-135.083006419323","14.9597723586642","-41.7848265074332","-26.8277361852336","-9.3866341586551"
"2005","71.1503376017525","69.4401466123364","5.46343427156973","-34.9690896510981","-23.5424936504388","-9.24304263550975"
"2009","52.5517289655854","6.57913936176851","5.71856890287859","89.6760129413633","-1.66565868667433","-6.88284366741683"
"2013","47.0684541976829","-6.67980220943091","5.76544756057187","49.9669852093728","-5.38063007436354","-6.79803488118341"
"2017","45.4518654103986","-9.47644100472944","5.77406108565802","40.3169866711062","-6.95734881296277","-6.72312166196778"
"2026","-55.63025557219","-47.636901786872","-72.3234990888971","37.9718657475454","-7.62654427134188","-6.65694938592787"
"2026","-26.4314656687384","-34.6858870317896","-43.6732123023561","9.29024372489605","-0.0326803567043292","-1.01509356263911"
"2038","19.6908943319053","-89.2046059599153","32.425122445583","18.3201005004951","-1.80967100264595","-1.03153465507859"
"2038","11.2887702684874","-68.7039525409094","7.40749625103906","-33.9519338092155","-2.5638664344214","-2.16273830359252"
"2046","-37.2281709794006","118.105819022231","-91.6347390625708","-15.654965927893","-2.88396420792968","-2.16195207214473"
"2046","-24.5320216041739","55.5086214019596","-57.8328449905107","18.6602202872774","1.70691043761414","-2.16125757890389"
"2058","-48.0717719756528","-91.875320738572","-64.3358697048378","9.99941960113937","0.655382531955512","-2.16064411977182"
"2058","-39.0118029091309","-47.9622403226785","-58.5307410870175","-44.8147762140694","-1.36648708854331","-6.62682591093601"
"2067","55.7388975057856","-63.7469389295312","49.6951872639451","-28.1355986996546","-1.22461475224732","-6.57188951150965"
"2067","29.673466966852","-53.0763223693005","10.5807128888885","5.78643574203876","-18.4957495572328","-13.2234486485732"
"2075","-78.6167048814646","-38.3020985279869","-116.479317393124","-2.96990780314324","-14.8260137886439","-13.0988977605208"
"2079","-51.5430053119719","-42.1858492147844","-73.8254371869444","0.173092050893231","-17.9952255347454","-8.52215591308133"
"2087","132.072268200414","107.277293576273","46.619890039488","-2.063103199166","-16.3403114116451","-8.47943250507396"
"2087","83.2060486324679","54.8027680157004","6.75061857617335","34.2900889335816","-10.9111965910467","-2.85828951437363"
"2095","106.313144154769","-42.1410201219917","10.3225589884256","22.1245598581799","-11.6069562138499","-2.89302664708426"
"2099","91.1256190186439","-14.5888633689957","4.97887040733325","-17.7285069032595","3.85351901976506","-1.80702970143699"
"2108","-97.5112426131437","-187.684957949103","-97.7134951455945","-6.41350948224499","0.41529795816302","-1.84774787616888"
"2108","-45.1254965563385","-124.195206585307","-60.5822791588538","-47.5883205505194","19.4385413503049","12.6331369148948"
"2116","-29.6810380395629","-110.803647325892","-53.759757437486","-32.5945304558339","14.5124404992244","12.4243787775406"
"2117","-25.1276754012271","-107.979036179269","-52.5061813990617","-28.9507733365876","12.4216907438246","12.2399787312574"
"2124","25.6649236352081","216.439366363726","-43.1945525761443","-28.0652756832114","11.5343287770583","12.0770946516226"
"2128","11.6396877232635","103.867233368682","-46.4836258473145","79.3258332684137","-9.32479088557015","18.633301542882"
"2136","-4.43150478194459","-163.191249889177","-65.2505543692811","44.4237788388898","-5.17787787077239","18.4245241965831"
"2137","-2.16964224576252","-83.5204908683227","-58.6988060379093","-65.9630104198035","-12.8712961451673","19.356788100503"
"2148","169.015026806579","1.26890311772489","47.8480477289871","-34.7889594755181","-10.1365586441783","19.1802745964534"
"2149","119.483994395967","-18.8469160539723","9.42505873847377","50.0941072549268","-26.3072222300905","12.3242713430832"
"2157","31.5585038430978","39.5277941517774","-50.3063294038091","26.7221990682269","-22.1704213319687","12.2682328419646"
"2157","48.6361548526222","16.840464688038","-32.2814262924674","-7.06930546585609","11.0968745182909","9.98537112892954"
"2165","74.1331569244114","-134.649025737444","20.0694816471994","0.718759163663237","5.21627498620561","9.96887581585132"
"2169","69.6502282737987","-84.6019070235466","2.68848272379341","-27.2573011655951","4.29599133315057","2.13753876623001"
"2177","52.9819592564458","90.5491924251362","-78.6042598735074","-17.0559803754189","2.90540192365824","2.21996931139791"
"2177","57.0677906368787","35.4928924276596","-50.5410586672151","73.2722341859682","3.89078115679737","-7.75734647557544"
"2185","-11.639924631806","97.2322423853292","-27.2221104638658","45.2235935686454","3.30899861781621","-7.57049989904079"
"2189","9.10354495438732","69.2545986843556","-32.9374667642462","-0.246333459274275","28.2713112387886","-17.4555830130235"
"2198","61.2589835668259","-99.4524272384504","47.7440498311217","10.7036672227868","22.8658870674711","-17.1872655564366"
"2198","49.6355424345869","-44.0369127120125","17.5685414308947","-46.3726847895412","20.5717015431258","-28.1170648052585"
"2206","-166.938579497186","168.028019436787","-89.6864441600526","-26.2432513822565","19.5979967878091","-27.7715650460256"
"2210","-105.789346046455","100.757759980928","-53.3935679229946","61.2267240074154","36.5160829080078","-30.8164212693014"
"2214","-87.7612206411517","86.5687980374878","-46.7250834718885","35.4834805402009","32.6965052109492","-30.5060008737838"
"2218","-82.4461367506692","83.5759949375605","-45.4998103746509","29.2274154583372","31.0753891645524","-30.2318006149284"
"2227","-166.138045660926","115.14809341495","-161.515262315493","27.7070806039371","30.3873504743305","-29.9895942939456"
"2227","-140.812242606649","103.807430057827","-118.832041738051","-49.9696067899764","-6.1429433501098","-34.2423725001211"
"2238","194.048575186158","171.189338759242","-21.9926922493319","-24.8464205177721","1.35276528700086","-33.9989326418708"
"2238","100.77283509622","146.401850290703","-53.1993464670165","16.3986046783047","-69.5180108201542","-51.6507922550044"
"2246","288.125572692397","-100.351604438618","102.713778981233","6.42187786291252","-52.597187493633","-51.2430166870638"
"2246","217.361238911044","-17.3980125673727","42.3613914213121","-103.178561136193","-31.2354090946267","-53.1161825823203"
"2254","-81.445678468039","-155.550595496022","-1.42047287805611","-68.81341312182","-31.1689822566886","-52.7707857616695"
"2258","-6.54046354531185","-97.6903930442818","8.5350095308399","-5.99562242598831","39.7601826268904","-52.465690159068"
"2262","15.5432247028187","-85.4862449219422","10.3642384741","-21.7297843278283","24.8641408311816","-52.1961933914041"
"2266","22.0539768199273","-82.9120881599393","10.7003425813073","-25.5534649371443","18.5419203403097","-51.9581417539435"
"2275","-187.468611884257","-10.8061243908174","-236.249143802057","-26.4826871920869","15.8586255104903","-51.7478662000328"
"2275","-125.240432907102","-35.5971927754053","-145.62385589155","27.7579450850927","21.0220824812008","-51.5621257907498"
"2287","304.053741909807","-28.3027155888891","196.138098118642","9.93938145070182","19.2135715970117","-51.3980577429001"
"2287","189.619011539901","-33.7641298894436","79.9337349651238","-27.7735085430263","-27.245739136473","-80.2868371690511"
"2295","-57.2661169386824","-315.800893195476","-28.5981936760794","-17.9384101812524","-17.9641321390783","-79.8048472967582"
"2299","-5.05322817045909","-218.289423990074","-0.539944058856044","-92.8555257549477","26.9401998797826","-84.9625010343015"
"2307","46.1490110273338","-13.4470909174783","-37.1584571397926","-67.061714550522","19.9986243869118","-84.5183549998967"
"2308","40.2445459539306","-73.2407752010978","-20.8867743860712","109.633917726587","1.29668962826516","-88.5927560037588"
"2316","38.5037810941338","-85.8527424749136","-17.8970013317734","55.574092557877","3.35916120483349","-88.191752158881"
"2316","37.9905657123114","-88.5129183851539","-17.3476578464377","42.4365955287888","4.23452126638873","-87.8375378106771"
"2324","88.9946054626095","379.663702987938","-146.201119627689","39.2439505720087","4.60604407721018","-87.5246535177303"
"2324","74.0317068767474","216.4137348327","-98.8767660754093","99.9624599625434","1.61257254395123","-91.715000522581"
"2336","-44.6266226380711","-569.431331615825","78.7307511645764","79.7181354431684","2.34207482878885","-91.4164139928777"
"2336","-12.6096816914687","-315.185497445902","18.3645099049503","-155.36626960179","2.65169226653441","-96.7360714026641"
"2344","102.550659687385","221.491559232313","-78.0914148177791","-81.4959525636705","2.78310098141934","-96.4350263033333"
"2348","74.5024356776471","64.6900275409069","-48.8143098021619","245.684721766923","-19.2192062779582","-92.8190646690094"
"2357","-170.786565040487","387.642682199539","-185.103121797011","149.195432790848","-14.5574881993857","-92.6250167570181"
"2357","-104.103103056469","256.761386713995","-132.144945920043","1.00108315779364","29.961634556083","-98.037015122653"
"2365","-84.4433665844454","229.155283574596","-122.414364907731","35.9872258810455","21.8565674503602","-97.817536551689"
"2365","-78.6472482269125","223.332473464749","-120.626459541483","44.4894795352435","18.4165917817598","-97.6236669418291"
"2373","83.3483270280724","-591.924944824309","3.20767295723911","46.5556780805401","16.9565875095919","-97.4524182159872"
"2377","37.1081496946009","-308.882903300767","-42.0389364960855","-330.693382943896","-32.5059633578091","-104.001236455636"
"2385","-111.233541313455","520.120027608449","-221.080946374949","-207.371600603087","-22.499000092894","-103.785932572378"
"2389","-75.9679016220387","264.977254751895","-159.978280032755","305.767900354302","33.7422297594685","-99.12902687251"
"2398","162.923059245203","-325.561246303771","83.7299460553707","155.469906849827","24.6122927386736","-99.0154932039518"
"2398","99.3533158105283","-150.120425730061","0.509106176493565","-204.339907391572","-15.5009356222943","-112.315377762011"
"2406","97.6633536338981","-197.202153624107","86.9285487156259","-107.780078551598","-9.525906267301","-112.063419582797"
"2409","87.165115989185","-160.132854809501","46.8073317881293","-5.25012500307059","-5.41439013689588","-119.657626540001"
"2413","84.0700069565255","-152.314022618202","39.4354247093711","-25.333526476667","-4.6693687490205","-119.365734459245"
"2413","83.1575014248114","-150.664837476033","38.080904130495","-30.2141494969958","-4.35316464935689","-119.107900614379"
"2425","11.2709893798283","178.872864425192","-223.70929217891","-31.4002275175881","-4.21896040465835","-118.880151059179"
"2425","32.0772804653745","64.3805183130674","-127.81084913842","126.439937052846","-12.0398868141489","-116.445613695455"
"2437","70.6098144052307","-253.177092693546","27.8453079859151","74.7978985638844","-10.3592666790688","-116.295140385823"
"2438","62.9700443680728","-156.157849031782","-19.5542951559632","-102.908364973357","23.4411470866793","-120.628948111389"
"2446","-67.1706932246787","52.158812017557","-133.606569074343","-52.0941411386515","16.7868149788922","-120.457083173835"
"2446","-30.5390161824983","-8.90205054306336","-96.5626324700959","69.1875167157536","9.23583293620223","-112.488505170126"
"2454","53.5834635539395","71.250616487783","-4.39196816438327","36.6611122143078","9.0310236283865","-112.449708161692"
"2458","35.3846021539105","36.1567968915053","-34.4564506331724","14.7007605989191","-8.38725078752862","-110.182076188151"
"2462","30.0191815747989","28.7546421394741","-39.9805246295166","17.3640053799642","-4.77996443174326","-110.179033594584"
"2466","28.4373387683743","27.1933445775857","-40.995522760576","18.0112211319487","-3.24894968112953","-110.176346013627"
"2474","33.0865117499431","-110.894766771839","-50.263315072569","18.1685060471762","-2.59915203952076","-110.173972022083"
"2474","31.4571891699666","-63.0209656690542","-46.9661872429896","-36.2597207047451","10.2812541382021","-107.93851319439"
"2487","78.7218197629834","185.023813014535","-20.9327422270707","-18.486745857349","7.74799281847421","-107.963889754485"
"2487","64.6564619405141","104.342593311793","-30.1493345367175","45.5697990155216","1.94608737867806","-94.5861343402908"
"2495","-31.5699360604927","-195.348963105187","-86.3305732426594","27.1366763654704","2.4836261449732","-94.7693077063362"
"2499","-5.9395732998621","-100.561326535438","-66.65336260516","-70.4629589076261","13.7408099395995","-87.1143418110963"
"2507","117.568935140493","-109.19347316595","65.9165437143131","-41.1814025844017","11.5186159522276","-87.3525643624736"
"2507","85.9819325426386","-95.0142064442407","19.2750528939553","11.616073846804","-16.2093455247547","-92.02971455923"
"2511","76.6693964424016","-92.0234483064303","10.7051050540434","-1.55320227287193","-10.9777259189601","-92.1611305781981"
"2515","73.9238580409799","-91.3926234256779","9.13045543013489","-4.75357011271508","-8.75730702340289","-92.2772128554553"
"2523","62.8833441786628","42.9210776947334","-60.1767192059433","-5.53131630143683","-7.81491051080349","-92.3797505460584"
"2523","65.6283603102352","-3.74883990190221","-34.9112793822146","46.9891450974951","6.76525846468636","-84.6535576199967"
"2536","107.361928287396","-36.8506584957628","-4.84135773123507","29.7525494082099","3.95341531342526","-84.8288639758828"
"2536","95.6658927795958","-30.8326509555237","-13.3162843348536","-7.81891204545189","13.7890448937616","-86.1003963430931"
"2544","30.8312306748685","20.5308030139498","-47.5661391155954","2.05055596178701","10.9635108174099","-86.2235651466461"
"2548","47.7165606606282","3.36462615587993","-35.8592370383445","16.7478876180126","12.9154438990088","-81.8656388298308"
"2556","30.5274066248092","-62.873779345842","-8.28057283280828","13.3196000748436","11.7438888976561","-82.0161993554989"
"2556","38.4596697607241","-41.8450977629329","-17.2132452328781","-8.5973216579889","12.8222313382256","-81.0325114230126"
"2564","40.798273639992","-37.4096285806501","-18.8545421810066","-1.92352264464135","12.2799045085512","-81.1636011013475"
"2565","41.4877449813251","-36.4740783993696","-19.1561155009814","-0.301671030490521","12.0497286106624","-81.2793951156962"
"2573","97.9618976452434","-11.2296940724657","-21.0277859790784","0.0924676981500741","11.9520367004157","-81.3816781781714"
"2573","81.611707445454","-19.9050288876217","-20.3716883305829","24.7860019174556","4.03268826427836","-82.5887076768689"
"2585","-5.05723952357191","82.0314934937258","-80.1876878565523","16.7869690206858","5.6715358424501","-82.65489986581"
"2585","17.3908678928183","45.5324279098434","-58.1783313139866","-9.75468946148079","7.94267735135918","-70.4298785932576"
"2597","59.8178014883812","43.2010977959922","13.0672748993368","-2.20478356312352","7.90660170000266","-70.631284023283"
"2597","51.3261852613282","39.7093625993302","-10.8419958308222","-0.370022425809069","-3.13774969094478","-61.8757419402337"
"2605","35.1812460937794","-43.3245927257264","-40.6627338002861","0.0758570959121077","-0.825224768542387","-62.1418045435374"
"2605","38.4213665082394","-14.8385081119703","-32.1420219716332","-29.6844845316983","1.73184079780041","-54.5600562932744"
"2614","39.3766245525978","-8.830088138989","-30.5764190149927","-19.9167757664039","1.81711784936537","-54.8629533876112"
"2614","39.6582554226233","-7.56276372213013","-30.2887537744433","-17.543049168425","1.85331137850547","-55.1305081709727"
"2622","58.4982468352516","-127.16349611165","27.8843944249343","-16.966191473612","1.86867273924175","-55.3668444166416"
"2626","53.05268650121","-85.3902494200134","6.57317895955144","-34.3958273240972","1.87519245172285","-49.9922001430972"
"2634","-11.6443776598589","98.7501372924968","-69.992927615603","-28.631538196066","1.87795956666573","-50.244674296402"
"2638","6.2815191955702","39.5899003683133","-44.0612502209303","28.9927184018633","3.45471114493428","-33.7174757663143"
"2646","54.1959195662122","-116.014478036276","15.1912326669372","10.9964355336915","3.12392054121939","-34.1186859298829"
"2647","43.3221280214304","-68.8352909969304","-3.92166490981319","-44.3294658972293","-14.3478232151637","-32.2397206876626"
"2654","29.8852281584186","69.9293854982587","-34.6773722657253","-28.7746419297452","-10.7632304691692","-32.579994834476"
"2658","31.9237375211884","27.1982887225143","-25.3284525203194","24.2009594037143","6.51392410955613","-26.1804799745427"
"2663","32.5247344651895","18.1852432718666","-23.6106739251576","9.07497079684228","3.84674327048549","-26.5276663821359"
"2663","32.7019214496083","16.2841690092103","-23.2950478012467","5.39908709273035","2.71473078120187","-26.8343427610328"
"2675","-20.1063650157887","15.8831854158263","-66.8272736389817","4.50578210901399","2.23427881591983","-27.1052358585631"
"2675","-4.6753976448635","15.798608055898","-50.8259224433595","0.774728640808326","6.75709547861607","-22.877797229518"
"2687","61.2604036926707","-147.025080118543","-42.4370429363986","1.86801642520369","5.67668221001153","-23.1436200197817"
"2687","44.6997135275188","-90.3686241108739","-43.8956629645007","-3.13724199102549","-16.8399499875193","-21.1450645272363"
"2695","148.948668042945","66.4967202170708","90.2395049656311","-1.35360862498732","-12.3965231642718","-21.3797023238961"
"2696","115.683529615496","18.5835020864706","40.885616666617","23.6775974534811","-5.7838998402933","-16.0035577779318"
"2708","49.6053610343046","-84.5544945128423","-55.3631479397355","15.7606248118587","-5.9773514128233","-16.2547067119797"
"2708","63.1240782363068","-54.3088495652504","-25.0479791452674","-33.6018608335481","17.5742005916434","-12.009827686569"
"2716","39.8268387696853","-94.4452515636799","-83.0469135729956","-18.5978209849377","12.5700173808637","-12.2602450419224"
"2716","48.9583053310767","-76.9110116946638","-58.7036879186207","11.4031607699783","15.1728591423267","-11.3647625525821"
"2724","12.4313612622159","127.163822469812","-30.6194738318807","3.69393182676413","13.2775646570198","-11.573765781999"
"2728","24.6624228604535","58.2082536790264","-38.4592560597843","1.82045236170924","12.473158372748","-11.7583823227781"
"2736","29.9735843501695","-29.6882673822603","14.5880296452169","1.36516359913177","12.1317499661957","-11.9214576361323"
"2736","30.5394303956733","-7.22781817911418","-5.66501622564252","-11.0443554074587","10.4112712863098","1.33466584171611"
"2745","68.2201751304446","-100.889493119041","16.0412995179519","-7.06008878381918","10.6810608241442","1.04405266529579"
"2749","57.3292790898753","-65.6450574952063","6.02963673546782","-21.9046815352644","9.21998851683526","6.37075309018592"
"2757","8.07859367583285","11.5628010675437","-73.9090576692972","-16.5121810519852","9.5998760462476","6.07592922049217"
"2757","20.5584192952843","-11.1521514873777","-45.5970624776786","-15.2017077225332","9.76110899360476","5.81550567051261"
"2765","19.1222089255263","34.1508103625412","-49.4762876865143","-14.8832394437578","9.82953994040021","5.58546857936932"
"2769","21.6987828383415","15.7063257836678","-45.189059879561","29.118710273079","20.8876236580031","8.73231518064693"
"2777","17.3428782449205","-40.0672548771584","20.9840079453896","14.8119650491529","18.5809270487969","8.51198483221593"
"2778","19.0586627309681","-22.8312828420745","-2.85729537291581","-15.0195617356148","6.5728722429694","11.667405584557"
"2786","22.9748698093152","-56.7663704058103","-9.05417618848448","-7.26915222698182","8.47637941688287","11.4546489473738"
"2786","22.129452922421","-42.9241199058718","-9.19279642607762","-5.38566515361231","9.28427135384723","11.2667169498916"
"2798","4.82842334417319","144.270305017533","-58.2572632897437","-4.92794436458838","9.62715915104431","11.1007130303654"
"2798","9.72770313434724","80.7542403070249","-40.2724108422566","-6.57369233962759","8.19711141519726","10.9540786005329"
"2806","-74.0867938778595","67.3571309118117","-102.353187389425","-5.97363830810289","8.59016648160412","10.8245536105588"
"2806","-48.7971324651111","64.531349104243","-77.7599629343924","20.5269192355169","11.9081423354452","6.24341804397517"
"2814","-41.3411896563754","63.9353218129499","-73.241182614813","11.9670250795883","11.3163670987119","6.19681358000612"
"2814","-39.1430153803404","63.8096049118733","-72.4108980128913","9.88681886930419","11.0652041670435","6.15564696766797"
"2823","-4.39138119760897","-107.968136912686","-26.8518624122676","9.38129183842294","10.9586048801376","6.1192837134414"
"2826","-14.1458428035703","-48.2003123375207","-43.4808058300964","-62.7778324897444","-9.56914126187247","10.553887028415"
"2835","15.3767158526732","69.9616408608819","24.2978840210411","-39.3137804608006","-5.28158575352389","10.4710567583836"
"2839","5.08060893040095","35.88492004334","-2.24840091828424","27.8827794295709","-11.3397349887183","11.5145721181141"
"2847","-3.07044224624552","25.1191460648833","-177.854397006515","9.21273616120413","-8.91095194398615","11.436329147901"
"2847","-2.47354960352783","24.8483779943032","-116.120394520365","25.7593712814119","11.0268048918864","11.3672156392662"
"2855","28.3956354348778","24.7912663095849","-19.4131561675904","17.7804973034575","7.4888444416201","11.3061663582534"
"2859","19.4965432897616","24.7792200423704","-48.6440845995895","-15.7841912072456","-5.04178687093162","11.2522403633821"
"2867","16.8728971681014","24.7766791865978","-54.0150006566956","-5.94100625826533","-3.36007310658095","11.2046065030872"
"2868","16.0993891675713","24.7761432572561","-55.0018574156106","-7.06290210982231","-15.2509325719882","8.92916876967054"
"2875","60.2059760774082","-48.5760554691103","4.7533681455044","-5.33554271438917","-12.2976850178583","8.91923119945489"
"2880","47.2095582179939","-23.0478488680797","-17.2671550578962","-17.2146394785487","6.28708938758756","5.56041040056175"
"2888","48.4934659478021","-39.1322216715322","49.5208812629964","-13.1014708354826","3.17489228017806","5.59349989531136"
"2888","45.8719899006897","-30.5248138131167","22.7925727877099","10.7388714115489","5.00515902156496","8.97277123093431"
"2896","-70.8529977708904","57.1663139560992","-123.786722292647","3.5324977221294","3.78196604552826","8.95774608551874"
"2896","-37.2660655548258","27.6625422263536","-72.7193286728316","1.78122100897339","9.56512360417648","4.47775041653912"
"2908","107.345173297286","17.8613163424172","71.0670144080882","1.35562968409587","8.01962780876049","4.52048475409234"
"2909","70.979715088274","17.7939953272888","23.4864413736884","15.3080614455112","12.0904155352537","2.32487097425614"
"2917","60.2583862339786","17.7797956597184","14.7439457560323","10.6987500066027","10.8181508579245","2.38544342545234"
"2917","57.0975050554359","17.7768005985369","13.137592054292","-2.72027024048845","-3.90202170368198","5.788990980939"
"2925","69.8070342814633","-57.3649920801966","11.0261801010063","1.01866966397371","-1.14959927324597","5.79540948377199"
"2929","65.5540802180866","-31.2142551171568","11.6382274436198","-24.4274353399762","18.925517512606","8.03444090546417"
"2937","-7.31726878462047","15.4503132556128","-82.6947895001617","-15.6112905013271","15.445855763585","8.01222008582216"
"2937","13.1986709232272","2.29302517770344","-48.0276195742139","-22.2537220814377","-15.9669580656653","6.8759110939805"
"2945","-19.9718825913189","-77.4124085878753","-1.70014282260691","-18.8679508525683","-10.2992739916613","6.87218767824588"
"2949","-6.75128397997856","-51.224256431681","-15.1878921991189","24.1224256720968","18.891032202498","12.4523033032287"
"2958","44.8914267031448","-117.263537688398","16.8427806482568","10.569850207962","14.2800651071117","12.3813259154887"
"2958","32.1168222138714","-91.1928558760082","3.72812416432382","-27.863311193858","12.3230653179741","11.201949316665"
"2966","28.3505906727789","-85.6939041093916","1.31842584574839","-17.2032515684177","11.4924698928806","11.1601834618598"
"2966","27.2402236134285","-84.5340391411802","0.875665793766927","2.95715463602678","1.68648330780638","12.2399718031576"
"2978","25.2076850013429","-61.0314165369294","-126.343826813391","-2.14350882728391","3.52459854864638","12.1937694497302"
"2978","25.6084483646429","-69.0741319894901","-79.7192463526723","37.0275311897244","16.9093538668024","11.0362771114762"
"2986","-3.26142773422385","-34.9890344376992","5.13047805863523","23.5467891644541","14.5901498459148","11.0138420416314"
"2987","5.22710421662586","-47.7996441200035","-21.2791602345212","-13.1119331858403","-8.45225345144218","2.06057737368428"
"2999","92.9886196189197","301.946107714568","30.1723432010033","-3.02065337618808","-4.23197589606173","2.15198784477192"
"2999","68.8626251648236","178.716139267919","8.62608691656728","64.4400500120672","-0.86521652292502","5.582775211685"
"3007","123.136172894406","16.7541704826026","55.5224149594267","43.8341983019949","-0.436286919437223","5.61325515974565"
"3007","103.137196446859","58.5923844278375","36.1391868108805","102.077971633683","6.04806921054629","-1.05990682749136"
"3015","97.2410627583714","67.4170988001673","32.5776957161394","80.2322423276776","4.80017811016701","-0.954438149226487"
"3015","95.5027541722443","69.278449379213","31.9233042638636","-46.3084329479478","13.7240075234527","2.48876710034735"
"3023","-73.8223815491386","-137.861675967472","-82.6212597304684","-8.06006302266996","11.5114846229043","2.53021600112238"
"3023","-24.7431182254959","-65.5526529204039","-40.667776930309","-79.5862137983207","43.6595595317061","8.15023319526403"
"3035","-156.918810357161","212.693172232107","-81.9982043976982","-50.9683379614063","36.3039370595043","8.11450162497048"
"3039","-109.887082219511","124.382100384686","-62.5922928662895","47.3493908553694","12.6995398480747","15.8997056719073"
"3048","-67.0330748926695","130.802164220054","-0.90634156775069","19.2423440087711","15.6812943455837","15.7765249651503"
"3048","-71.3987804851925","118.156314511302","-21.5721115552512","37.0095842629805","2.7666247198962","21.2511216854689"
"3056","-142.598192866299","115.488991957303","-143.426101810555","27.3273389972276","6.28534384943818","21.0869374357093"
"3060","-122.589329839826","114.926387642771","-100.815659309804","-8.40828122061591","-15.8548886263314","17.5918676014137"
"3064","-116.690281372613","114.807720474357","-92.9863797725468","1.90732879145138","-10.2517091609852","17.5046057232651"
"3068","-114.951113446255","114.782690632787","-91.5478211827966","-39.5103511554215","-31.5072490433688","14.0774828876592"
"3072","105.529622446283","-117.802372661225","-4.10306067490096","-24.5755825089388","-25.5285858274574","14.0502398900295"
"3076","41.5321438487263","-36.8603165191187","-36.0358847925393","-77.1696006780727","-46.6247618268465","14.0261756303676"
"3089","153.963017262105","-44.834688071583","57.9910029599592","-57.9508805895129","-40.5784609377607","14.00491921061"
"3089","110.110086668254","-32.5166803129689","20.2675845917891","-48.0094437403535","-25.4076554796005","7.28605750243692"
"3097","78.4243274321239","-76.4344645130997","-39.3352638396405","-48.5934981344789","-26.9688190124363","7.35115874514917"
"3097","80.0826757247245","-59.6978116994561","-21.2867427307178","7.48799831020008","-24.4802581831512","2.94194024378818"
"3109","39.6473154529502","-36.4878096998514","14.722172579777","-10.8832026578114","-25.4240561072266","3.04719340408086"
"3109","51.7260908577882","-42.5922460771829","3.33848180478252","-3.04885480895029","-6.91769969305948","-8.02664364927818"
"3113","55.2871768347099","-43.8798227291051","1.24683262180214","-8.14496922907556","-11.0631791877041","-7.80837523134675"
"3117","56.3370625151696","-44.1514044988376","0.862511192914358","2.91546027172341","13.9621961714826","-15.4323409975659"
"3121","58.3517698999152","36.2996989152708","-1.02436349424122","-1.39665904694415","7.58353726715461","-15.1667354406749"
"3125","57.9457495025614","8.26882693535268","-0.371059480260503","41.4799756949647","8.02744298805368","-22.7488874087557"
"3138","-146.795341426519","-49.5267599895902","-96.51275502319","26.8997589588062","6.21584671859986","-22.4463469260712"
"3138","-87.1574727991387","-32.7172790987804","-61.1779132664588","7.54366724811043","21.2027353841406","-22.1791071445871"
"3146","-30.3558314223974","-36.3280447653496","-63.7667545769212","11.8397934092582","17.5635133622873","-21.9430491460874"
"3150","-36.6094708193325","-33.0896445725162","-59.2424305170819","-50.3675327137229","4.98990432507518","-19.501172775853"
"3158","-35.0428234175786","42.7345750903847","-11.1883897777515","-29.4850170854852","6.65337736110182","-19.344216781726"
"3159","-36.5809416533948","16.727778861123","-28.3588987947293","-12.1113193857042","-11.5475324920292","-12.5054890500702"
"3166","-37.0344123983031","11.2423021444776","-31.513822963577","-14.8892024772082","-7.27241449787362","-12.4647103469363"
"3167","-37.1681054471854","10.0852793976695","-32.0935114574556","19.5753676446953","-8.6091110438837","-11.3120088224816"
"3174","32.7047862503698","20.5756862400954","-48.5463561428623","7.95086989932293","-7.17643559957185","-11.2938055698848"
"3175","12.3048360444466","16.7883725692757","-42.5694160470831","-14.2008941370738","-34.9287641327877","-5.6943217003564"
"3187","156.346170563945","180.584458397791","-52.3687627211011","-8.58416597173117","-28.7074864624103","-5.7481907481012"
"3187","110.812692149322","123.133105111877","-48.1693031494721","-14.24713033931","-22.9158797690799","-4.67909338808207"
"3199","-57.7827873582904","511.768051773199","228.673697794463","-11.6233311931366","-22.4577895586865","-4.73473928928005"
"3199","-16.4884054962411","369.740776609901","127.54107008906","41.7237660965336","-36.4435599698644","-1.43384962216148"
"3207","-57.1744476792882","-796.279079884751","143.467797232664","24.6880576007386","-33.3794404867713","-1.51811079105927"
"3208","-38.1695787599159","-407.221514222395","127.394187844982","31.0899715732312","2.58373916467289","6.22422613538036"
"3216","-32.5665296151405","-325.159648583045","124.440808962173","26.6457502967403","-4.15266568518689","6.06318008309064"
"3216","-30.9146287337423","-307.850770960409","123.898152573366","-366.241316305687","-2.28501836608099","0.337520442842948"
"3224","-214.586860935762","-1667.47524905494","-297.5736750414","-238.71984688081","-4.4923461708422","0.279936024603956"
"3224","-160.737434029665","-1192.25368774541","-143.015272964645","-473.034186305932","4.0242763833781","-2.00429122652302"
"3236","238.803650611855","3026.43354617726","-87.3726915337529","-378.976729654223","1.63892558776099","-2.02199274545524"
"3240","131.597061453083","1614.25905149861","-92.1488755245815","476.690488675011","-75.0011750618653","-34.4213754519937"
"3249","-109.746697165698","1178.63771918787","-310.977551972394","210.632810049643","-59.5289848917984","-34.0403684471941"
"3249","-57.9000919122115","1163.75440320387","-231.185322136896","1115.83027435843","-40.3576166550029","-61.620840635175"
"3257","274.548566434652","-1555.20110196928","250.254368995918","783.809324623239","-40.2208499375763","-60.9831980140657"
"3261","186.561669220822","-610.696083271159","81.7145139977718","-228.078252213005","22.8602830407096","-77.1701698866917"
"3265","160.621216209706","-411.476608363526","50.7468553557374","56.0151065248315","9.63335718834137","-76.4684310243244"
"3269","152.97340586828","-369.456292540136","45.0568309886219","-1096.04782927868","-25.9164182371012","-61.3317197647"
"3273","7.48369377308798","619.82007444568","241.983586774151","-681.019570755964","-22.0045551880443","-60.9611738677826"
"3273","48.5901589433034","280.482934322378","169.167079104298","479.299959736346","-4.5884996150514","-56.1671399348941"
"3289","-125.155186901207","-390.431875827764","-292.828295451965","158.278200270107","-7.19672769847028","-55.9324782814053"
"3290","-67.3790977617794","-196.94440730176","-130.715724918512","352.596463763333","61.0216753730687","-7.70791769831696"
"3298","-92.9749044243681","-433.439778827329","-284.371193776024","244.819250765933","45.9751243273865","-8.11024310603217"
"3298","-75.521105518366","-328.322503429842","-211.603982442619","-573.771520097827","-61.2479134216753","1.58450344456512"
"3310","71.1544472812305","1210.98515149691","103.265344378009","-321.70360666488","-42.7558205320011","1.14805806950541"
"3310","31.3975937696295","687.663217430847","-4.88029334111965","129.603429977645","-17.5760051262563","27.5628795693206"
"3314","19.676407740292","577.281674878548","-24.7510662959671","17.2790501742382","-17.8891161460958","26.8955954522107"
"3318","16.2207468969547","553.999476783852","-28.4021392948483","297.454126133666","-55.835859252139","38.5896607544734"
"3322","47.6003291599308","-188.010322158704","165.266736906322","190.541642446463","-47.9413240539355","37.9192517840992"
"3326","37.8517132293445","67.481454385365","93.8516236255502","-409.973184734808","-36.7128171799212","18.3434911445928"
"3339","449.335918232753","-764.221263243717","-15.5319852065542","-228.908946335895","-36.9471823076265","18.0518482237327"
"3339","327.650420990664","-444.64794219742","17.3697759562065","-358.848365517569","-8.68626349640435","-16.8228739861857"
"3347","-192.495729571031","53.9251150661275","-216.331031907816","-291.425950686097","-14.6916838322518","-16.6283815995699"
"3351","-61.8461397436668","-81.9134927709761","-127.271420354099","178.260313537867","-42.4497558612548","-58.8904576406915"
"3359","211.986799299151","61.1860092938337","219.651632335757","34.4024122514477","-38.2309158617199","-58.221355859916"
"3359","154.718711811909","-4.63076552840073","101.395573914858","233.121028261047","72.2744796793039","-77.7305820099909"
"3367","137.834832739676","-18.5131516043081","79.66710352089","148.413179027411","50.1754944336143","-76.9634537467138"
"3368","132.857097581517","-21.4412902692772","75.6746955887641","143.640508433913","10.8602142880623","-93.0360484807458"
"3375","-168.721815126328","466.358638996483","-143.009969168531","133.480664769099","13.1739110976281","-92.2332781092946"
"3375","-81.6338447803479","296.247711944188","-63.1912785005356","118.712766674176","58.2720571291402","-83.7074092967784"
"3388","-66.1894843457299","-256.675641329737","-142.970798334041","122.123905320252","49.4127407316052","-83.1763466826084"
"3388","-55.6361506241497","-84.3008555135972","-105.62955626911","-54.5023347853036","9.41436994643425","-73.7738015990418"
"3400","-76.3972932506136","-241.162876887902","-20.6693013434905","3.57435391274283","15.4381474809235","-73.4683541057676"
"3400","-68.5181301230634","-166.248957864171","-48.0586306644055","-166.795116269633","0.663427634984119","-48.6315663140885"
"3408","-79.8366071007774","414.900023338879","68.5981923766918","-103.197921428237","5.39269895162353","-48.6927577179018"
"3408","-75.173540547632","221.478720737396","23.032817879607","15.9192785142808","5.82433260387716","-30.8799145672682"
"3417","-73.798767000207","180.681382896533","14.6605965831208","-14.1331276769276","7.0075277880914","-31.1454903046198"
"3417","-73.3934538258915","172.07621504524","13.1222774052148","110.33727303324","-27.1529944736181","-14.6298646537274"
"3424","117.706002780054","-6.8572785429136","90.9387681408539","65.5857896430517","-19.6515006394695","-15.0412973623247"
"3425","62.0462833389764","54.4012209564803","62.236837412652","-73.549319435097","-36.9501982271014","0.228809124768373"
"3437","30.2899821395876","-197.460984574529","-70.1750196415849","-34.3616204636621","-31.292160733237","-0.282814428420808"
"3441","29.9275331255303","-102.584954634663","-24.5044887126159","-45.9221010781589","-2.1059487680992","4.84866331331189"
"3449","4.24300185521945","-163.081639474735","-39.7243146453295","-36.7315030555758","-6.71865354782932","4.38139552231284"
"3450","11.6706428150906","-130.841886957701","-29.5208186181176","-41.5259536148816","-13.4031223042928","1.73528713037932"
"3457","-11.7172003195998","29.8187468531984","15.9441998163205","-38.691090197962","-13.2401635748725","1.39792909429537"
"3461","-3.61244569224174","-22.2939508323554","0.297981603108934","-50.3010438277037","2.58477134788479","-14.5335985461267"
"3466","-1.22298756569061","-33.2858080098284","-2.57686805586844","-46.1224686259265","-0.698764694274288","-14.6062209190237"
"3466","-0.518523285024","-35.6042626202383","-3.10509541720893","53.2840053645997","-2.09237241456376","-37.0039880034044"
"3474","146.334495670649","-79.0310883096836","100.32461836042","21.4415429194666","-2.6838513729532","-36.7883630670275"
"3474","103.629963045777","-64.1908802001296","62.3288833738446","-37.2492259058429","-2.93488855732297","-55.5814730492515"
"3490","-62.4263034219255","345.059370989445","-117.1971036985","-22.5121244385537","-3.04143447420209","-55.1817857098614"
"3490","-21.3833062701823","204.380373560911","-55.1833637441832","54.8625073261615","28.4248880335013","-64.8788625165504"
"3498","-28.0398975931887","201.543821602079","-14.7287593910212","31.6659161748473","21.7799142652278","-64.4444755011628"
"3499","-19.0024056471891","185.945522619437","-23.2955954184935","147.26050811882","9.50617266126508","-59.5940494901026"
"3511","-16.3379562508909","-141.167166701233","-26.6859324109015","106.352045660854","10.2969162874951","-59.3095756378815"
"3511","-15.5524185566","-29.1633254425726","-26.3088758604702","-51.1759458805438","9.05694879834045","-47.891485277532"
"3515","-15.320824941045","-5.53894441604909","-26.2395951639689","-5.45804380473695","9.53067826449925","-47.8056681802988"
"3518","-15.2525461007606","-0.555978005125118","-26.226865468908","-96.2527527011906","-4.44845448919776","-33.2130123689408"
"3523","27.3970396704241","-135.474666921056","-8.06193514766429","-60.3174784871423","-1.38151783260899","-33.3230410312356"
"3523","14.9710661524838","-87.9323562175162","-14.7242951487999","-46.3136222817452","-6.38214844638386","-21.1367413520914"
"3539","52.2318960675345","-9.91964681933315","31.2742945914753","-45.9104366680287","-4.50453033596718","-21.3723503044664"
"3540","39.2171999954314","-31.4648364215547","13.7261152312135","24.466834628397","8.89699090262003","-11.5303399275554"
"3548","-24.3010537271574","55.2335883686597","-20.3746077182834","1.56976068645738","6.58490272144016","-11.836704354719"
"3551","-8.02761788857608","22.520431021791","-9.64030402945096","-25.0784216946585","-33.7858291170433","-10.9906409815"
"3560","5.29603644979488","-54.1535183301033","-29.4630834182914","-19.554402994449","-25.9200901214854","-11.243297059211"
"3560","4.22413984069993","-31.3259511140321","-21.1053380378691","18.6846588650056","-16.2793821652873","-20.3999203365226"
"3568","3.90812138225347","-26.5110524484085","-19.5696786772935","6.97742960567881","-16.1876454325974","-20.48814040561"
"3568","3.81495226012779","-25.495471202243","-19.2875152989682","-31.0072799151437","-12.997555964269","-25.032790547387"
"3572","128.265494567147","-202.399710794419","18.9057714918119","-20.2382385230049","-13.6436091050309","-25.0471667394033"
"3576","91.956224063808","-140.713191424797","4.9234390207605","-28.1630638293696","-7.61550021349069","-38.4600365181052"
"3588","53.9686089317324","163.917289078028","-8.54324164734299","-24.0889370373109","-9.05703306644757","-38.3078803402883"
"3589","58.7690328977787","65.1713937838813","-5.01762119380515","82.3200831393999","7.66249611992466","-41.5235206384439"
"3597","60.1843024011689","44.3434415545755","-4.36982064415038","48.1793637063826","3.75864632341456","-41.3639570751983"
"3601","60.6015546650092","39.9503111588865","-4.25079321120254","17.0417936554753","6.82849472690308","-43.4563733706252"
"3609","-380.916591153126","76.5942717482509","-269.402756806405","22.4748114693475","5.13140853089069","-43.3046446122184"
"3609","-252.085753583257","63.323389585244","-172.122007792895","-0.802620283359534","18.5913207365254","-47.6373433759255"
"3617","-214.103617672245","60.5242322237305","-154.247558880352","7.54055064733393","15.3040150159088","-47.4644988712005"
"3618","-202.905657031959","59.9338206867826","-150.963292186612","-23.814573499909","32.8157331754974","-14.9280754048465"
"3625","468.825610675536","29.395008856609","269.196022139804","-12.4344251928352","28.24810647958","-15.188031691466"
"3625","274.866613800312","39.9536179304961","115.39645773692","14.9289043457814","-68.2251277414942","-22.1177415469495"
"3638","-60.2607725395126","-29.3823206274129","-136.262680849394","7.57867909806091","-49.1705726172505","-22.2388864961966"
"3642","3.93637733884696","-4.00698539708674","-59.5027485056474","-10.0203963551227","43.9977821251626","-15.6458106345925"
"3650","-145.949549634128","74.6973862585423","-130.762991559585","-5.2972840579472","29.5405606385117","-15.822020915846"
"3650","-91.1391843273582","50.2980853377083","-96.8564102151727","-51.5880047131299","-20.7115747277371","-26.0277990802255"
"3658","131.346670237897","-137.334007433672","76.4694548255038","-35.8374714508397","-14.0397291649842","-26.0427576812115"
"3662","75.9403442819082","-74.910257699931","16.3164990897463","-7.4120607977181","45.5127319864048","-24.9392899810745"
"3666","59.6053530446678","-61.7435445565082","5.26394300706295","-14.5041814836329","34.7881571857101","-24.9645759049858"
"3666","54.7894419710357","-58.9663590183015","3.23313679867833","-61.9092312125225","-13.8797576415002","-29.4536351154086"
"3675","-141.020711380858","-38.7007540155873","13.7575495241769","-47.429499693478","-6.53553268485664","-29.4189067769642"
"3675","-84.7498079050813","-45.4262365621056","9.69131421558892","-3.50007616142364","9.18614140324206","-23.8048259837721"
"3690","93.8320112025065","-125.564118682887","-147.254105037036","-15.8244465355262","7.8587791034948","-23.8458012903037"
"3691","51.4818196841244","-98.4671805833073","-90.0913920330393","0.507317477049943","18.3244562754303","-32.8154429031043"
"3695","38.9960611464126","-92.7517659767829","-79.5882657346346","-6.52377399382714","15.7663287926196","-32.7384984999133"
"3699","35.3149876807974","-91.5462436404795","-77.6584122297366","-17.0173652712902","-19.9820962927275","-40.4872984651215"
"3707","-39.092936697602","177.069319937811","124.30094477378","-14.5674942034853","-13.1545446981883","-40.3319613383049"
"3711","-18.030012865906","83.7269876777303","50.409131601865","44.0082822287834","11.8013043185761","-37.9613872543576"
"3715","-11.8202043235616","64.0387805730834","36.8321859780896","25.2432355689742","8.39313684594885","-37.8674139303102"
"3719","-9.9894175609686","59.8860506207674","34.33754625336","31.2248896734202","-27.7160646332471","-38.9010864177947"
"3723","-110.055177172773","-25.0764001114787","53.8580294856658","26.6785377897607","-21.0416347834704","-38.8141490507034"
"3723","-80.5567418082817","4.00291711112942","46.4447399481392","-34.1637029423053","10.1515344720579","-26.4538655192635"
"3740","47.5025151086797","-100.786201641205","-109.299410806075","-14.9494473350419","5.39062822240887","-26.5357912149162"
"3740","15.2571722438183","-60.8888192034162","-52.9159756898114","-38.3917582012313","-21.8392435930845","-19.9080722382237"
"3748","-21.5323085377493","-115.091108332828","-127.920213957629","-28.0886558215695","-17.3962233543336","-20.0536815948539"
"3752","-16.3786484785512","-91.5237120409978","-94.7015575300982","-13.2859433162265","-13.9349268970298","-9.01549193980346"
"3760","20.9495054892656","-99.0762919447597","18.5613561166828","-16.688621442645","-13.4658735949874","-9.26524838489061"
"3760","10.9546580137445","-93.6693178925724","-19.6276182261853","-29.8144083781492","4.06455200966638","-2.7857775117484"
"3764","8.0079593631269","-92.5288532998054","-26.6444933822268","-26.0042075743448","0.504865180872372","-3.0623372471399"
"3769","7.1392084433337","-92.2883011028092","-27.9337800887359","25.8742241247853","-5.73267869729343","-3.30662773877098"
"3773","-102.248324789959","40.1540065928709","-49.965784369924","9.4816038230007","-5.38003483794367","-3.52241419162131"
"3777","-70.4981512492788","-5.91063417414494","-42.0139638808603","72.2632316697624","-2.07921042371457","-4.82970340092811"
"3789","30.9421154716761","32.678225514517","-13.3090024765969","49.5202815537405","-2.67826512330455","-4.98445690542318"
"3789","6.84891472969522","13.8175706871409","-23.0347280558092","36.9654120051037","-12.385980534108","-6.23783454680672"
"3797","-0.254285423116808","9.83939198322771","-24.821741280583","37.914355867185","-10.5061567615549","-6.34496693460549"
"3798","-2.34846348402481","9.00029567691616","-25.1500886351847","-23.3494127130304","-14.4350480556458","-8.67296085272739"
"3809","-76.288536546116","114.37874988405","-117.839635377896","-3.23759585460607","-13.1025592902789","-8.72932230377918"
"3809","-55.0876799599851","77.6056728734688","-83.8704928165996","12.1918261140001","-10.9614434613751","-2.07902194200947"
"3818","-48.8372058384645","69.8493211889816","-77.6289731996971","9.94144951068169","-11.0527049822225","-2.20468473029903"
"3818","-46.9944299777309","68.2133147314274","-76.4821509901614","-4.66128995330016","-4.78912985101343","4.3844004378687"
"3826","-17.4631096677085","-1.90569466860914","23.6228195723075","-0.210014828489883","-6.13072545179555","4.20466510095179"
"3826","-25.7566334636819","22.3044715484289","-12.9838066065062","-37.7818854869077","-14.5780150355765","9.62930603726502"
"3838","50.2364536045598","-47.7301663982423","-8.81238492947191","-24.9125169236876","-13.163237743148","9.42099489022875"
"3842","26.6408702471039","-20.5022041543925","-14.0459243047858","-21.7850319431515","-20.4406596919603","12.5870324325142"
"3850","19.6843785337248","-14.759153314386","-15.0075393534409","-21.0249975828464","-18.5293638454862","12.3836538084803"
"3851","17.6334533150007","-13.5478018127381","-15.1842273336942","-27.8682247469797","-22.4448976723141","8.85396283547444"
"3859","-54.5886896401853","-11.5032225523364","-106.029648916263","-25.5312504089682","-21.1067396926423","8.73611944485666"
"3863","-33.8813498545587","-12.0719702047039","-72.7216652039923","-19.6923774129383","-4.78302335649384","5.28198337572516"
"3867","-27.776375231021","-12.1919331550499","-66.6016274855111","-21.2734276401787","-7.85486517038376","5.23087907345108"
"3867","-25.9764957902099","-12.2172363090863","-65.4771264649994","24.0238876158605","-2.85631641744318","-1.5143478389111"
"3879","-417.636844421398","277.607618850933","-332.260602609705","9.03193920952944","-4.7348181171654","-1.47253548416441"
"3879","-303.106842701864","176.738850890065","-234.279629122309","1.8746651514359","-5.53209715954447","-1.43560183334621"
"3888","-269.340904567367","155.463132296804","-216.276520359665","2.13532052016623","-5.87048060179044","-1.4029776348043"
"3888","-259.385970829614","150.975556897497","-212.968613593855","7.46961115387357","-20.1942926294069","0.859201777969092"
"3896","185.190121252304","370.0852732828","343.414479550361","5.76593845670741","-17.2736457320869","0.857428020563004"
"3896","57.2608328207504","293.300933105981","139.644790018344","29.9496672652829","-118.446571301401","10.9059894872729"
"3908","636.81901150681","-381.274479743787","-273.761669944011","21.8267426051201","-96.3866725664251","10.7820755791716"
"3912","445.685381130882","-155.559122888159","-142.721330243155","-263.02141465723","-90.1751018097973","21.8394292379038"
"3916","31.2475976678993","-1201.07515431201","-336.594961229001","-171.244572669611","-85.5387692553756","21.6066007229595"
"3916","119.062315672722","-810.600350752864","-252.217469769354","-268.415964171921","83.4401742691404","38.1511526202924"
"3924","342.752680870803","783.52904064831","-380.198348266195","-224.030337011455","49.1586988227124","37.7652710171514"
"3925","292.701470874823","274.770367060224","-324.713665506983","563.342313092386","67.6959775423707","49.7079045297734"
"3937","-344.444768545893","1253.42925962785","-734.074722261444","312.687842221319","54.5636221807059","49.2570606028303"
"3941","-167.289352322218","852.852631480062","-578.291076678351","355.436309712348","141.949002446372","56.6755879838942"
"3949","232.796279901403","172.599048800124","532.823189841141","306.824946059373","120.037354459279","56.2285147811854"
"3949","146.750235226106","362.116739164195","140.980285610853","-404.267413975434","41.4121557401014","14.5164125303804"
"3961","-642.537858028623","-440.563739142941","-995.345121784381","-179.075478711308","52.0418249328626","14.6713166548358"
"3961","-427.237172854436","-138.868909831573","-618.134534370936","-168.274397761147","99.0938825001493","32.6750411091608"
"3965","-363.761843187462","-75.2340065881749","-548.825534981389","-140.649543380823","92.0638508024185","32.5780744697891"
"3969","-345.047933972211","-61.8118312063842","-536.090639523339","-9.19047363607963","21.3303272110797","26.9090173977461"
"3974","458.492744292351","-1023.2923278388","-68.7883801085355","-48.2435864083003","34.3094036413326","26.9014311081021"
"3978","227.394031496346","-687.092351005501","-238.925859030847","-331.823417110281","-84.6525747342695","28.0114109115272"
"3986","14.3209500003707","-254.786255867755","369.136149259974","-244.738349256842","-56.1427564641268","27.9918772527154"
"3986","36.5023663986844","-365.602205420441","128.861988267887","231.483270896703","39.4630508448803","38.0247510596161"
"3994","-33.6910893261445","1038.70602727998","406.191673238327","88.2135770978395","27.0403399197189","37.8869799422508"
"3994","-9.3856483750065","536.909375265003","280.148469276641","754.432416707212","23.3434347137633","42.232007756632"
"4006","161.477234633131","1064.40068948043","171.625002656327","517.33541951523","20.7743836754776","42.0700537376324"
"4007","115.851332690537","821.661657454089","198.684807092583","203.19723230812","7.07940250407147","20.710059223438"
"4015","64.885902398142","87.0352408290958","-250.407984951737","272.856077147574","9.26693958463263","20.8423684740126"
"4015","71.860183892826","314.084355364205","-82.9246827546375","-521.941387091925","52.7359633931275","9.79243058148851"
"4023","12.5299377436765","-1228.51327602236","-273.734770581595","-253.09127783957","44.1852103010835","10.0318095842333"
"4027","31.0380893991479","-664.88527938364","-186.794381053829","-236.951432469805","34.2537667107662","18.0600240500414"
"4035","-110.150632067994","489.872384813705","214.227058017347","-205.029163577267","34.038635132072","18.1514990834395"
"4035","-65.7761412164421","154.439344176244","75.9110838724199","461.596858443623","65.4588714038775","45.0326427539123"
"4043","-259.020140663924","876.248557958609","239.387737326793","248.59881380476","58.7943375840858","44.7772699085829"
"4047","-194.992679145023","585.495978254396","165.425078940579","265.358816219727","60.6924886105005","68.0019934756744"
"4056","-63.5742264367438","-96.6400492791776","-287.699594660999","230.431794281477","58.4981072760863","67.5168349805998"
"4056","-90.8292052435562","106.480586894751","-128.957113866359","-259.469228719993","-22.7876730252194","71.5550088953454"
"4064","-228.458111684992","-153.029964904065","-386.758576655161","-104.523872610225","-6.28721544631198","71.1220049713597"
"4064","-193.034109857071","-38.7671604073892","-276.127240269762","-200.400052003979","-33.9467415706659","84.1396953566138"
"4076","83.4174606165426","187.499196301954","-117.764048587223","-147.699665312288","-23.6860764375681","83.6384696796842"
"4076","8.92140268978043","122.224368620287","-164.666258859435","47.8336181319702","-74.4764160150662","95.4792175709136"
"4084","-204.021618624881","-36.4588035068353","264.434340164486","-8.6483234518215","-61.0329966167467","94.9383761303957"
"4084","-154.801857653354","11.070989768994","102.277655140706","-54.0001182764045","-15.9378734750679","100.04404515471"
"4092","-26.043859242791","-325.984401532914","67.0340682605085","-47.0214093721927","-21.7984728561167","99.5539800311295"
"4096","-55.0831979018485","-203.077722098333","63.5583811428303","-180.613092562202","-84.157776895126","83.4875633063389"
"4105","212.594245618902","-202.200716419847","-53.320829291378","-136.078242709144","-72.624490348193","83.2957908312428"
"4105","129.511384029985","-188.015734225681","-10.7963164461336","-35.6493889454298","-94.5143115938002","63.0261380236081"
"4113","333.510629953153","-231.539727329573","-55.6543406306585","-62.2433949593601","-86.8048518808427","63.1215669096721"
"4117","259.65404926606","-214.720014231587","-34.8965927692862","10.3579908502832","-29.9631578790653","50.922370969588"
"4125","128.748114675112","168.111634622396","210.479918801343","-16.9985837889199","-39.8382441951207","51.146588408586"
"4125","154.154194981818","36.860300381566","122.565611139075","106.369969586059","-1.48887336945577","40.177834772704"
"4133","-285.112234936872","272.170210225969","-302.246145254874","62.3507177366237","-12.2125241639972","40.4889253785124"
"4134","-152.617542493908","174.802891632343","-155.301424579017","90.3068677550929","46.2591994775502","36.2969939755851"
"4146","91.066164881491","7.56154396308344","75.1193486039376","75.1007084060049","31.075934984407","36.5941809762334"
"4146","42.9094274684619","54.2862062931589","5.45706064268269","-69.1532382836478","-35.2401211374408","26.8065636644051"
"4154","-25.8539304967254","-320.509587516763","-119.950814770547","-24.2095077065547","-25.3861705804637","27.1609745238937"
"4158","-14.1268655889529","-184.563292645106","-80.993366200666","-87.0806380035961","13.4587685164484","37.524160659482"
"4166","-124.916412753231","6.91699288658673","-95.6304005531731","-60.3594385715799","7.94544821923458","37.6781607251224"
"4166","-90.5795834450371","-43.6950777921191","-86.3198218972531","53.3102044726369","27.6635492342619","40.0475537574187"
"4174","101.997731761468","104.857282586319","155.137117773106","19.9339452659246","22.0323618348146","40.1404838360057"
"4174","51.7737172128109","47.1906504827372","67.5026245818317","90.8871231708507","-8.71803148822939","45.8059753368812"
"4182","13.0940890291985","38.6054816568831","-23.0660375076636","63.130004756599","-3.76920101605146","45.8104120894741"
"4186","15.690492480658","34.7946571597962","1.29279823309285","-3.35286421255208","-0.0932271386570871","63.681225842989"
"4195","-133.599715253372","71.56144046906","-110.472072911139","14.4906186170408","0.46694016553693","63.4668566453673"
"4195","-89.6137189445441","58.3164646562373","-67.0078469439555","-58.4803173893803","-13.4755063947197","74.4443094207828"
"4203","-35.7214120835632","234.430297647347","-79.0005429862482","-32.2135500071765","-10.392999279409","74.1409029309228"
"4207","-43.8327866398174","171.577061971395","-70.2040913234618","46.2060129651212","-20.1137528891268","82.8063455314187"
"4215","-187.753989331288","47.3970934588191","-179.379630963376","24.2633586438351","-17.2394628260968","82.4606963358819"
"4216","-147.185093438168","83.204465964662","-138.439638987388","-139.197498399794","-28.62416566172","95.5555488196928"
"4224","33.5881448681158","-381.558742126728","101.563879884216","-88.9213879440357","-25.4560936689708","95.1224818968386"
"4224","-12.1159685573738","-215.588800664666","17.6623338990522","-94.2732232567432","-58.7741888616054","90.2732219487034"
"4236","196.082633251519","21.5838704329478","145.730663028778","-85.5738142279762","-50.9151497311148","89.9897781021149"
"4236","127.46411411086","-41.390545728827","90.2620485244444","83.4536104084366","-66.4865197741296","79.6892784832259"
"4244","79.9510290208658","133.17949432052","-14.3752777028281","29.5302746792742","-61.0953650034211","79.5906506139808"
"4244","81.9431370481004","65.0006345206772","18.398569528398","46.2946452719082","-14.6910754977858","66.1033597210778"
"4256","33.0802852764566","-223.108488589083","-208.060704809544","33.3686848783614","-22.9960347614343","66.1897783086046"
"4256","47.6744526978734","-130.877830292676","-121.670527626215","-68.1635589719548","-6.03834626009243","52.8659424820562"
"4264","205.443171464998","-179.408962632823","61.2987186803582","-36.8376963332466","-11.8411158017373","53.0967440487712"
"4265","161.956824808819","-151.64537907326","2.91764615406811","-29.2249557062596","-20.6062523858593","39.9004444628802"
"4273","12.7218448154645","179.822344986849","19.4345444580004","-27.3749246146285","-20.3263766227147","40.2439012246362"
"4276","48.7241234647005","67.7370882955754","7.46937362945656","118.904192601952","25.4841464383215","39.430602218365"
"4285","-49.7930274697086","214.057684499486","1.63836452759577","71.4526144078508","15.9271791288901","39.712199686616"
"4285","-14.8380285497256","149.920318119045","2.56696987493628","21.267429164149","22.9000239002751","39.9609401038129"
"4293","-135.831257305304","-78.2968704439272","-77.1778093425703","31.0715384081985","18.8594585405577","40.1806572608296"
"4297","-94.5026954919424","-6.43352146255241","-47.8301840068259","-63.1799128310635","20.2957045838081","38.1413757826418"
"4305","-5.58511540649238","-84.3076768604951","-55.1516399090024","-31.0846883603734","18.9052802206855","38.3400395390434"
"4306","-24.3702768213424","-48.7332627918834","-49.4968905450837","-28.5559259054454","-21.0742764347439","38.5155230260085"
"4314","-72.5380070926127","55.3803252976999","-62.9879550938872","-24.9413917456472","-13.042513753717","38.6705309386504"
"4314","-61.7389027182126","23.3404567309302","-57.4668149556664","44.4593119951111","-11.2092273093187","45.5075378927568"
"4326","-179.622745761129","141.817724047587","-94.5937977419812","22.3249148039517","-9.43113865440162","45.5467966002451"
"4326","-143.377469339947","96.8075107782592","-80.4155416514436","15.18888117003","-8.67647720252906","48.9315173192021"
"4334","32.7107153545356","-46.8669012716508","-21.5063834179663","14.4546983388325","-8.35618163944369","48.9213057180715"
"4334","-12.3746538819884","-2.17138918818789","-41.6823637634818","-48.9750821527318","-47.6096696707416","46.6789237802726"
"4342","1.61604927355327","26.9358279161362","-76.265921137462","-28.3896446335212","-39.269746876027","46.6981850251023"
"4346","-10.2591868207847","22.0752600978082","-65.6203338631429","-11.088142187102","-40.4568245412962","47.8318797680372"
"4355","95.3711415697121","-7.57515807248303","34.4136888673885","-13.8835700065735","-37.9606474254253","47.833293967827"
"4355","62.5132622368756","2.17083520257749","-1.20597332739219","-5.77799732851118","-38.4767899749149","48.9512240753177"
"4363","37.4794399590622","-56.6020525671636","19.4931261856559","-8.80819930114471","-37.6958526660208","48.9387130717961"
"4367","39.0989240976145","-34.9987086023342","8.29639662234061","-28.8713969237748","-13.7307477569166","46.6943000279875"
"4375","46.3970961913977","-10.7622010400452","-13.7397506376746","-22.7471100497187","-18.559409665889","46.7117671581211"
"4375","44.5487562255699","-16.6501219991001","-6.78869138312178","3.33895187387919","-15.8820726535339","38.9104297826659"
"4383","11.6054390416238","21.4676255408903","-49.1017170018105","-4.32167207463789","-17.7457496522546","39.0193596124836"
"4383","20.8930318707739","7.50760150633896","-32.8763489040726","6.11553609303299","-7.50769669257007","35.7655366562878"
"4395","-34.3448432753407","-29.4293428766906","-86.1991189485155","1.65196292879927","-10.1624330919406","35.8913727490786"
"4396","-16.630171546201","-18.2202582440038","-64.9966908083118","-22.2735338362399","2.89103048648218","36.0025261710664"
"4404","55.0944502404435","-119.622350105446","9.7331679540722","-15.087854206112","-0.568781318280071","36.1007101097566"
"4404","37.2404303819508","-83.0105599034385","-15.5359032009587","-34.4253935274984","-14.6418217115599","38.4207996920252"
"4416","38.7973895066089","1.64200860984474","92.4292022302395","-27.1247588064603","-12.6147416028623","38.4701790923858"
"4416","35.2564149557648","-23.5026704390351","50.2668040264519","46.6856972974421","-3.87651673160334","35.1637541054991"
"4424","-71.5085915308932","142.944919705867","-110.045918855381","23.6229481996501","-5.16781444058034","35.2431258208199"
"4424","-40.9852400058129","82.052834276839","-55.5019171308882","33.8311310840364","14.7666322764748","31.963193618056"
"4432","14.053520736663","-209.886553629744","-52.7449916490032","27.3119007109726","10.2272669361511","32.0659669151321"
"4436","3.28014574607208","-115.463792937345","-48.2384317778945","-102.53209229604","1.99834796200836","34.3901103652378"
"4445","35.9126630066258","-256.564470203414","-20.1665055376334","-61.0864872103967","2.50580673061649","34.4430706244155"
"4445","24.5334395931056","-196.326093781449","-30.0085455450707","-36.9586115452898","-9.88343338499352","26.673085007131"
"4453","-7.80943308970747","143.780442760057","-80.8559271448163","-39.0951095106584","-7.14170996607869","26.8097084432003"
"4457","-0.344816148324244","32.5173253399346","-63.1986689920755","95.6733168823626","11.3532887633647","17.9969431887086"
"4465","58.1267969517139","7.26010603537925","3.61476062996406","51.4244365137662","8.20298880781681","18.212459472735"
"4465","42.3655015786031","2.93273363621927","-19.1088820582199","49.4560844610326","13.1682381327839","11.7027436119513"
"4473","7.02552044525839","30.6451879107403","27.5711119890903","43.9777399757465","11.2756033949866","11.9525873726191"
"4473","14.6065245602762","20.4904301060456","8.14813444520426","21.5626180193196","27.8036746344141","8.82323638048665"
"4485","18.5467478596239","55.9191209357875","31.823226796309","28.1153455357295","23.8185657106865","9.05902093432979"
"4486","18.7084114775786","42.3919083154615","21.1733087294856","31.4647568781175","26.8539258839317","4.8005702586986"
"4494","-115.953006524549","-114.321787894674","-91.5753236938529","31.2787232833453","25.1422020949984","5.03899951643563"
"4494","-76.6541244944799","-61.3765834243481","-51.2918548744485","-23.2329359600995","32.2935931659008","6.36628954737269"
"4506","6.54952711734838","-64.5217320552659","-65.6852451201054","-5.48023668899507","30.3288069352206","6.53871015927286"
"4506","-10.9202248191863","-57.185121710539","-56.3298990853885","0.590966579171042","10.5879809488804","13.3910980829062"
"4514","-91.098530054896","159.051382189276","-80.0385676167714","1.06637673171233","14.2095233512701","13.4439430942798"
"4514","-70.7368401367169","84.6610104177868","-70.3948188663354","97.8159336365349","14.1710115423303","14.6073030190541"
"4522","-100.542513393096","169.158455234827","-59.5415724569063","66.3277931816963","15.1546662506777","14.6349210400385"
"4526","-88.329874819113","130.981056760747","-62.5473875801673","23.535971147049","17.1477289354343","18.0093593184771"
"4535","9.05547943603439","56.7327142944601","-39.4883098862302","33.136798876421","16.993630277413","17.9900650414254"
"4535","-17.2331977872667","78.0719020107053","-48.2514150186403","-40.0802663681374","-9.85658428883875","15.7396602026681"
"4543","-105.12704889124","21.7443057569991","-157.020844531248","-14.8733127593728","-4.25242883889669","15.751834665987"
"4547","-84.0400698833052","43.8634221975449","-118.00623352943","-42.1302383989266","-6.60062867357081","23.5793550265648"
"4555","29.6030589685249","-33.7685709207523","-7.31088445040132","-29.7541551151606","-4.59725833633904","23.493553127134"
"4555","0.107527672004806","-4.14307883641987","-43.971625326333","-33.7744762165116","-24.2294851601446","22.30108175425"
"4563","10.168563348662","-30.0976843309082","31.0239595581486","-30.7514856012098","-19.561850791843","22.2477490356405"
"4564","2.13477572207051","-17.5721527304237","-0.19628684951635","-3.66211146279526","-4.97618290561775","21.0839583097584"
"4576","4.88177489438321","45.8983506191838","-16.8302767246658","-12.0789127352258","-6.78569219352066","21.0559597539348"
"4576","2.69165005997492","25.2858499962234","-13.8866204026305","17.5013356812","-15.4315750372592","21.0312280953026"
"4584","17.3925576195398","87.133948317562","-18.7945278523647","6.68986106909585","-14.1010852619223","21.009382149299"
"4584","12.7267052465766","63.1792423368528","-16.6963110095398","7.57644534624638","-18.2631264559102","15.4066806191739"
"4592","79.558239470741","-25.9599350282995","-128.918849240788","5.79190106166446","-17.029591835194","15.4577074459137"
"4596","59.2616308630926","2.23840721782069","-87.5387154197764","-52.6221891533313","-8.62816580038837","14.3860994978452"
"4604","176.050581099018","119.108801365628","-50.8753476930931","-33.8178498729404","-10.0624086309171","14.4395277487116"
"4605","138.48250643956","81.7596587919514","-60.138788815433","-2.89332790421768","-10.6711340585449","10.0199982709072"
"4613","-118.139044659471","227.742273042423","-310.668363072661","-10.3781201834718","-10.9294910385161","10.1161435489516"
"4617","-49.7966652679831","172.533617906539","-219.700883602701","0.10181820068338","42.530479505822","13.5511132612"
"4625","-972.611403521007","-678.187550522212","-44.9718954954287","-4.35137076252189","31.2201124869933","13.5852875547035"
"4625","-691.677280528146","-388.625691254159","-99.8670401860801","-195.187657818167","21.693002844468","23.6656026207487"
"4633","-665.122665875793","-579.809543303069","15.3683588343609","-133.564262744497","20.6494798316561","23.5697372728678"
"4637","-624.293787310573","-479.134947469265","-32.4581893409483","-104.532825974744","-112.141895900786","22.3683766639354"
"4645","-35.9063041277674","39.4627378723474","376.49372054599","-105.477671557901","-84.5015898503943","22.3071919134986"
"4646","-200.43686330024","-129.152180506302","221.634897963794","308.940525408297","-272.86871065774","-2.31383393636932"
"4654","1258.43349851248","692.249811619079","233.138705027009","173.651502819942","-225.816020641645","-2.06205589214811"
"4657","804.54024472428","386.503812730536","213.252424480615","321.743040915949","-281.47348718384","-31.9900403226376"
"4666","665.607096343143","-932.127340097956","-142.755770204295","254.731913164382","-257.095787676072","-31.426000060963"
"4666","627.646579250369","-509.259272340553","-14.1690236267004","-383.52469708586","27.4010893442464","-19.7609633564096"
"4674","746.048537583059","-858.389374211689","759.572639344635","-184.632381855282","-25.8519357107007","-19.4570138410691"
"4674","704.956012830072","-687.029549956956","488.740601315884","-181.979557618689","87.0458987279821","-15.8384866806614"
"4686","9.0645726910389","1143.55696271989","44.8494561164428","-155.334874243962","48.9623192141894","-15.6421725905244"
"4686","204.900624701215","526.67294581032","180.288513401088","803.42463672449","253.379579119149","4.63149191234"
"4695","-179.00380415644","-571.332870679087","-465.025418179829","494.420215005575","200.138934858291","4.53960663322413"
"4695","-33.1871884203405","-261.929461354758","-214.595957773367","-278.19529763005","166.513348902877","7.80848536630188"
"4702","43.9062892663224","-1377.45829989343","-50.5249884343522","-68.9545804283381","159.24188192793","7.69594832852777"
"4706","46.6351250216538","-952.750929427907","-85.3784467062001","-701.571467915684","80.5280019311864","2.01313762645894"
"4715","-106.026395240382","253.2133246281","55.3345387280094","-466.308599953735","95.120032763511","1.99340249296406"
"4715","-61.0343352673926","-116.418979389121","0.189264303014035","655.595696711626","137.551498538949","5.32601282645012"
"4723","-721.315096171423","1142.05564290792","-118.918724223444","322.23835358972","132.560382110991","5.26977112745389"
"4727","-520.980240582067","660.499074626449","-80.8037289914094","406.382934004074","161.9535812885","29.7870719537861"
"4735","-4.92939840733897","-664.800597300065","-111.941888668886","332.831560535099","154.428726611055","29.4436716169774"
"4736","-120.78637431311","-260.339085195431","-96.6632410436335","-512.581368863558","-15.7761717009792","22.4402540396683"
"4744","-287.94743505878","-239.434855549879","-342.683430700369","-247.031716023689","17.984980522352","22.2540016532293"
"4747","-259.230155314538","-199.025636360048","-250.887393006033","-52.4817505501943","0.802441889648918","27.6728859553402"
"4756","342.638347106595","339.063944810819","11.1742736147205","-79.2026558538877","13.5097798980474","27.4594898634639"
"4756","172.082285923793","156.560349479888","-75.6742892361058","214.747654789748","-55.1490616258227","29.50435485911"
"4764","-23.141503699507","-144.928237112178","306.128831452319","115.182797628787","-37.2894427226846","29.3106231302249"
"4764","4.30227257018104","-61.5196386637587","157.281666875565","-126.879028959601","19.1334793013139","34.722900786431"
"4772","-263.845577482659","167.184178979345","-117.078882248768","-61.7043491994678","12.0806565895618","34.5036689181579"
"4776","-180.901401981424","97.4234721098697","-31.4901267002173","-8.96911795707054","20.1163175442442","34.3100172254927"
"4785","448.89061756599","297.398244469739","-84.7818219264685","-17.1535207624229","16.526835656514","34.138960990067"
"4785","279.567017202429","219.577871211394","-56.5736840723095","38.837938369908","-52.7464399839285","12.7709263144134"
"4793","244.99333722867","-934.68823649348","197.436805138087","19.4448567369149","-39.1476009587848","12.8961335369473"
"4797","225.80026360998","-542.151514430956","107.1089119905","-301.524811472097","37.5250288528748","16.3567742193282"
"4805","-127.714630746704","272.375972960818","26.9429170785176","-199.526137768727","25.0666448024186","16.4136241706076"
"4805","-27.9385185774444","35.1799709530045","47.2131478784632","148.546084491682","54.4417192877167","9.76375531041064"
"4813","-267.940508227516","861.796343754694","-145.218369038462","49.1338124686662","44.9091720767751","9.88979925227336"
"4817","-180.698320268118","546.150186751306","-72.5759022932388","355.287529058721","75.5260385678566","6.65109351782132"
"4826","32.5921812432569","134.281078049975","-146.408951170965","241.688316142178","66.5205362573009","6.79028294104779"
"4826","-14.5251350006957","240.40769364038","-111.975099392531","-332.339788910785","5.9776178615002","-6.48693939934516"
"4834","94.3564866647768","-1000.29471162641","39.6525371461783","-160.838806919287","16.2818199771669","-6.21496325082247"
"4834","54.4571593788422","-555.989543099706","-12.4872698503281","-268.504515634491","-4.5540756323896","-7.09140244676782"
"4846","-207.967230434038","201.472330466657","6.99266311256","-209.669193821415","2.60269420116757","-6.86557791290771"
"4846","-138.335654238869","-9.76022126457686","-5.42807716652078","293.069899403987","46.6051967782738","-1.08269820377491"
"4854","-24.0219470075874","566.494723250664","64.9400907024787","137.244422222791","39.2808642648381","-0.974570206806652"
"4854","-45.3197771975421","341.04114723631","37.8695986924821","213.579911814902","6.23628431806521","1.35430315189303"
"4862","132.560407299354","-364.892285435626","-148.730270469677","167.130790671809","11.211409568323","1.41144142958882"
"4866","77.0033586212592","-145.791110738316","-83.016291725157","-209.609478383711","-19.7641537818382","-5.23817274638272"
"4875","89.6119609079697","-405.509122135259","-16.4541743997248","-93.1640505638566","-11.9108906139747","-5.11190383708372"
"4875","76.3292513854301","-289.290076000249","-34.2239934265201","-172.041662107486","-25.9091349560385","-3.88368718218475"
"4883","7.61644678038128","109.140125486779","-37.489035334611","-130.210321718982","-20.8503096942244","-3.798779973874"
"4887","25.3584159194058","-15.8210881052923","-38.0889569570831","155.80164985569","17.5350458172815","1.85962477259274"
"4895","-105.825123471659","319.214703131944","16.2885869936451","68.3076354026197","10.8266677456084","1.85780165978573"
"4895","-64.5008871042337","187.88204008008","-3.72003607727845","89.2126109724238","28.4619817843703","9.6729576942673"
"4903","65.3396952007335","-142.17298669117","18.0311901228535","70.2928910803295","22.9468120035591","9.5762341496576"
"4903","34.6195258445228","-42.7897571924272","8.02777922647396","-120.545055257094","-7.75434079130277","5.02407272568709"
"4915","54.5505809212928","-261.563460335822","-70.0931398339984","-60.9220634183463","-2.78461151389028","5.00306167477769"
"4915","43.4266899108441","-173.708246653528","-42.4471450293471","-81.5722631653093","5.62696374833957","7.21786404823383"
"4924","150.983709418182","-80.036247658588","-6.4910407416168","-66.5906282262238","5.1970284818247","7.17424124794211"
"4924","117.693860575862","-102.27850568381","-16.8844350595835","72.3378082939844","22.3459027974086","3.7856656425355"
"4936","-146.192267540234","313.462738085888","-40.589235942828","29.0998842227185","18.6242768836442","3.7924721489055"
"4936","-74.9916436228451","166.152851575604","-32.9447765473798","74.8157332681735","40.6783910840665","3.79848446586504"
"4944","5.68108849339196","-70.6621028158251","2.96874660628973","53.9254960012673","35.0386610549863","3.80379526016345"
"4945","-5.53483361539859","-5.61223535102807","-9.43247160605614","-82.9248712551527","2.70906489327716","-5.12496095653466"
"4956","-5.43117519940162","-129.65040407771","20.9815822810065","-41.181939468933","7.98764559824998","-5.01190170278436"
"4957","-7.40061444144193","-78.8131224889833","8.56988683191138","-36.3086128982363","5.50126440290407","-8.26207706002212"
"4965","27.8274947632526","98.2937171187615","-113.583751768549","-32.12430804441","7.4459874134247","-8.13301897346757"
"4965","17.2135083679146","42.649931104621","-70.0283669137503","35.6578778370097","5.12021799024221","-9.13570042073606"
"4973","26.0205216744949","57.7494089510989","-7.53768878334958","14.1301520788003","6.13310830661314","-9.02138807644573"
"4977","21.6170209497496","45.9342623805714","-26.0555975671635","5.38456812005289","8.13857925140584","-10.037094719237"
"4985","-78.581564123307","-37.0662310586072","5.05082944267991","5.25923599185751","7.98974694245442","-9.93428777870085"
"4986","-50.1222885967615","-9.57308850529323","-8.23364877035296","-40.4527604632989","22.1067734730952","-3.14339093936331"
"4994","55.46328441978","6.96034698612225","-57.8972878060073","-25.5615869485702","19.0983620861125","-3.14486217613138"
"4994","29.592210228256","4.44765755812859","-41.0225277713215","9.68291303664543","-2.66097941333346","-0.912799911982158"
"5006","64.5943099558643","5.7067444560224","-25.2081308268747","0.247952091108815","1.10385888516633","-0.941176721468519"
"5006","49.9136910458442","4.9723170318116","-29.3023798624476","-12.5868043861123","4.27731943156184","1.26711933688193"
"5014","-82.3028420929302","-220.606074719933","-51.8497703465678","-9.70587801541726","4.62420859638513","1.21774938430275"
"5014","-46.2831547733949","-142.186138208886","-43.9926473639271","-88.0699630641222","26.829516404318","2.29082088093417"
"5026","-59.5362618878579","-89.8639283259672","-2.59127181210094","-62.11382662272","22.2539563968181","2.23868541044097"
"5026","-49.4435664211512","-98.8278798428691","-16.9841472811482","33.8000700265722","-0.170518784229806","-3.39077143465566"
"5034","72.8944558585544","210.58049636834","51.20539962774","6.10884929742461","3.31202158246612","-3.36337808817968"
"5035","38.9623684558941","101.842377481247","24.7346059193478","80.2005747076023","1.63893698212231","-7.80590469383464"
"5043","-51.1849263866455","-155.462041047008","-167.20385156532","52.2061790435114","2.92884165019978","-7.73007321765571"
"5047","-30.7623116563982","-78.733908465212","-99.4707896538168","-77.5857135413084","23.9588096327768","-11.013132581209"
"5055","-2.57396322354398","-123.378605958875","-132.431936700385","-39.1274471283368","19.8844085485995","-10.9131215649312"
"5055","-7.26342436903282","-98.7952771422181","-113.488246350107","-15.7255477832536","5.55052242266959","-10.8247799258258"
"5063","40.8041889746845","274.939458770088","100.678543420056","-18.0384708798122","7.46689364248691","-10.7467460702539"
"5067","25.9755679502257","147.769360537914","24.0297344967045","95.6032940641092","3.55351392007071","-9.56113635874156"
"5075","-51.71889616075","-22.1799801380176","-24.5627074861003","58.220259984214","4.89258615087302","-9.51386467655712"
"5076","-31.6249157990671","21.9734994728951","-14.4911247789888","-47.49850461196","27.5189991219396","-2.77202319065482"
"5084","45.916712658323","-8.0730950813991","-45.3332279075038","-18.190040821459","23.1221657673109","-2.81682595719481"
"5084","26.777673018318","7.58933479311891","-33.0001825960359","-26.8804041797198","3.92470056430869","4.96036532899938"
"5096","36.4816714695244","127.182820672987","-110.649500156615","-19.9923167218812","6.77685769814646","4.83010679777767"
"5096","30.342621495205","87.408045513191","-80.9168528847248","4.52238004944384","12.7141098077539","10.2984515406863"
"5104","-10.6864033287868","-239.436834962287","8.09416966362622","-2.52011352138836","12.2340152606002","10.1287447999791"
"5104","0.217346840376296","-130.376506192752","-21.5508681128328","-95.5946415039491","16.7569836197166","12.2122014332005"
"5116","25.599326749223","-19.7082970002383","40.2037150386149","-66.2134037925554","15.6766347345388","12.0525584341978"
"5116","20.0824870606316","-45.3656338191682","14.5505555270927","14.7200129996749","7.34022422596571","7.44481905552222"
"5125","142.934013196695","54.7780394760858","47.97846367178","-7.61173022473178","8.80206113133724","7.37471493667388"
"5125","106.153317911255","16.9008176659797","33.1205364091355","23.8578870724151","15.7248067206617","6.19610971292604"
"5133","-29.1684424667698","-71.5968122006883","-71.3199835831822","10.505562632918","14.6629781233848","6.15502522844482"
"5137","3.93575625344751","-45.2631517156534","-34.5099750042275","-36.6638454701541","42.5727025317905","2.7686917658302"
"5145","-81.7943859246812","114.15174117267","-91.3155419558599","-23.1268488536099","36.4182272671092","2.77747879971332"
"5145","-51.0694984156177","61.7762859076926","-66.7530459298886","36.3863136225687","36.9572816469426","-2.79816403473416"
"5153","-120.449331069847","36.4164045712637","-91.3000578481381","18.8490684091855","35.1860686423483","-2.72323574576369"
"5157","-94.9040163227231","39.0673782097871","-79.8103470362631","-24.0664029677981","26.5564396162599","-0.423688322660916"
"5166","-61.7950279352774","-235.891056002609","27.6438122251413","-12.495624223278","27.8938278831836","-0.392454203480354"
"5166","-67.033777286526","-139.886592077919","-10.6124676695426","-58.8792226427613","6.40336590056058","-8.18163093480636"
"5174","49.0790230265714","48.5361989529834","-61.2319288604207","-42.1512603256926","11.2823228095038","-8.06195937597788"
"5174","14.3116046482533","-5.72077295644322","-46.5327924147418","67.3328664777522","-8.70501652178134","-13.5396557936238"
"5186","-52.2094687711483","79.445153457994","-163.705063328442","33.9394525353978","-3.18810001545568","-13.3782095656624"
"5186","-38.8213295586853","43.4087542906213","-119.234397669019","34.6091714989697","2.30455970622843","-14.3522819495902"
"5194","26.5122015598459","-8.9190953273994","-16.6178440690607","29.7719250940247","2.63576999135408","-14.2126986737281"
"5194","9.77394902108187","5.04366662984591","-49.7629898095713","-11.814203409898","-8.25269685620376","-8.50599751345518"
"5206","96.9187720097732","224.466865092218","64.019995411695","1.07962924741185","-5.87401097185294","-8.46515948234686"
"5207","68.610963205087","149.748646040805","18.9265794694691","41.1096867059861","-6.44001948450253","-0.612320045377703"
"5215","90.9584129233517","32.0114353051895","17.9061127882382","29.8377011658003","-5.68024642973787","-0.675757121489034"
"5215","79.5469276646557","64.1777448159966","13.7186113581446","-39.6669169223382","5.67125867464342","9.31833595913858"
"5223","33.553117669072","-132.992164444976","-27.0085047576213","-18.5577727619781","3.48909680623555","9.14630908623589"
"5227","44.9931410728625","-60.580176168513","-12.4917402769672","-83.7071660988712","30.9233261763962","8.99435446675499"
"5235","-103.394953177018","-0.579814898031707","-136.96255691559","-59.539625022651","24.5670399531174","8.86013005174369"
"5235","-58.142994171615","-12.9242543346273","-89.8329323564763","7.82789519250415","37.6250583627349","5.3915243111799"
"5243","-22.6344144445352","34.5661052919633","16.9046989213106","-10.8006016825487","33.167179732403","5.32763867201696"
"5247","-25.1657120232729","16.5829970190447","-17.4832364444449","18.0550057049649","23.3972684283706","4.15452635003731"
"5256","-70.2466275724245","96.8764518427777","19.7885138413271","6.06743046111098","24.2506948427522","4.11829385050443"
"5256","-57.5374630096472","66.8123278750218","2.63685745627583","31.2659529226611","18.3105999067123","2.96960807444191"
"5264","-41.8542769926027","128.45592026631","-29.5747488833972","21.3896411318422","19.7894878933737","2.95495200902912"
"5268","-44.230532289445","103.458078925604","-19.4933372757366","3.17668181293009","6.2369673821804","-1.52471764454122"
"5276","-85.855381543608","-180.910324901573","-164.757959976808","7.7506094348492","9.48496802195366","-1.48169533135588"
"5276","-74.1272933891672","-84.8906563654112","-110.44900731763","-87.7718687695925","1.41003079676501","-4.79373565465145"
"5284","-29.7453201939155","-173.771323702614","-26.0036088518663","-55.9855264110223","3.98284293788706","-4.71932407313354"
"5284","-40.660548180486","-131.518455296223","-51.4875383437536","-53.531827791718","-13.8321226219726","-8.00363765673561"
"5296","-93.3287636365782","127.864256447705","-79.7813463396145","-49.9355354762917","-9.39320105148993","-7.90473451696007"
"5297","-79.8565002823856","42.5744873207707","-71.9800750777443","86.2260607068144","-12.2359527684969","-7.81737148630985"
"5305","-2.56191994417552","350.196462429969","-75.9954401595447","42.3157453247146","-10.4424815499145","-7.74020205426035"
"5305","-22.7737947486199","233.081547356013","-73.7332268105283","29.8877770675058","-36.4661029614118","-3.20531315104915"
"5317","303.777058815048","-172.693916095975","308.096852703126","27.8675601957875","-30.5111224901471","-3.19955924732362"
"5317","205.051360339987","-45.2819999695068","168.254641564222","-95.6121459242617","-76.8265844108766","-19.9446904818222"
"5325","116.263636948906","-1181.30659417322","187.966391201103","-55.6199061647398","-65.4839246906135","-19.7359844346887"
"5326","125.087082944588","-770.922285629655","166.588245118082","-388.512621003071","-0.797908986579181","-17.3182685650306"
"5333","49.2502284786578","464.224235014651","-113.411182534593","-274.411459253939","-11.3436859409163","-17.1826540020974"
"5337","72.8918726088811","82.7471929719491","-12.8585194010473","240.001231743787","12.5408340904011","-28.2296722491426"
"5346","30.4117754492928","1394.18480006736","-564.68825474046","88.0126460170874","4.67797011804943","-27.9877142678331"
"5346","46.8877179001567","892.799435551027","-352.081927309497","803.065125411717","-15.9905576728457","-41.1741591798244"
"5354","-14.7567664041745","-193.368384608504","-184.06305830381","548.835569440571","-13.7627531129388","-40.8219975965641"
"5358","6.06909745593202","125.531951006431","-224.191126078367","-394.951814958723","13.9675896192208","-50.5610548105371"
"5366","206.599333469206","-1841.38265014747","422.288996880825","-122.308900741773","8.73698067253164","-50.1637498899808"
"5367","151.720013130958","-1119.25359976947","181.073813486256","-539.221952419739","1.79025926940407","-43.1127173652309"
"5375","-132.172587061648","1858.01111850318","243.912016185427","-365.539223807763","1.84191198349062","-42.8844057871211"
"5375","-58.8703067073664","906.989903256329","196.457961866277","-323.33123804342","1.86383457553794","-42.6827338134964"
"5387","-277.689328519271","1180.50094535546","-506.072276895142","-313.073948349043","1.87313902450199","-42.5045931108549"
"5387","-201.201940430739","973.19119062651","-253.155790227402","841.999111696559","47.5688254376411","-22.246981507953"
"5395","92.4715450552638","-907.915858021159","-332.006576704707","466.702366791656","37.9631188309926","-22.3530466199298"
"5395","20.0528826417743","-277.687871994345","-277.494688370116","-808.707440507127","-41.7414657994076","-4.57984127200471"
"5407","-40.5168150155244","93.1898113685021","146.628456030568","-444.65466105337","-27.569912649759","-4.88042983686405"
"5407","-35.3740806508635","38.4170900719526","-3.442790808163","91.8470999422749","-1.07267872477175","26.1211202471655"
"5415","-112.296089044655","1195.13031329548","226.89178583334","-32.7734497138795","-2.82664722395799","25.5053810132248"
"5416","-88.9743719190982","786.109748435949","127.213660045051","639.734445178546","13.7602771354569","53.9951906618354"
"5424","-82.0986219336907","699.837192393785","108.898715051635","403.1658000454","9.80014682055964","53.1607831718321"
"5427","-80.0715011343383","681.640175995344","105.533511227233","345.675420398168","8.11937703173033","52.4237351136069"
"5436","205.290902172001","-941.311135811194","-96.689578284695","331.704237741554","7.40601993021923","51.7726864993006"
"5436","122.421951777232","-378.631718272907","-22.8462235518447","-706.553553401631","-60.6465626357062","37.7974318208988"
"5444","329.894619832456","-165.127719963652","-23.8082548084058","-369.868624787878","-46.5296335786856","37.4528226852867"
"5448","255.062079615677","-173.094444764673","-15.9850192630595","140.65545793907","-38.9625091842375","28.2149755172673"
"5456","-293.900254781948","444.245216059118","-81.7491592190654","20.721871383286","-36.7508486935065","28.0550088355895"
"5456","-146.746303355594","228.457423124457","-56.8327191406458","279.720970285404","41.391110973619","15.6302171170175"
"5464","-4.46177735270299","261.66175060681","176.594100183439","178.6623483188","25.5563440858611","15.6551615000204"
"5468","-20.51320116849","224.66536472716","93.4841457385606","4.75981815487324","-23.7048758720533","-12.2398275962408"
"5477","206.658728520301","-312.704365467226","-136.105127132429","47.4984167121278","-17.6124631690352","-11.8800037618807"
"5477","137.633959539248","-130.048935756691","-60.2900585851109","57.8846547330807","-15.0267040151528","-11.5621645027709"
"5485","40.5509345595016","-152.350945710737","-162.600317035057","60.4086949185204","-13.9292487494295","-11.2814110201366"
"5485","56.9287450357161","-123.054991347841","-117.398892358923","-111.162179105458","2.2923078552142","-21.083544372014"
"5497","-74.6569780305646","217.681323927711","-96.3797295678858","-54.856946721404","-0.822892882926833","-20.7419558076981"
"5497","-33.4513141672186","102.551042422932","-99.5176504278428","136.281431456146","26.2153334723453","-8.15673401445235"
"5506","-161.12760194012","285.79994803478","172.344655621998","81.7314498869439","19.6909745214579","-8.03996745114193"
"5506","-116.769351433317","208.451675691781","72.2968707314768","33.3351911346466","18.4974646621019","0.996622025032902"
"5513","-28.6637313838299","31.1202380504821","-26.0013977116218","41.5740412679377","16.9909118078361","0.978813947070926"
"5518","-46.6882762958456","83.7166507829311","-0.0628065236943001","-100.49631649155","-12.0088923723648","14.3632547459554"
"5526","-52.0023045789499","94.8105354306024","4.70317264231278","-53.0219350476951","-6.31707186956213","14.1859867077791"
"5526","-53.5689958175625","97.1505101585729","5.57887777395407","-41.4848177294275","-3.90133319839715","14.0294024669992"
"5534","14.1762385861199","-304.897864922326","-270.331608020465","-38.6810934476718","-2.87603851025855","13.8910886191513"
"5534","-5.85099131488502","-164.699813652557","-169.027639175431","-95.9801529634228","-13.469920078364","17.1189561115102"
"5546","-137.938643556671","22.3100467074217","38.4769897297252","-76.904841432327","-10.9662054705707","16.9701930622257"
"5547","-102.880959342618","-26.2449472355251","-27.3959303896877","27.8787861407473","-14.6303032391924","11.2553832329188"
"5555","110.371018312672","52.9673663529175","163.92154551546","-3.65693254420487","-13.1854300514715","11.2073826597218"
"5555","54.2423443971772","19.67520295188","87.0743839117634","71.2574938772472","-47.2348901895331","4.46489733047929"
"5567","12.1167158445352","-48.1754967979635","-12.4097593609781","42.4630291610962","-39.6862590525012","4.50913137791093"
"5567","14.6971633584661","-28.4868879591359","16.3109381606889","-34.8138268767935","-25.4534074625257","-13.3186905291979"
"5575","85.370242788112","-124.522287866122","-239.953211578114","-13.5934744884298","-26.4126600478934","-13.0663458132679"
"5579","65.2062053478579","-88.7785295623123","-143.039407964065","-17.2214634704743","-11.0640172480197","-19.5435304173848"
"5587","204.20155740524","-134.911544476524","110.881305712503","-13.1031291866402","-14.5497025497091","-19.2649511769363"
"5587","160.180413496113","-114.642138623904","27.5369171307293","0.196574897366586","-11.3023755801715","-25.7189623249344"
"5596","-217.706118829345","166.939845919671","-87.6711053279776","-3.57136095247925","-12.9241358176269","-25.4199135284962"
"5596","-115.115296169687","71.3324526223243","-53.8395269595513","86.8760408054942","36.8060209295395","-20.6890343487809"
"5604","-26.8932282420891","-41.8654254437578","-29.4606921502866","56.856364792407","25.9126357144","-20.5101584938996"
"5608","-34.8834417842528","-13.7416583726914","-34.9813039695375","7.39347667741215","-21.2513489583096","-23.7021967914348"
"5616","-54.2909129780013","-68.6382189942103","-63.2395529912897","19.3731169438595","-14.268821681491","-23.5217851306637"
"5616","-50.0126580390021","-46.2172617359086","-53.4317480927797","-40.9669788760951","23.3574197674986","-18.895700396737"
"5624","-48.751335333816","-41.4881271696549","-51.6296535429294","-19.6306931425699","17.3268563430473","-18.8093914755262"
"5625","-48.3794699379239","-40.4906356937968","-51.2985351326219","-14.4455970095139","14.7673474361542","-18.7331531584593"
"5637","83.0288875792579","237.026425332595","-2.19869848830725","-13.185526618406","13.681033375033","-18.6658103982015"
"5637","44.7709324903103","140.561639101806","-20.1770520617246","53.8860183860515","-19.8671433139023","-13.0229206638678"
"5645","-189.88669342502","73.6988724309355","-85.2332208983049","32.1855942815063","-13.1057560274674","-13.0384484829519"
"5649","-128.068870675382","85.5958607969658","-63.1866975944367","-27.5544437168217","14.9731656481044","1.46468742994202"
"5657","110.124360733697","-47.8644898400491","24.4120698921979","-11.0723332821566","10.8905015695185","1.27558413310016"
"5657","51.3489114633008","-0.0145795151072747","-5.49245685004431","-72.0752311873564","-45.987474649517","-2.2414971709927"
"5665","10.1481341358814","56.5941071255563","-67.2911736467444","-49.9000181246844","-35.1277873354615","-2.34820220043979"
"5669","12.0012479275179","42.5342796016204","-47.6461232893498","-7.61442049148415","-14.7629163967783","-3.55913770694429"
"5673","12.5475862205864","39.5687141454716","-44.0365247556377","-18.338269735434","-16.1195998628791","-3.6287801471164"
"5677","12.7086586446438","38.9432030245328","-43.3732940009416","-20.9443554403564","-16.6954073241256","-3.69029664344928"
"5686","-16.231883561831","-136.518108286841","-79.5766141209212","-21.577680522321","-16.9397931670371","-3.74463533852833"
"5686","-7.76418551809628","-75.5272396456538","-66.2286434536636","-53.3572702744372","-9.1656303453166","-7.14267649828311"
"5694","-5.26772377013852","105.510317925481","28.8531401305868","-43.080274643229","-10.8660980155258","-7.14423109669215"
"5698","-4.53171249212328","49.6956175733269","-4.67645076561261","27.9395254877582","-21.041278256736","-20.545775317097"
"5706","104.816686204672","-178.555190087346","40.0180490173706","6.19859745692376","-19.3598572390952","-20.3836150575201"
"5706","73.0549749505686","-105.698932205391","20.2302550411097","-88.6909287324567","-20.2218008926592","-22.473737641527"
"5714","123.372168890026","-229.879615328496","-1.56816268458927","-60.7507677998997","-19.5876294733838","-22.319982804054"
"5718","103.206773204638","-178.072393551693","4.42657720009057","-4.76530975537776","-3.5627011185311","-33.3509774004423"
"5722","97.2615755014387","-167.144968800658","5.52805588831299","-19.1598497592223","-6.7613553785514","-33.0948654227417"
"5727","95.5088017755184","-164.840104583002","5.73044253459747","-22.6579784702462","-8.11893733107658","-32.8686368256665"
"5735","40.4263426449562","21.7098754063635","-66.8827361923516","-23.5080858356515","-8.69512613049073","-32.6688047889376"
"5735","56.1868343993073","-42.9421186838985","-40.2247444179664","83.4612402909875","16.2695606013626","-33.6089702554965"
"5747","-5.66858034765052","106.227025029356","19.1611921018505","48.4566851487276","10.865144056948","-33.4394363525049"
"5747","15.095096625444","46.6904877899216","0.0728154107909323","-7.48856382446879","27.4783120100303","-23.2395555604439"
"5755","-93.0302605505169","-67.844530666222","14.7280919337858","5.91574769738259","22.5293200759133","-23.2298062209615"
"5759","-57.907970027153","-35.0027995834376","7.42086511003961","-50.5641632190746","25.1555862762318","-18.7544707720364"
"5768","-97.0033226653526","-45.9664186204115","-17.5331398257621","-30.2897840392024","23.2702336579894","-18.8013215708909"
"5768","-79.5294838345501","-38.2789171083961","-9.11821026273407","2.74896596787805","13.0165840204833","-14.3759821042123"
"5776","-77.788172149143","25.9602012663355","-149.240256408361","-5.22203137241616","14.6647008334251","-14.466995308217"
"5776","-75.2747955512249","4.50982056722949","-96.9864022876777","20.9525908103306","-0.391572248725929","-10.080665336722"
"5788","-31.9043417247052","-8.95997169435511","-63.7738652007857","11.3134885766513","3.21820144138554","-10.2061363722082"
"5788","-44.1177876446876","-6.80108411657025","-70.6713649277548","-3.3278601078148","-9.42992248964118","-10.3169673321126"
"5796","13.6678387611191","88.47526749622","6.16042534136123","0.114032291138997","-5.79807527710582","-10.4148664338915"
"5797","-5.29570042523489","55.5714071287841","-22.7224351017279","30.8191714999151","-23.1635621552549","-9.38466166078951"
"5804","-27.9383469378382","193.546265066934","-57.0895430153957","21.2810653161481","-18.5338715623236","-9.47466212616638"
"5809","-24.6138921213449","141.648576017892","-47.4041851301414","25.9910652243301","-11.8421936386366","-10.6708421724683"
"5817","119.601200633966","-109.034015442661","72.4322547141044","23.1356788002645","-12.0020926327682","-10.7274508330773"
"5817","78.1189499304472","-27.9091757124213","29.4511057568688","-75.9492368318714","-26.2501517824963","-15.244178014531"
"5825","65.8890792423737","-10.7979400354516","21.553712294861","-44.028629998279","-23.297353632958","-15.2338893228631"
"5825","62.2834470862016","-7.18875710989622","20.1026383936999","-36.2713559757627","-22.044118631174","-15.2248011251822"
"5833","-6.98670086971833","-147.764436731311","-85.5070130444022","-34.3862007036806","-21.5122170618297","-15.2167733467482"
"5837","12.5909513145988","-98.4153253179738","-46.9118216878851","-70.8247017817193","5.49834569223167","-23.0264486816829"
