Timer,AX,AY,AZ,GX,GY,GZ
"1006","-1,12812812812813","5,87187187187187","-28,1281281281281","-0,6996996996997","-2,1001001001001","-0,169169169169169"
"1007","-1,12812812812813","5,87187187187187","-28,1281281281281","0,3003003003003","-0,1001001001001","-2,16916916916917"
"1015","-0,128128128128128","3,87187187187187","-27,1281281281281","0,3003003003003","-0,1001001001001","-2,16916916916917"
"1015","-0,128128128128128","3,87187187187187","-27,1281281281281","-2,6996996996997","-1,1001001001001","-1,16916916916917"
"1027","-1,12812812812813","2,87187187187187","-26,1281281281281","-2,6996996996997","-1,1001001001001","-1,16916916916917"
"1027","-1,12812812812813","2,87187187187187","-26,1281281281281","-0,6996996996997","-0,1001001001001","0,830830830830831"
"1035","-0,128128128128128","4,87187187187187","-26,1281281281281","-0,6996996996997","-0,1001001001001","0,830830830830831"
"1035","-0,128128128128128","4,87187187187187","-26,1281281281281","0,3003003003003","-1,1001001001001","-1,16916916916917"
"1043","-1,12812812812813","7,87187187187187","-27,1281281281281","0,3003003003003","-1,1001001001001","-1,16916916916917"
"1047","-1,12812812812813","7,87187187187187","-27,1281281281281","-2,6996996996997","-2,1001001001001","-1,16916916916917"
"1055","0,871871871871872","3,87187187187187","-28,1281281281281","-2,6996996996997","-2,1001001001001","-1,16916916916917"
"1056","0,871871871871872","3,87187187187187","-28,1281281281281","-2,6996996996997","1,8998998998999","-0,169169169169169"
"1064","-1,12812812812813","3,87187187187187","-27,1281281281281","-2,6996996996997","1,8998998998999","-0,169169169169169"
"1068","-1,12812812812813","3,87187187187187","-27,1281281281281","0,3003003003003","2,8998998998999","-1,16916916916917"
"1076","-0,128128128128128","3,87187187187187","-26,1281281281281","0,3003003003003","2,8998998998999","-1,16916916916917"
"1076","-0,128128128128128","3,87187187187187","-26,1281281281281","2,3003003003003","-0,1001001001001","-1,16916916916917"
"1084","-2,12812812812813","4,87187187187187","-26,1281281281281","2,3003003003003","-0,1001001001001","-1,16916916916917"
"1084","-2,12812812812813","4,87187187187187","-26,1281281281281","3,3003003003003","0,8998998998999","-0,169169169169169"
"1096","1,87187187187187","2,87187187187187","-28,1281281281281","3,3003003003003","0,8998998998999","-0,169169169169169"
"1097","1,87187187187187","2,87187187187187","-28,1281281281281","0,3003003003003","-1,1001001001001","0,830830830830831"
"1105","-1,12812812812813","1,87187187187187","-26,1281281281281","0,3003003003003","-1,1001001001001","0,830830830830831"
"1105","-1,12812812812813","1,87187187187187","-26,1281281281281","4,3003003003003","-0,1001001001001","-0,169169169169169"
"1117","-1,12812812812813","6,87187187187187","-26,1281281281281","4,3003003003003","-0,1001001001001","-0,169169169169169"
"1117","-1,12812812812813","6,87187187187187","-26,1281281281281","-0,6996996996997","2,8998998998999","1,83083083083083"
"1125","-1,12812812812813","1,87187187187187","-28,1281281281281","-0,6996996996997","2,8998998998999","1,83083083083083"
"1125","-1,12812812812813","1,87187187187187","-28,1281281281281","-2,6996996996997","0,8998998998999","0,830830830830831"
"1133","0,871871871871872","2,87187187187187","-26,1281281281281","-2,6996996996997","0,8998998998999","0,830830830830831"
"1137","0,871871871871872","2,87187187187187","-26,1281281281281","-2,6996996996997","1,8998998998999","-0,169169169169169"
"1146","1,87187187187187","3,87187187187187","-25,1281281281281","-2,6996996996997","1,8998998998999","-0,169169169169169"
"1146","1,87187187187187","3,87187187187187","-25,1281281281281","0,3003003003003","2,8998998998999","-2,16916916916917"
"1154","0,871871871871872","6,87187187187187","-28,1281281281281","0,3003003003003","2,8998998998999","-2,16916916916917"
"1158","0,871871871871872","6,87187187187187","-28,1281281281281","1,3003003003003","-0,1001001001001","0,830830830830831"
"1166","-0,128128128128128","2,87187187187187","-26,1281281281281","1,3003003003003","-0,1001001001001","0,830830830830831"
"1166","-0,128128128128128","2,87187187187187","-26,1281281281281","-0,6996996996997","1,8998998998999","0,830830830830831"
"1174","0,871871871871872","2,87187187187187","-25,1281281281281","-0,6996996996997","1,8998998998999","0,830830830830831"
"1175","0,871871871871872","2,87187187187187","-25,1281281281281","0,3003003003003","0,8998998998999","0,830830830830831"
"1187","-1,12812812812813","9,87187187187187","-26,1281281281281","0,3003003003003","0,8998998998999","0,830830830830831"
"1187","-1,12812812812813","9,87187187187187","-26,1281281281281","3,3003003003003","-2,1001001001001","-0,169169169169169"
"1195","0,871871871871872","6,87187187187187","-28,1281281281281","3,3003003003003","-2,1001001001001","-0,169169169169169"
"1195","0,871871871871872","6,87187187187187","-28,1281281281281","0,3003003003003","-1,1001001001001","-0,169169169169169"
"1207","0,871871871871872","1,87187187187187","-27,1281281281281","0,3003003003003","-1,1001001001001","-0,169169169169169"
"1207","0,871871871871872","1,87187187187187","-27,1281281281281","0,3003003003003","3,8998998998999","0,830830830830831"
"1215","0,871871871871872","3,87187187187187","-27,1281281281281","0,3003003003003","3,8998998998999","0,830830830830831"
"1215","0,871871871871872","3,87187187187187","-27,1281281281281","4,3003003003003","-0,1001001001001","0,830830830830831"
"1223","-1,12812812812813","7,87187187187187","-26,1281281281281","4,3003003003003","-0,1001001001001","0,830830830830831"
"1228","-1,12812812812813","7,87187187187187","-26,1281281281281","1,3003003003003","-0,1001001001001","-2,16916916916917"
"1236","0,871871871871872","4,87187187187187","-27,1281281281281","1,3003003003003","-0,1001001001001","-2,16916916916917"
"1236","0,871871871871872","4,87187187187187","-27,1281281281281","0,3003003003003","-3,1001001001001","-0,169169169169169"
"1244","-1,12812812812813","2,87187187187187","-27,1281281281281","0,3003003003003","-3,1001001001001","-0,169169169169169"
"1248","-1,12812812812813","2,87187187187187","-27,1281281281281","-3,6996996996997","0,8998998998999","0,830830830830831"
"1256","-2,12812812812813","5,87187187187187","-29,1281281281281","-3,6996996996997","0,8998998998999","0,830830830830831"
"1256","-2,12812812812813","5,87187187187187","-29,1281281281281","3,3003003003003","0,8998998998999","1,83083083083083"
"1265","1,87187187187187","4,87187187187187","-27,1281281281281","3,3003003003003","0,8998998998999","1,83083083083083"
"1265","1,87187187187187","4,87187187187187","-27,1281281281281","3,3003003003003","0,8998998998999","1,83083083083083"
"1277","0,871871871871872","3,87187187187187","-24,1281281281281","3,3003003003003","0,8998998998999","1,83083083083083"
"1277","0,871871871871872","3,87187187187187","-24,1281281281281","-1,6996996996997","-2,1001001001001","-2,16916916916917"
"1285","-2,12812812812813","4,87187187187187","-28,1281281281281","-1,6996996996997","-2,1001001001001","-2,16916916916917"
"1285","-2,12812812812813","4,87187187187187","-28,1281281281281","-0,6996996996997","-1,1001001001001","1,83083083083083"
"1297","-2,12812812812813","5,87187187187187","-28,1281281281281","-0,6996996996997","-1,1001001001001","1,83083083083083"
"1297","-2,12812812812813","5,87187187187187","-28,1281281281281","1,3003003003003","1,8998998998999","-0,169169169169169"
"1305","-0,128128128128128","6,87187187187187","-27,1281281281281","1,3003003003003","1,8998998998999","-0,169169169169169"
"1306","-0,128128128128128","6,87187187187187","-27,1281281281281","-0,6996996996997","-0,1001001001001","1,83083083083083"
"1314","-1,12812812812813","4,87187187187187","-26,1281281281281","-0,6996996996997","-0,1001001001001","1,83083083083083"
"1318","-1,12812812812813","4,87187187187187","-26,1281281281281","0,3003003003003","1,8998998998999","0,830830830830831"
"1326","-1,12812812812813","3,87187187187187","-26,1281281281281","0,3003003003003","1,8998998998999","0,830830830830831"
"1326","-1,12812812812813","3,87187187187187","-26,1281281281281","0,3003003003003","-0,1001001001001","-0,169169169169169"
"1334","-1,12812812812813","3,87187187187187","-26,1281281281281","0,3003003003003","-0,1001001001001","-0,169169169169169"
"1338","-1,12812812812813","3,87187187187187","-26,1281281281281","3,3003003003003","0,8998998998999","-2,16916916916917"
"1346","-1,12812812812813","5,87187187187187","-27,1281281281281","3,3003003003003","0,8998998998999","-2,16916916916917"
"1347","-1,12812812812813","5,87187187187187","-27,1281281281281","1,3003003003003","-1,1001001001001","1,83083083083083"
"1355","-1,12812812812813","3,87187187187187","-26,1281281281281","1,3003003003003","-1,1001001001001","1,83083083083083"
"1355","-1,12812812812813","3,87187187187187","-26,1281281281281","-0,6996996996997","-1,1001001001001","0,830830830830831"
"1367","-0,128128128128128","2,87187187187187","-26,1281281281281","-0,6996996996997","-1,1001001001001","0,830830830830831"
"1367","-0,128128128128128","2,87187187187187","-26,1281281281281","4,3003003003003","-1,1001001001001","0,830830830830831"
"1375","-0,128128128128128","4,87187187187187","-24,1281281281281","4,3003003003003","-1,1001001001001","0,830830830830831"
"1375","-0,128128128128128","4,87187187187187","-24,1281281281281","2,3003003003003","-2,1001001001001","0,830830830830831"
"1383","-1,12812812812813","5,87187187187187","-26,1281281281281","2,3003003003003","-2,1001001001001","0,830830830830831"
"1387","-1,12812812812813","5,87187187187187","-26,1281281281281","2,3003003003003","-0,1001001001001","-1,16916916916917"
"1395","-1,12812812812813","5,87187187187187","-27,1281281281281","2,3003003003003","-0,1001001001001","-1,16916916916917"
"1396","-1,12812812812813","5,87187187187187","-27,1281281281281","-3,6996996996997","1,8998998998999","0,830830830830831"
"1404","2,87187187187187","3,87187187187187","-27,1281281281281","-3,6996996996997","1,8998998998999","0,830830830830831"
"1408","2,87187187187187","3,87187187187187","-27,1281281281281","-1,6996996996997","0,8998998998999","-0,169169169169169"
"1416","-0,128128128128128","6,87187187187187","-26,1281281281281","-1,6996996996997","0,8998998998999","-0,169169169169169"
"1416","-0,128128128128128","6,87187187187187","-26,1281281281281","1,3003003003003","-1,1001001001001","-0,169169169169169"
"1424","0,871871871871872","3,87187187187187","-27,1281281281281","1,3003003003003","-1,1001001001001","-0,169169169169169"
"1424","0,871871871871872","3,87187187187187","-27,1281281281281","2,3003003003003","0,8998998998999","1,83083083083083"
"1437","0,871871871871872","2,87187187187187","-26,1281281281281","2,3003003003003","0,8998998998999","1,83083083083083"
"1437","0,871871871871872","2,87187187187187","-26,1281281281281","-2,6996996996997","-1,1001001001001","-2,16916916916917"
"1445","-2,12812812812813","3,87187187187187","-27,1281281281281","-2,6996996996997","-1,1001001001001","-2,16916916916917"
"1445","-2,12812812812813","3,87187187187187","-27,1281281281281","0,3003003003003","-0,1001001001001","-0,169169169169169"
"1457","-1,12812812812813","5,87187187187187","-26,1281281281281","0,3003003003003","-0,1001001001001","-0,169169169169169"
"1457","-1,12812812812813","5,87187187187187","-26,1281281281281","3,3003003003003","1,8998998998999","-0,169169169169169"
"1465","-0,128128128128128","4,87187187187187","-28,1281281281281","3,3003003003003","1,8998998998999","-0,169169169169169"
"1465","-0,128128128128128","4,87187187187187","-28,1281281281281","-2,6996996996997","1,8998998998999","-2,16916916916917"
"1473","2,87187187187187","2,87187187187187","-24,1281281281281","-2,6996996996997","1,8998998998999","-2,16916916916917"
"1477","2,87187187187187","2,87187187187187","-24,1281281281281","-0,6996996996997","0,8998998998999","1,83083083083083"
"1486","-0,128128128128128","3,87187187187187","-25,1281281281281","-0,6996996996997","0,8998998998999","1,83083083083083"
"1486","-0,128128128128128","3,87187187187187","-25,1281281281281","3,3003003003003","-2,1001001001001","-0,169169169169169"
"1494","-0,128128128128128","7,87187187187187","-27,1281281281281","3,3003003003003","-2,1001001001001","-0,169169169169169"
"1498","-0,128128128128128","7,87187187187187","-27,1281281281281","4,3003003003003","-1,1001001001001","-0,169169169169169"
"1506","-0,128128128128128","4,87187187187187","-27,1281281281281","4,3003003003003","-1,1001001001001","-0,169169169169169"
"1506","-0,128128128128128","4,87187187187187","-27,1281281281281","4,3003003003003","-1,1001001001001","-0,169169169169169"
"1514","-1,12812812812813","2,87187187187187","-25,1281281281281","4,3003003003003","-1,1001001001001","-0,169169169169169"
"1515","-1,12812812812813","2,87187187187187","-25,1281281281281","1,3003003003003","0,8998998998999","-1,16916916916917"
"1527","-0,128128128128128","5,87187187187187","-30,1281281281281","1,3003003003003","0,8998998998999","-1,16916916916917"
"1527","-0,128128128128128","5,87187187187187","-30,1281281281281","4,3003003003003","-1,1001001001001","-1,16916916916917"
"1535","1,87187187187187","4,87187187187187","-28,1281281281281","4,3003003003003","-1,1001001001001","-1,16916916916917"
"1535","1,87187187187187","4,87187187187187","-28,1281281281281","4,3003003003003","-2,1001001001001","-1,16916916916917"
"1547","0,871871871871872","4,87187187187187","-26,1281281281281","4,3003003003003","-2,1001001001001","-1,16916916916917"
"1547","0,871871871871872","4,87187187187187","-26,1281281281281","2,3003003003003","0,8998998998999","-0,169169169169169"
"1556","-1,12812812812813","3,87187187187187","-26,1281281281281","2,3003003003003","0,8998998998999","-0,169169169169169"
"1556","-1,12812812812813","3,87187187187187","-26,1281281281281","4,3003003003003","-1,1001001001001","-2,16916916916917"
"1563","-1,12812812812813","5,87187187187187","-26,1281281281281","4,3003003003003","-1,1001001001001","-2,16916916916917"
"1568","-1,12812812812813","5,87187187187187","-26,1281281281281","0,3003003003003","-1,1001001001001","-0,169169169169169"
"1576","-0,128128128128128","4,87187187187187","-27,1281281281281","0,3003003003003","-1,1001001001001","-0,169169169169169"
"1576","-0,128128128128128","4,87187187187187","-27,1281281281281","2,3003003003003","-1,1001001001001","0,830830830830831"
"1584","-0,128128128128128","5,87187187187187","-24,1281281281281","2,3003003003003","-1,1001001001001","0,830830830830831"
"1588","-0,128128128128128","5,87187187187187","-24,1281281281281","-4,6996996996997","0,8998998998999","1,83083083083083"
"1596","-1,12812812812813","3,87187187187187","-29,1281281281281","-4,6996996996997","0,8998998998999","1,83083083083083"
"1596","-1,12812812812813","3,87187187187187","-29,1281281281281","-0,6996996996997","1,8998998998999","0,830830830830831"
"1604","1,87187187187187","3,87187187187187","-24,1281281281281","-0,6996996996997","1,8998998998999","0,830830830830831"
"1605","1,87187187187187","3,87187187187187","-24,1281281281281","-2,6996996996997","-0,1001001001001","-1,16916916916917"
"1617","-2,12812812812813","3,87187187187187","-25,1281281281281","-2,6996996996997","-0,1001001001001","-1,16916916916917"
"1617","-2,12812812812813","3,87187187187187","-25,1281281281281","-2,6996996996997","1,8998998998999","-1,16916916916917"
"1625","-0,128128128128128","5,87187187187187","-27,1281281281281","-2,6996996996997","1,8998998998999","-1,16916916916917"
"1625","-0,128128128128128","5,87187187187187","-27,1281281281281","-1,6996996996997","-0,1001001001001","-0,169169169169169"
"1637","-1,12812812812813","4,87187187187187","-27,1281281281281","-1,6996996996997","-0,1001001001001","-0,169169169169169"
"1637","-1,12812812812813","4,87187187187187","-27,1281281281281","-2,6996996996997","3,8998998998999","0,830830830830831"
"1645","-0,128128128128128","3,87187187187187","-28,1281281281281","-2,6996996996997","3,8998998998999","0,830830830830831"
"1646","-0,128128128128128","3,87187187187187","-28,1281281281281","-1,6996996996997","0,8998998998999","-0,169169169169169"
"1654","0,871871871871872","6,87187187187187","-26,1281281281281","-1,6996996996997","0,8998998998999","-0,169169169169169"
"1658","0,871871871871872","6,87187187187187","-26,1281281281281","1,3003003003003","-1,1001001001001","-0,169169169169169"
"1666","-1,12812812812813","3,87187187187187","-27,1281281281281","1,3003003003003","-1,1001001001001","-0,169169169169169"
"1666","-1,12812812812813","3,87187187187187","-27,1281281281281","0,3003003003003","1,8998998998999","-0,169169169169169"
"1674","-0,128128128128128","2,87187187187187","-25,1281281281281","0,3003003003003","1,8998998998999","-0,169169169169169"
"1678","-0,128128128128128","2,87187187187187","-25,1281281281281","0,3003003003003","0,8998998998999","-2,16916916916917"
"1686","-0,128128128128128","4,87187187187187","-26,1281281281281","0,3003003003003","0,8998998998999","-2,16916916916917"
"1687","-0,128128128128128","4,87187187187187","-26,1281281281281","-2,6996996996997","-3,1001001001001","-1,16916916916917"
"1694","-0,128128128128128","5,87187187187187","-30,1281281281281","-2,6996996996997","-3,1001001001001","-1,16916916916917"
"1695","-0,128128128128128","5,87187187187187","-30,1281281281281","0,3003003003003","-2,1001001001001","-0,169169169169169"
"1707","-0,128128128128128","4,87187187187187","-27,1281281281281","0,3003003003003","-2,1001001001001","-0,169169169169169"
"1707","-0,128128128128128","4,87187187187187","-27,1281281281281","-0,6996996996997","-2,1001001001001","-0,169169169169169"
"1715","-2,12812812812813","3,87187187187187","-26,1281281281281","-0,6996996996997","-2,1001001001001","-0,169169169169169"
"1715","-2,12812812812813","3,87187187187187","-26,1281281281281","-2,6996996996997","0,8998998998999","-1,16916916916917"
"1727","-1,12812812812813","7,87187187187187","-26,1281281281281","-2,6996996996997","0,8998998998999","-1,16916916916917"
"1727","-1,12812812812813","7,87187187187187","-26,1281281281281","0,3003003003003","0,8998998998999","0,830830830830831"
"1736","-0,128128128128128","7,87187187187187","-27,1281281281281","0,3003003003003","0,8998998998999","0,830830830830831"
"1736","-0,128128128128128","7,87187187187187","-27,1281281281281","4,3003003003003","0,8998998998999","0,830830830830831"
"1744","-0,128128128128128","2,87187187187187","-27,1281281281281","4,3003003003003","0,8998998998999","0,830830830830831"
"1748","-0,128128128128128","2,87187187187187","-27,1281281281281","-2,6996996996997","-0,1001001001001","-1,16916916916917"
"1756","-1,12812812812813","1,87187187187187","-27,1281281281281","-2,6996996996997","-0,1001001001001","-1,16916916916917"
"1756","-1,12812812812813","1,87187187187187","-27,1281281281281","2,3003003003003","-3,1001001001001","0,830830830830831"
"1764","-0,128128128128128","8,87187187187187","-27,1281281281281","2,3003003003003","-3,1001001001001","0,830830830830831"
"1764","-0,128128128128128","8,87187187187187","-27,1281281281281","2,3003003003003","-0,1001001001001","0,830830830830831"
"1777","-0,128128128128128","5,87187187187187","-26,1281281281281","2,3003003003003","-0,1001001001001","0,830830830830831"
"1777","-0,128128128128128","5,87187187187187","-26,1281281281281","-0,6996996996997","-0,1001001001001","0,830830830830831"
"1785","-0,128128128128128","1,87187187187187","-25,1281281281281","-0,6996996996997","-0,1001001001001","0,830830830830831"
"1785","-0,128128128128128","1,87187187187187","-25,1281281281281","-2,6996996996997","2,8998998998999","1,83083083083083"
"1797","-3,12812812812813","6,87187187187187","-28,1281281281281","-2,6996996996997","2,8998998998999","1,83083083083083"
"1797","-3,12812812812813","6,87187187187187","-28,1281281281281","-2,6996996996997","0,8998998998999","0,830830830830831"
"1805","-1,12812812812813","6,87187187187187","-28,1281281281281","-2,6996996996997","0,8998998998999","0,830830830830831"
"1805","-1,12812812812813","6,87187187187187","-28,1281281281281","1,3003003003003","0,8998998998999","1,83083083083083"
"1817","-1,12812812812813","4,87187187187187","-26,1281281281281","1,3003003003003","0,8998998998999","1,83083083083083"
"1817","-1,12812812812813","4,87187187187187","-26,1281281281281","-2,6996996996997","-0,1001001001001","0,830830830830831"
"1826","-0,128128128128128","2,87187187187187","-24,1281281281281","-2,6996996996997","-0,1001001001001","0,830830830830831"
"1826","-0,128128128128128","2,87187187187187","-24,1281281281281","-1,6996996996997","-2,1001001001001","-0,169169169169169"
"1834","-1,12812812812813","6,87187187187187","-29,1281281281281","-1,6996996996997","-2,1001001001001","-0,169169169169169"
"1838","-1,12812812812813","6,87187187187187","-29,1281281281281","-1,6996996996997","-1,1001001001001","-1,16916916916917"
"1846","0,871871871871872","4,87187187187187","-28,1281281281281","-1,6996996996997","-1,1001001001001","-1,16916916916917"
"1846","0,871871871871872","4,87187187187187","-28,1281281281281","0,3003003003003","-0,1001001001001","-1,16916916916917"
"1854","-2,12812812812813","3,87187187187187","-29,1281281281281","0,3003003003003","-0,1001001001001","-1,16916916916917"
"1854","-2,12812812812813","3,87187187187187","-29,1281281281281","-2,6996996996997","0,8998998998999","-0,169169169169169"
"1867","0,871871871871872","4,87187187187187","-28,1281281281281","-2,6996996996997","0,8998998998999","-0,169169169169169"
"1867","0,871871871871872","4,87187187187187","-28,1281281281281","-0,6996996996997","-2,1001001001001","-0,169169169169169"
"1875","-1,12812812812813","6,87187187187187","-26,1281281281281","-0,6996996996997","-2,1001001001001","-0,169169169169169"
"1875","-1,12812812812813","6,87187187187187","-26,1281281281281","1,3003003003003","-2,1001001001001","-0,169169169169169"
"1887","-1,12812812812813","3,87187187187187","-29,1281281281281","1,3003003003003","-2,1001001001001","-0,169169169169169"
"1887","-1,12812812812813","3,87187187187187","-29,1281281281281","0,3003003003003","-3,1001001001001","0,830830830830831"
"1895","1,87187187187187","4,87187187187187","-27,1281281281281","0,3003003003003","-3,1001001001001","0,830830830830831"
"1895","1,87187187187187","4,87187187187187","-27,1281281281281","-0,6996996996997","-2,1001001001001","-0,169169169169169"
"1903","-0,128128128128128","3,87187187187187","-26,1281281281281","-0,6996996996997","-2,1001001001001","-0,169169169169169"
"1908","-0,128128128128128","3,87187187187187","-26,1281281281281","0,3003003003003","0,8998998998999","0,830830830830831"
"1916","-1,12812812812813","4,87187187187187","-26,1281281281281","0,3003003003003","0,8998998998999","0,830830830830831"
"1916","-1,12812812812813","4,87187187187187","-26,1281281281281","0,3003003003003","2,8998998998999","-1,16916916916917"
"1924","-1,12812812812813","4,87187187187187","-23,1281281281281","0,3003003003003","2,8998998998999","-1,16916916916917"
"1928","-1,12812812812813","4,87187187187187","-23,1281281281281","-0,6996996996997","-0,1001001001001","-0,169169169169169"
"1936","-2,12812812812813","4,87187187187187","-26,1281281281281","-0,6996996996997","-0,1001001001001","-0,169169169169169"
"1936","-2,12812812812813","4,87187187187187","-26,1281281281281","1,3003003003003","-0,1001001001001","-1,16916916916917"
"1944","0,871871871871872","5,87187187187187","-26,1281281281281","1,3003003003003","-0,1001001001001","-1,16916916916917"
"1945","0,871871871871872","5,87187187187187","-26,1281281281281","2,3003003003003","0,8998998998999","-0,169169169169169"
"1957","-0,128128128128128","4,87187187187187","-27,1281281281281","2,3003003003003","0,8998998998999","-0,169169169169169"
"1957","-0,128128128128128","4,87187187187187","-27,1281281281281","-1,6996996996997","-0,1001001001001","0,830830830830831"
"1965","-0,128128128128128","5,87187187187187","-27,1281281281281","-1,6996996996997","-0,1001001001001","0,830830830830831"
"1965","-0,128128128128128","5,87187187187187","-27,1281281281281","1,3003003003003","0,8998998998999","0,830830830830831"
"1977","1,87187187187187","6,87187187187187","-27,1281281281281","1,3003003003003","0,8998998998999","0,830830830830831"
"1977","1,87187187187187","6,87187187187187","-27,1281281281281","0,3003003003003","-1,1001001001001","1,83083083083083"
"1985","0,871871871871872","3,87187187187187","-24,1281281281281","0,3003003003003","-1,1001001001001","1,83083083083083"
"1986","0,871871871871872","3,87187187187187","-24,1281281281281","0,3003003003003","-1,1001001001001","0,830830830830831"
"1994","-3,12812812812813","2,87187187187187","-26,1281281281281","0,3003003003003","-1,1001001001001","0,830830830830831"
"1998","-3,12812812812813","2,87187187187187","-26,1281281281281","-2,6996996996997","-2,1001001001001","0,830830830830831"
"2006","0,871871871871872","5,87187187187187","-27,1281281281281","-2,6996996996997","-2,1001001001001","0,830830830830831"
"2006","0,871871871871872","5,87187187187187","-27,1281281281281","-3,6996996996997","-2,1001001001001","-0,169169169169169"
"2014","0,871871871871872","3,87187187187187","-26,1281281281281","-3,6996996996997","-2,1001001001001","-0,169169169169169"
"2018","0,871871871871872","3,87187187187187","-26,1281281281281","2,3003003003003","-2,1001001001001","1,83083083083083"
"2026","-0,128128128128128","6,87187187187187","-25,1281281281281","2,3003003003003","-2,1001001001001","1,83083083083083"
"2027","-0,128128128128128","6,87187187187187","-25,1281281281281","-0,6996996996997","0,8998998998999","0,830830830830831"
"2035","0,871871871871872","4,87187187187187","-29,1281281281281","-0,6996996996997","0,8998998998999","0,830830830830831"
"2035","0,871871871871872","4,87187187187187","-29,1281281281281","-2,6996996996997","0,8998998998999","1,83083083083083"
"2047","-2,12812812812813","3,87187187187187","-27,1281281281281","-2,6996996996997","0,8998998998999","1,83083083083083"
"2047","-2,12812812812813","3,87187187187187","-27,1281281281281","-0,6996996996997","-0,1001001001001","0,830830830830831"
"2055","-2,12812812812813","6,87187187187187","-28,1281281281281","-0,6996996996997","-0,1001001001001","0,830830830830831"
"2055","-2,12812812812813","6,87187187187187","-28,1281281281281","0,3003003003003","-0,1001001001001","-0,169169169169169"
"2067","-1,12812812812813","3,87187187187187","-26,1281281281281","0,3003003003003","-0,1001001001001","-0,169169169169169"
"2067","-1,12812812812813","3,87187187187187","-26,1281281281281","0,3003003003003","-0,1001001001001","-1,16916916916917"
"2076","0,871871871871872","5,87187187187187","-27,1281281281281","0,3003003003003","-0,1001001001001","-1,16916916916917"
"2076","0,871871871871872","5,87187187187187","-27,1281281281281","-1,6996996996997","0,8998998998999","-0,169169169169169"
"2088","-1,12812812812813","3,87187187187187","-26,1281281281281","-1,6996996996997","0,8998998998999","-0,169169169169169"
"2088","-1,12812812812813","3,87187187187187","-26,1281281281281","-1,6996996996997","-1,1001001001001","-0,169169169169169"
"2096","-2,12812812812813","3,87187187187187","-28,1281281281281","-1,6996996996997","-1,1001001001001","-0,169169169169169"
"2096","-2,12812812812813","3,87187187187187","-28,1281281281281","-0,6996996996997","-2,1001001001001","0,830830830830831"
"2104","-1,12812812812813","6,87187187187187","-28,1281281281281","-0,6996996996997","-2,1001001001001","0,830830830830831"
"2108","-1,12812812812813","6,87187187187187","-28,1281281281281","0,3003003003003","-0,1001001001001","1,83083083083083"
"2116","-1,12812812812813","3,87187187187187","-26,1281281281281","0,3003003003003","-0,1001001001001","1,83083083083083"
"2116","-1,12812812812813","3,87187187187187","-26,1281281281281","-3,6996996996997","2,8998998998999","0,830830830830831"
"2125","-0,128128128128128","1,87187187187187","-24,1281281281281","-3,6996996996997","2,8998998998999","0,830830830830831"
"2129","-0,128128128128128","1,87187187187187","-24,1281281281281","0,3003003003003","0,8998998998999","0,830830830830831"
"2137","-0,128128128128128","9,87187187187187","-28,1281281281281","0,3003003003003","0,8998998998999","0,830830830830831"
"2137","-0,128128128128128","9,87187187187187","-28,1281281281281","-0,6996996996997","-0,1001001001001","-1,16916916916917"
"2145","0,871871871871872","5,87187187187187","-27,1281281281281","-0,6996996996997","-0,1001001001001","-1,16916916916917"
"2145","0,871871871871872","5,87187187187187","-27,1281281281281","2,3003003003003","-0,1001001001001","-2,16916916916917"
"2157","2,87187187187187","0,871871871871872","-26,1281281281281","2,3003003003003","-0,1001001001001","-2,16916916916917"
"2158","2,87187187187187","0,871871871871872","-26,1281281281281","0,3003003003003","-2,1001001001001","-1,16916916916917"
"2166","-3,12812812812813","3,87187187187187","-25,1281281281281","0,3003003003003","-2,1001001001001","-1,16916916916917"
"2166","-3,12812812812813","3,87187187187187","-25,1281281281281","-1,6996996996997","1,8998998998999","0,830830830830831"
"2178","0,871871871871872","7,87187187187187","-27,1281281281281","-1,6996996996997","1,8998998998999","0,830830830830831"
"2178","0,871871871871872","7,87187187187187","-27,1281281281281","0,3003003003003","-1,1001001001001","-0,169169169169169"
"2186","-1,12812812812813","2,87187187187187","-25,1281281281281","0,3003003003003","-1,1001001001001","-0,169169169169169"
"2186","-1,12812812812813","2,87187187187187","-25,1281281281281","-5,6996996996997","0,8998998998999","-0,169169169169169"
"2194","-1,12812812812813","2,87187187187187","-26,1281281281281","-5,6996996996997","0,8998998998999","-0,169169169169169"
"2198","-1,12812812812813","2,87187187187187","-26,1281281281281","1,3003003003003","0,8998998998999","-3,16916916916917"
"2207","-1,12812812812813","5,87187187187187","-26,1281281281281","1,3003003003003","0,8998998998999","-3,16916916916917"
"2207","-1,12812812812813","5,87187187187187","-26,1281281281281","3,3003003003003","-0,1001001001001","0,830830830830831"
"2215","0,871871871871872","4,87187187187187","-28,1281281281281","3,3003003003003","-0,1001001001001","0,830830830830831"
"2219","0,871871871871872","4,87187187187187","-28,1281281281281","1,3003003003003","-2,1001001001001","1,83083083083083"
"2227","0,871871871871872","1,87187187187187","-25,1281281281281","1,3003003003003","-2,1001001001001","1,83083083083083"
"2227","0,871871871871872","1,87187187187187","-25,1281281281281","1,3003003003003","-1,1001001001001","1,83083083083083"
"2235","-1,12812812812813","4,87187187187187","-27,1281281281281","1,3003003003003","-1,1001001001001","1,83083083083083"
"2235","-1,12812812812813","4,87187187187187","-27,1281281281281","-0,6996996996997","1,8998998998999","-0,169169169169169"
"2248","-1,12812812812813","8,87187187187187","-28,1281281281281","-0,6996996996997","1,8998998998999","-0,169169169169169"
"2248","-1,12812812812813","8,87187187187187","-28,1281281281281","2,3003003003003","-0,1001001001001","1,83083083083083"
"2256","-1,12812812812813","3,87187187187187","-28,1281281281281","2,3003003003003","-0,1001001001001","1,83083083083083"
"2256","-1,12812812812813","3,87187187187187","-28,1281281281281","-2,6996996996997","1,8998998998999","-0,169169169169169"
"2268","0,871871871871872","2,87187187187187","-24,1281281281281","-2,6996996996997","1,8998998998999","-0,169169169169169"
"2268","0,871871871871872","2,87187187187187","-24,1281281281281","-2,6996996996997","-0,1001001001001","-0,169169169169169"
"2276","-1,12812812812813","5,87187187187187","-26,1281281281281","-2,6996996996997","-0,1001001001001","-0,169169169169169"
"2276","-1,12812812812813","5,87187187187187","-26,1281281281281","1,3003003003003","-1,1001001001001","-0,169169169169169"
"2284","-1,12812812812813","6,87187187187187","-26,1281281281281","1,3003003003003","-1,1001001001001","-0,169169169169169"
"2288","-1,12812812812813","6,87187187187187","-26,1281281281281","1,3003003003003","1,8998998998999","1,83083083083083"
"2297","-1,12812812812813","3,87187187187187","-28,1281281281281","1,3003003003003","1,8998998998999","1,83083083083083"
"2297","-1,12812812812813","3,87187187187187","-28,1281281281281","-2,6996996996997","-0,1001001001001","0,830830830830831"
"2305","-1,12812812812813","3,87187187187187","-29,1281281281281","-2,6996996996997","-0,1001001001001","0,830830830830831"
"2309","-1,12812812812813","3,87187187187187","-29,1281281281281","2,3003003003003","-1,1001001001001","1,83083083083083"
"2317","-0,128128128128128","6,87187187187187","-27,1281281281281","2,3003003003003","-1,1001001001001","1,83083083083083"
"2317","-0,128128128128128","6,87187187187187","-27,1281281281281","2,3003003003003","0,8998998998999","-0,169169169169169"
"2325","1,87187187187187","4,87187187187187","-26,1281281281281","2,3003003003003","0,8998998998999","-0,169169169169169"
"2326","1,87187187187187","4,87187187187187","-26,1281281281281","-1,6996996996997","0,8998998998999","-1,16916916916917"
"2338","-1,12812812812813","4,87187187187187","-27,1281281281281","-1,6996996996997","0,8998998998999","-1,16916916916917"
"2338","-1,12812812812813","4,87187187187187","-27,1281281281281","-2,6996996996997","0,8998998998999","-0,169169169169169"
"2346","-2,12812812812813","4,87187187187187","-28,1281281281281","-2,6996996996997","0,8998998998999","-0,169169169169169"
"2346","-2,12812812812813","4,87187187187187","-28,1281281281281","0,3003003003003","-2,1001001001001","-1,16916916916917"
"2358","-2,12812812812813","4,87187187187187","-27,1281281281281","0,3003003003003","-2,1001001001001","-1,16916916916917"
"2358","-2,12812812812813","4,87187187187187","-27,1281281281281","-1,6996996996997","-0,1001001001001","0,830830830830831"
"2366","-1,12812812812813","4,87187187187187","-26,1281281281281","-1,6996996996997","-0,1001001001001","0,830830830830831"
"2366","-1,12812812812813","4,87187187187187","-26,1281281281281","-0,6996996996997","1,8998998998999","-2,16916916916917"
"2374","-0,128128128128128","5,87187187187187","-24,1281281281281","-0,6996996996997","1,8998998998999","-2,16916916916917"
"2378","-0,128128128128128","5,87187187187187","-24,1281281281281","-0,6996996996997","-1,1001001001001","0,830830830830831"
"2387","-0,128128128128128","5,87187187187187","-29,1281281281281","-0,6996996996997","-1,1001001001001","0,830830830830831"
"2387","-0,128128128128128","5,87187187187187","-29,1281281281281","2,3003003003003","-0,1001001001001","-1,16916916916917"
"2395","0,871871871871872","4,87187187187187","-28,1281281281281","2,3003003003003","-0,1001001001001","-1,16916916916917"
"2399","0,871871871871872","4,87187187187187","-28,1281281281281","-2,6996996996997","1,8998998998999","1,83083083083083"
"2407","-0,128128128128128","5,87187187187187","-26,1281281281281","-2,6996996996997","1,8998998998999","1,83083083083083"
"2408","-0,128128128128128","5,87187187187187","-26,1281281281281","-1,6996996996997","-2,1001001001001","-2,16916916916917"
"2415","1,87187187187187","4,87187187187187","-28,1281281281281","-1,6996996996997","-2,1001001001001","-2,16916916916917"
"2419","1,87187187187187","4,87187187187187","-28,1281281281281","0,3003003003003","-2,1001001001001","1,83083083083083"
"2428","0,871871871871872","3,87187187187187","-26,1281281281281","0,3003003003003","-2,1001001001001","1,83083083083083"
"2428","0,871871871871872","3,87187187187187","-26,1281281281281","0,3003003003003","1,8998998998999","1,83083083083083"
"2436","-2,12812812812813","3,87187187187187","-26,1281281281281","0,3003003003003","1,8998998998999","1,83083083083083"
"2436","-2,12812812812813","3,87187187187187","-26,1281281281281","3,3003003003003","-0,1001001001001","-0,169169169169169"
"2448","-2,12812812812813","6,87187187187187","-27,1281281281281","3,3003003003003","-0,1001001001001","-0,169169169169169"
"2448","-2,12812812812813","6,87187187187187","-27,1281281281281","3,3003003003003","-0,1001001001001","1,83083083083083"
"2457","-0,128128128128128","5,87187187187187","-25,1281281281281","3,3003003003003","-0,1001001001001","1,83083083083083"
"2457","-0,128128128128128","5,87187187187187","-25,1281281281281","0,3003003003003","-1,1001001001001","-0,169169169169169"
"2469","0,871871871871872","1,87187187187187","-26,1281281281281","0,3003003003003","-1,1001001001001","-0,169169169169169"
"2469","0,871871871871872","1,87187187187187","-26,1281281281281","-1,6996996996997","-2,1001001001001","1,83083083083083"
"2477","-1,12812812812813","4,87187187187187","-25,1281281281281","-1,6996996996997","-2,1001001001001","1,83083083083083"
"2477","-1,12812812812813","4,87187187187187","-25,1281281281281","-0,6996996996997","-1,1001001001001","0,830830830830831"
"2485","1,87187187187187","8,87187187187187","-28,1281281281281","-0,6996996996997","-1,1001001001001","0,830830830830831"
"2489","1,87187187187187","8,87187187187187","-28,1281281281281","-0,6996996996997","-1,1001001001001","-2,16916916916917"
"2497","-0,128128128128128","3,87187187187187","-28,1281281281281","-0,6996996996997","-1,1001001001001","-2,16916916916917"
"2498","-0,128128128128128","3,87187187187187","-28,1281281281281","-0,6996996996997","0,8998998998999","-0,169169169169169"
"2506","-1,12812812812813","3,87187187187187","-29,1281281281281","-0,6996996996997","0,8998998998999","-0,169169169169169"
"2510","-1,12812812812813","3,87187187187187","-29,1281281281281","-0,6996996996997","-0,1001001001001","-0,169169169169169"
"2518","-0,128128128128128","6,87187187187187","-29,1281281281281","-0,6996996996997","-0,1001001001001","-0,169169169169169"
"2518","-0,128128128128128","6,87187187187187","-29,1281281281281","1,3003003003003","-1,1001001001001","1,83083083083083"
"2526","-0,128128128128128","3,87187187187187","-27,1281281281281","1,3003003003003","-1,1001001001001","1,83083083083083"
"2526","-0,128128128128128","3,87187187187187","-27,1281281281281","-1,6996996996997","-2,1001001001001","0,830830830830831"
"2538","-0,128128128128128","3,87187187187187","-21,1281281281281","-1,6996996996997","-2,1001001001001","0,830830830830831"
"2538","-0,128128128128128","3,87187187187187","-21,1281281281281","-2,6996996996997","-0,1001001001001","-0,169169169169169"
"2547","-2,12812812812813","5,87187187187187","-30,1281281281281","-2,6996996996997","-0,1001001001001","-0,169169169169169"
"2547","-2,12812812812813","5,87187187187187","-30,1281281281281","2,3003003003003","-1,1001001001001","1,83083083083083"
"2559","-0,128128128128128","7,87187187187187","-29,1281281281281","2,3003003003003","-1,1001001001001","1,83083083083083"
"2559","-0,128128128128128","7,87187187187187","-29,1281281281281","3,3003003003003","-2,1001001001001","0,830830830830831"
"2567","-0,128128128128128","3,87187187187187","-28,1281281281281","3,3003003003003","-2,1001001001001","0,830830830830831"
"2567","-0,128128128128128","3,87187187187187","-28,1281281281281","0,3003003003003","-0,1001001001001","-1,16916916916917"
"2575","0,871871871871872","5,87187187187187","-28,1281281281281","0,3003003003003","-0,1001001001001","-1,16916916916917"
"2579","0,871871871871872","5,87187187187187","-28,1281281281281","1,3003003003003","0,8998998998999","0,830830830830831"
"2588","-1,12812812812813","5,87187187187187","-28,1281281281281","1,3003003003003","0,8998998998999","0,830830830830831"
"2588","-1,12812812812813","5,87187187187187","-28,1281281281281","4,3003003003003","-0,1001001001001","-1,16916916916917"
"2596","-0,128128128128128","3,87187187187187","-26,1281281281281","4,3003003003003","-0,1001001001001","-1,16916916916917"
"2600","-0,128128128128128","3,87187187187187","-26,1281281281281","0,3003003003003","-1,1001001001001","-2,16916916916917"
"2608","-1,12812812812813","1,87187187187187","-24,1281281281281","0,3003003003003","-1,1001001001001","-2,16916916916917"
"2608","-1,12812812812813","1,87187187187187","-24,1281281281281","1,3003003003003","0,8998998998999","1,83083083083083"
"2616","0,871871871871872","6,87187187187187","-26,1281281281281","1,3003003003003","0,8998998998999","1,83083083083083"
"2616","0,871871871871872","6,87187187187187","-26,1281281281281","-0,6996996996997","0,8998998998999","-0,169169169169169"
"2628","0,871871871871872","3,87187187187187","-25,1281281281281","-0,6996996996997","0,8998998998999","-0,169169169169169"
"2629","0,871871871871872","3,87187187187187","-25,1281281281281","-2,6996996996997","-0,1001001001001","0,830830830830831"
"2637","-1,12812812812813","3,87187187187187","-26,1281281281281","-2,6996996996997","-0,1001001001001","0,830830830830831"
"2637","-1,12812812812813","3,87187187187187","-26,1281281281281","2,3003003003003","0,8998998998999","-0,169169169169169"
"2649","-1,12812812812813","5,87187187187187","-27,1281281281281","2,3003003003003","0,8998998998999","-0,169169169169169"
"2649","-1,12812812812813","5,87187187187187","-27,1281281281281","-0,6996996996997","1,8998998998999","0,830830830830831"
"2657","0,871871871871872","6,87187187187187","-26,1281281281281","-0,6996996996997","1,8998998998999","0,830830830830831"
"2657","0,871871871871872","6,87187187187187","-26,1281281281281","-0,6996996996997","-1,1001001001001","-1,16916916916917"
"2669","0,871871871871872","4,87187187187187","-27,1281281281281","-0,6996996996997","-1,1001001001001","-1,16916916916917"
"2669","0,871871871871872","4,87187187187187","-27,1281281281281","-1,6996996996997","-0,1001001001001","0,830830830830831"
"2678","-1,12812812812813","5,87187187187187","-23,1281281281281","-1,6996996996997","-0,1001001001001","0,830830830830831"
"2678","-1,12812812812813","5,87187187187187","-23,1281281281281","-0,6996996996997","2,8998998998999","-0,169169169169169"
"2686","-1,12812812812813","7,87187187187187","-24,1281281281281","-0,6996996996997","2,8998998998999","-0,169169169169169"
"2690","-1,12812812812813","7,87187187187187","-24,1281281281281","2,3003003003003","-1,1001001001001","-0,169169169169169"
"2698","-1,12812812812813","5,87187187187187","-29,1281281281281","2,3003003003003","-1,1001001001001","-0,169169169169169"
"2698","-1,12812812812813","5,87187187187187","-29,1281281281281","-0,6996996996997","0,8998998998999","1,83083083083083"
"2706","-0,128128128128128","0,871871871871872","-25,1281281281281","-0,6996996996997","0,8998998998999","1,83083083083083"
"2707","-0,128128128128128","0,871871871871872","-25,1281281281281","1,3003003003003","0,8998998998999","-0,169169169169169"
"2719","-2,12812812812813","8,87187187187187","-28,1281281281281","1,3003003003003","0,8998998998999","-0,169169169169169"
"2719","-2,12812812812813","8,87187187187187","-28,1281281281281","1,3003003003003","2,8998998998999","-0,169169169169169"
"2727","-0,128128128128128","8,87187187187187","-28,1281281281281","1,3003003003003","2,8998998998999","-0,169169169169169"
"2727","-0,128128128128128","8,87187187187187","-28,1281281281281","2,3003003003003","0,8998998998999","0,830830830830831"
"2739","-0,128128128128128","1,87187187187187","-27,1281281281281","2,3003003003003","0,8998998998999","0,830830830830831"
"2739","-0,128128128128128","1,87187187187187","-27,1281281281281","1,3003003003003","-0,1001001001001","1,83083083083083"
"2747","-1,12812812812813","4,87187187187187","-25,1281281281281","1,3003003003003","-0,1001001001001","1,83083083083083"
"2747","-1,12812812812813","4,87187187187187","-25,1281281281281","0,3003003003003","0,8998998998999","-1,16916916916917"
"2755","-0,128128128128128","8,87187187187187","-27,1281281281281","0,3003003003003","0,8998998998999","-1,16916916916917"
"2759","-0,128128128128128","8,87187187187187","-27,1281281281281","1,3003003003003","1,8998998998999","1,83083083083083"
"2768","-0,128128128128128","4,87187187187187","-28,1281281281281","1,3003003003003","1,8998998998999","1,83083083083083"
"2768","-0,128128128128128","4,87187187187187","-28,1281281281281","-0,6996996996997","0,8998998998999","0,830830830830831"
"2776","-0,128128128128128","0,871871871871872","-25,1281281281281","-0,6996996996997","0,8998998998999","0,830830830830831"
"2780","-0,128128128128128","0,871871871871872","-25,1281281281281","-2,6996996996997","1,8998998998999","-2,16916916916917"
"2788","-2,12812812812813","6,87187187187187","-26,1281281281281","-2,6996996996997","1,8998998998999","-2,16916916916917"
"2788","-2,12812812812813","6,87187187187187","-26,1281281281281","-0,6996996996997","-1,1001001001001","-0,169169169169169"
"2796","-0,128128128128128","7,87187187187187","-27,1281281281281","-0,6996996996997","-1,1001001001001","-0,169169169169169"
"2797","-0,128128128128128","7,87187187187187","-27,1281281281281","2,3003003003003","0,8998998998999","-2,16916916916917"
"2809","-0,128128128128128","3,87187187187187","-27,1281281281281","2,3003003003003","0,8998998998999","-2,16916916916917"
"2809","-0,128128128128128","3,87187187187187","-27,1281281281281","-2,6996996996997","-1,1001001001001","-3,16916916916917"
"2817","-0,128128128128128","4,87187187187187","-24,1281281281281","-2,6996996996997","-1,1001001001001","-3,16916916916917"
"2817","-0,128128128128128","4,87187187187187","-24,1281281281281","3,3003003003003","-1,1001001001001","-0,169169169169169"
"2829","-0,128128128128128","7,87187187187187","-26,1281281281281","3,3003003003003","-1,1001001001001","-0,169169169169169"
"2829","-0,128128128128128","7,87187187187187","-26,1281281281281","0,3003003003003","-1,1001001001001","-2,16916916916917"
"2837","-0,128128128128128","3,87187187187187","-28,1281281281281","0,3003003003003","-1,1001001001001","-2,16916916916917"
"2837","-0,128128128128128","3,87187187187187","-28,1281281281281","-0,6996996996997","-0,1001001001001","0,830830830830831"
"2849","-0,128128128128128","3,87187187187187","-26,1281281281281","-0,6996996996997","-0,1001001001001","0,830830830830831"
"2850","-0,128128128128128","3,87187187187187","-26,1281281281281","1,3003003003003","-0,1001001001001","0,830830830830831"
"2858","-0,128128128128128","8,87187187187187","-28,1281281281281","1,3003003003003","-0,1001001001001","0,830830830830831"
"2858","-0,128128128128128","8,87187187187187","-28,1281281281281","0,3003003003003","1,8998998998999","-3,16916916916917"
"2866","-0,128128128128128","7,87187187187187","-26,1281281281281","0,3003003003003","1,8998998998999","-3,16916916916917"
"2870","-0,128128128128128","7,87187187187187","-26,1281281281281","2,3003003003003","2,8998998998999","-1,16916916916917"
"2878","-0,128128128128128","3,87187187187187","-27,1281281281281","2,3003003003003","2,8998998998999","-1,16916916916917"
"2879","-0,128128128128128","3,87187187187187","-27,1281281281281","-1,6996996996997","-0,1001001001001","0,830830830830831"
"2887","-0,128128128128128","4,87187187187187","-24,1281281281281","-1,6996996996997","-0,1001001001001","0,830830830830831"
"2890","-0,128128128128128","4,87187187187187","-24,1281281281281","1,3003003003003","0,8998998998999","-1,16916916916917"
"2899","-1,12812812812813","8,87187187187187","-30,1281281281281","1,3003003003003","0,8998998998999","-1,16916916916917"
"2899","-1,12812812812813","8,87187187187187","-30,1281281281281","1,3003003003003","-0,1001001001001","-1,16916916916917"
"2907","0,871871871871872","6,87187187187187","-27,1281281281281","1,3003003003003","-0,1001001001001","-1,16916916916917"
"2907","0,871871871871872","6,87187187187187","-27,1281281281281","2,3003003003003","-0,1001001001001","-1,16916916916917"
"2919","-1,12812812812813","1,87187187187187","-26,1281281281281","2,3003003003003","-0,1001001001001","-1,16916916916917"
"2920","-1,12812812812813","1,87187187187187","-26,1281281281281","0,3003003003003","-2,1001001001001","-1,16916916916917"
"2928","-1,12812812812813","5,87187187187187","-29,1281281281281","0,3003003003003","-2,1001001001001","-1,16916916916917"
"2928","-1,12812812812813","5,87187187187187","-29,1281281281281","3,3003003003003","2,8998998998999","-1,16916916916917"
"2940","-0,128128128128128","5,87187187187187","-27,1281281281281","3,3003003003003","2,8998998998999","-1,16916916916917"
"2940","-0,128128128128128","5,87187187187187","-27,1281281281281","4,3003003003003","0,8998998998999","-1,16916916916917"
"2948","-1,12812812812813","4,87187187187187","-29,1281281281281","4,3003003003003","0,8998998998999","-1,16916916916917"
"2948","-1,12812812812813","4,87187187187187","-29,1281281281281","0,3003003003003","-0,1001001001001","1,83083083083083"
"2956","-0,128128128128128","3,87187187187187","-28,1281281281281","0,3003003003003","-0,1001001001001","1,83083083083083"
"2960","-0,128128128128128","3,87187187187187","-28,1281281281281","5,3003003003003","1,8998998998999","-1,16916916916917"
"2968","-0,128128128128128","5,87187187187187","-28,1281281281281","5,3003003003003","1,8998998998999","-1,16916916916917"
"2969","-0,128128128128128","5,87187187187187","-28,1281281281281","3,3003003003003","0,8998998998999","-2,16916916916917"
"2977","1,87187187187187","6,87187187187187","-24,1281281281281","3,3003003003003","0,8998998998999","-2,16916916916917"
"2981","1,87187187187187","6,87187187187187","-24,1281281281281","1,3003003003003","-1,1001001001001","1,83083083083083"
"2989","1,87187187187187","5,87187187187187","-26,1281281281281","1,3003003003003","-1,1001001001001","1,83083083083083"
"2989","1,87187187187187","5,87187187187187","-26,1281281281281","1,3003003003003","0,8998998998999","-0,169169169169169"
"2997","-0,128128128128128","7,87187187187187","-30,1281281281281","1,3003003003003","0,8998998998999","-0,169169169169169"
"2997","-0,128128128128128","7,87187187187187","-30,1281281281281","1,3003003003003","0,8998998998999","-0,169169169169169"
"3009","-1,12812812812813","4,87187187187187","-29,1281281281281","1,3003003003003","0,8998998998999","-0,169169169169169"
"3010","-1,12812812812813","4,87187187187187","-29,1281281281281","3,3003003003003","1,8998998998999","0,830830830830831"
"3018","-2,12812812812813","4,87187187187187","-27,1281281281281","3,3003003003003","1,8998998998999","0,830830830830831"
"3018","-2,12812812812813","4,87187187187187","-27,1281281281281","0,3003003003003","-0,1001001001001","-2,16916916916917"
"3030","-1,12812812812813","3,87187187187187","-25,1281281281281","0,3003003003003","-0,1001001001001","-2,16916916916917"
"3030","-1,12812812812813","3,87187187187187","-25,1281281281281","1,3003003003003","-0,1001001001001","-3,16916916916917"
"3038","-0,128128128128128","3,87187187187187","-28,1281281281281","1,3003003003003","-0,1001001001001","-3,16916916916917"
"3038","-0,128128128128128","3,87187187187187","-28,1281281281281","0,3003003003003","-2,1001001001001","-1,16916916916917"
"3046","-2,12812812812813","4,87187187187187","-31,1281281281281","0,3003003003003","-2,1001001001001","-1,16916916916917"
"3050","-2,12812812812813","4,87187187187187","-31,1281281281281","0,3003003003003","-1,1001001001001","-1,16916916916917"
"3059","-1,12812812812813","4,87187187187187","-28,1281281281281","0,3003003003003","-1,1001001001001","-1,16916916916917"
"3059","-1,12812812812813","4,87187187187187","-28,1281281281281","0,3003003003003","-0,1001001001001","-1,16916916916917"
"3067","-1,12812812812813","5,87187187187187","-27,1281281281281","0,3003003003003","-0,1001001001001","-1,16916916916917"
"3071","-1,12812812812813","5,87187187187187","-27,1281281281281","-1,6996996996997","1,8998998998999","0,830830830830831"
"3079","-2,12812812812813","4,87187187187187","-25,1281281281281","-1,6996996996997","1,8998998998999","0,830830830830831"
"3079","-2,12812812812813","4,87187187187187","-25,1281281281281","-1,6996996996997","1,8998998998999","0,830830830830831"
"3087","-1,12812812812813","3,87187187187187","-23,1281281281281","-1,6996996996997","1,8998998998999","0,830830830830831"
"3087","-1,12812812812813","3,87187187187187","-23,1281281281281","0,3003003003003","-1,1001001001001","-0,169169169169169"
"3100","-2,12812812812813","7,87187187187187","-29,1281281281281","0,3003003003003","-1,1001001001001","-0,169169169169169"
"3100","-2,12812812812813","7,87187187187187","-29,1281281281281","-2,6996996996997","-1,1001001001001","-0,169169169169169"
"3108","1,87187187187187","6,87187187187187","-30,1281281281281","-2,6996996996997","-1,1001001001001","-0,169169169169169"
"3108","1,87187187187187","6,87187187187187","-30,1281281281281","-2,6996996996997","-3,1001001001001","0,830830830830831"
"3120","-0,128128128128128","3,87187187187187","-25,1281281281281","-2,6996996996997","-3,1001001001001","0,830830830830831"
"3120","-0,128128128128128","3,87187187187187","-25,1281281281281","-1,6996996996997","-1,1001001001001","1,83083083083083"
"3128","0,871871871871872","5,87187187187187","-26,1281281281281","-1,6996996996997","-1,1001001001001","1,83083083083083"
"3128","0,871871871871872","5,87187187187187","-26,1281281281281","-1,6996996996997","-1,1001001001001","1,83083083083083"
"3136","0,871871871871872","6,87187187187187","-27,1281281281281","-1,6996996996997","-1,1001001001001","1,83083083083083"
"3140","0,871871871871872","6,87187187187187","-27,1281281281281","-1,6996996996997","-0,1001001001001","0,830830830830831"
"3149","0,871871871871872","3,87187187187187","-29,1281281281281","-1,6996996996997","-0,1001001001001","0,830830830830831"
"3149","0,871871871871872","3,87187187187187","-29,1281281281281","-0,6996996996997","0,8998998998999","-1,16916916916917"
"3157","-0,128128128128128","5,87187187187187","-26,1281281281281","-0,6996996996997","0,8998998998999","-1,16916916916917"
"3161","-0,128128128128128","5,87187187187187","-26,1281281281281","1,3003003003003","-0,1001001001001","-0,169169169169169"
"3169","-0,128128128128128","6,87187187187187","-27,1281281281281","1,3003003003003","-0,1001001001001","-0,169169169169169"
"3169","-0,128128128128128","6,87187187187187","-27,1281281281281","2,3003003003003","-0,1001001001001","0,830830830830831"
"3177","-0,128128128128128","3,87187187187187","-24,1281281281281","2,3003003003003","-0,1001001001001","0,830830830830831"
"3181","-0,128128128128128","3,87187187187187","-24,1281281281281","-1,6996996996997","-2,1001001001001","-2,16916916916917"
"3190","-3,12812812812813","4,87187187187187","-27,1281281281281","-1,6996996996997","-2,1001001001001","-2,16916916916917"
"3190","-3,12812812812813","4,87187187187187","-27,1281281281281","-1,6996996996997","-0,1001001001001","1,83083083083083"
"3198","-0,128128128128128","5,87187187187187","-28,1281281281281","-1,6996996996997","-0,1001001001001","1,83083083083083"
"3198","-0,128128128128128","5,87187187187187","-28,1281281281281","1,3003003003003","-0,1001001001001","0,830830830830831"
"3210","-0,128128128128128","6,87187187187187","-27,1281281281281","1,3003003003003","-0,1001001001001","0,830830830830831"
"3210","-0,128128128128128","6,87187187187187","-27,1281281281281","-1,6996996996997","-1,1001001001001","-0,169169169169169"
"3218","-1,12812812812813","3,87187187187187","-26,1281281281281","-1,6996996996997","-1,1001001001001","-0,169169169169169"
"3219","-1,12812812812813","3,87187187187187","-26,1281281281281","0,3003003003003","-3,1001001001001","-0,169169169169169"
"3227","-0,128128128128128","5,87187187187187","-26,1281281281281","0,3003003003003","-3,1001001001001","-0,169169169169169"
"3230","-0,128128128128128","5,87187187187187","-26,1281281281281","0,3003003003003","-3,1001001001001","-0,169169169169169"
"3239","1,87187187187187","5,87187187187187","-27,1281281281281","0,3003003003003","-3,1001001001001","-0,169169169169169"
"3239","1,87187187187187","5,87187187187187","-27,1281281281281","-0,6996996996997","-2,1001001001001","-1,16916916916917"
"3247","0,871871871871872","4,87187187187187","-27,1281281281281","-0,6996996996997","-2,1001001001001","-1,16916916916917"
"3251","0,871871871871872","4,87187187187187","-27,1281281281281","-4,6996996996997","-2,1001001001001","-2,16916916916917"
"3259","-2,12812812812813","2,87187187187187","-24,1281281281281","-4,6996996996997","-2,1001001001001","-2,16916916916917"
"3260","-2,12812812812813","2,87187187187187","-24,1281281281281","-1,6996996996997","-1,1001001001001","0,830830830830831"
"3267","-2,12812812812813","5,87187187187187","-28,1281281281281","-1,6996996996997","-1,1001001001001","0,830830830830831"
"3271","-2,12812812812813","5,87187187187187","-28,1281281281281","-2,6996996996997","-1,1001001001001","2,83083083083083"
"3280","0,871871871871872","5,87187187187187","-28,1281281281281","-2,6996996996997","-1,1001001001001","2,83083083083083"
"3280","0,871871871871872","5,87187187187187","-28,1281281281281","-2,6996996996997","-1,1001001001001","2,83083083083083"
"3288","-1,12812812812813","2,87187187187187","-25,1281281281281","-2,6996996996997","-1,1001001001001","2,83083083083083"
"3288","-1,12812812812813","2,87187187187187","-25,1281281281281","-1,6996996996997","-3,1001001001001","1,83083083083083"
"3300","-0,128128128128128","4,87187187187187","-27,1281281281281","-1,6996996996997","-3,1001001001001","1,83083083083083"
"3300","-0,128128128128128","4,87187187187187","-27,1281281281281","2,3003003003003","0,8998998998999","1,83083083083083"
"3308","-0,128128128128128","5,87187187187187","-27,1281281281281","2,3003003003003","0,8998998998999","1,83083083083083"
"3308","-0,128128128128128","5,87187187187187","-27,1281281281281","-3,6996996996997","-0,1001001001001","-0,169169169169169"
"3321","-0,128128128128128","3,87187187187187","-26,1281281281281","-3,6996996996997","-0,1001001001001","-0,169169169169169"
"3321","-0,128128128128128","3,87187187187187","-26,1281281281281","-4,6996996996997","-1,1001001001001","-3,16916916916917"
"3329","-0,128128128128128","3,87187187187187","-26,1281281281281","-4,6996996996997","-1,1001001001001","-3,16916916916917"
"3329","-0,128128128128128","3,87187187187187","-26,1281281281281","-4,6996996996997","-1,1001001001001","-3,16916916916917"
"3337","-1,12812812812813","7,87187187187187","-26,1281281281281","-4,6996996996997","-1,1001001001001","-3,16916916916917"
"3341","-1,12812812812813","7,87187187187187","-26,1281281281281","4,3003003003003","-0,1001001001001","-0,169169169169169"
"3349","-0,128128128128128","6,87187187187187","-29,1281281281281","4,3003003003003","-0,1001001001001","-0,169169169169169"
"3350","-0,128128128128128","6,87187187187187","-29,1281281281281","0,3003003003003","-0,1001001001001","-0,169169169169169"
"3358","-2,12812812812813","2,87187187187187","-27,1281281281281","0,3003003003003","-0,1001001001001","-0,169169169169169"
"3361","-2,12812812812813","2,87187187187187","-27,1281281281281","-0,6996996996997","0,8998998998999","-0,169169169169169"
"3370","-2,12812812812813","4,87187187187187","-26,1281281281281","-0,6996996996997","0,8998998998999","-0,169169169169169"
"3370","-2,12812812812813","4,87187187187187","-26,1281281281281","-1,6996996996997","-1,1001001001001","-0,169169169169169"
"3378","0,871871871871872","6,87187187187187","-27,1281281281281","-1,6996996996997","-1,1001001001001","-0,169169169169169"
"3378","0,871871871871872","6,87187187187187","-27,1281281281281","-1,6996996996997","-1,1001001001001","-0,169169169169169"
"3390","-0,128128128128128","4,87187187187187","-25,1281281281281","-1,6996996996997","-1,1001001001001","-0,169169169169169"
"3390","-0,128128128128128","4,87187187187187","-25,1281281281281","-0,6996996996997","0,8998998998999","-0,169169169169169"
"3399","0,871871871871872","4,87187187187187","-28,1281281281281","-0,6996996996997","0,8998998998999","-0,169169169169169"
"3399","0,871871871871872","4,87187187187187","-28,1281281281281","-1,6996996996997","0,8998998998999","2,83083083083083"
"3411","1,87187187187187","5,87187187187187","-28,1281281281281","-1,6996996996997","0,8998998998999","2,83083083083083"
"3411","1,87187187187187","5,87187187187187","-28,1281281281281","0,3003003003003","-1,1001001001001","0,830830830830831"
"3419","-0,128128128128128","3,87187187187187","-28,1281281281281","0,3003003003003","-1,1001001001001","0,830830830830831"
"3419","-0,128128128128128","3,87187187187187","-28,1281281281281","0,3003003003003","-1,1001001001001","0,830830830830831"
"3427","-0,128128128128128","3,87187187187187","-28,1281281281281","0,3003003003003","-1,1001001001001","0,830830830830831"
"3427","-0,128128128128128","3,87187187187187","-28,1281281281281","-0,6996996996997","-0,1001001001001","2,83083083083083"
"3440","0,871871871871872","5,87187187187187","-26,1281281281281","-0,6996996996997","-0,1001001001001","2,83083083083083"
"3440","0,871871871871872","5,87187187187187","-26,1281281281281","-0,6996996996997","0,8998998998999","-1,16916916916917"
"3448","1,87187187187187","4,87187187187187","-27,1281281281281","-0,6996996996997","0,8998998998999","-1,16916916916917"
"3452","1,87187187187187","4,87187187187187","-27,1281281281281","-1,6996996996997","0,8998998998999","0,830830830830831"
"3460","-0,128128128128128","3,87187187187187","-28,1281281281281","-1,6996996996997","0,8998998998999","0,830830830830831"
"3460","-0,128128128128128","3,87187187187187","-28,1281281281281","-1,6996996996997","0,8998998998999","0,830830830830831"
"3468","-1,12812812812813","7,87187187187187","-27,1281281281281","-1,6996996996997","0,8998998998999","0,830830830830831"
"3472","-1,12812812812813","7,87187187187187","-27,1281281281281","-1,6996996996997","0,8998998998999","-0,169169169169169"
"3480","-1,12812812812813","7,87187187187187","-27,1281281281281","-1,6996996996997","0,8998998998999","-0,169169169169169"
"3481","-1,12812812812813","7,87187187187187","-27,1281281281281","-0,6996996996997","-1,1001001001001","0,830830830830831"
"3489","-1,12812812812813","0,871871871871872","-27,1281281281281","-0,6996996996997","-1,1001001001001","0,830830830830831"
"3489","-1,12812812812813","0,871871871871872","-27,1281281281281","-1,6996996996997","-1,1001001001001","-2,16916916916917"
"3501","-1,12812812812813","7,87187187187187","-28,1281281281281","-1,6996996996997","-1,1001001001001","-2,16916916916917"
"3501","-1,12812812812813","7,87187187187187","-28,1281281281281","1,3003003003003","-0,1001001001001","-2,16916916916917"
"3509","-1,12812812812813","7,87187187187187","-27,1281281281281","1,3003003003003","-0,1001001001001","-2,16916916916917"
"3509","-1,12812812812813","7,87187187187187","-27,1281281281281","1,3003003003003","-0,1001001001001","-2,16916916916917"
"3521","-1,12812812812813","3,87187187187187","-25,1281281281281","1,3003003003003","-0,1001001001001","-2,16916916916917"
"3522","-1,12812812812813","3,87187187187187","-25,1281281281281","-0,6996996996997","-1,1001001001001","-1,16916916916917"
"3525","-1,12812812812813","3,87187187187187","-25,1281281281281","-0,6996996996997","-1,1001001001001","-1,16916916916917"
"3529","-1,12812812812813","3,87187187187187","-25,1281281281281","-3,6996996996997","-1,1001001001001","-2,16916916916917"
"3538","1,87187187187187","6,87187187187187","-29,1281281281281","-3,6996996996997","-1,1001001001001","-2,16916916916917"
"3542","1,87187187187187","6,87187187187187","-29,1281281281281","-0,6996996996997","-2,1001001001001","1,83083083083083"
"3550","-1,12812812812813","4,87187187187187","-30,1281281281281","-0,6996996996997","-2,1001001001001","1,83083083083083"
"3550","-1,12812812812813","4,87187187187187","-30,1281281281281","2,3003003003003","-0,1001001001001","1,83083083083083"
"3558","-0,128128128128128","0,871871871871872","-28,1281281281281","2,3003003003003","-0,1001001001001","1,83083083083083"
"3562","-0,128128128128128","0,871871871871872","-28,1281281281281","-0,6996996996997","-0,1001001001001","-2,16916916916917"
"3571","1,87187187187187","5,87187187187187","-26,1281281281281","-0,6996996996997","-0,1001001001001","-2,16916916916917"
"3571","1,87187187187187","5,87187187187187","-26,1281281281281","-1,6996996996997","-0,1001001001001","-1,16916916916917"
"3579","1,87187187187187","5,87187187187187","-26,1281281281281","-1,6996996996997","-0,1001001001001","-1,16916916916917"
"3579","1,87187187187187","5,87187187187187","-26,1281281281281","2,3003003003003","-1,1001001001001","0,830830830830831"
"3591","-0,128128128128128","3,87187187187187","-27,1281281281281","2,3003003003003","-1,1001001001001","0,830830830830831"
"3591","-0,128128128128128","3,87187187187187","-27,1281281281281","2,3003003003003","-1,1001001001001","-0,169169169169169"
"3599","-2,12812812812813","3,87187187187187","-27,1281281281281","2,3003003003003","-1,1001001001001","-0,169169169169169"
"3600","-2,12812812812813","3,87187187187187","-27,1281281281281","-1,6996996996997","-1,1001001001001","0,830830830830831"
"3611","0,871871871871872","5,87187187187187","-26,1281281281281","-1,6996996996997","-1,1001001001001","0,830830830830831"
"3612","0,871871871871872","5,87187187187187","-26,1281281281281","1,3003003003003","0,8998998998999","-0,169169169169169"
"3620","-0,128128128128128","6,87187187187187","-26,1281281281281","1,3003003003003","0,8998998998999","-0,169169169169169"
"3620","-0,128128128128128","6,87187187187187","-26,1281281281281","1,3003003003003","-1,1001001001001","2,83083083083083"
"3628","-0,128128128128128","6,87187187187187","-26,1281281281281","1,3003003003003","-1,1001001001001","2,83083083083083"
"3628","-0,128128128128128","6,87187187187187","-26,1281281281281","2,3003003003003","-4,1001001001001","-0,169169169169169"
"3640","-0,128128128128128","6,87187187187187","-27,1281281281281","2,3003003003003","-4,1001001001001","-0,169169169169169"
"3640","-0,128128128128128","6,87187187187187","-27,1281281281281","-2,6996996996997","-2,1001001001001","-0,169169169169169"
"3648","1,87187187187187","6,87187187187187","-29,1281281281281","-2,6996996996997","-2,1001001001001","-0,169169169169169"
"3652","1,87187187187187","6,87187187187187","-29,1281281281281","3,3003003003003","-1,1001001001001","2,83083083083083"
"3661","-1,12812812812813","4,87187187187187","-28,1281281281281","3,3003003003003","-1,1001001001001","2,83083083083083"
"3661","-1,12812812812813","4,87187187187187","-28,1281281281281","2,3003003003003","-2,1001001001001","-0,169169169169169"
"3669","0,871871871871872","1,87187187187187","-26,1281281281281","2,3003003003003","-2,1001001001001","-0,169169169169169"
"3669","0,871871871871872","1,87187187187187","-26,1281281281281","0,3003003003003","-2,1001001001001","-1,16916916916917"
"3677","0,871871871871872","1,87187187187187","-26,1281281281281","0,3003003003003","-2,1001001001001","-1,16916916916917"
"3677","0,871871871871872","1,87187187187187","-26,1281281281281","-1,6996996996997","-1,1001001001001","-0,169169169169169"
"3691","-2,12812812812813","4,87187187187187","-26,1281281281281","-1,6996996996997","-1,1001001001001","-0,169169169169169"
"3691","-2,12812812812813","4,87187187187187","-26,1281281281281","0,3003003003003","-1,1001001001001","-4,16916916916917"
"3702","0,871871871871872","3,87187187187187","-26,1281281281281","0,3003003003003","-1,1001001001001","-4,16916916916917"
"3702","0,871871871871872","3,87187187187187","-26,1281281281281","-0,6996996996997","-1,1001001001001","0,830830830830831"
"3710","-0,128128128128128","4,87187187187187","-27,1281281281281","-0,6996996996997","-1,1001001001001","0,830830830830831"
"3710","-0,128128128128128","4,87187187187187","-27,1281281281281","3,3003003003003","-2,1001001001001","0,830830830830831"
"3718","-2,12812812812813","3,87187187187187","-26,1281281281281","3,3003003003003","-2,1001001001001","0,830830830830831"
"3722","-2,12812812812813","3,87187187187187","-26,1281281281281","0,3003003003003","-2,1001001001001","1,83083083083083"
"3726","-2,12812812812813","3,87187187187187","-26,1281281281281","0,3003003003003","-2,1001001001001","1,83083083083083"
"3726","-2,12812812812813","3,87187187187187","-26,1281281281281","0,3003003003003","0,8998998998999","1,83083083083083"
"3739","-1,12812812812813","4,87187187187187","-28,1281281281281","0,3003003003003","0,8998998998999","1,83083083083083"
"3742","-1,12812812812813","4,87187187187187","-28,1281281281281","1,3003003003003","-0,1001001001001","0,830830830830831"
"3751","-0,128128128128128","6,87187187187187","-28,1281281281281","1,3003003003003","-0,1001001001001","0,830830830830831"
"3751","-0,128128128128128","6,87187187187187","-28,1281281281281","0,3003003003003","-2,1001001001001","-1,16916916916917"
"3759","-2,12812812812813","4,87187187187187","-28,1281281281281","0,3003003003003","-2,1001001001001","-1,16916916916917"
"3759","-2,12812812812813","4,87187187187187","-28,1281281281281","-0,6996996996997","1,8998998998999","0,830830830830831"
"3771","-0,128128128128128","3,87187187187187","-25,1281281281281","-0,6996996996997","1,8998998998999","0,830830830830831"
"3771","-0,128128128128128","3,87187187187187","-25,1281281281281","-0,6996996996997","0,8998998998999","-1,16916916916917"
"3775","-0,128128128128128","3,87187187187187","-25,1281281281281","-0,6996996996997","0,8998998998999","-1,16916916916917"
"3779","-0,128128128128128","3,87187187187187","-25,1281281281281","0,3003003003003","-1,1001001001001","-0,169169169169169"
"3792","-1,12812812812813","7,87187187187187","-27,1281281281281","0,3003003003003","-1,1001001001001","-0,169169169169169"
"3792","-1,12812812812813","7,87187187187187","-27,1281281281281","4,3003003003003","-0,1001001001001","1,83083083083083"
"3800","0,871871871871872","3,87187187187187","-26,1281281281281","4,3003003003003","-0,1001001001001","1,83083083083083"
"3800","0,871871871871872","3,87187187187187","-26,1281281281281","0,3003003003003","-3,1001001001001","-1,16916916916917"
"3808","-1,12812812812813","7,87187187187187","-27,1281281281281","0,3003003003003","-3,1001001001001","-1,16916916916917"
"3812","-1,12812812812813","7,87187187187187","-27,1281281281281","-1,6996996996997","-3,1001001001001","-2,16916916916917"
"3821","-0,128128128128128","6,87187187187187","-27,1281281281281","-1,6996996996997","-3,1001001001001","-2,16916916916917"
"3821","-0,128128128128128","6,87187187187187","-27,1281281281281","-0,6996996996997","-1,1001001001001","-0,169169169169169"
"3828","-0,128128128128128","6,87187187187187","-27,1281281281281","-0,6996996996997","-1,1001001001001","-0,169169169169169"
"3829","-0,128128128128128","6,87187187187187","-27,1281281281281","-1,6996996996997","-1,1001001001001","0,830830830830831"
"3841","-1,12812812812813","4,87187187187187","-28,1281281281281","-1,6996996996997","-1,1001001001001","0,830830830830831"
"3841","-1,12812812812813","4,87187187187187","-28,1281281281281","-1,6996996996997","0,8998998998999","-1,16916916916917"
"3849","0,871871871871872","8,87187187187187","-28,1281281281281","-1,6996996996997","0,8998998998999","-1,16916916916917"
"3849","0,871871871871872","8,87187187187187","-28,1281281281281","2,3003003003003","-0,1001001001001","-0,169169169169169"
"3861","0,871871871871872","4,87187187187187","-27,1281281281281","2,3003003003003","-0,1001001001001","-0,169169169169169"
"3862","0,871871871871872","4,87187187187187","-27,1281281281281","2,3003003003003","0,8998998998999","0,830830830830831"
"3870","0,871871871871872","3,87187187187187","-25,1281281281281","2,3003003003003","0,8998998998999","0,830830830830831"
"3870","0,871871871871872","3,87187187187187","-25,1281281281281","-4,6996996996997","-2,1001001001001","-0,169169169169169"
"3878","0,871871871871872","3,87187187187187","-25,1281281281281","-4,6996996996997","-2,1001001001001","-0,169169169169169"
"3878","0,871871871871872","3,87187187187187","-25,1281281281281","-2,6996996996997","-3,1001001001001","-2,16916916916917"
"3890","-0,128128128128128","3,87187187187187","-28,1281281281281","-2,6996996996997","-3,1001001001001","-2,16916916916917"
"3890","-0,128128128128128","3,87187187187187","-28,1281281281281","4,3003003003003","0,8998998998999","0,830830830830831"
"3898","1,87187187187187","3,87187187187187","-24,1281281281281","4,3003003003003","0,8998998998999","0,830830830830831"
"3902","1,87187187187187","3,87187187187187","-24,1281281281281","0,3003003003003","-1,1001001001001","0,830830830830831"
"3911","-2,12812812812813","5,87187187187187","-27,1281281281281","0,3003003003003","-1,1001001001001","0,830830830830831"
"3911","-2,12812812812813","5,87187187187187","-27,1281281281281","-1,6996996996997","-1,1001001001001","-0,169169169169169"
"3919","0,871871871871872","7,87187187187187","-28,1281281281281","-1,6996996996997","-1,1001001001001","-0,169169169169169"
"3923","0,871871871871872","7,87187187187187","-28,1281281281281","1,3003003003003","0,8998998998999","-0,169169169169169"
"3927","0,871871871871872","7,87187187187187","-28,1281281281281","1,3003003003003","0,8998998998999","-0,169169169169169"
"3927","0,871871871871872","7,87187187187187","-28,1281281281281","-0,6996996996997","1,8998998998999","-1,16916916916917"
"3939","-2,12812812812813","7,87187187187187","-24,1281281281281","-0,6996996996997","1,8998998998999","-1,16916916916917"
"3943","-2,12812812812813","7,87187187187187","-24,1281281281281","-0,6996996996997","0,8998998998999","-1,16916916916917"
"3951","-1,12812812812813","7,87187187187187","-30,1281281281281","-0,6996996996997","0,8998998998999","-1,16916916916917"
"3951","-1,12812812812813","7,87187187187187","-30,1281281281281","2,3003003003003","-0,1001001001001","1,83083083083083"
"3959","-2,12812812812813","4,87187187187187","-28,1281281281281","2,3003003003003","-0,1001001001001","1,83083083083083"
"3959","-2,12812812812813","4,87187187187187","-28,1281281281281","3,3003003003003","2,8998998998999","-0,169169169169169"
"3972","-1,12812812812813","2,87187187187187","-24,1281281281281","3,3003003003003","2,8998998998999","-0,169169169169169"
"3972","-1,12812812812813","2,87187187187187","-24,1281281281281","-3,6996996996997","0,8998998998999","0,830830830830831"
"3976","-1,12812812812813","2,87187187187187","-24,1281281281281","-3,6996996996997","0,8998998998999","0,830830830830831"
"3980","-1,12812812812813","2,87187187187187","-24,1281281281281","-1,6996996996997","-1,1001001001001","-0,169169169169169"
"3992","-1,12812812812813","6,87187187187187","-27,1281281281281","-1,6996996996997","-1,1001001001001","-0,169169169169169"
"3992","-1,12812812812813","6,87187187187187","-27,1281281281281","2,3003003003003","0,8998998998999","0,830830830830831"
"4001","-0,128128128128128","3,87187187187187","-28,1281281281281","2,3003003003003","0,8998998998999","0,830830830830831"
"4001","-0,128128128128128","3,87187187187187","-28,1281281281281","2,3003003003003","-2,1001001001001","0,830830830830831"
"4009","-0,128128128128128","3,87187187187187","-26,1281281281281","2,3003003003003","-2,1001001001001","0,830830830830831"
"4013","-0,128128128128128","3,87187187187187","-26,1281281281281","1,3003003003003","-1,1001001001001","2,83083083083083"
"4021","-1,12812812812813","7,87187187187187","-29,1281281281281","1,3003003003003","-1,1001001001001","2,83083083083083"
"4021","-1,12812812812813","7,87187187187187","-29,1281281281281","0,3003003003003","-1,1001001001001","0,830830830830831"
"4029","-1,12812812812813","7,87187187187187","-29,1281281281281","0,3003003003003","-1,1001001001001","0,830830830830831"
"4030","-1,12812812812813","7,87187187187187","-29,1281281281281","4,3003003003003","-4,1001001001001","1,83083083083083"
"4042","-0,128128128128128","0,871871871871872","-24,1281281281281","4,3003003003003","-4,1001001001001","1,83083083083083"
"4042","-0,128128128128128","0,871871871871872","-24,1281281281281","-0,6996996996997","-3,1001001001001","-0,169169169169169"
"4050","-1,12812812812813","6,87187187187187","-28,1281281281281","-0,6996996996997","-3,1001001001001","-0,169169169169169"
"4050","-1,12812812812813","6,87187187187187","-28,1281281281281","0,3003003003003","-0,1001001001001","-2,16916916916917"
"4062","-0,128128128128128","9,87187187187187","-30,1281281281281","0,3003003003003","-0,1001001001001","-2,16916916916917"
"4062","-0,128128128128128","9,87187187187187","-30,1281281281281","3,3003003003003","-3,1001001001001","1,83083083083083"
"4070","-1,12812812812813","2,87187187187187","-27,1281281281281","3,3003003003003","-3,1001001001001","1,83083083083083"
"4071","-1,12812812812813","2,87187187187187","-27,1281281281281","4,3003003003003","-1,1001001001001","-1,16916916916917"
"4079","-1,12812812812813","2,87187187187187","-27,1281281281281","4,3003003003003","-1,1001001001001","-1,16916916916917"
"4079","-1,12812812812813","2,87187187187187","-27,1281281281281","-1,6996996996997","-3,1001001001001","-0,169169169169169"
"4091","-2,12812812812813","7,87187187187187","-27,1281281281281","-1,6996996996997","-3,1001001001001","-0,169169169169169"
"4091","-2,12812812812813","7,87187187187187","-27,1281281281281","3,3003003003003","0,8998998998999","-1,16916916916917"
"4099","0,871871871871872","5,87187187187187","-29,1281281281281","3,3003003003003","0,8998998998999","-1,16916916916917"
"4103","0,871871871871872","5,87187187187187","-29,1281281281281","2,3003003003003","-0,1001001001001","0,830830830830831"
"4111","0,871871871871872","3,87187187187187","-26,1281281281281","2,3003003003003","-0,1001001001001","0,830830830830831"
"4112","0,871871871871872","3,87187187187187","-26,1281281281281","-0,6996996996997","-1,1001001001001","-0,169169169169169"
"4120","0,871871871871872","6,87187187187187","-28,1281281281281","-0,6996996996997","-1,1001001001001","-0,169169169169169"
"4124","0,871871871871872","6,87187187187187","-28,1281281281281","0,3003003003003","2,8998998998999","0,830830830830831"
"4128","0,871871871871872","6,87187187187187","-28,1281281281281","0,3003003003003","2,8998998998999","0,830830830830831"
"4128","0,871871871871872","6,87187187187187","-28,1281281281281","1,3003003003003","-0,1001001001001","-0,169169169169169"
"4140","-3,12812812812813","2,87187187187187","-25,1281281281281","1,3003003003003","-0,1001001001001","-0,169169169169169"
"4144","-3,12812812812813","2,87187187187187","-25,1281281281281","-0,6996996996997","-1,1001001001001","0,830830830830831"
"4152","-0,128128128128128","4,87187187187187","-27,1281281281281","-0,6996996996997","-1,1001001001001","0,830830830830831"
"4152","-0,128128128128128","4,87187187187187","-27,1281281281281","0,3003003003003","-1,1001001001001","-0,169169169169169"
"4161","-0,128128128128128","4,87187187187187","-27,1281281281281","0,3003003003003","-1,1001001001001","-0,169169169169169"
"4161","-0,128128128128128","4,87187187187187","-27,1281281281281","-0,6996996996997","-1,1001001001001","0,830830830830831"
"4173","0,871871871871872","4,87187187187187","-26,1281281281281","-0,6996996996997","-1,1001001001001","0,830830830830831"
"4173","0,871871871871872","4,87187187187187","-26,1281281281281","3,3003003003003","-1,1001001001001","-0,169169169169169"
"4177","0,871871871871872","4,87187187187187","-26,1281281281281","3,3003003003003","-1,1001001001001","-0,169169169169169"
"4181","0,871871871871872","4,87187187187187","-26,1281281281281","-3,6996996996997","-0,1001001001001","-1,16916916916917"
"4189","0,871871871871872","4,87187187187187","-27,1281281281281","-3,6996996996997","-0,1001001001001","-1,16916916916917"
"4193","0,871871871871872","4,87187187187187","-27,1281281281281","1,3003003003003","0,8998998998999","-2,16916916916917"
"4201","-1,12812812812813","4,87187187187187","-29,1281281281281","1,3003003003003","0,8998998998999","-2,16916916916917"
"4202","-1,12812812812813","4,87187187187187","-29,1281281281281","2,3003003003003","-1,1001001001001","-0,169169169169169"
"4210","-1,12812812812813","2,87187187187187","-27,1281281281281","2,3003003003003","-1,1001001001001","-0,169169169169169"
"4214","-1,12812812812813","2,87187187187187","-27,1281281281281","1,3003003003003","-0,1001001001001","-0,169169169169169"
"4222","-0,128128128128128","6,87187187187187","-25,1281281281281","1,3003003003003","-0,1001001001001","-0,169169169169169"
"4222","-0,128128128128128","6,87187187187187","-25,1281281281281","3,3003003003003","-1,1001001001001","0,830830830830831"
"4230","-0,128128128128128","6,87187187187187","-25,1281281281281","3,3003003003003","-1,1001001001001","0,830830830830831"
"4230","-0,128128128128128","6,87187187187187","-25,1281281281281","4,3003003003003","-4,1001001001001","1,83083083083083"
"4242","-0,128128128128128","3,87187187187187","-26,1281281281281","4,3003003003003","-4,1001001001001","1,83083083083083"
"4243","-0,128128128128128","3,87187187187187","-26,1281281281281","2,3003003003003","-2,1001001001001","0,830830830830831"
"4251","-0,128128128128128","4,87187187187187","-26,1281281281281","2,3003003003003","-2,1001001001001","0,830830830830831"
"4251","-0,128128128128128","4,87187187187187","-26,1281281281281","-0,6996996996997","-1,1001001001001","0,830830830830831"
"4263","-0,128128128128128","8,87187187187187","-27,1281281281281","-0,6996996996997","-1,1001001001001","0,830830830830831"
"4263","-0,128128128128128","8,87187187187187","-27,1281281281281","0,3003003003003","0,8998998998999","0,830830830830831"
"4271","-0,128128128128128","5,87187187187187","-26,1281281281281","0,3003003003003","0,8998998998999","0,830830830830831"
"4271","-0,128128128128128","5,87187187187187","-26,1281281281281","0,3003003003003","-0,1001001001001","-0,169169169169169"
"4279","-0,128128128128128","5,87187187187187","-26,1281281281281","0,3003003003003","-0,1001001001001","-0,169169169169169"
"4279","-0,128128128128128","5,87187187187187","-26,1281281281281","1,3003003003003","-0,1001001001001","-2,16916916916917"
"4292","-1,12812812812813","8,87187187187187","-26,1281281281281","1,3003003003003","-0,1001001001001","-2,16916916916917"
"4292","-1,12812812812813","8,87187187187187","-26,1281281281281","1,3003003003003","1,8998998998999","-0,169169169169169"
"4300","-1,12812812812813","6,87187187187187","-32,1281281281281","1,3003003003003","1,8998998998999","-0,169169169169169"
"4304","-1,12812812812813","6,87187187187187","-32,1281281281281","5,3003003003003","0,8998998998999","-0,169169169169169"
"4312","0,871871871871872","2,87187187187187","-25,1281281281281","5,3003003003003","0,8998998998999","-0,169169169169169"
"4312","0,871871871871872","2,87187187187187","-25,1281281281281","-3,6996996996997","3,8998998998999","0,830830830830831"
"4320","-2,12812812812813","6,87187187187187","-26,1281281281281","-3,6996996996997","3,8998998998999","0,830830830830831"
"4324","-2,12812812812813","6,87187187187187","-26,1281281281281","1,3003003003003","-2,1001001001001","-0,169169169169169"
"4328","-2,12812812812813","6,87187187187187","-26,1281281281281","1,3003003003003","-2,1001001001001","-0,169169169169169"
"4329","-2,12812812812813","6,87187187187187","-26,1281281281281","0,3003003003003","-0,1001001001001","-1,16916916916917"
"4341","-1,12812812812813","3,87187187187187","-27,1281281281281","0,3003003003003","-0,1001001001001","-1,16916916916917"
"4341","-1,12812812812813","3,87187187187187","-27,1281281281281","1,3003003003003","0,8998998998999","0,830830830830831"
"4353","-1,12812812812813","4,87187187187187","-25,1281281281281","1,3003003003003","0,8998998998999","0,830830830830831"
"4353","-1,12812812812813","4,87187187187187","-25,1281281281281","-0,6996996996997","0,8998998998999","-0,169169169169169"
"4361","-2,12812812812813","6,87187187187187","-28,1281281281281","-0,6996996996997","0,8998998998999","-0,169169169169169"
"4361","-2,12812812812813","6,87187187187187","-28,1281281281281","4,3003003003003","-0,1001001001001","0,830830830830831"
"4373","-0,128128128128128","7,87187187187187","-27,1281281281281","4,3003003003003","-0,1001001001001","0,830830830830831"
"4373","-0,128128128128128","7,87187187187187","-27,1281281281281","2,3003003003003","-1,1001001001001","0,830830830830831"
"4377","-0,128128128128128","7,87187187187187","-27,1281281281281","2,3003003003003","-1,1001001001001","0,830830830830831"
"4381","-0,128128128128128","7,87187187187187","-27,1281281281281","-0,6996996996997","-0,1001001001001","-1,16916916916917"
"4390","-0,128128128128128","3,87187187187187","-25,1281281281281","-0,6996996996997","-0,1001001001001","-1,16916916916917"
"4394","-0,128128128128128","3,87187187187187","-25,1281281281281","2,3003003003003","-1,1001001001001","-0,169169169169169"
"4402","0,871871871871872","5,87187187187187","-30,1281281281281","2,3003003003003","-1,1001001001001","-0,169169169169169"
"4402","0,871871871871872","5,87187187187187","-30,1281281281281","2,3003003003003","-1,1001001001001","-0,169169169169169"
"4410","-1,12812812812813","5,87187187187187","-26,1281281281281","2,3003003003003","-1,1001001001001","-0,169169169169169"
"4414","-1,12812812812813","5,87187187187187","-26,1281281281281","0,3003003003003","0,8998998998999","1,83083083083083"
"4423","-0,128128128128128","3,87187187187187","-25,1281281281281","0,3003003003003","0,8998998998999","1,83083083083083"
"4423","-0,128128128128128","3,87187187187187","-25,1281281281281","-1,6996996996997","-0,1001001001001","-0,169169169169169"
"4431","-0,128128128128128","3,87187187187187","-25,1281281281281","-1,6996996996997","-0,1001001001001","-0,169169169169169"
"4431","-0,128128128128128","3,87187187187187","-25,1281281281281","-1,6996996996997","-2,1001001001001","-0,169169169169169"
"4443","0,871871871871872","6,87187187187187","-28,1281281281281","-1,6996996996997","-2,1001001001001","-0,169169169169169"
"4443","0,871871871871872","6,87187187187187","-28,1281281281281","1,3003003003003","-0,1001001001001","0,830830830830831"
"4451","-3,12812812812813","1,87187187187187","-27,1281281281281","1,3003003003003","-0,1001001001001","0,830830830830831"
"4451","-3,12812812812813","1,87187187187187","-27,1281281281281","1,3003003003003","-2,1001001001001","0,830830830830831"
"4463","-1,12812812812813","6,87187187187187","-28,1281281281281","1,3003003003003","-2,1001001001001","0,830830830830831"
"4464","-1,12812812812813","6,87187187187187","-28,1281281281281","-1,6996996996997","-1,1001001001001","-1,16916916916917"
"4472","-0,128128128128128","7,87187187187187","-30,1281281281281","-1,6996996996997","-1,1001001001001","-1,16916916916917"
"4472","-0,128128128128128","7,87187187187187","-30,1281281281281","4,3003003003003","1,8998998998999","-0,169169169169169"
"4480","-0,128128128128128","7,87187187187187","-30,1281281281281","4,3003003003003","1,8998998998999","-0,169169169169169"
"4480","-0,128128128128128","7,87187187187187","-30,1281281281281","1,3003003003003","-0,1001001001001","0,830830830830831"
"4492","-1,12812812812813","4,87187187187187","-26,1281281281281","1,3003003003003","-0,1001001001001","0,830830830830831"
"4492","-1,12812812812813","4,87187187187187","-26,1281281281281","1,3003003003003","0,8998998998999","0,830830830830831"
"4500","-1,12812812812813","5,87187187187187","-30,1281281281281","1,3003003003003","0,8998998998999","0,830830830830831"
"4500","-1,12812812812813","5,87187187187187","-30,1281281281281","2,3003003003003","-0,1001001001001","2,83083083083083"
"4513","0,871871871871872","6,87187187187187","-27,1281281281281","2,3003003003003","-0,1001001001001","2,83083083083083"
"4513","0,871871871871872","6,87187187187187","-27,1281281281281","2,3003003003003","0,8998998998999","0,830830830830831"
"4521","1,87187187187187","4,87187187187187","-25,1281281281281","2,3003003003003","0,8998998998999","0,830830830830831"
"4521","1,87187187187187","4,87187187187187","-25,1281281281281","0,3003003003003","-1,1001001001001","-0,169169169169169"
"4529","1,87187187187187","4,87187187187187","-25,1281281281281","0,3003003003003","-1,1001001001001","-0,169169169169169"
"4529","1,87187187187187","4,87187187187187","-25,1281281281281","0,3003003003003","1,8998998998999","2,83083083083083"
"4541","-1,12812812812813","3,87187187187187","-26,1281281281281","0,3003003003003","1,8998998998999","2,83083083083083"
"4542","-1,12812812812813","3,87187187187187","-26,1281281281281","3,3003003003003","0,8998998998999","-1,16916916916917"
"4550","-1,12812812812813","3,87187187187187","-26,1281281281281","3,3003003003003","0,8998998998999","-1,16916916916917"
"4554","-1,12812812812813","3,87187187187187","-26,1281281281281","0,3003003003003","-2,1001001001001","0,830830830830831"
"4562","-0,128128128128128","4,87187187187187","-28,1281281281281","0,3003003003003","-2,1001001001001","0,830830830830831"
"4562","-0,128128128128128","4,87187187187187","-28,1281281281281","-2,6996996996997","-2,1001001001001","-0,169169169169169"
"4570","-1,12812812812813","5,87187187187187","-28,1281281281281","-2,6996996996997","-2,1001001001001","-0,169169169169169"
"4574","-1,12812812812813","5,87187187187187","-28,1281281281281","-0,6996996996997","-1,1001001001001","-3,16916916916917"
"4578","-1,12812812812813","5,87187187187187","-28,1281281281281","-0,6996996996997","-1,1001001001001","-3,16916916916917"
"4579","-1,12812812812813","5,87187187187187","-28,1281281281281","2,3003003003003","-1,1001001001001","-1,16916916916917"
"4591","-0,128128128128128","4,87187187187187","-27,1281281281281","2,3003003003003","-1,1001001001001","-1,16916916916917"
"4594","-0,128128128128128","4,87187187187187","-27,1281281281281","2,3003003003003","0,8998998998999","-0,169169169169169"
"4603","-0,128128128128128","4,87187187187187","-27,1281281281281","2,3003003003003","0,8998998998999","-0,169169169169169"
"4603","-0,128128128128128","4,87187187187187","-27,1281281281281","0,3003003003003","-2,1001001001001","-0,169169169169169"
"4611","1,87187187187187","4,87187187187187","-28,1281281281281","0,3003003003003","-2,1001001001001","-0,169169169169169"
"4611","1,87187187187187","4,87187187187187","-28,1281281281281","-0,6996996996997","2,8998998998999","-2,16916916916917"
"4623","-3,12812812812813","3,87187187187187","-25,1281281281281","-0,6996996996997","2,8998998998999","-2,16916916916917"
"4623","-3,12812812812813","3,87187187187187","-25,1281281281281","-0,6996996996997","1,8998998998999","0,830830830830831"
"4627","-3,12812812812813","3,87187187187187","-25,1281281281281","-0,6996996996997","1,8998998998999","0,830830830830831"
"4631","-3,12812812812813","3,87187187187187","-25,1281281281281","1,3003003003003","-3,1001001001001","-2,16916916916917"
"4644","-1,12812812812813","6,87187187187187","-29,1281281281281","1,3003003003003","-3,1001001001001","-2,16916916916917"
"4644","-1,12812812812813","6,87187187187187","-29,1281281281281","2,3003003003003","-2,1001001001001","1,83083083083083"
"4652","-0,128128128128128","6,87187187187187","-27,1281281281281","2,3003003003003","-2,1001001001001","1,83083083083083"
"4652","-0,128128128128128","6,87187187187187","-27,1281281281281","-0,6996996996997","0,8998998998999","-0,169169169169169"
"4660","-3,12812812812813","3,87187187187187","-25,1281281281281","-0,6996996996997","0,8998998998999","-0,169169169169169"
"4664","-3,12812812812813","3,87187187187187","-25,1281281281281","0,3003003003003","0,8998998998999","-1,16916916916917"
"4673","-0,128128128128128","8,87187187187187","-28,1281281281281","0,3003003003003","0,8998998998999","-1,16916916916917"
"4673","-0,128128128128128","8,87187187187187","-28,1281281281281","-0,6996996996997","-1,1001001001001","-0,169169169169169"
"4681","-0,128128128128128","8,87187187187187","-28,1281281281281","-0,6996996996997","-1,1001001001001","-0,169169169169169"
"4681","-0,128128128128128","8,87187187187187","-28,1281281281281","0,3003003003003","-1,1001001001001","1,83083083083083"
"4693","-0,128128128128128","3,87187187187187","-26,1281281281281","0,3003003003003","-1,1001001001001","1,83083083083083"
"4694","-0,128128128128128","3,87187187187187","-26,1281281281281","-1,6996996996997","-3,1001001001001","0,830830830830831"
"4701","-1,12812812812813","4,87187187187187","-26,1281281281281","-1,6996996996997","-3,1001001001001","0,830830830830831"
"4701","-1,12812812812813","4,87187187187187","-26,1281281281281","-1,6996996996997","-2,1001001001001","-1,16916916916917"
"4713","0,871871871871872","7,87187187187187","-32,1281281281281","-1,6996996996997","-2,1001001001001","-1,16916916916917"
"4713","0,871871871871872","7,87187187187187","-32,1281281281281","0,3003003003003","0,8998998998999","0,830830830830831"
"4722","1,87187187187187","4,87187187187187","-30,1281281281281","0,3003003003003","0,8998998998999","0,830830830830831"
"4722","1,87187187187187","4,87187187187187","-30,1281281281281","-2,6996996996997","-1,1001001001001","1,83083083083083"
"4730","-2,12812812812813","3,87187187187187","-27,1281281281281","-2,6996996996997","-1,1001001001001","1,83083083083083"
"4730","-2,12812812812813","3,87187187187187","-27,1281281281281","2,3003003003003","-0,1001001001001","-1,16916916916917"
"4742","-0,128128128128128","8,87187187187187","-28,1281281281281","2,3003003003003","-0,1001001001001","-1,16916916916917"
"4742","-0,128128128128128","8,87187187187187","-28,1281281281281","2,3003003003003","-1,1001001001001","-2,16916916916917"
"4750","-1,12812812812813","6,87187187187187","-26,1281281281281","2,3003003003003","-1,1001001001001","-2,16916916916917"
"4750","-1,12812812812813","6,87187187187187","-26,1281281281281","0,3003003003003","-1,1001001001001","2,83083083083083"
"4762","-2,12812812812813","0,871871871871872","-25,1281281281281","0,3003003003003","-1,1001001001001","2,83083083083083"
"4763","-2,12812812812813","0,871871871871872","-25,1281281281281","-0,6996996996997","-0,1001001001001","0,830830830830831"
"4771","-2,12812812812813","4,87187187187187","-25,1281281281281","-0,6996996996997","-0,1001001001001","0,830830830830831"
"4771","-2,12812812812813","4,87187187187187","-25,1281281281281","-1,6996996996997","1,8998998998999","-0,169169169169169"
"4779","-1,12812812812813","8,87187187187187","-26,1281281281281","-1,6996996996997","1,8998998998999","-0,169169169169169"
"4779","-1,12812812812813","8,87187187187187","-26,1281281281281","0,3003003003003","0,8998998998999","1,83083083083083"
"4791","-0,128128128128128","6,87187187187187","-27,1281281281281","0,3003003003003","0,8998998998999","1,83083083083083"
"4791","-0,128128128128128","6,87187187187187","-27,1281281281281","2,3003003003003","0,8998998998999","-2,16916916916917"
"4799","-0,128128128128128","0,871871871871872","-26,1281281281281","2,3003003003003","0,8998998998999","-2,16916916916917"
"4800","-0,128128128128128","0,871871871871872","-26,1281281281281","0,3003003003003","-0,1001001001001","-0,169169169169169"
"4808","0,871871871871872","7,87187187187187","-30,1281281281281","0,3003003003003","-0,1001001001001","-0,169169169169169"
"4812","0,871871871871872","7,87187187187187","-30,1281281281281","1,3003003003003","-1,1001001001001","-0,169169169169169"
"4820","0,871871871871872","6,87187187187187","-27,1281281281281","1,3003003003003","-1,1001001001001","-0,169169169169169"
"4820","0,871871871871872","6,87187187187187","-27,1281281281281","2,3003003003003","-2,1001001001001","-2,16916916916917"
"4828","-0,128128128128128","1,87187187187187","-25,1281281281281","2,3003003003003","-2,1001001001001","-2,16916916916917"
"4829","-0,128128128128128","1,87187187187187","-25,1281281281281","-3,6996996996997","-0,1001001001001","-1,16916916916917"
"4840","-1,12812812812813","3,87187187187187","-24,1281281281281","-3,6996996996997","-0,1001001001001","-1,16916916916917"
"4840","-1,12812812812813","3,87187187187187","-24,1281281281281","4,3003003003003","-1,1001001001001","0,830830830830831"
"4849","1,87187187187187","7,87187187187187","-28,1281281281281","4,3003003003003","-1,1001001001001","0,830830830830831"
"4849","1,87187187187187","7,87187187187187","-28,1281281281281","3,3003003003003","0,8998998998999","1,83083083083083"
"4857","-0,128128128128128","5,87187187187187","-27,1281281281281","3,3003003003003","0,8998998998999","1,83083083083083"
"4861","-0,128128128128128","5,87187187187187","-27,1281281281281","0,3003003003003","-0,1001001001001","-0,169169169169169"
"4869","-1,12812812812813","2,87187187187187","-24,1281281281281","0,3003003003003","-0,1001001001001","-0,169169169169169"
"4869","-1,12812812812813","2,87187187187187","-24,1281281281281","-2,6996996996997","0,8998998998999","-3,16916916916917"
"4877","-2,12812812812813","6,87187187187187","-26,1281281281281","-2,6996996996997","0,8998998998999","-3,16916916916917"
"4878","-2,12812812812813","6,87187187187187","-26,1281281281281","0,3003003003003","1,8998998998999","-1,16916916916917"
"4889","-0,128128128128128","6,87187187187187","-28,1281281281281","0,3003003003003","1,8998998998999","-1,16916916916917"
"4890","-0,128128128128128","6,87187187187187","-28,1281281281281","-1,6996996996997","1,8998998998999","-1,16916916916917"
"4898","-2,12812812812813","1,87187187187187","-26,1281281281281","-1,6996996996997","1,8998998998999","-1,16916916916917"
"4898","-2,12812812812813","1,87187187187187","-26,1281281281281","-1,6996996996997","-0,1001001001001","0,830830830830831"
"4906","1,87187187187187","4,87187187187187","-28,1281281281281","-1,6996996996997","-0,1001001001001","0,830830830830831"
"4906","1,87187187187187","4,87187187187187","-28,1281281281281","-0,6996996996997","0,8998998998999","-0,169169169169169"
"4918","0,871871871871872","4,87187187187187","-29,1281281281281","-0,6996996996997","0,8998998998999","-0,169169169169169"
"4918","0,871871871871872","4,87187187187187","-29,1281281281281","0,3003003003003","0,8998998998999","-1,16916916916917"
"4926","-1,12812812812813","3,87187187187187","-26,1281281281281","0,3003003003003","0,8998998998999","-1,16916916916917"
"4927","-1,12812812812813","3,87187187187187","-26,1281281281281","-2,6996996996997","1,8998998998999","0,830830830830831"
"4939","0,871871871871872","3,87187187187187","-25,1281281281281","-2,6996996996997","1,8998998998999","0,830830830830831"
"4939","0,871871871871872","3,87187187187187","-25,1281281281281","0,3003003003003","0,8998998998999","1,83083083083083"
"4947","-0,128128128128128","5,87187187187187","-26,1281281281281","0,3003003003003","0,8998998998999","1,83083083083083"
"4947","-0,128128128128128","5,87187187187187","-26,1281281281281","3,3003003003003","-1,1001001001001","-0,169169169169169"
"4955","-0,128128128128128","3,87187187187187","-28,1281281281281","3,3003003003003","-1,1001001001001","-0,169169169169169"
"4959","-0,128128128128128","3,87187187187187","-28,1281281281281","-0,6996996996997","-0,1001001001001","-0,169169169169169"
"4972","-3,12812812812813","5,87187187187187","-26,1281281281281","-0,6996996996997","-0,1001001001001","-0,169169169169169"
"4972","-3,12812812812813","5,87187187187187","-26,1281281281281","0,3003003003003","-1,1001001001001","0,830830830830831"
"4980","-1,12812812812813","5,87187187187187","-27,1281281281281","0,3003003003003","-1,1001001001001","0,830830830830831"
"4980","-1,12812812812813","5,87187187187187","-27,1281281281281","-0,6996996996997","-0,1001001001001","-0,169169169169169"
"4988","0,871871871871872","4,87187187187187","-27,1281281281281","-0,6996996996997","-0,1001001001001","-0,169169169169169"
"4988","0,871871871871872","4,87187187187187","-27,1281281281281","0,3003003003003","-0,1001001001001","1,83083083083083"
"4996","-1,12812812812813","3,87187187187187","-26,1281281281281","0,3003003003003","-0,1001001001001","1,83083083083083"
"4996","-1,12812812812813","3,87187187187187","-26,1281281281281","0,3003003003003","1,8998998998999","0,830830830830831"
"5008","-3,12812812812813","3,87187187187187","-25,1281281281281","0,3003003003003","1,8998998998999","0,830830830830831"
"5008","-3,12812812812813","3,87187187187187","-25,1281281281281","2,3003003003003","0,8998998998999","-0,169169169169169"
"5017","-0,128128128128128","6,87187187187187","-28,1281281281281","2,3003003003003","0,8998998998999","-0,169169169169169"
"5017","-0,128128128128128","6,87187187187187","-28,1281281281281","0,3003003003003","-0,1001001001001","0,830830830830831"
"5025","-1,12812812812813","3,87187187187187","-28,1281281281281","0,3003003003003","-0,1001001001001","0,830830830830831"
"5029","-1,12812812812813","3,87187187187187","-28,1281281281281","-3,6996996996997","1,8998998998999","-2,16916916916917"
"5037","-2,12812812812813","4,87187187187187","-23,1281281281281","-3,6996996996997","1,8998998998999","-2,16916916916917"
"5037","-2,12812812812813","4,87187187187187","-23,1281281281281","1,3003003003003","-0,1001001001001","0,830830830830831"
"5045","-2,12812812812813","9,87187187187187","-30,1281281281281","1,3003003003003","-0,1001001001001","0,830830830830831"
"5049","-2,12812812812813","9,87187187187187","-30,1281281281281","0,3003003003003","0,8998998998999","-0,169169169169169"
"5058","0,871871871871872","5,87187187187187","-31,1281281281281","0,3003003003003","0,8998998998999","-0,169169169169169"
"5058","0,871871871871872","5,87187187187187","-31,1281281281281","-1,6996996996997","0,8998998998999","0,830830830830831"
"5066","-1,12812812812813","3,87187187187187","-25,1281281281281","-1,6996996996997","0,8998998998999","0,830830830830831"
"5066","-1,12812812812813","3,87187187187187","-25,1281281281281","-2,6996996996997","2,8998998998999","-0,169169169169169"
"5078","-1,12812812812813","7,87187187187187","-28,1281281281281","-2,6996996996997","2,8998998998999","-0,169169169169169"
"5078","-1,12812812812813","7,87187187187187","-28,1281281281281","2,3003003003003","3,8998998998999","-2,16916916916917"
"5086","0,871871871871872","4,87187187187187","-26,1281281281281","2,3003003003003","3,8998998998999","-2,16916916916917"
"5086","0,871871871871872","4,87187187187187","-26,1281281281281","-0,6996996996997","-0,1001001001001","-3,16916916916917"
"5098","-1,12812812812813","3,87187187187187","-26,1281281281281","-0,6996996996997","-0,1001001001001","-3,16916916916917"
"5099","-1,12812812812813","3,87187187187187","-26,1281281281281","-1,6996996996997","-1,1001001001001","-0,169169169169169"
"5107","-2,12812812812813","7,87187187187187","-24,1281281281281","-1,6996996996997","-1,1001001001001","-0,169169169169169"
"5107","-2,12812812812813","7,87187187187187","-24,1281281281281","-0,6996996996997","-0,1001001001001","0,830830830830831"
"5115","0,871871871871872","7,87187187187187","-29,1281281281281","-0,6996996996997","-0,1001001001001","0,830830830830831"
"5119","0,871871871871872","7,87187187187187","-29,1281281281281","3,3003003003003","-3,1001001001001","0,830830830830831"
"5127","1,87187187187187","3,87187187187187","-27,1281281281281","3,3003003003003","-3,1001001001001","0,830830830830831"
"5127","1,87187187187187","3,87187187187187","-27,1281281281281","-0,6996996996997","-1,1001001001001","-0,169169169169169"
"5135","-0,128128128128128","3,87187187187187","-24,1281281281281","-0,6996996996997","-1,1001001001001","-0,169169169169169"
"5139","-0,128128128128128","3,87187187187187","-24,1281281281281","1,3003003003003","-1,1001001001001","-1,16916916916917"
"5148","-0,128128128128128","7,87187187187187","-27,1281281281281","1,3003003003003","-1,1001001001001","-1,16916916916917"
"5148","-0,128128128128128","7,87187187187187","-27,1281281281281","4,3003003003003","-2,1001001001001","-2,16916916916917"
"5156","1,87187187187187","5,87187187187187","-29,1281281281281","4,3003003003003","-2,1001001001001","-2,16916916916917"
"5156","1,87187187187187","5,87187187187187","-29,1281281281281","1,3003003003003","-2,1001001001001","-1,16916916916917"
"5168","0,871871871871872","2,87187187187187","-24,1281281281281","1,3003003003003","-2,1001001001001","-1,16916916916917"
"5168","0,871871871871872","2,87187187187187","-24,1281281281281","-4,6996996996997","-2,1001001001001","-0,169169169169169"
"5176","-0,128128128128128","4,87187187187187","-25,1281281281281","-4,6996996996997","-2,1001001001001","-0,169169169169169"
"5177","-0,128128128128128","4,87187187187187","-25,1281281281281","-0,6996996996997","-1,1001001001001","-0,169169169169169"
"5188","-0,128128128128128","7,87187187187187","-28,1281281281281","-0,6996996996997","-1,1001001001001","-0,169169169169169"
"5189","-0,128128128128128","7,87187187187187","-28,1281281281281","0,3003003003003","-3,1001001001001","-2,16916916916917"
"5197","-0,128128128128128","3,87187187187187","-26,1281281281281","0,3003003003003","-3,1001001001001","-2,16916916916917"
"5197","-0,128128128128128","3,87187187187187","-26,1281281281281","-2,6996996996997","-1,1001001001001","-1,16916916916917"
"5205","-1,12812812812813","3,87187187187187","-25,1281281281281","-2,6996996996997","-1,1001001001001","-1,16916916916917"
"5209","-1,12812812812813","3,87187187187187","-25,1281281281281","-2,6996996996997","-2,1001001001001","1,83083083083083"
"5217","-1,12812812812813","8,87187187187187","-27,1281281281281","-2,6996996996997","-2,1001001001001","1,83083083083083"
"5217","-1,12812812812813","8,87187187187187","-27,1281281281281","3,3003003003003","-1,1001001001001","-0,169169169169169"
"5225","-0,128128128128128","8,87187187187187","-28,1281281281281","3,3003003003003","-1,1001001001001","-0,169169169169169"
"5229","-0,128128128128128","8,87187187187187","-28,1281281281281","1,3003003003003","-2,1001001001001","-2,16916916916917"
"5238","-1,12812812812813","3,87187187187187","-24,1281281281281","1,3003003003003","-2,1001001001001","-2,16916916916917"
"5238","-1,12812812812813","3,87187187187187","-24,1281281281281","-1,6996996996997","0,8998998998999","-1,16916916916917"
"5246","-2,12812812812813","3,87187187187187","-26,1281281281281","-1,6996996996997","0,8998998998999","-1,16916916916917"
"5246","-2,12812812812813","3,87187187187187","-26,1281281281281","0,3003003003003","-0,1001001001001","-3,16916916916917"
"5258","-0,128128128128128","6,87187187187187","-31,1281281281281","0,3003003003003","-0,1001001001001","-3,16916916916917"
"5258","-0,128128128128128","6,87187187187187","-31,1281281281281","1,3003003003003","0,8998998998999","-1,16916916916917"
"5266","0,871871871871872","3,87187187187187","-24,1281281281281","1,3003003003003","0,8998998998999","-1,16916916916917"
"5267","0,871871871871872","3,87187187187187","-24,1281281281281","0,3003003003003","-2,1001001001001","0,830830830830831"
"5279","0,871871871871872","3,87187187187187","-23,1281281281281","0,3003003003003","-2,1001001001001","0,830830830830831"
"5279","0,871871871871872","3,87187187187187","-23,1281281281281","0,3003003003003","-4,1001001001001","1,83083083083083"
"5287","-0,128128128128128","6,87187187187187","-26,1281281281281","0,3003003003003","-4,1001001001001","1,83083083083083"
"5287","-0,128128128128128","6,87187187187187","-26,1281281281281","0,3003003003003","-1,1001001001001","0,830830830830831"
"5295","-1,12812812812813","5,87187187187187","-28,1281281281281","0,3003003003003","-1,1001001001001","0,830830830830831"
"5299","-1,12812812812813","5,87187187187187","-28,1281281281281","-0,6996996996997","-1,1001001001001","-1,16916916916917"
"5307","-1,12812812812813","5,87187187187187","-26,1281281281281","-0,6996996996997","-1,1001001001001","-1,16916916916917"
"5308","-1,12812812812813","5,87187187187187","-26,1281281281281","0,3003003003003","-0,1001001001001","-0,169169169169169"
"5316","-0,128128128128128","5,87187187187187","-25,1281281281281","0,3003003003003","-0,1001001001001","-0,169169169169169"
"5319","-0,128128128128128","5,87187187187187","-25,1281281281281","0,3003003003003","-2,1001001001001","0,830830830830831"
"5328","-0,128128128128128","8,87187187187187","-27,1281281281281","0,3003003003003","-2,1001001001001","0,830830830830831"
"5328","-0,128128128128128","8,87187187187187","-27,1281281281281","-2,6996996996997","0,8998998998999","2,83083083083083"
"5336","-0,128128128128128","1,87187187187187","-26,1281281281281","-2,6996996996997","0,8998998998999","2,83083083083083"
"5336","-0,128128128128128","1,87187187187187","-26,1281281281281","-2,6996996996997","-3,1001001001001","-0,169169169169169"
"5349","-0,128128128128128","3,87187187187187","-27,1281281281281","-2,6996996996997","-3,1001001001001","-0,169169169169169"
"5349","-0,128128128128128","3,87187187187187","-27,1281281281281","-1,6996996996997","-1,1001001001001","-1,16916916916917"
"5357","-1,12812812812813","5,87187187187187","-29,1281281281281","-1,6996996996997","-1,1001001001001","-1,16916916916917"
"5357","-1,12812812812813","5,87187187187187","-29,1281281281281","-1,6996996996997","-2,1001001001001","-2,16916916916917"
"5369","-0,128128128128128","5,87187187187187","-27,1281281281281","-1,6996996996997","-2,1001001001001","-2,16916916916917"
"5369","-0,128128128128128","5,87187187187187","-27,1281281281281","-2,6996996996997","-0,1001001001001","-0,169169169169169"
"5377","1,87187187187187","3,87187187187187","-24,1281281281281","-2,6996996996997","-0,1001001001001","-0,169169169169169"
"5377","1,87187187187187","3,87187187187187","-24,1281281281281","-0,6996996996997","-0,1001001001001","-1,16916916916917"
"5385","-0,128128128128128","5,87187187187187","-27,1281281281281","-0,6996996996997","-0,1001001001001","-1,16916916916917"
"5389","-0,128128128128128","5,87187187187187","-27,1281281281281","-0,6996996996997","-1,1001001001001","-0,169169169169169"
"5397","-1,12812812812813","4,87187187187187","-27,1281281281281","-0,6996996996997","-1,1001001001001","-0,169169169169169"
"5398","-1,12812812812813","4,87187187187187","-27,1281281281281","0,3003003003003","-1,1001001001001","0,830830830830831"
"5406","-1,12812812812813","3,87187187187187","-28,1281281281281","0,3003003003003","-1,1001001001001","0,830830830830831"
"5409","-1,12812812812813","3,87187187187187","-28,1281281281281","-1,6996996996997","-2,1001001001001","-1,16916916916917"
"5418","-0,128128128128128","5,87187187187187","-26,1281281281281","-1,6996996996997","-2,1001001001001","-1,16916916916917"
"5418","-0,128128128128128","5,87187187187187","-26,1281281281281","-0,6996996996997","-1,1001001001001","-0,169169169169169"
"5426","1,87187187187187","5,87187187187187","-27,1281281281281","-0,6996996996997","-1,1001001001001","-0,169169169169169"
"5426","1,87187187187187","5,87187187187187","-27,1281281281281","3,3003003003003","-3,1001001001001","-1,16916916916917"
"5438","-0,128128128128128","3,87187187187187","-25,1281281281281","3,3003003003003","-3,1001001001001","-1,16916916916917"
"5439","-0,128128128128128","3,87187187187187","-25,1281281281281","4,3003003003003","-1,1001001001001","-0,169169169169169"
"5447","-2,12812812812813","4,87187187187187","-26,1281281281281","4,3003003003003","-1,1001001001001","-0,169169169169169"
"5447","-2,12812812812813","4,87187187187187","-26,1281281281281","1,3003003003003","-0,1001001001001","-0,169169169169169"
"5455","-1,12812812812813","8,87187187187187","-28,1281281281281","1,3003003003003","-0,1001001001001","-0,169169169169169"
"5459","-1,12812812812813","8,87187187187187","-28,1281281281281","0,3003003003003","-0,1001001001001","0,830830830830831"
"5467","0,871871871871872","3,87187187187187","-27,1281281281281","0,3003003003003","-0,1001001001001","0,830830830830831"
"5467","0,871871871871872","3,87187187187187","-27,1281281281281","-1,6996996996997","-3,1001001001001","-2,16916916916917"
"5475","-0,128128128128128","3,87187187187187","-25,1281281281281","-1,6996996996997","-3,1001001001001","-2,16916916916917"
"5479","-0,128128128128128","3,87187187187187","-25,1281281281281","0,3003003003003","-3,1001001001001","1,83083083083083"
"5488","-0,128128128128128","4,87187187187187","-27,1281281281281","0,3003003003003","-3,1001001001001","1,83083083083083"
"5488","-0,128128128128128","4,87187187187187","-27,1281281281281","0,3003003003003","-0,1001001001001","0,830830830830831"
"5496","1,87187187187187","6,87187187187187","-26,1281281281281","0,3003003003003","-0,1001001001001","0,830830830830831"
"5496","1,87187187187187","6,87187187187187","-26,1281281281281","-0,6996996996997","-1,1001001001001","-0,169169169169169"
"5508","0,871871871871872","3,87187187187187","-26,1281281281281","-0,6996996996997","-1,1001001001001","-0,169169169169169"
"5508","0,871871871871872","3,87187187187187","-26,1281281281281","-3,6996996996997","-1,1001001001001","-2,16916916916917"
"5516","0,871871871871872","4,87187187187187","-27,1281281281281","-3,6996996996997","-1,1001001001001","-2,16916916916917"
"5517","0,871871871871872","4,87187187187187","-27,1281281281281","-3,6996996996997","0,8998998998999","-2,16916916916917"
"5528","-0,128128128128128","7,87187187187187","-27,1281281281281","-3,6996996996997","0,8998998998999","-2,16916916916917"
"5529","-0,128128128128128","7,87187187187187","-27,1281281281281","0,3003003003003","-1,1001001001001","-0,169169169169169"
"5537","-0,128128128128128","3,87187187187187","-27,1281281281281","0,3003003003003","-1,1001001001001","-0,169169169169169"
"5537","-0,128128128128128","3,87187187187187","-27,1281281281281","-2,6996996996997","0,8998998998999","0,830830830830831"
"5545","-0,128128128128128","3,87187187187187","-27,1281281281281","-2,6996996996997","0,8998998998999","0,830830830830831"
"5549","-0,128128128128128","3,87187187187187","-27,1281281281281","-4,6996996996997","0,8998998998999","-0,169169169169169"
"5557","0,871871871871872","5,87187187187187","-27,1281281281281","-4,6996996996997","0,8998998998999","-0,169169169169169"
"5558","0,871871871871872","5,87187187187187","-27,1281281281281","-0,6996996996997","-1,1001001001001","-0,169169169169169"
"5565","-0,128128128128128","6,87187187187187","-27,1281281281281","-0,6996996996997","-1,1001001001001","-0,169169169169169"
"5569","-0,128128128128128","6,87187187187187","-27,1281281281281","-1,6996996996997","-1,1001001001001","0,830830830830831"
"5578","0,871871871871872","2,87187187187187","-23,1281281281281","-1,6996996996997","-1,1001001001001","0,830830830830831"
"5578","0,871871871871872","2,87187187187187","-23,1281281281281","-2,6996996996997","1,8998998998999","-0,169169169169169"
"5586","-1,12812812812813","3,87187187187187","-24,1281281281281","-2,6996996996997","1,8998998998999","-0,169169169169169"
"5586","-1,12812812812813","3,87187187187187","-24,1281281281281","0,3003003003003","-2,1001001001001","-0,169169169169169"
"5598","-2,12812812812813","7,87187187187187","-31,1281281281281","0,3003003003003","-2,1001001001001","-0,169169169169169"
"5598","-2,12812812812813","7,87187187187187","-31,1281281281281","3,3003003003003","-1,1001001001001","0,830830830830831"
"5607","-0,128128128128128","0,871871871871872","-29,1281281281281","3,3003003003003","-1,1001001001001","0,830830830830831"
"5607","-0,128128128128128","0,871871871871872","-29,1281281281281","0,3003003003003","-1,1001001001001","-1,16916916916917"
"5619","-1,12812812812813","3,87187187187187","-26,1281281281281","0,3003003003003","-1,1001001001001","-1,16916916916917"
"5619","-1,12812812812813","3,87187187187187","-26,1281281281281","1,3003003003003","0,8998998998999","-0,169169169169169"
"5627","-2,12812812812813","6,87187187187187","-27,1281281281281","1,3003003003003","0,8998998998999","-0,169169169169169"
"5627","-2,12812812812813","6,87187187187187","-27,1281281281281","1,3003003003003","-0,1001001001001","0,830830830830831"
"5635","-0,128128128128128","6,87187187187187","-26,1281281281281","1,3003003003003","-0,1001001001001","0,830830830830831"
"5639","-0,128128128128128","6,87187187187187","-26,1281281281281","2,3003003003003","-0,1001001001001","0,830830830830831"
"5647","-0,128128128128128","3,87187187187187","-26,1281281281281","2,3003003003003","-0,1001001001001","0,830830830830831"
"5648","-0,128128128128128","3,87187187187187","-26,1281281281281","-0,6996996996997","4,8998998998999","0,830830830830831"
"5656","-0,128128128128128","5,87187187187187","-27,1281281281281","-0,6996996996997","4,8998998998999","0,830830830830831"
"5659","-0,128128128128128","5,87187187187187","-27,1281281281281","2,3003003003003","0,8998998998999","-1,16916916916917"
"5668","-0,128128128128128","5,87187187187187","-28,1281281281281","2,3003003003003","0,8998998998999","-1,16916916916917"
"5668","-0,128128128128128","5,87187187187187","-28,1281281281281","2,3003003003003","0,8998998998999","-1,16916916916917"
"5676","-0,128128128128128","3,87187187187187","-27,1281281281281","2,3003003003003","0,8998998998999","-1,16916916916917"
"5676","-0,128128128128128","3,87187187187187","-27,1281281281281","0,3003003003003","1,8998998998999","-1,16916916916917"
"5688","0,871871871871872","4,87187187187187","-26,1281281281281","0,3003003003003","1,8998998998999","-1,16916916916917"
"5689","0,871871871871872","4,87187187187187","-26,1281281281281","-1,6996996996997","-2,1001001001001","-0,169169169169169"
"5697","-1,12812812812813","6,87187187187187","-26,1281281281281","-1,6996996996997","-2,1001001001001","-0,169169169169169"
"5697","-1,12812812812813","6,87187187187187","-26,1281281281281","4,3003003003003","-1,1001001001001","-0,169169169169169"
"5709","-1,12812812812813","3,87187187187187","-28,1281281281281","4,3003003003003","-1,1001001001001","-0,169169169169169"
"5709","-1,12812812812813","3,87187187187187","-28,1281281281281","3,3003003003003","-1,1001001001001","0,830830830830831"
"5717","-1,12812812812813","3,87187187187187","-26,1281281281281","3,3003003003003","-1,1001001001001","0,830830830830831"
"5717","-1,12812812812813","3,87187187187187","-26,1281281281281","3,3003003003003","2,8998998998999","-0,169169169169169"
"5729","-2,12812812812813","6,87187187187187","-26,1281281281281","3,3003003003003","2,8998998998999","-0,169169169169169"
"5729","-2,12812812812813","6,87187187187187","-26,1281281281281","0,3003003003003","1,8998998998999","-1,16916916916917"
"5738","-0,128128128128128","5,87187187187187","-27,1281281281281","0,3003003003003","1,8998998998999","-1,16916916916917"
"5738","-0,128128128128128","5,87187187187187","-27,1281281281281","-0,6996996996997","-0,1001001001001","2,83083083083083"
"5746","-1,12812812812813","4,87187187187187","-25,1281281281281","-0,6996996996997","-0,1001001001001","2,83083083083083"
"5750","-1,12812812812813","4,87187187187187","-25,1281281281281","-1,6996996996997","0,8998998998999","0,830830830830831"
"5758","-0,128128128128128","8,87187187187187","-27,1281281281281","-1,6996996996997","0,8998998998999","0,830830830830831"
"5758","-0,128128128128128","8,87187187187187","-27,1281281281281","0,3003003003003","1,8998998998999","-1,16916916916917"
"5766","-0,128128128128128","8,87187187187187","-30,1281281281281","0,3003003003003","1,8998998998999","-1,16916916916917"
"5766","-0,128128128128128","8,87187187187187","-30,1281281281281","2,3003003003003","0,8998998998999","-1,16916916916917"
"5778","-2,12812812812813","0,871871871871872","-24,1281281281281","2,3003003003003","0,8998998998999","-1,16916916916917"
"5779","-2,12812812812813","0,871871871871872","-24,1281281281281","-0,6996996996997","-1,1001001001001","0,830830830830831"
"5787","-0,128128128128128","3,87187187187187","-26,1281281281281","-0,6996996996997","-1,1001001001001","0,830830830830831"
"5787","-0,128128128128128","3,87187187187187","-26,1281281281281","2,3003003003003","-0,1001001001001","0,830830830830831"
"5799","-0,128128128128128","10,8718718718719","-28,1281281281281","2,3003003003003","-0,1001001001001","0,830830830830831"
"5799","-0,128128128128128","10,8718718718719","-28,1281281281281","2,3003003003003","-0,1001001001001","-0,169169169169169"
"5807","0,871871871871872","5,87187187187187","-30,1281281281281","2,3003003003003","-0,1001001001001","-0,169169169169169"
"5807","0,871871871871872","5,87187187187187","-30,1281281281281","1,3003003003003","0,8998998998999","-1,16916916916917"
"5815","-1,12812812812813","2,87187187187187","-26,1281281281281","1,3003003003003","0,8998998998999","-1,16916916916917"
"5819","-1,12812812812813","2,87187187187187","-26,1281281281281","0,3003003003003","-1,1001001001001","-1,16916916916917"
"5828","0,871871871871872","3,87187187187187","-24,1281281281281","0,3003003003003","-1,1001001001001","-1,16916916916917"
"5828","0,871871871871872","3,87187187187187","-24,1281281281281","0,3003003003003","-1,1001001001001","-0,169169169169169"
"5836","-0,128128128128128","8,87187187187187","-29,1281281281281","0,3003003003003","-1,1001001001001","-0,169169169169169"
"5840","-0,128128128128128","8,87187187187187","-29,1281281281281","0,3003003003003","-3,1001001001001","0,830830830830831"
"5848","-1,12812812812813","1,87187187187187","-25,1281281281281","0,3003003003003","-3,1001001001001","0,830830830830831"
"5848","-1,12812812812813","1,87187187187187","-25,1281281281281","-0,6996996996997","0,8998998998999","-0,169169169169169"
"5856","0,871871871871872","4,87187187187187","-26,1281281281281","-0,6996996996997","0,8998998998999","-0,169169169169169"
