Timer,AX,AY,AZ,GX,GY,GZ
"1009","0,871871871871872","6,87187187187187","-27,1281281281281","1,3003003003003","2,8998998998999","-0,169169169169169"
"1009","0,871871871871872","6,87187187187187","-27,1281281281281","2,3003003003003","-0,1001001001001","-0,169169169169169"
"1017","0,871871871871872","6,87187187187187","-27,1281281281281","2,3003003003003","-0,1001001001001","-0,169169169169169"
"1017","0,871871871871872","6,87187187187187","-27,1281281281281","2,3003003003003","-0,1001001001001","-0,169169169169169"
"1029","0,871871871871872","4,87187187187187","-24,1281281281281","2,3003003003003","-0,1001001001001","-0,169169169169169"
"1029","0,871871871871872","4,87187187187187","-24,1281281281281","-2,6996996996997","0,8998998998999","-2,16916916916917"
"1037","-0,128128128128128","4,87187187187187","-27,1281281281281","-2,6996996996997","0,8998998998999","-2,16916916916917"
"1038","-0,128128128128128","4,87187187187187","-27,1281281281281","-0,6996996996997","-1,1001001001001","-1,16916916916917"
"1050","0,871871871871872","4,87187187187187","-26,1281281281281","-0,6996996996997","-1,1001001001001","-1,16916916916917"
"1050","0,871871871871872","4,87187187187187","-26,1281281281281","-0,6996996996997","0,8998998998999","1,83083083083083"
"1058","-3,12812812812813","3,87187187187187","-25,1281281281281","-0,6996996996997","0,8998998998999","1,83083083083083"
"1058","-3,12812812812813","3,87187187187187","-25,1281281281281","-1,6996996996997","1,8998998998999","0,830830830830831"
"1066","-3,12812812812813","3,87187187187187","-25,1281281281281","-1,6996996996997","1,8998998998999","0,830830830830831"
"1067","-3,12812812812813","3,87187187187187","-25,1281281281281","1,3003003003003","-0,1001001001001","1,83083083083083"
"1078","1,87187187187187","5,87187187187187","-25,1281281281281","1,3003003003003","-0,1001001001001","1,83083083083083"
"1078","1,87187187187187","5,87187187187187","-25,1281281281281","3,3003003003003","-2,1001001001001","-1,16916916916917"
"1086","1,87187187187187","5,87187187187187","-25,1281281281281","3,3003003003003","-2,1001001001001","-1,16916916916917"
"1090","1,87187187187187","5,87187187187187","-25,1281281281281","2,3003003003003","-1,1001001001001","-1,16916916916917"
"1099","-0,128128128128128","4,87187187187187","-26,1281281281281","2,3003003003003","-1,1001001001001","-1,16916916916917"
"1099","-0,128128128128128","4,87187187187187","-26,1281281281281","2,3003003003003","-2,1001001001001","1,83083083083083"
"1107","-0,128128128128128","4,87187187187187","-25,1281281281281","2,3003003003003","-2,1001001001001","1,83083083083083"
"1107","-0,128128128128128","4,87187187187187","-25,1281281281281","0,3003003003003","-0,1001001001001","1,83083083083083"
"1115","-0,128128128128128","4,87187187187187","-25,1281281281281","0,3003003003003","-0,1001001001001","1,83083083083083"
"1115","-0,128128128128128","4,87187187187187","-25,1281281281281","0,3003003003003","-0,1001001001001","1,83083083083083"
"1128","2,87187187187187","3,87187187187187","-27,1281281281281","0,3003003003003","-0,1001001001001","1,83083083083083"
"1128","2,87187187187187","3,87187187187187","-27,1281281281281","2,3003003003003","-0,1001001001001","-0,169169169169169"
"1136","-1,12812812812813","3,87187187187187","-25,1281281281281","2,3003003003003","-0,1001001001001","-0,169169169169169"
"1140","-1,12812812812813","3,87187187187187","-25,1281281281281","2,3003003003003","-0,1001001001001","1,83083083083083"
"1148","0,871871871871872","5,87187187187187","-28,1281281281281","2,3003003003003","-0,1001001001001","1,83083083083083"
"1148","0,871871871871872","5,87187187187187","-28,1281281281281","4,3003003003003","-3,1001001001001","1,83083083083083"
"1156","-0,128128128128128","3,87187187187187","-28,1281281281281","4,3003003003003","-3,1001001001001","1,83083083083083"
"1160","-0,128128128128128","3,87187187187187","-28,1281281281281","1,3003003003003","-0,1001001001001","0,830830830830831"
"1164","-0,128128128128128","3,87187187187187","-28,1281281281281","1,3003003003003","-0,1001001001001","0,830830830830831"
"1165","-0,128128128128128","3,87187187187187","-28,1281281281281","1,3003003003003","-0,1001001001001","0,830830830830831"
"1177","-0,128128128128128","3,87187187187187","-24,1281281281281","1,3003003003003","-0,1001001001001","0,830830830830831"
"1177","-0,128128128128128","3,87187187187187","-24,1281281281281","-1,6996996996997","-0,1001001001001","-0,169169169169169"
"1185","-0,128128128128128","4,87187187187187","-26,1281281281281","-1,6996996996997","-0,1001001001001","-0,169169169169169"
"1189","-0,128128128128128","4,87187187187187","-26,1281281281281","-1,6996996996997","-1,1001001001001","-0,169169169169169"
"1197","0,871871871871872","3,87187187187187","-30,1281281281281","-1,6996996996997","-1,1001001001001","-0,169169169169169"
"1197","0,871871871871872","3,87187187187187","-30,1281281281281","-1,6996996996997","2,8998998998999","1,83083083083083"
"1206","-1,12812812812813","3,87187187187187","-25,1281281281281","-1,6996996996997","2,8998998998999","1,83083083083083"
"1206","-1,12812812812813","3,87187187187187","-25,1281281281281","-0,6996996996997","1,8998998998999","-0,169169169169169"
"1214","-2,12812812812813","5,87187187187187","-27,1281281281281","-0,6996996996997","1,8998998998999","-0,169169169169169"
"1214","-2,12812812812813","5,87187187187187","-27,1281281281281","-0,6996996996997","0,8998998998999","1,83083083083083"
"1226","-2,12812812812813","7,87187187187187","-24,1281281281281","-0,6996996996997","0,8998998998999","1,83083083083083"
"1226","-2,12812812812813","7,87187187187187","-24,1281281281281","0,3003003003003","1,8998998998999","-0,169169169169169"
"1234","-1,12812812812813","4,87187187187187","-26,1281281281281","0,3003003003003","1,8998998998999","-0,169169169169169"
"1238","-1,12812812812813","4,87187187187187","-26,1281281281281","1,3003003003003","0,8998998998999","-0,169169169169169"
"1246","-2,12812812812813","3,87187187187187","-26,1281281281281","1,3003003003003","0,8998998998999","-0,169169169169169"
"1246","-2,12812812812813","3,87187187187187","-26,1281281281281","1,3003003003003","-0,1001001001001","-0,169169169169169"
"1255","-1,12812812812813","4,87187187187187","-28,1281281281281","1,3003003003003","-0,1001001001001","-0,169169169169169"
"1255","-1,12812812812813","4,87187187187187","-28,1281281281281","1,3003003003003","0,8998998998999","-0,169169169169169"
"1263","-0,128128128128128","4,87187187187187","-27,1281281281281","1,3003003003003","0,8998998998999","-0,169169169169169"
"1263","-0,128128128128128","4,87187187187187","-27,1281281281281","0,3003003003003","-3,1001001001001","-3,16916916916917"
"1275","-1,12812812812813","3,87187187187187","-26,1281281281281","0,3003003003003","-3,1001001001001","-3,16916916916917"
"1275","-1,12812812812813","3,87187187187187","-26,1281281281281","0,3003003003003","-2,1001001001001","-0,169169169169169"
"1283","0,871871871871872","4,87187187187187","-26,1281281281281","0,3003003003003","-2,1001001001001","-0,169169169169169"
"1283","0,871871871871872","4,87187187187187","-26,1281281281281","-0,6996996996997","-2,1001001001001","1,83083083083083"
"1295","0,871871871871872","2,87187187187187","-27,1281281281281","-0,6996996996997","-2,1001001001001","1,83083083083083"
"1296","0,871871871871872","2,87187187187187","-27,1281281281281","-1,6996996996997","-1,1001001001001","-0,169169169169169"
"1304","-0,128128128128128","3,87187187187187","-25,1281281281281","-1,6996996996997","-1,1001001001001","-0,169169169169169"
"1304","-0,128128128128128","3,87187187187187","-25,1281281281281","3,3003003003003","-0,1001001001001","-2,16916916916917"
"1312","-0,128128128128128","5,87187187187187","-28,1281281281281","3,3003003003003","-0,1001001001001","-2,16916916916917"
"1312","-0,128128128128128","5,87187187187187","-28,1281281281281","-1,6996996996997","1,8998998998999","-0,169169169169169"
"1324","1,87187187187187","2,87187187187187","-26,1281281281281","-1,6996996996997","1,8998998998999","-0,169169169169169"
"1324","1,87187187187187","2,87187187187187","-26,1281281281281","2,3003003003003","-3,1001001001001","-0,169169169169169"
"1332","-3,12812812812813","3,87187187187187","-26,1281281281281","2,3003003003003","-3,1001001001001","-0,169169169169169"
"1333","-3,12812812812813","3,87187187187187","-26,1281281281281","0,3003003003003","-0,1001001001001","0,830830830830831"
"1345","0,871871871871872","6,87187187187187","-28,1281281281281","0,3003003003003","-0,1001001001001","0,830830830830831"
"1345","0,871871871871872","6,87187187187187","-28,1281281281281","2,3003003003003","-2,1001001001001","-1,16916916916917"
"1353","0,871871871871872","3,87187187187187","-28,1281281281281","2,3003003003003","-2,1001001001001","-1,16916916916917"
"1353","0,871871871871872","3,87187187187187","-28,1281281281281","-0,6996996996997","-0,1001001001001","0,830830830830831"
"1361","-2,12812812812813","2,87187187187187","-26,1281281281281","-0,6996996996997","-0,1001001001001","0,830830830830831"
"1365","-2,12812812812813","2,87187187187187","-26,1281281281281","-0,6996996996997","1,8998998998999","-0,169169169169169"
"1373","-2,12812812812813","3,87187187187187","-27,1281281281281","-0,6996996996997","1,8998998998999","-0,169169169169169"
"1374","-2,12812812812813","3,87187187187187","-27,1281281281281","-0,6996996996997","-0,1001001001001","2,83083083083083"
"1382","-0,128128128128128","4,87187187187187","-26,1281281281281","-0,6996996996997","-0,1001001001001","2,83083083083083"
"1385","-0,128128128128128","4,87187187187187","-26,1281281281281","0,3003003003003","-1,1001001001001","0,830830830830831"
"1394","1,87187187187187","4,87187187187187","-28,1281281281281","0,3003003003003","-1,1001001001001","0,830830830830831"
"1394","1,87187187187187","4,87187187187187","-28,1281281281281","2,3003003003003","1,8998998998999","-0,169169169169169"
"1402","0,871871871871872","3,87187187187187","-28,1281281281281","2,3003003003003","1,8998998998999","-0,169169169169169"
"1402","0,871871871871872","3,87187187187187","-28,1281281281281","-0,6996996996997","-1,1001001001001","0,830830830830831"
"1414","-3,12812812812813","4,87187187187187","-26,1281281281281","-0,6996996996997","-1,1001001001001","0,830830830830831"
"1414","-3,12812812812813","4,87187187187187","-26,1281281281281","1,3003003003003","0,8998998998999","-1,16916916916917"
"1423","-1,12812812812813","3,87187187187187","-27,1281281281281","1,3003003003003","0,8998998998999","-1,16916916916917"
"1423","-1,12812812812813","3,87187187187187","-27,1281281281281","3,3003003003003","0,8998998998999","0,830830830830831"
"1435","-0,128128128128128","2,87187187187187","-25,1281281281281","3,3003003003003","0,8998998998999","0,830830830830831"
"1435","-0,128128128128128","2,87187187187187","-25,1281281281281","2,3003003003003","1,8998998998999","-0,169169169169169"
"1443","0,871871871871872","4,87187187187187","-26,1281281281281","2,3003003003003","1,8998998998999","-0,169169169169169"
"1443","0,871871871871872","4,87187187187187","-26,1281281281281","2,3003003003003","-3,1001001001001","-0,169169169169169"
"1455","-0,128128128128128","5,87187187187187","-26,1281281281281","2,3003003003003","-3,1001001001001","-0,169169169169169"
"1455","-0,128128128128128","5,87187187187187","-26,1281281281281","4,3003003003003","-2,1001001001001","-2,16916916916917"
"1464","-0,128128128128128","4,87187187187187","-26,1281281281281","4,3003003003003","-2,1001001001001","-2,16916916916917"
"1464","-0,128128128128128","4,87187187187187","-26,1281281281281","0,3003003003003","-2,1001001001001","0,830830830830831"
"1472","-0,128128128128128","3,87187187187187","-26,1281281281281","0,3003003003003","-2,1001001001001","0,830830830830831"
"1476","-0,128128128128128","3,87187187187187","-26,1281281281281","-1,6996996996997","-3,1001001001001","0,830830830830831"
"1484","-1,12812812812813","3,87187187187187","-27,1281281281281","-1,6996996996997","-3,1001001001001","0,830830830830831"
"1484","-1,12812812812813","3,87187187187187","-27,1281281281281","3,3003003003003","-1,1001001001001","0,830830830830831"
"1492","-1,12812812812813","3,87187187187187","-27,1281281281281","3,3003003003003","-1,1001001001001","0,830830830830831"
"1492","-1,12812812812813","3,87187187187187","-27,1281281281281","2,3003003003003","-1,1001001001001","-0,169169169169169"
"1504","1,87187187187187","4,87187187187187","-26,1281281281281","2,3003003003003","-1,1001001001001","-0,169169169169169"
"1505","1,87187187187187","4,87187187187187","-26,1281281281281","2,3003003003003","1,8998998998999","-0,169169169169169"
"1513","-1,12812812812813","4,87187187187187","-27,1281281281281","2,3003003003003","1,8998998998999","-0,169169169169169"
"1513","-1,12812812812813","4,87187187187187","-27,1281281281281","1,3003003003003","-0,1001001001001","2,83083083083083"
"1525","-1,12812812812813","3,87187187187187","-23,1281281281281","1,3003003003003","-0,1001001001001","2,83083083083083"
"1525","-1,12812812812813","3,87187187187187","-23,1281281281281","0,3003003003003","0,8998998998999","-0,169169169169169"
"1533","0,871871871871872","6,87187187187187","-26,1281281281281","0,3003003003003","0,8998998998999","-0,169169169169169"
"1533","0,871871871871872","6,87187187187187","-26,1281281281281","-0,6996996996997","0,8998998998999","-0,169169169169169"
"1541","-1,12812812812813","5,87187187187187","-27,1281281281281","-0,6996996996997","0,8998998998999","-0,169169169169169"
"1545","-1,12812812812813","5,87187187187187","-27,1281281281281","-0,6996996996997","-1,1001001001001","0,830830830830831"
"1554","0,871871871871872","3,87187187187187","-24,1281281281281","-0,6996996996997","-1,1001001001001","0,830830830830831"
"1554","0,871871871871872","3,87187187187187","-24,1281281281281","-0,6996996996997","-0,1001001001001","2,83083083083083"
"1562","-2,12812812812813","4,87187187187187","-27,1281281281281","-0,6996996996997","-0,1001001001001","2,83083083083083"
"1566","-2,12812812812813","4,87187187187187","-27,1281281281281","-0,6996996996997","-1,1001001001001","1,83083083083083"
"1574","0,871871871871872","7,87187187187187","-24,1281281281281","-0,6996996996997","-1,1001001001001","1,83083083083083"
"1574","0,871871871871872","7,87187187187187","-24,1281281281281","0,3003003003003","2,8998998998999","-0,169169169169169"
"1582","-0,128128128128128","5,87187187187187","-24,1281281281281","0,3003003003003","2,8998998998999","-0,169169169169169"
"1582","-0,128128128128128","5,87187187187187","-24,1281281281281","-3,6996996996997","-1,1001001001001","1,83083083083083"
"1595","-0,128128128128128","3,87187187187187","-30,1281281281281","-3,6996996996997","-1,1001001001001","1,83083083083083"
"1595","-0,128128128128128","3,87187187187187","-30,1281281281281","0,3003003003003","-2,1001001001001","-1,16916916916917"
"1603","-1,12812812812813","3,87187187187187","-27,1281281281281","0,3003003003003","-2,1001001001001","-1,16916916916917"
"1603","-1,12812812812813","3,87187187187187","-27,1281281281281","1,3003003003003","-0,1001001001001","1,83083083083083"
"1611","-1,12812812812813","5,87187187187187","-24,1281281281281","1,3003003003003","-0,1001001001001","1,83083083083083"
"1615","-1,12812812812813","5,87187187187187","-24,1281281281281","0,3003003003003","1,8998998998999","-0,169169169169169"
"1623","-0,128128128128128","5,87187187187187","-26,1281281281281","0,3003003003003","1,8998998998999","-0,169169169169169"
"1623","-0,128128128128128","5,87187187187187","-26,1281281281281","-2,6996996996997","0,8998998998999","-1,16916916916917"
"1631","-0,128128128128128","2,87187187187187","-26,1281281281281","-2,6996996996997","0,8998998998999","-1,16916916916917"
"1635","-0,128128128128128","2,87187187187187","-26,1281281281281","-1,6996996996997","-1,1001001001001","1,83083083083083"
"1644","0,871871871871872","3,87187187187187","-28,1281281281281","-1,6996996996997","-1,1001001001001","1,83083083083083"
"1644","0,871871871871872","3,87187187187187","-28,1281281281281","1,3003003003003","1,8998998998999","-0,169169169169169"
"1652","-0,128128128128128","5,87187187187187","-26,1281281281281","1,3003003003003","1,8998998998999","-0,169169169169169"
"1652","-0,128128128128128","5,87187187187187","-26,1281281281281","3,3003003003003","-0,1001001001001","-0,169169169169169"
"1664","-0,128128128128128","6,87187187187187","-28,1281281281281","3,3003003003003","-0,1001001001001","-0,169169169169169"
"1664","-0,128128128128128","6,87187187187187","-28,1281281281281","-2,6996996996997","-0,1001001001001","-2,16916916916917"
"1672","-0,128128128128128","3,87187187187187","-26,1281281281281","-2,6996996996997","-0,1001001001001","-2,16916916916917"
"1673","-0,128128128128128","3,87187187187187","-26,1281281281281","-0,6996996996997","-1,1001001001001","-0,169169169169169"
"1685","0,871871871871872","4,87187187187187","-25,1281281281281","-0,6996996996997","-1,1001001001001","-0,169169169169169"
"1685","0,871871871871872","4,87187187187187","-25,1281281281281","-0,6996996996997","-0,1001001001001","-0,169169169169169"
"1693","-0,128128128128128","3,87187187187187","-26,1281281281281","-0,6996996996997","-0,1001001001001","-0,169169169169169"
"1693","-0,128128128128128","3,87187187187187","-26,1281281281281","-1,6996996996997","2,8998998998999","0,830830830830831"
"1701","-1,12812812812813","3,87187187187187","-27,1281281281281","-1,6996996996997","2,8998998998999","0,830830830830831"
"1705","-1,12812812812813","3,87187187187187","-27,1281281281281","-0,6996996996997","-0,1001001001001","0,830830830830831"
"1713","-0,128128128128128","4,87187187187187","-25,1281281281281","-0,6996996996997","-0,1001001001001","0,830830830830831"
"1713","-0,128128128128128","4,87187187187187","-25,1281281281281","-0,6996996996997","-0,1001001001001","-0,169169169169169"
"1722","-2,12812812812813","4,87187187187187","-26,1281281281281","-0,6996996996997","-0,1001001001001","-0,169169169169169"
"1725","-2,12812812812813","4,87187187187187","-26,1281281281281","-0,6996996996997","-0,1001001001001","1,83083083083083"
"1734","-0,128128128128128","4,87187187187187","-25,1281281281281","-0,6996996996997","-0,1001001001001","1,83083083083083"
"1734","-0,128128128128128","4,87187187187187","-25,1281281281281","-0,6996996996997","-1,1001001001001","-1,16916916916917"
"1742","-0,128128128128128","4,87187187187187","-27,1281281281281","-0,6996996996997","-1,1001001001001","-1,16916916916917"
"1742","-0,128128128128128","4,87187187187187","-27,1281281281281","-1,6996996996997","-2,1001001001001","-0,169169169169169"
"1754","-0,128128128128128","4,87187187187187","-25,1281281281281","-1,6996996996997","-2,1001001001001","-0,169169169169169"
"1754","-0,128128128128128","4,87187187187187","-25,1281281281281","-3,6996996996997","-0,1001001001001","0,830830830830831"
"1762","-1,12812812812813","3,87187187187187","-26,1281281281281","-3,6996996996997","-0,1001001001001","0,830830830830831"
"1763","-1,12812812812813","3,87187187187187","-26,1281281281281","-4,6996996996997","0,8998998998999","-3,16916916916917"
"1774","-1,12812812812813","3,87187187187187","-26,1281281281281","-4,6996996996997","0,8998998998999","-3,16916916916917"
"1775","-1,12812812812813","3,87187187187187","-26,1281281281281","-1,6996996996997","1,8998998998999","-0,169169169169169"
"1783","-1,12812812812813","5,87187187187187","-26,1281281281281","-1,6996996996997","1,8998998998999","-0,169169169169169"
"1783","-1,12812812812813","5,87187187187187","-26,1281281281281","1,3003003003003","0,8998998998999","-0,169169169169169"
"1791","0,871871871871872","3,87187187187187","-28,1281281281281","1,3003003003003","0,8998998998999","-0,169169169169169"
"1795","0,871871871871872","3,87187187187187","-28,1281281281281","0,3003003003003","-0,1001001001001","-0,169169169169169"
"1803","-2,12812812812813","4,87187187187187","-28,1281281281281","0,3003003003003","-0,1001001001001","-0,169169169169169"
"1803","-2,12812812812813","4,87187187187187","-28,1281281281281","2,3003003003003","0,8998998998999","-1,16916916916917"
"1811","-0,128128128128128","3,87187187187187","-27,1281281281281","2,3003003003003","0,8998998998999","-1,16916916916917"
"1815","-0,128128128128128","3,87187187187187","-27,1281281281281","-1,6996996996997","0,8998998998999","0,830830830830831"
"1824","0,871871871871872","3,87187187187187","-24,1281281281281","-1,6996996996997","0,8998998998999","0,830830830830831"
"1824","0,871871871871872","3,87187187187187","-24,1281281281281","0,3003003003003","-0,1001001001001","-0,169169169169169"
"1832","-0,128128128128128","4,87187187187187","-25,1281281281281","0,3003003003003","-0,1001001001001","-0,169169169169169"
"1836","-0,128128128128128","4,87187187187187","-25,1281281281281","0,3003003003003","-0,1001001001001","0,830830830830831"
"1844","0,871871871871872","5,87187187187187","-28,1281281281281","0,3003003003003","-0,1001001001001","0,830830830830831"
"1845","0,871871871871872","5,87187187187187","-28,1281281281281","-0,6996996996997","0,8998998998999","-2,16916916916917"
"1853","-0,128128128128128","3,87187187187187","-25,1281281281281","-0,6996996996997","0,8998998998999","-2,16916916916917"
"1853","-0,128128128128128","3,87187187187187","-25,1281281281281","0,3003003003003","0,8998998998999","0,830830830830831"
"1865","0,871871871871872","4,87187187187187","-28,1281281281281","0,3003003003003","0,8998998998999","0,830830830830831"
"1865","0,871871871871872","4,87187187187187","-28,1281281281281","0,3003003003003","2,8998998998999","-0,169169169169169"
"1873","0,871871871871872","5,87187187187187","-26,1281281281281","0,3003003003003","2,8998998998999","-0,169169169169169"
"1873","0,871871871871872","5,87187187187187","-26,1281281281281","0,3003003003003","1,8998998998999","0,830830830830831"
"1881","-0,128128128128128","5,87187187187187","-27,1281281281281","0,3003003003003","1,8998998998999","0,830830830830831"
"1885","-0,128128128128128","5,87187187187187","-27,1281281281281","-1,6996996996997","2,8998998998999","0,830830830830831"
"1894","-0,128128128128128","4,87187187187187","-27,1281281281281","-1,6996996996997","2,8998998998999","0,830830830830831"
"1894","-0,128128128128128","4,87187187187187","-27,1281281281281","4,3003003003003","1,8998998998999","-0,169169169169169"
"1902","0,871871871871872","4,87187187187187","-26,1281281281281","4,3003003003003","1,8998998998999","-0,169169169169169"
"1906","0,871871871871872","4,87187187187187","-26,1281281281281","1,3003003003003","0,8998998998999","-1,16916916916917"
"1914","0,871871871871872","4,87187187187187","-27,1281281281281","1,3003003003003","0,8998998998999","-1,16916916916917"
"1914","0,871871871871872","4,87187187187187","-27,1281281281281","-1,6996996996997","-1,1001001001001","-0,169169169169169"
"1922","-1,12812812812813","3,87187187187187","-26,1281281281281","-1,6996996996997","-1,1001001001001","-0,169169169169169"
"1923","-1,12812812812813","3,87187187187187","-26,1281281281281","-2,6996996996997","-1,1001001001001","-1,16916916916917"
"1934","-1,12812812812813","4,87187187187187","-26,1281281281281","-2,6996996996997","-1,1001001001001","-1,16916916916917"
"1935","-1,12812812812813","4,87187187187187","-26,1281281281281","-1,6996996996997","-0,1001001001001","-1,16916916916917"
"1943","-1,12812812812813","4,87187187187187","-26,1281281281281","-1,6996996996997","-0,1001001001001","-1,16916916916917"
"1943","-1,12812812812813","4,87187187187187","-26,1281281281281","-0,6996996996997","0,8998998998999","-0,169169169169169"
"1955","-2,12812812812813","4,87187187187187","-26,1281281281281","-0,6996996996997","0,8998998998999","-0,169169169169169"
"1955","-2,12812812812813","4,87187187187187","-26,1281281281281","-1,6996996996997","0,8998998998999","-0,169169169169169"
"1963","-2,12812812812813","4,87187187187187","-26,1281281281281","-1,6996996996997","0,8998998998999","-0,169169169169169"
"1963","-2,12812812812813","4,87187187187187","-26,1281281281281","-0,6996996996997","-1,1001001001001","-2,16916916916917"
"1971","-0,128128128128128","4,87187187187187","-26,1281281281281","-0,6996996996997","-1,1001001001001","-2,16916916916917"
"1975","-0,128128128128128","4,87187187187187","-26,1281281281281","-1,6996996996997","0,8998998998999","-2,16916916916917"
"1984","-0,128128128128128","4,87187187187187","-28,1281281281281","-1,6996996996997","0,8998998998999","-2,16916916916917"
"1984","-0,128128128128128","4,87187187187187","-28,1281281281281","-4,6996996996997","-1,1001001001001","-0,169169169169169"
"1992","-1,12812812812813","5,87187187187187","-27,1281281281281","-4,6996996996997","-1,1001001001001","-0,169169169169169"
"1996","-1,12812812812813","5,87187187187187","-27,1281281281281","-2,6996996996997","-0,1001001001001","-0,169169169169169"
"2004","-0,128128128128128","3,87187187187187","-27,1281281281281","-2,6996996996997","-0,1001001001001","-0,169169169169169"
"2004","-0,128128128128128","3,87187187187187","-27,1281281281281","1,3003003003003","-1,1001001001001","2,83083083083083"
"2012","-2,12812812812813","3,87187187187187","-26,1281281281281","1,3003003003003","-1,1001001001001","2,83083083083083"
"2013","-2,12812812812813","3,87187187187187","-26,1281281281281","1,3003003003003","-1,1001001001001","1,83083083083083"
"2025","-0,128128128128128","4,87187187187187","-29,1281281281281","1,3003003003003","-1,1001001001001","1,83083083083083"
"2025","-0,128128128128128","4,87187187187187","-29,1281281281281","2,3003003003003","0,8998998998999","-0,169169169169169"
"2033","0,871871871871872","3,87187187187187","-27,1281281281281","2,3003003003003","0,8998998998999","-0,169169169169169"
"2033","0,871871871871872","3,87187187187187","-27,1281281281281","3,3003003003003","-1,1001001001001","-1,16916916916917"
"2045","-0,128128128128128","3,87187187187187","-27,1281281281281","3,3003003003003","-1,1001001001001","-1,16916916916917"
"2045","-0,128128128128128","3,87187187187187","-27,1281281281281","2,3003003003003","-1,1001001001001","-1,16916916916917"
"2053","-0,128128128128128","4,87187187187187","-27,1281281281281","2,3003003003003","-1,1001001001001","-1,16916916916917"
"2054","-0,128128128128128","4,87187187187187","-27,1281281281281","1,3003003003003","-1,1001001001001","0,830830830830831"
"2062","-1,12812812812813","5,87187187187187","-27,1281281281281","1,3003003003003","-1,1001001001001","0,830830830830831"
"2065","-1,12812812812813","5,87187187187187","-27,1281281281281","3,3003003003003","0,8998998998999","0,830830830830831"
"2074","-1,12812812812813","4,87187187187187","-23,1281281281281","3,3003003003003","0,8998998998999","0,830830830830831"
"2074","-1,12812812812813","4,87187187187187","-23,1281281281281","2,3003003003003","-0,1001001001001","1,83083083083083"
"2082","-1,12812812812813","5,87187187187187","-25,1281281281281","2,3003003003003","-0,1001001001001","1,83083083083083"
"2082","-1,12812812812813","5,87187187187187","-25,1281281281281","0,3003003003003","0,8998998998999","-0,169169169169169"
"2094","0,871871871871872","5,87187187187187","-30,1281281281281","0,3003003003003","0,8998998998999","-0,169169169169169"
"2095","0,871871871871872","5,87187187187187","-30,1281281281281","2,3003003003003","-3,1001001001001","-1,16916916916917"
"2103","-2,12812812812813","4,87187187187187","-27,1281281281281","2,3003003003003","-3,1001001001001","-1,16916916916917"
"2103","-2,12812812812813","4,87187187187187","-27,1281281281281","0,3003003003003","-1,1001001001001","-0,169169169169169"
"2115","-0,128128128128128","3,87187187187187","-25,1281281281281","0,3003003003003","-1,1001001001001","-0,169169169169169"
"2115","-0,128128128128128","3,87187187187187","-25,1281281281281","-0,6996996996997","1,8998998998999","1,83083083083083"
"2123","-0,128128128128128","4,87187187187187","-26,1281281281281","-0,6996996996997","1,8998998998999","1,83083083083083"
"2123","-0,128128128128128","4,87187187187187","-26,1281281281281","0,3003003003003","-2,1001001001001","1,83083083083083"
"2131","-0,128128128128128","3,87187187187187","-30,1281281281281","0,3003003003003","-2,1001001001001","1,83083083083083"
"2135","-0,128128128128128","3,87187187187187","-30,1281281281281","2,3003003003003","-1,1001001001001","0,830830830830831"
"2143","-0,128128128128128","4,87187187187187","-26,1281281281281","2,3003003003003","-1,1001001001001","0,830830830830831"
"2144","-0,128128128128128","4,87187187187187","-26,1281281281281","2,3003003003003","-2,1001001001001","1,83083083083083"
"2152","1,87187187187187","4,87187187187187","-26,1281281281281","2,3003003003003","-2,1001001001001","1,83083083083083"
"2156","1,87187187187187","4,87187187187187","-26,1281281281281","-0,6996996996997","2,8998998998999","1,83083083083083"
"2164","0,871871871871872","5,87187187187187","-25,1281281281281","-0,6996996996997","2,8998998998999","1,83083083083083"
"2164","0,871871871871872","5,87187187187187","-25,1281281281281","1,3003003003003","-0,1001001001001","2,83083083083083"
"2172","-1,12812812812813","4,87187187187187","-28,1281281281281","1,3003003003003","-0,1001001001001","2,83083083083083"
"2172","-1,12812812812813","4,87187187187187","-28,1281281281281","0,3003003003003","0,8998998998999","-0,169169169169169"
"2184","0,871871871871872","3,87187187187187","-28,1281281281281","0,3003003003003","0,8998998998999","-0,169169169169169"
"2185","0,871871871871872","3,87187187187187","-28,1281281281281","0,3003003003003","-1,1001001001001","0,830830830830831"
"2193","-0,128128128128128","6,87187187187187","-29,1281281281281","0,3003003003003","-1,1001001001001","0,830830830830831"
"2193","-0,128128128128128","6,87187187187187","-29,1281281281281","0,3003003003003","-1,1001001001001","-0,169169169169169"
"2205","-0,128128128128128","4,87187187187187","-25,1281281281281","0,3003003003003","-1,1001001001001","-0,169169169169169"
"2205","-0,128128128128128","4,87187187187187","-25,1281281281281","0,3003003003003","-0,1001001001001","1,83083083083083"
"2213","-0,128128128128128","3,87187187187187","-24,1281281281281","0,3003003003003","-0,1001001001001","1,83083083083083"
"2213","-0,128128128128128","3,87187187187187","-24,1281281281281","2,3003003003003","-1,1001001001001","-0,169169169169169"
"2221","0,871871871871872","4,87187187187187","-26,1281281281281","2,3003003003003","-1,1001001001001","-0,169169169169169"
"2225","0,871871871871872","4,87187187187187","-26,1281281281281","2,3003003003003","-3,1001001001001","0,830830830830831"
"2234","0,871871871871872","5,87187187187187","-28,1281281281281","2,3003003003003","-3,1001001001001","0,830830830830831"
"2234","0,871871871871872","5,87187187187187","-28,1281281281281","0,3003003003003","-1,1001001001001","0,830830830830831"
"2242","-0,128128128128128","4,87187187187187","-28,1281281281281","0,3003003003003","-1,1001001001001","0,830830830830831"
"2246","-0,128128128128128","4,87187187187187","-28,1281281281281","-1,6996996996997","-2,1001001001001","-1,16916916916917"
"2254","2,87187187187187","3,87187187187187","-27,1281281281281","-1,6996996996997","-2,1001001001001","-1,16916916916917"
"2254","2,87187187187187","3,87187187187187","-27,1281281281281","-1,6996996996997","0,8998998998999","0,830830830830831"
"2262","-1,12812812812813","4,87187187187187","-26,1281281281281","-1,6996996996997","0,8998998998999","0,830830830830831"
"2262","-1,12812812812813","4,87187187187187","-26,1281281281281","1,3003003003003","-0,1001001001001","1,83083083083083"
"2274","-0,128128128128128","4,87187187187187","-25,1281281281281","1,3003003003003","-0,1001001001001","1,83083083083083"
"2275","-0,128128128128128","4,87187187187187","-25,1281281281281","0,3003003003003","-1,1001001001001","0,830830830830831"
"2283","-2,12812812812813","3,87187187187187","-26,1281281281281","0,3003003003003","-1,1001001001001","0,830830830830831"
"2283","-2,12812812812813","3,87187187187187","-26,1281281281281","1,3003003003003","-2,1001001001001","-1,16916916916917"
"2295","-0,128128128128128","3,87187187187187","-26,1281281281281","1,3003003003003","-2,1001001001001","-1,16916916916917"
"2295","-0,128128128128128","3,87187187187187","-26,1281281281281","0,3003003003003","-0,1001001001001","0,830830830830831"
"2303","-0,128128128128128","4,87187187187187","-26,1281281281281","0,3003003003003","-0,1001001001001","0,830830830830831"
"2303","-0,128128128128128","4,87187187187187","-26,1281281281281","1,3003003003003","0,8998998998999","1,83083083083083"
"2311","0,871871871871872","6,87187187187187","-28,1281281281281","1,3003003003003","0,8998998998999","1,83083083083083"
"2315","0,871871871871872","6,87187187187187","-28,1281281281281","4,3003003003003","-1,1001001001001","-0,169169169169169"
"2324","-1,12812812812813","5,87187187187187","-27,1281281281281","4,3003003003003","-1,1001001001001","-0,169169169169169"
"2324","-1,12812812812813","5,87187187187187","-27,1281281281281","0,3003003003003","-2,1001001001001","-0,169169169169169"
"2332","1,87187187187187","3,87187187187187","-25,1281281281281","0,3003003003003","-2,1001001001001","-0,169169169169169"
"2336","1,87187187187187","3,87187187187187","-25,1281281281281","-2,6996996996997","-1,1001001001001","0,830830830830831"
"2344","0,871871871871872","5,87187187187187","-28,1281281281281","-2,6996996996997","-1,1001001001001","0,830830830830831"
"2344","0,871871871871872","5,87187187187187","-28,1281281281281","0,3003003003003","-1,1001001001001","-0,169169169169169"
"2352","0,871871871871872","5,87187187187187","-27,1281281281281","0,3003003003003","-1,1001001001001","-0,169169169169169"
"2353","0,871871871871872","5,87187187187187","-27,1281281281281","0,3003003003003","1,8998998998999","-1,16916916916917"
"2365","-1,12812812812813","3,87187187187187","-27,1281281281281","0,3003003003003","1,8998998998999","-1,16916916916917"
"2365","-1,12812812812813","3,87187187187187","-27,1281281281281","0,3003003003003","-1,1001001001001","-1,16916916916917"
"2373","-1,12812812812813","4,87187187187187","-24,1281281281281","0,3003003003003","-1,1001001001001","-1,16916916916917"
"2373","-1,12812812812813","4,87187187187187","-24,1281281281281","-0,6996996996997","-2,1001001001001","-2,16916916916917"
"2385","0,871871871871872","5,87187187187187","-24,1281281281281","-0,6996996996997","-2,1001001001001","-2,16916916916917"
"2385","0,871871871871872","5,87187187187187","-24,1281281281281","-2,6996996996997","-1,1001001001001","-0,169169169169169"
"2393","-0,128128128128128","4,87187187187187","-27,1281281281281","-2,6996996996997","-1,1001001001001","-0,169169169169169"
"2394","-0,128128128128128","4,87187187187187","-27,1281281281281","1,3003003003003","-1,1001001001001","-0,169169169169169"
"2401","-2,12812812812813","2,87187187187187","-26,1281281281281","1,3003003003003","-1,1001001001001","-0,169169169169169"
"2406","-2,12812812812813","2,87187187187187","-26,1281281281281","-1,6996996996997","-2,1001001001001","-0,169169169169169"
"2414","-1,12812812812813","4,87187187187187","-25,1281281281281","-1,6996996996997","-2,1001001001001","-0,169169169169169"
"2414","-1,12812812812813","4,87187187187187","-25,1281281281281","0,3003003003003","-2,1001001001001","-0,169169169169169"
"2422","-2,12812812812813","5,87187187187187","-23,1281281281281","0,3003003003003","-2,1001001001001","-0,169169169169169"
"2426","-2,12812812812813","5,87187187187187","-23,1281281281281","2,3003003003003","-0,1001001001001","-0,169169169169169"
"2434","-2,12812812812813","4,87187187187187","-25,1281281281281","2,3003003003003","-0,1001001001001","-0,169169169169169"
"2435","-2,12812812812813","4,87187187187187","-25,1281281281281","1,3003003003003","-1,1001001001001","-0,169169169169169"
"2443","1,87187187187187","3,87187187187187","-28,1281281281281","1,3003003003003","-1,1001001001001","-0,169169169169169"
"2443","1,87187187187187","3,87187187187187","-28,1281281281281","-0,6996996996997","-0,1001001001001","-0,169169169169169"
"2455","-0,128128128128128","3,87187187187187","-28,1281281281281","-0,6996996996997","-0,1001001001001","-0,169169169169169"
"2455","-0,128128128128128","3,87187187187187","-28,1281281281281","0,3003003003003","-3,1001001001001","-0,169169169169169"
"2463","-0,128128128128128","5,87187187187187","-25,1281281281281","0,3003003003003","-3,1001001001001","-0,169169169169169"
"2463","-0,128128128128128","5,87187187187187","-25,1281281281281","1,3003003003003","-0,1001001001001","-0,169169169169169"
"2475","-0,128128128128128","4,87187187187187","-28,1281281281281","1,3003003003003","-0,1001001001001","-0,169169169169169"
"2475","-0,128128128128128","4,87187187187187","-28,1281281281281","-0,6996996996997","-1,1001001001001","-0,169169169169169"
"2484","-1,12812812812813","3,87187187187187","-26,1281281281281","-0,6996996996997","-1,1001001001001","-0,169169169169169"
"2484","-1,12812812812813","3,87187187187187","-26,1281281281281","1,3003003003003","0,8998998998999","-0,169169169169169"
"2492","0,871871871871872","3,87187187187187","-29,1281281281281","1,3003003003003","0,8998998998999","-0,169169169169169"
"2496","0,871871871871872","3,87187187187187","-29,1281281281281","0,3003003003003","-2,1001001001001","-1,16916916916917"
"2504","-0,128128128128128","5,87187187187187","-28,1281281281281","0,3003003003003","-2,1001001001001","-1,16916916916917"
"2504","-0,128128128128128","5,87187187187187","-28,1281281281281","-0,6996996996997","-0,1001001001001","-0,169169169169169"
"2512","-1,12812812812813","4,87187187187187","-27,1281281281281","-0,6996996996997","-0,1001001001001","-0,169169169169169"
"2516","-1,12812812812813","4,87187187187187","-27,1281281281281","-0,6996996996997","-0,1001001001001","0,830830830830831"
"2525","0,871871871871872","5,87187187187187","-26,1281281281281","-0,6996996996997","-0,1001001001001","0,830830830830831"
"2525","0,871871871871872","5,87187187187187","-26,1281281281281","2,3003003003003","-0,1001001001001","0,830830830830831"
"2533","-2,12812812812813","3,87187187187187","-26,1281281281281","2,3003003003003","-0,1001001001001","0,830830830830831"
"2533","-2,12812812812813","3,87187187187187","-26,1281281281281","2,3003003003003","1,8998998998999","0,830830830830831"
"2545","-1,12812812812813","4,87187187187187","-27,1281281281281","2,3003003003003","1,8998998998999","0,830830830830831"
"2545","-1,12812812812813","4,87187187187187","-27,1281281281281","4,3003003003003","0,8998998998999","0,830830830830831"
"2553","0,871871871871872","5,87187187187187","-26,1281281281281","4,3003003003003","0,8998998998999","0,830830830830831"
"2553","0,871871871871872","5,87187187187187","-26,1281281281281","0,3003003003003","-0,1001001001001","-0,169169169169169"
"2565","-2,12812812812813","3,87187187187187","-25,1281281281281","0,3003003003003","-0,1001001001001","-0,169169169169169"
"2566","-2,12812812812813","3,87187187187187","-25,1281281281281","0,3003003003003","0,8998998998999","-0,169169169169169"
"2574","-3,12812812812813","4,87187187187187","-25,1281281281281","0,3003003003003","0,8998998998999","-0,169169169169169"
"2574","-3,12812812812813","4,87187187187187","-25,1281281281281","0,3003003003003","1,8998998998999","-0,169169169169169"
"2582","-0,128128128128128","4,87187187187187","-27,1281281281281","0,3003003003003","1,8998998998999","-0,169169169169169"
"2586","-0,128128128128128","4,87187187187187","-27,1281281281281","2,3003003003003","0,8998998998999","-0,169169169169169"
"2594","0,871871871871872","5,87187187187187","-26,1281281281281","2,3003003003003","0,8998998998999","-0,169169169169169"
"2594","0,871871871871872","5,87187187187187","-26,1281281281281","0,3003003003003","-0,1001001001001","-0,169169169169169"
"2602","-0,128128128128128","3,87187187187187","-27,1281281281281","0,3003003003003","-0,1001001001001","-0,169169169169169"
"2606","-0,128128128128128","3,87187187187187","-27,1281281281281","-1,6996996996997","0,8998998998999","-1,16916916916917"
"2615","-1,12812812812813","3,87187187187187","-26,1281281281281","-1,6996996996997","0,8998998998999","-1,16916916916917"
"2615","-1,12812812812813","3,87187187187187","-26,1281281281281","0,3003003003003","-1,1001001001001","-0,169169169169169"
"2623","-0,128128128128128","3,87187187187187","-24,1281281281281","0,3003003003003","-1,1001001001001","-0,169169169169169"
"2623","-0,128128128128128","3,87187187187187","-24,1281281281281","-1,6996996996997","-1,1001001001001","0,830830830830831"
"2635","1,87187187187187","4,87187187187187","-26,1281281281281","-1,6996996996997","-1,1001001001001","0,830830830830831"
"2635","1,87187187187187","4,87187187187187","-26,1281281281281","-0,6996996996997","-1,1001001001001","-0,169169169169169"
"2643","-1,12812812812813","4,87187187187187","-29,1281281281281","-0,6996996996997","-1,1001001001001","-0,169169169169169"
"2644","-1,12812812812813","4,87187187187187","-29,1281281281281","-2,6996996996997","-1,1001001001001","-0,169169169169169"
"2655","-2,12812812812813","3,87187187187187","-25,1281281281281","-2,6996996996997","-1,1001001001001","-0,169169169169169"
"2656","-2,12812812812813","3,87187187187187","-25,1281281281281","2,3003003003003","-0,1001001001001","1,83083083083083"
"2664","-1,12812812812813","3,87187187187187","-28,1281281281281","2,3003003003003","-0,1001001001001","1,83083083083083"
"2664","-1,12812812812813","3,87187187187187","-28,1281281281281","-0,6996996996997","1,8998998998999","-0,169169169169169"
"2672","0,871871871871872","3,87187187187187","-26,1281281281281","-0,6996996996997","1,8998998998999","-0,169169169169169"
"2676","0,871871871871872","3,87187187187187","-26,1281281281281","1,3003003003003","-1,1001001001001","-2,16916916916917"
"2684","-0,128128128128128","3,87187187187187","-28,1281281281281","1,3003003003003","-1,1001001001001","-2,16916916916917"
"2684","-0,128128128128128","3,87187187187187","-28,1281281281281","-2,6996996996997","-0,1001001001001","-0,169169169169169"
"2692","-0,128128128128128","4,87187187187187","-30,1281281281281","-2,6996996996997","-0,1001001001001","-0,169169169169169"
"2696","-0,128128128128128","4,87187187187187","-30,1281281281281","1,3003003003003","-2,1001001001001","-0,169169169169169"
"2705","-1,12812812812813","5,87187187187187","-26,1281281281281","1,3003003003003","-2,1001001001001","-0,169169169169169"
"2705","-1,12812812812813","5,87187187187187","-26,1281281281281","-1,6996996996997","-1,1001001001001","0,830830830830831"
"2713","-0,128128128128128","4,87187187187187","-24,1281281281281","-1,6996996996997","-1,1001001001001","0,830830830830831"
"2717","-0,128128128128128","4,87187187187187","-24,1281281281281","-0,6996996996997","-1,1001001001001","-0,169169169169169"
"2725","0,871871871871872","5,87187187187187","-24,1281281281281","-0,6996996996997","-1,1001001001001","-0,169169169169169"
"2725","0,871871871871872","5,87187187187187","-24,1281281281281","-1,6996996996997","-1,1001001001001","-0,169169169169169"
"2733","-0,128128128128128","3,87187187187187","-26,1281281281281","-1,6996996996997","-1,1001001001001","-0,169169169169169"
"2734","-0,128128128128128","3,87187187187187","-26,1281281281281","1,3003003003003","-0,1001001001001","-1,16916916916917"
"2746","-1,12812812812813","3,87187187187187","-29,1281281281281","1,3003003003003","-0,1001001001001","-1,16916916916917"
"2746","-1,12812812812813","3,87187187187187","-29,1281281281281","-0,6996996996997","1,8998998998999","-0,169169169169169"
"2754","-0,128128128128128","6,87187187187187","-26,1281281281281","-0,6996996996997","1,8998998998999","-0,169169169169169"
"2754","-0,128128128128128","6,87187187187187","-26,1281281281281","0,3003003003003","-0,1001001001001","-1,16916916916917"
"2766","-1,12812812812813","5,87187187187187","-27,1281281281281","0,3003003003003","-0,1001001001001","-1,16916916916917"
"2766","-1,12812812812813","5,87187187187187","-27,1281281281281","-0,6996996996997","2,8998998998999","-0,169169169169169"
"2774","-2,12812812812813","4,87187187187187","-27,1281281281281","-0,6996996996997","2,8998998998999","-0,169169169169169"
"2775","-2,12812812812813","4,87187187187187","-27,1281281281281","2,3003003003003","1,8998998998999","0,830830830830831"
"2782","-2,12812812812813","3,87187187187187","-26,1281281281281","2,3003003003003","1,8998998998999","0,830830830830831"
"2786","-2,12812812812813","3,87187187187187","-26,1281281281281","1,3003003003003","-1,1001001001001","0,830830830830831"
"2795","0,871871871871872","6,87187187187187","-29,1281281281281","1,3003003003003","-1,1001001001001","0,830830830830831"
"2795","0,871871871871872","6,87187187187187","-29,1281281281281","0,3003003003003","-4,1001001001001","0,830830830830831"
"2803","-1,12812812812813","3,87187187187187","-26,1281281281281","0,3003003003003","-4,1001001001001","0,830830830830831"
"2807","-1,12812812812813","3,87187187187187","-26,1281281281281","1,3003003003003","-0,1001001001001","0,830830830830831"
"2815","-1,12812812812813","3,87187187187187","-26,1281281281281","1,3003003003003","-0,1001001001001","0,830830830830831"
"2815","-1,12812812812813","3,87187187187187","-26,1281281281281","3,3003003003003","-0,1001001001001","-0,169169169169169"
"2823","-1,12812812812813","4,87187187187187","-24,1281281281281","3,3003003003003","-0,1001001001001","-0,169169169169169"
"2824","-1,12812812812813","4,87187187187187","-24,1281281281281","0,3003003003003","-0,1001001001001","-1,16916916916917"
"2836","-0,128128128128128","7,87187187187187","-26,1281281281281","0,3003003003003","-0,1001001001001","-1,16916916916917"
"2836","-0,128128128128128","7,87187187187187","-26,1281281281281","0,3003003003003","-2,1001001001001","-0,169169169169169"
"2844","-0,128128128128128","5,87187187187187","-28,1281281281281","0,3003003003003","-2,1001001001001","-0,169169169169169"
"2844","-0,128128128128128","5,87187187187187","-28,1281281281281","-0,6996996996997","0,8998998998999","-1,16916916916917"
"2856","1,87187187187187","5,87187187187187","-27,1281281281281","-0,6996996996997","0,8998998998999","-1,16916916916917"
"2856","1,87187187187187","5,87187187187187","-27,1281281281281","-1,6996996996997","0,8998998998999","0,830830830830831"
"2864","-0,128128128128128","4,87187187187187","-25,1281281281281","-1,6996996996997","0,8998998998999","0,830830830830831"
"2864","-0,128128128128128","4,87187187187187","-25,1281281281281","2,3003003003003","-0,1001001001001","0,830830830830831"
"2872","-0,128128128128128","5,87187187187187","-27,1281281281281","2,3003003003003","-0,1001001001001","0,830830830830831"
"2876","-0,128128128128128","5,87187187187187","-27,1281281281281","2,3003003003003","-1,1001001001001","-3,16916916916917"
"2885","-1,12812812812813","3,87187187187187","-25,1281281281281","2,3003003003003","-1,1001001001001","-3,16916916916917"
"2885","-1,12812812812813","3,87187187187187","-25,1281281281281","-0,6996996996997","0,8998998998999","-0,169169169169169"
"2893","-1,12812812812813","3,87187187187187","-27,1281281281281","-0,6996996996997","0,8998998998999","-0,169169169169169"
"2897","-1,12812812812813","3,87187187187187","-27,1281281281281","-2,6996996996997","0,8998998998999","1,83083083083083"
"2905","-0,128128128128128","4,87187187187187","-26,1281281281281","-2,6996996996997","0,8998998998999","1,83083083083083"
"2905","-0,128128128128128","4,87187187187187","-26,1281281281281","-0,6996996996997","3,8998998998999","0,830830830830831"
"2913","-2,12812812812813","5,87187187187187","-25,1281281281281","-0,6996996996997","3,8998998998999","0,830830830830831"
"2917","-2,12812812812813","5,87187187187187","-25,1281281281281","4,3003003003003","-1,1001001001001","0,830830830830831"
"2926","-1,12812812812813","3,87187187187187","-26,1281281281281","4,3003003003003","-1,1001001001001","0,830830830830831"
"2926","-1,12812812812813","3,87187187187187","-26,1281281281281","3,3003003003003","-2,1001001001001","0,830830830830831"
"2934","0,871871871871872","3,87187187187187","-26,1281281281281","3,3003003003003","-2,1001001001001","0,830830830830831"
"2934","0,871871871871872","3,87187187187187","-26,1281281281281","1,3003003003003","-0,1001001001001","-0,169169169169169"
"2946","0,871871871871872","4,87187187187187","-28,1281281281281","1,3003003003003","-0,1001001001001","-0,169169169169169"
"2946","0,871871871871872","4,87187187187187","-28,1281281281281","1,3003003003003","1,8998998998999","-0,169169169169169"
"2955","0,871871871871872","4,87187187187187","-25,1281281281281","1,3003003003003","1,8998998998999","-0,169169169169169"
"2955","0,871871871871872","4,87187187187187","-25,1281281281281","1,3003003003003","1,8998998998999","0,830830830830831"
"2967","-0,128128128128128","3,87187187187187","-26,1281281281281","1,3003003003003","1,8998998998999","0,830830830830831"
"2967","-0,128128128128128","3,87187187187187","-26,1281281281281","1,3003003003003","1,8998998998999","-2,16916916916917"
"2975","-0,128128128128128","5,87187187187187","-22,1281281281281","1,3003003003003","1,8998998998999","-2,16916916916917"
"2976","-0,128128128128128","5,87187187187187","-22,1281281281281","2,3003003003003","0,8998998998999","1,83083083083083"
"2983","-1,12812812812813","5,87187187187187","-26,1281281281281","2,3003003003003","0,8998998998999","1,83083083083083"
"2987","-1,12812812812813","5,87187187187187","-26,1281281281281","1,3003003003003","0,8998998998999","0,830830830830831"
"2995","-0,128128128128128","6,87187187187187","-30,1281281281281","1,3003003003003","0,8998998998999","0,830830830830831"
"2996","-0,128128128128128","6,87187187187187","-30,1281281281281","1,3003003003003","-0,1001001001001","-1,16916916916917"
"3004","0,871871871871872","4,87187187187187","-22,1281281281281","1,3003003003003","-0,1001001001001","-1,16916916916917"
"3008","0,871871871871872","4,87187187187187","-22,1281281281281","-0,6996996996997","-1,1001001001001","-0,169169169169169"
"3016","-0,128128128128128","4,87187187187187","-26,1281281281281","-0,6996996996997","-1,1001001001001","-0,169169169169169"
"3016","-0,128128128128128","4,87187187187187","-26,1281281281281","0,3003003003003","2,8998998998999","-1,16916916916917"
"3024","-1,12812812812813","6,87187187187187","-26,1281281281281","0,3003003003003","2,8998998998999","-1,16916916916917"
"3024","-1,12812812812813","6,87187187187187","-26,1281281281281","1,3003003003003","0,8998998998999","1,83083083083083"
"3036","0,871871871871872","7,87187187187187","-29,1281281281281","1,3003003003003","0,8998998998999","1,83083083083083"
"3036","0,871871871871872","7,87187187187187","-29,1281281281281","-3,6996996996997","-1,1001001001001","-1,16916916916917"
"3045","-2,12812812812813","2,87187187187187","-26,1281281281281","-3,6996996996997","-1,1001001001001","-1,16916916916917"
"3045","-2,12812812812813","2,87187187187187","-26,1281281281281","-1,6996996996997","1,8998998998999","1,83083083083083"
"3057","-2,12812812812813","3,87187187187187","-26,1281281281281","-1,6996996996997","1,8998998998999","1,83083083083083"
"3057","-2,12812812812813","3,87187187187187","-26,1281281281281","-0,6996996996997","-0,1001001001001","-1,16916916916917"
"3065","-0,128128128128128","6,87187187187187","-23,1281281281281","-0,6996996996997","-0,1001001001001","-1,16916916916917"
"3065","-0,128128128128128","6,87187187187187","-23,1281281281281","-1,6996996996997","-1,1001001001001","-2,16916916916917"
"3073","-1,12812812812813","4,87187187187187","-26,1281281281281","-1,6996996996997","-1,1001001001001","-2,16916916916917"
"3077","-1,12812812812813","4,87187187187187","-26,1281281281281","-0,6996996996997","-2,1001001001001","1,83083083083083"
"3086","0,871871871871872","3,87187187187187","-26,1281281281281","-0,6996996996997","-2,1001001001001","1,83083083083083"
"3086","0,871871871871872","3,87187187187187","-26,1281281281281","-2,6996996996997","1,8998998998999","-0,169169169169169"
"3094","0,871871871871872","4,87187187187187","-26,1281281281281","-2,6996996996997","1,8998998998999","-0,169169169169169"
"3098","0,871871871871872","4,87187187187187","-26,1281281281281","-2,6996996996997","2,8998998998999","-1,16916916916917"
"3106","0,871871871871872","5,87187187187187","-27,1281281281281","-2,6996996996997","2,8998998998999","-1,16916916916917"
"3106","0,871871871871872","5,87187187187187","-27,1281281281281","-1,6996996996997","0,8998998998999","0,830830830830831"
"3114","-0,128128128128128","3,87187187187187","-27,1281281281281","-1,6996996996997","0,8998998998999","0,830830830830831"
"3114","-0,128128128128128","3,87187187187187","-27,1281281281281","-0,6996996996997","2,8998998998999","-0,169169169169169"
"3126","0,871871871871872","3,87187187187187","-26,1281281281281","-0,6996996996997","2,8998998998999","-0,169169169169169"
"3127","0,871871871871872","3,87187187187187","-26,1281281281281","0,3003003003003","-0,1001001001001","0,830830830830831"
"3135","-0,128128128128128","3,87187187187187","-24,1281281281281","0,3003003003003","-0,1001001001001","0,830830830830831"
"3135","-0,128128128128128","3,87187187187187","-24,1281281281281","1,3003003003003","0,8998998998999","0,830830830830831"
"3147","-0,128128128128128","3,87187187187187","-26,1281281281281","1,3003003003003","0,8998998998999","0,830830830830831"
"3147","-0,128128128128128","3,87187187187187","-26,1281281281281","1,3003003003003","-1,1001001001001","-0,169169169169169"
"3155","-0,128128128128128","3,87187187187187","-30,1281281281281","1,3003003003003","-1,1001001001001","-0,169169169169169"
"3155","-0,128128128128128","3,87187187187187","-30,1281281281281","0,3003003003003","-0,1001001001001","-0,169169169169169"
"3167","-0,128128128128128","2,87187187187187","-27,1281281281281","0,3003003003003","-0,1001001001001","-0,169169169169169"
"3168","-0,128128128128128","2,87187187187187","-27,1281281281281","2,3003003003003","-1,1001001001001","0,830830830830831"
"3176","-0,128128128128128","10,8718718718719","-28,1281281281281","2,3003003003003","-1,1001001001001","0,830830830830831"
"3176","-0,128128128128128","10,8718718718719","-28,1281281281281","4,3003003003003","-1,1001001001001","0,830830830830831"
"3184","0,871871871871872","5,87187187187187","-26,1281281281281","4,3003003003003","-1,1001001001001","0,830830830830831"
"3188","0,871871871871872","5,87187187187187","-26,1281281281281","-0,6996996996997","0,8998998998999","1,83083083083083"
"3196","-0,128128128128128","3,87187187187187","-27,1281281281281","-0,6996996996997","0,8998998998999","1,83083083083083"
"3196","-0,128128128128128","3,87187187187187","-27,1281281281281","1,3003003003003","-0,1001001001001","-1,16916916916917"
"3204","-0,128128128128128","2,87187187187187","-26,1281281281281","1,3003003003003","-0,1001001001001","-1,16916916916917"
"3205","-0,128128128128128","2,87187187187187","-26,1281281281281","-0,6996996996997","-2,1001001001001","0,830830830830831"
"3217","-0,128128128128128","7,87187187187187","-26,1281281281281","-0,6996996996997","-2,1001001001001","0,830830830830831"
"3217","-0,128128128128128","7,87187187187187","-26,1281281281281","1,3003003003003","1,8998998998999","0,830830830830831"
"3225","-0,128128128128128","6,87187187187187","-26,1281281281281","1,3003003003003","1,8998998998999","0,830830830830831"
"3225","-0,128128128128128","6,87187187187187","-26,1281281281281","1,3003003003003","-0,1001001001001","-2,16916916916917"
"3237","-0,128128128128128","3,87187187187187","-23,1281281281281","1,3003003003003","-0,1001001001001","-2,16916916916917"
"3237","-0,128128128128128","3,87187187187187","-23,1281281281281","0,3003003003003","-0,1001001001001","0,830830830830831"
"3245","-0,128128128128128","5,87187187187187","-29,1281281281281","0,3003003003003","-0,1001001001001","0,830830830830831"
"3246","-0,128128128128128","5,87187187187187","-29,1281281281281","-1,6996996996997","0,8998998998999","-0,169169169169169"
"3254","-1,12812812812813","4,87187187187187","-27,1281281281281","-1,6996996996997","0,8998998998999","-0,169169169169169"
"3258","-1,12812812812813","4,87187187187187","-27,1281281281281","-0,6996996996997","0,8998998998999","0,830830830830831"
"3266","-1,12812812812813","5,87187187187187","-27,1281281281281","-0,6996996996997","0,8998998998999","0,830830830830831"
"3266","-1,12812812812813","5,87187187187187","-27,1281281281281","-1,6996996996997","-2,1001001001001","1,83083083083083"
"3274","-0,128128128128128","6,87187187187187","-27,1281281281281","-1,6996996996997","-2,1001001001001","1,83083083083083"
"3278","-0,128128128128128","6,87187187187187","-27,1281281281281","3,3003003003003","-1,1001001001001","-0,169169169169169"
"3286","-3,12812812812813","3,87187187187187","-29,1281281281281","3,3003003003003","-1,1001001001001","-0,169169169169169"
"3287","-3,12812812812813","3,87187187187187","-29,1281281281281","-1,6996996996997","-1,1001001001001","0,830830830830831"
"3295","-3,12812812812813","4,87187187187187","-27,1281281281281","-1,6996996996997","-1,1001001001001","0,830830830830831"
"3295","-3,12812812812813","4,87187187187187","-27,1281281281281","-0,6996996996997","0,8998998998999","0,830830830830831"
"3307","-0,128128128128128","6,87187187187187","-29,1281281281281","-0,6996996996997","0,8998998998999","0,830830830830831"
"3307","-0,128128128128128","6,87187187187187","-29,1281281281281","-0,6996996996997","-0,1001001001001","0,830830830830831"
"3315","-0,128128128128128","3,87187187187187","-25,1281281281281","-0,6996996996997","-0,1001001001001","0,830830830830831"
"3316","-0,128128128128128","3,87187187187187","-25,1281281281281","-2,6996996996997","-1,1001001001001","-1,16916916916917"
"3327","-0,128128128128128","4,87187187187187","-24,1281281281281","-2,6996996996997","-1,1001001001001","-1,16916916916917"
"3327","-0,128128128128128","4,87187187187187","-24,1281281281281","0,3003003003003","-0,1001001001001","-2,16916916916917"
"3336","-1,12812812812813","3,87187187187187","-26,1281281281281","0,3003003003003","-0,1001001001001","-2,16916916916917"
"3336","-1,12812812812813","3,87187187187187","-26,1281281281281","-0,6996996996997","0,8998998998999","0,830830830830831"
"3344","-1,12812812812813","3,87187187187187","-27,1281281281281","-0,6996996996997","0,8998998998999","0,830830830830831"
"3348","-1,12812812812813","3,87187187187187","-27,1281281281281","-3,6996996996997","-2,1001001001001","1,83083083083083"
"3356","-1,12812812812813","2,87187187187187","-27,1281281281281","-3,6996996996997","-2,1001001001001","1,83083083083083"
"3356","-1,12812812812813","2,87187187187187","-27,1281281281281","-0,6996996996997","1,8998998998999","-0,169169169169169"
"3364","-1,12812812812813","7,87187187187187","-25,1281281281281","-0,6996996996997","1,8998998998999","-0,169169169169169"
"3368","-1,12812812812813","7,87187187187187","-25,1281281281281","3,3003003003003","0,8998998998999","0,830830830830831"
"3377","-1,12812812812813","7,87187187187187","-25,1281281281281","3,3003003003003","0,8998998998999","0,830830830830831"
"3377","-1,12812812812813","7,87187187187187","-25,1281281281281","-1,6996996996997","-0,1001001001001","-1,16916916916917"
"3385","-1,12812812812813","3,87187187187187","-24,1281281281281","-1,6996996996997","-0,1001001001001","-1,16916916916917"
"3389","-1,12812812812813","3,87187187187187","-24,1281281281281","0,3003003003003","-3,1001001001001","-1,16916916916917"
"3397","-0,128128128128128","4,87187187187187","-27,1281281281281","0,3003003003003","-3,1001001001001","-1,16916916916917"
"3397","-0,128128128128128","4,87187187187187","-27,1281281281281","-0,6996996996997","-0,1001001001001","0,830830830830831"
"3405","-1,12812812812813","4,87187187187187","-29,1281281281281","-0,6996996996997","-0,1001001001001","0,830830830830831"
"3405","-1,12812812812813","4,87187187187187","-29,1281281281281","-2,6996996996997","-1,1001001001001","1,83083083083083"
"3417","-1,12812812812813","3,87187187187187","-25,1281281281281","-2,6996996996997","-1,1001001001001","1,83083083083083"
"3417","-1,12812812812813","3,87187187187187","-25,1281281281281","-0,6996996996997","1,8998998998999","1,83083083083083"
"3425","-0,128128128128128","5,87187187187187","-27,1281281281281","-0,6996996996997","1,8998998998999","1,83083083083083"
"3426","-0,128128128128128","5,87187187187187","-27,1281281281281","1,3003003003003","0,8998998998999","-0,169169169169169"
"3438","-1,12812812812813","7,87187187187187","-28,1281281281281","1,3003003003003","0,8998998998999","-0,169169169169169"
"3438","-1,12812812812813","7,87187187187187","-28,1281281281281","-3,6996996996997","-1,1001001001001","-0,169169169169169"
"3446","-0,128128128128128","3,87187187187187","-27,1281281281281","-3,6996996996997","-1,1001001001001","-0,169169169169169"
"3446","-0,128128128128128","3,87187187187187","-27,1281281281281","-4,6996996996997","-3,1001001001001","-0,169169169169169"
"3454","-0,128128128128128","5,87187187187187","-26,1281281281281","-4,6996996996997","-3,1001001001001","-0,169169169169169"
"3458","-0,128128128128128","5,87187187187187","-26,1281281281281","1,3003003003003","-1,1001001001001","1,83083083083083"
"3467","-3,12812812812813","9,87187187187187","-26,1281281281281","1,3003003003003","-1,1001001001001","1,83083083083083"
"3467","-3,12812812812813","9,87187187187187","-26,1281281281281","2,3003003003003","0,8998998998999","-1,16916916916917"
"3475","0,871871871871872","6,87187187187187","-25,1281281281281","2,3003003003003","0,8998998998999","-1,16916916916917"
"3475","0,871871871871872","6,87187187187187","-25,1281281281281","2,3003003003003","0,8998998998999","-1,16916916916917"
"3487","-0,128128128128128","1,87187187187187","-25,1281281281281","2,3003003003003","0,8998998998999","-1,16916916916917"
"3487","-0,128128128128128","1,87187187187187","-25,1281281281281","-3,6996996996997","1,8998998998999","1,83083083083083"
"3495","-1,12812812812813","4,87187187187187","-27,1281281281281","-3,6996996996997","1,8998998998999","1,83083083083083"
"3495","-1,12812812812813","4,87187187187187","-27,1281281281281","-1,6996996996997","1,8998998998999","-0,169169169169169"
"3507","-2,12812812812813","6,87187187187187","-29,1281281281281","-1,6996996996997","1,8998998998999","-0,169169169169169"
"3508","-2,12812812812813","6,87187187187187","-29,1281281281281","2,3003003003003","1,8998998998999","-0,169169169169169"
"3516","-2,12812812812813","2,87187187187187","-25,1281281281281","2,3003003003003","1,8998998998999","-0,169169169169169"
"3516","-2,12812812812813","2,87187187187187","-25,1281281281281","-1,6996996996997","-0,1001001001001","-1,16916916916917"
"3524","-0,128128128128128","2,87187187187187","-24,1281281281281","-1,6996996996997","-0,1001001001001","-1,16916916916917"
"3528","-0,128128128128128","2,87187187187187","-24,1281281281281","-1,6996996996997","-0,1001001001001","-1,16916916916917"
"3536","-1,12812812812813","5,87187187187187","-26,1281281281281","-1,6996996996997","-0,1001001001001","-1,16916916916917"
"3536","-1,12812812812813","5,87187187187187","-26,1281281281281","2,3003003003003","2,8998998998999","1,83083083083083"
"3544","-0,128128128128128","6,87187187187187","-26,1281281281281","2,3003003003003","2,8998998998999","1,83083083083083"
"3548","-0,128128128128128","6,87187187187187","-26,1281281281281","-1,6996996996997","-1,1001001001001","0,830830830830831"
"3557","0,871871871871872","2,87187187187187","-26,1281281281281","-1,6996996996997","-1,1001001001001","0,830830830830831"
"3557","0,871871871871872","2,87187187187187","-26,1281281281281","2,3003003003003","-0,1001001001001","2,83083083083083"
"3565","-1,12812812812813","3,87187187187187","-26,1281281281281","2,3003003003003","-0,1001001001001","2,83083083083083"
"3569","-1,12812812812813","3,87187187187187","-26,1281281281281","3,3003003003003","0,8998998998999","-0,169169169169169"
"3577","-1,12812812812813","6,87187187187187","-27,1281281281281","3,3003003003003","0,8998998998999","-0,169169169169169"
"3577","-1,12812812812813","6,87187187187187","-27,1281281281281","3,3003003003003","0,8998998998999","-0,169169169169169"
"3585","-1,12812812812813","3,87187187187187","-28,1281281281281","3,3003003003003","0,8998998998999","-0,169169169169169"
"3586","-1,12812812812813","3,87187187187187","-28,1281281281281","1,3003003003003","1,8998998998999","-1,16916916916917"
"3598","0,871871871871872","4,87187187187187","-26,1281281281281","1,3003003003003","1,8998998998999","-1,16916916916917"
"3598","0,871871871871872","4,87187187187187","-26,1281281281281","-0,6996996996997","-0,1001001001001","0,830830830830831"
"3606","-0,128128128128128","3,87187187187187","-27,1281281281281","-0,6996996996997","-0,1001001001001","0,830830830830831"
"3606","-0,128128128128128","3,87187187187187","-27,1281281281281","1,3003003003003","0,8998998998999","1,83083083083083"
"3618","-2,12812812812813","5,87187187187187","-26,1281281281281","1,3003003003003","0,8998998998999","1,83083083083083"
"3618","-2,12812812812813","5,87187187187187","-26,1281281281281","4,3003003003003","-0,1001001001001","-2,16916916916917"
"3626","0,871871871871872","3,87187187187187","-25,1281281281281","4,3003003003003","-0,1001001001001","-2,16916916916917"
"3627","0,871871871871872","3,87187187187187","-25,1281281281281","4,3003003003003","-0,1001001001001","-0,169169169169169"
"3638","0,871871871871872","3,87187187187187","-26,1281281281281","4,3003003003003","-0,1001001001001","-0,169169169169169"
"3639","0,871871871871872","3,87187187187187","-26,1281281281281","2,3003003003003","-0,1001001001001","3,83083083083083"
"3647","-1,12812812812813","5,87187187187187","-31,1281281281281","2,3003003003003","-0,1001001001001","3,83083083083083"
"3647","-1,12812812812813","5,87187187187187","-31,1281281281281","3,3003003003003","-1,1001001001001","-0,169169169169169"
"3655","-0,128128128128128","4,87187187187187","-26,1281281281281","3,3003003003003","-1,1001001001001","-0,169169169169169"
"3659","-0,128128128128128","4,87187187187187","-26,1281281281281","2,3003003003003","-0,1001001001001","-1,16916916916917"
"3667","-1,12812812812813","5,87187187187187","-25,1281281281281","2,3003003003003","-0,1001001001001","-1,16916916916917"
"3667","-1,12812812812813","5,87187187187187","-25,1281281281281","1,3003003003003","-0,1001001001001","3,83083083083083"
"3676","-1,12812812812813","5,87187187187187","-25,1281281281281","1,3003003003003","-0,1001001001001","3,83083083083083"
"3676","-1,12812812812813","5,87187187187187","-25,1281281281281","1,3003003003003","-0,1001001001001","3,83083083083083"
"3688","-2,12812812812813","4,87187187187187","-26,1281281281281","1,3003003003003","-0,1001001001001","3,83083083083083"
"3688","-2,12812812812813","4,87187187187187","-26,1281281281281","-0,6996996996997","-0,1001001001001","-0,169169169169169"
"3696","-1,12812812812813","3,87187187187187","-25,1281281281281","-0,6996996996997","-0,1001001001001","-0,169169169169169"
"3696","-1,12812812812813","3,87187187187187","-25,1281281281281","-0,6996996996997","1,8998998998999","-0,169169169169169"
"3708","-1,12812812812813","3,87187187187187","-27,1281281281281","-0,6996996996997","1,8998998998999","-0,169169169169169"
"3708","-1,12812812812813","3,87187187187187","-27,1281281281281","0,3003003003003","-0,1001001001001","-0,169169169169169"
"3716","-0,128128128128128","5,87187187187187","-25,1281281281281","0,3003003003003","-0,1001001001001","-0,169169169169169"
"3717","-0,128128128128128","5,87187187187187","-25,1281281281281","2,3003003003003","1,8998998998999","-1,16916916916917"
"3725","-1,12812812812813","3,87187187187187","-26,1281281281281","2,3003003003003","1,8998998998999","-1,16916916916917"
"3729","-1,12812812812813","3,87187187187187","-26,1281281281281","2,3003003003003","1,8998998998999","-1,16916916916917"
"3737","0,871871871871872","3,87187187187187","-28,1281281281281","2,3003003003003","1,8998998998999","-1,16916916916917"
"3737","0,871871871871872","3,87187187187187","-28,1281281281281","0,3003003003003","-2,1001001001001","-0,169169169169169"
"3745","0,871871871871872","5,87187187187187","-27,1281281281281","0,3003003003003","-2,1001001001001","-0,169169169169169"
"3749","0,871871871871872","5,87187187187187","-27,1281281281281","-1,6996996996997","0,8998998998999","-1,16916916916917"
"3757","-1,12812812812813","4,87187187187187","-26,1281281281281","-1,6996996996997","0,8998998998999","-1,16916916916917"
"3758","-1,12812812812813","4,87187187187187","-26,1281281281281","-1,6996996996997","-0,1001001001001","-0,169169169169169"
"3765","-1,12812812812813","4,87187187187187","-25,1281281281281","-1,6996996996997","-0,1001001001001","-0,169169169169169"
"3770","-1,12812812812813","4,87187187187187","-25,1281281281281","0,3003003003003","2,8998998998999","-1,16916916916917"
"3774","-1,12812812812813","4,87187187187187","-25,1281281281281","0,3003003003003","2,8998998998999","-1,16916916916917"
"3778","-1,12812812812813","4,87187187187187","-25,1281281281281","0,3003003003003","2,8998998998999","-1,16916916916917"
"3786","-0,128128128128128","5,87187187187187","-26,1281281281281","0,3003003003003","2,8998998998999","-1,16916916916917"
"3786","-0,128128128128128","5,87187187187187","-26,1281281281281","2,3003003003003","-0,1001001001001","-1,16916916916917"
"3798","0,871871871871872","3,87187187187187","-28,1281281281281","2,3003003003003","-0,1001001001001","-1,16916916916917"
"3799","0,871871871871872","3,87187187187187","-28,1281281281281","3,3003003003003","-2,1001001001001","-2,16916916916917"
"3807","-1,12812812812813","4,87187187187187","-29,1281281281281","3,3003003003003","-2,1001001001001","-2,16916916916917"
"3807","-1,12812812812813","4,87187187187187","-29,1281281281281","1,3003003003003","-1,1001001001001","-0,169169169169169"
"3819","-0,128128128128128","3,87187187187187","-24,1281281281281","1,3003003003003","-1,1001001001001","-0,169169169169169"
"3819","-0,128128128128128","3,87187187187187","-24,1281281281281","1,3003003003003","-1,1001001001001","-0,169169169169169"
"3827","-0,128128128128128","3,87187187187187","-24,1281281281281","1,3003003003003","-1,1001001001001","-0,169169169169169"
"3827","-0,128128128128128","3,87187187187187","-24,1281281281281","1,3003003003003","-0,1001001001001","-0,169169169169169"
"3835","-0,128128128128128","4,87187187187187","-25,1281281281281","1,3003003003003","-0,1001001001001","-0,169169169169169"
"3839","-0,128128128128128","4,87187187187187","-25,1281281281281","3,3003003003003","0,8998998998999","-0,169169169169169"
"3847","-0,128128128128128","3,87187187187187","-28,1281281281281","3,3003003003003","0,8998998998999","-0,169169169169169"
"3847","-0,128128128128128","3,87187187187187","-28,1281281281281","0,3003003003003","0,8998998998999","-0,169169169169169"
"3856","-1,12812812812813","4,87187187187187","-26,1281281281281","0,3003003003003","0,8998998998999","-0,169169169169169"
"3860","-1,12812812812813","4,87187187187187","-26,1281281281281","0,3003003003003","0,8998998998999","1,83083083083083"
"3868","-1,12812812812813","3,87187187187187","-25,1281281281281","0,3003003003003","0,8998998998999","1,83083083083083"
"3868","-1,12812812812813","3,87187187187187","-25,1281281281281","3,3003003003003","1,8998998998999","1,83083083083083"
"3876","-1,12812812812813","3,87187187187187","-25,1281281281281","3,3003003003003","1,8998998998999","1,83083083083083"
"3876","-1,12812812812813","3,87187187187187","-25,1281281281281","3,3003003003003","1,8998998998999","1,83083083083083"
"3889","0,871871871871872","3,87187187187187","-27,1281281281281","3,3003003003003","1,8998998998999","1,83083083083083"
"3889","0,871871871871872","3,87187187187187","-27,1281281281281","2,3003003003003","1,8998998998999","-2,16916916916917"
"3897","-2,12812812812813","5,87187187187187","-25,1281281281281","2,3003003003003","1,8998998998999","-2,16916916916917"
"3897","-2,12812812812813","5,87187187187187","-25,1281281281281","0,3003003003003","2,8998998998999","0,830830830830831"
"3909","-2,12812812812813","6,87187187187187","-28,1281281281281","0,3003003003003","2,8998998998999","0,830830830830831"
"3909","-2,12812812812813","6,87187187187187","-28,1281281281281","3,3003003003003","-3,1001001001001","-0,169169169169169"
"3919","0,871871871871872","9,87187187187187","-27,1281281281281","3,3003003003003","-3,1001001001001","-0,169169169169169"
"3920","0,871871871871872","9,87187187187187","-27,1281281281281","3,3003003003003","-0,1001001001001","-3,16916916916917"
"3925","0,871871871871872","9,87187187187187","-27,1281281281281","3,3003003003003","-0,1001001001001","-3,16916916916917"
"3929","0,871871871871872","9,87187187187187","-27,1281281281281","0,3003003003003","-2,1001001001001","-1,16916916916917"
"3938","-1,12812812812813","4,87187187187187","-26,1281281281281","0,3003003003003","-2,1001001001001","-1,16916916916917"
"3938","-1,12812812812813","4,87187187187187","-26,1281281281281","-1,6996996996997","-0,1001001001001","-0,169169169169169"
"3946","0,871871871871872","7,87187187187187","-29,1281281281281","-1,6996996996997","-0,1001001001001","-0,169169169169169"
"3950","0,871871871871872","7,87187187187187","-29,1281281281281","3,3003003003003","1,8998998998999","-0,169169169169169"
"3958","1,87187187187187","3,87187187187187","-26,1281281281281","3,3003003003003","1,8998998998999","-0,169169169169169"
"3958","1,87187187187187","3,87187187187187","-26,1281281281281","3,3003003003003","0,8998998998999","-0,169169169169169"
"3966","-2,12812812812813","0,871871871871872","-25,1281281281281","3,3003003003003","0,8998998998999","-0,169169169169169"
"3970","-2,12812812812813","0,871871871871872","-25,1281281281281","1,3003003003003","1,8998998998999","-1,16916916916917"
"3975","-2,12812812812813","0,871871871871872","-25,1281281281281","1,3003003003003","1,8998998998999","-1,16916916916917"
"3975","-2,12812812812813","0,871871871871872","-25,1281281281281","2,3003003003003","-2,1001001001001","0,830830830830831"
"3987","-2,12812812812813","7,87187187187187","-25,1281281281281","2,3003003003003","-2,1001001001001","0,830830830830831"
"3993","-2,12812812812813","7,87187187187187","-25,1281281281281","0,3003003003003","1,8998998998999","-0,169169169169169"
"3999","-0,128128128128128","2,87187187187187","-27,1281281281281","0,3003003003003","1,8998998998999","-0,169169169169169"
"3999","-0,128128128128128","2,87187187187187","-27,1281281281281","1,3003003003003","1,8998998998999","-0,169169169169169"
"4007","-3,12812812812813","3,87187187187187","-26,1281281281281","1,3003003003003","1,8998998998999","-0,169169169169169"
"4007","-3,12812812812813","3,87187187187187","-26,1281281281281","-3,6996996996997","-0,1001001001001","0,830830830830831"
"4019","-2,12812812812813","6,87187187187187","-27,1281281281281","-3,6996996996997","-0,1001001001001","0,830830830830831"
"4020","-2,12812812812813","6,87187187187187","-27,1281281281281","1,3003003003003","1,8998998998999","0,830830830830831"
"4024","-2,12812812812813","6,87187187187187","-27,1281281281281","1,3003003003003","1,8998998998999","0,830830830830831"
"4024","-2,12812812812813","6,87187187187187","-27,1281281281281","2,3003003003003","1,8998998998999","1,83083083083083"
"4036","-1,12812812812813","2,87187187187187","-24,1281281281281","2,3003003003003","1,8998998998999","1,83083083083083"
"4040","-1,12812812812813","2,87187187187187","-24,1281281281281","-0,6996996996997","-0,1001001001001","-1,16916916916917"
"4048","1,87187187187187","3,87187187187187","-27,1281281281281","-0,6996996996997","-0,1001001001001","-1,16916916916917"
"4048","1,87187187187187","3,87187187187187","-27,1281281281281","0,3003003003003","-0,1001001001001","1,83083083083083"
"4057","-2,12812812812813","6,87187187187187","-29,1281281281281","0,3003003003003","-0,1001001001001","1,83083083083083"
"4060","-2,12812812812813","6,87187187187187","-29,1281281281281","0,3003003003003","-2,1001001001001","-0,169169169169169"
"4069","-1,12812812812813","3,87187187187187","-25,1281281281281","0,3003003003003","-2,1001001001001","-0,169169169169169"
"4069","-1,12812812812813","3,87187187187187","-25,1281281281281","0,3003003003003","0,8998998998999","0,830830830830831"
"4077","-1,12812812812813","3,87187187187187","-25,1281281281281","0,3003003003003","0,8998998998999","0,830830830830831"
"4077","-1,12812812812813","3,87187187187187","-25,1281281281281","3,3003003003003","-3,1001001001001","-0,169169169169169"
"4089","0,871871871871872","3,87187187187187","-27,1281281281281","3,3003003003003","-3,1001001001001","-0,169169169169169"
"4089","0,871871871871872","3,87187187187187","-27,1281281281281","1,3003003003003","-1,1001001001001","2,83083083083083"
"4097","-2,12812812812813","3,87187187187187","-26,1281281281281","1,3003003003003","-1,1001001001001","2,83083083083083"
"4098","-2,12812812812813","3,87187187187187","-26,1281281281281","-1,6996996996997","0,8998998998999","-0,169169169169169"
"4110","-3,12812812812813","6,87187187187187","-22,1281281281281","-1,6996996996997","0,8998998998999","-0,169169169169169"
"4110","-3,12812812812813","6,87187187187187","-22,1281281281281","-4,6996996996997","-1,1001001001001","0,830830830830831"
"4118","-1,12812812812813","5,87187187187187","-26,1281281281281","-4,6996996996997","-1,1001001001001","0,830830830830831"
"4118","-1,12812812812813","5,87187187187187","-26,1281281281281","-0,6996996996997","-2,1001001001001","-0,169169169169169"
"4126","-1,12812812812813","5,87187187187187","-26,1281281281281","-0,6996996996997","-2,1001001001001","-0,169169169169169"
"4126","-1,12812812812813","5,87187187187187","-26,1281281281281","-0,6996996996997","-2,1001001001001","-0,169169169169169"
"4138","-1,12812812812813","5,87187187187187","-26,1281281281281","-0,6996996996997","-2,1001001001001","-0,169169169169169"
"4139","-1,12812812812813","5,87187187187187","-26,1281281281281","-0,6996996996997","-2,1001001001001","-1,16916916916917"
"4147","-1,12812812812813","5,87187187187187","-26,1281281281281","-0,6996996996997","-2,1001001001001","-1,16916916916917"
"4151","-1,12812812812813","5,87187187187187","-26,1281281281281","-1,6996996996997","-0,1001001001001","-1,16916916916917"
"4159","0,871871871871872","6,87187187187187","-26,1281281281281","-1,6996996996997","-0,1001001001001","-1,16916916916917"
"4159","0,871871871871872","6,87187187187187","-26,1281281281281","-1,6996996996997","-0,1001001001001","-1,16916916916917"
"4167","0,871871871871872","3,87187187187187","-26,1281281281281","-1,6996996996997","-0,1001001001001","-1,16916916916917"
"4171","0,871871871871872","3,87187187187187","-26,1281281281281","-0,6996996996997","-1,1001001001001","-1,16916916916917"
"4175","0,871871871871872","3,87187187187187","-26,1281281281281","-0,6996996996997","-1,1001001001001","-1,16916916916917"
"4175","0,871871871871872","3,87187187187187","-26,1281281281281","-0,6996996996997","-2,1001001001001","-2,16916916916917"
"4188","-0,128128128128128","5,87187187187187","-28,1281281281281","-0,6996996996997","-2,1001001001001","-2,16916916916917"
"4188","-0,128128128128128","5,87187187187187","-28,1281281281281","0,3003003003003","-0,1001001001001","-2,16916916916917"
"4200","-0,128128128128128","4,87187187187187","-27,1281281281281","0,3003003003003","-0,1001001001001","-2,16916916916917"
"4200","-0,128128128128128","4,87187187187187","-27,1281281281281","-0,6996996996997","1,8998998998999","-2,16916916916917"
"4208","0,871871871871872","3,87187187187187","-27,1281281281281","-0,6996996996997","1,8998998998999","-2,16916916916917"
"4208","0,871871871871872","3,87187187187187","-27,1281281281281","1,3003003003003","-0,1001001001001","0,830830830830831"
"4220","-1,12812812812813","3,87187187187187","-26,1281281281281","1,3003003003003","-0,1001001001001","0,830830830830831"
"4220","-1,12812812812813","3,87187187187187","-26,1281281281281","2,3003003003003","-5,1001001001001","-1,16916916916917"
"4224","-1,12812812812813","3,87187187187187","-26,1281281281281","2,3003003003003","-5,1001001001001","-1,16916916916917"
"4225","-1,12812812812813","3,87187187187187","-26,1281281281281","1,3003003003003","-0,1001001001001","-0,169169169169169"
"4237","-2,12812812812813","3,87187187187187","-26,1281281281281","1,3003003003003","-0,1001001001001","-0,169169169169169"
"4241","-2,12812812812813","3,87187187187187","-26,1281281281281","-3,6996996996997","-0,1001001001001","-0,169169169169169"
"4249","0,871871871871872","4,87187187187187","-28,1281281281281","-3,6996996996997","-0,1001001001001","-0,169169169169169"
"4249","0,871871871871872","4,87187187187187","-28,1281281281281","1,3003003003003","-1,1001001001001","1,83083083083083"
"4257","-2,12812812812813","3,87187187187187","-27,1281281281281","1,3003003003003","-1,1001001001001","1,83083083083083"
"4258","-2,12812812812813","3,87187187187187","-27,1281281281281","-1,6996996996997","-2,1001001001001","1,83083083083083"
"4270","-2,12812812812813","3,87187187187187","-27,1281281281281","-1,6996996996997","-2,1001001001001","1,83083083083083"
"4270","-2,12812812812813","3,87187187187187","-27,1281281281281","-2,6996996996997","-1,1001001001001","1,83083083083083"
"4274","-2,12812812812813","3,87187187187187","-27,1281281281281","-2,6996996996997","-1,1001001001001","1,83083083083083"
"4278","-2,12812812812813","3,87187187187187","-27,1281281281281","-0,6996996996997","-0,1001001001001","0,830830830830831"
"4290","-2,12812812812813","4,87187187187187","-29,1281281281281","-0,6996996996997","-0,1001001001001","0,830830830830831"
"4290","-2,12812812812813","4,87187187187187","-29,1281281281281","-0,6996996996997","-1,1001001001001","-0,169169169169169"
"4298","-1,12812812812813","3,87187187187187","-26,1281281281281","-0,6996996996997","-1,1001001001001","-0,169169169169169"
"4298","-1,12812812812813","3,87187187187187","-26,1281281281281","0,3003003003003","-0,1001001001001","0,830830830830831"
"4310","-1,12812812812813","7,87187187187187","-26,1281281281281","0,3003003003003","-0,1001001001001","0,830830830830831"
"4310","-1,12812812812813","7,87187187187187","-26,1281281281281","-2,6996996996997","0,8998998998999","0,830830830830831"
"4319","-0,128128128128128","5,87187187187187","-27,1281281281281","-2,6996996996997","0,8998998998999","0,830830830830831"
"4319","-0,128128128128128","5,87187187187187","-27,1281281281281","-0,6996996996997","-3,1001001001001","-2,16916916916917"
"4327","-0,128128128128128","5,87187187187187","-27,1281281281281","-0,6996996996997","-3,1001001001001","-2,16916916916917"
"4327","-0,128128128128128","5,87187187187187","-27,1281281281281","1,3003003003003","-1,1001001001001","0,830830830830831"
"4339","-0,128128128128128","1,87187187187187","-26,1281281281281","1,3003003003003","-1,1001001001001","0,830830830830831"
"4339","-0,128128128128128","1,87187187187187","-26,1281281281281","1,3003003003003","-1,1001001001001","0,830830830830831"
"4347","-1,12812812812813","5,87187187187187","-26,1281281281281","1,3003003003003","-1,1001001001001","0,830830830830831"
"4351","-1,12812812812813","5,87187187187187","-26,1281281281281","-1,6996996996997","-1,1001001001001","-1,16916916916917"
"4359","-1,12812812812813","7,87187187187187","-25,1281281281281","-1,6996996996997","-1,1001001001001","-1,16916916916917"
"4360","-1,12812812812813","7,87187187187187","-25,1281281281281","-0,6996996996997","-0,1001001001001","-1,16916916916917"
"4368","-1,12812812812813","3,87187187187187","-26,1281281281281","-0,6996996996997","-0,1001001001001","-1,16916916916917"
"4368","-1,12812812812813","3,87187187187187","-26,1281281281281","0,3003003003003","-1,1001001001001","0,830830830830831"
"4376","-1,12812812812813","3,87187187187187","-26,1281281281281","0,3003003003003","-1,1001001001001","0,830830830830831"
"4376","-1,12812812812813","3,87187187187187","-26,1281281281281","3,3003003003003","-2,1001001001001","-0,169169169169169"
"4388","-0,128128128128128","6,87187187187187","-26,1281281281281","3,3003003003003","-2,1001001001001","-0,169169169169169"
"4388","-0,128128128128128","6,87187187187187","-26,1281281281281","-0,6996996996997","0,8998998998999","-0,169169169169169"
"4400","-0,128128128128128","3,87187187187187","-28,1281281281281","-0,6996996996997","0,8998998998999","-0,169169169169169"
"4401","-0,128128128128128","3,87187187187187","-28,1281281281281","2,3003003003003","-3,1001001001001","-0,169169169169169"
"4409","1,87187187187187","3,87187187187187","-24,1281281281281","2,3003003003003","-3,1001001001001","-0,169169169169169"
"4409","1,87187187187187","3,87187187187187","-24,1281281281281","0,3003003003003","-2,1001001001001","-1,16916916916917"
"4417","-2,12812812812813","3,87187187187187","-25,1281281281281","0,3003003003003","-2,1001001001001","-1,16916916916917"
"4421","-2,12812812812813","3,87187187187187","-25,1281281281281","0,3003003003003","-2,1001001001001","0,830830830830831"
"4425","-2,12812812812813","3,87187187187187","-25,1281281281281","0,3003003003003","-2,1001001001001","0,830830830830831"
"4425","-2,12812812812813","3,87187187187187","-25,1281281281281","1,3003003003003","-1,1001001001001","-0,169169169169169"
"4437","-0,128128128128128","5,87187187187187","-25,1281281281281","1,3003003003003","-1,1001001001001","-0,169169169169169"
"4441","-0,128128128128128","5,87187187187187","-25,1281281281281","1,3003003003003","-2,1001001001001","-1,16916916916917"
"4450","0,871871871871872","2,87187187187187","-26,1281281281281","1,3003003003003","-2,1001001001001","-1,16916916916917"
"4450","0,871871871871872","2,87187187187187","-26,1281281281281","-0,6996996996997","-3,1001001001001","-0,169169169169169"
"4458","-1,12812812812813","3,87187187187187","-29,1281281281281","-0,6996996996997","-3,1001001001001","-0,169169169169169"
"4458","-1,12812812812813","3,87187187187187","-29,1281281281281","-1,6996996996997","-2,1001001001001","-0,169169169169169"
"4470","-1,12812812812813","5,87187187187187","-25,1281281281281","-1,6996996996997","-2,1001001001001","-0,169169169169169"
"4470","-1,12812812812813","5,87187187187187","-25,1281281281281","0,3003003003003","2,8998998998999","-0,169169169169169"
"4474","-1,12812812812813","5,87187187187187","-25,1281281281281","0,3003003003003","2,8998998998999","-0,169169169169169"
"4478","-1,12812812812813","5,87187187187187","-25,1281281281281","-2,6996996996997","-2,1001001001001","-0,169169169169169"
"4491","0,871871871871872","4,87187187187187","-27,1281281281281","-2,6996996996997","-2,1001001001001","-0,169169169169169"
"4491","0,871871871871872","4,87187187187187","-27,1281281281281","2,3003003003003","-3,1001001001001","-0,169169169169169"
"4499","-1,12812812812813","3,87187187187187","-28,1281281281281","2,3003003003003","-3,1001001001001","-0,169169169169169"
"4499","-1,12812812812813","3,87187187187187","-28,1281281281281","0,3003003003003","-4,1001001001001","0,830830830830831"
"4507","-1,12812812812813","4,87187187187187","-26,1281281281281","0,3003003003003","-4,1001001001001","0,830830830830831"
"4511","-1,12812812812813","4,87187187187187","-26,1281281281281","-3,6996996996997","0,8998998998999","0,830830830830831"
"4519","0,871871871871872","5,87187187187187","-27,1281281281281","-3,6996996996997","0,8998998998999","0,830830830830831"
"4520","0,871871871871872","5,87187187187187","-27,1281281281281","-0,6996996996997","-0,1001001001001","2,83083083083083"
"4528","0,871871871871872","5,87187187187187","-27,1281281281281","-0,6996996996997","-0,1001001001001","2,83083083083083"
"4528","0,871871871871872","5,87187187187187","-27,1281281281281","1,3003003003003","-0,1001001001001","1,83083083083083"
"4540","0,871871871871872","3,87187187187187","-26,1281281281281","1,3003003003003","-0,1001001001001","1,83083083083083"
"4540","0,871871871871872","3,87187187187187","-26,1281281281281","0,3003003003003","-1,1001001001001","-2,16916916916917"
"4548","-2,12812812812813","6,87187187187187","-26,1281281281281","0,3003003003003","-1,1001001001001","-2,16916916916917"
"4548","-2,12812812812813","6,87187187187187","-26,1281281281281","1,3003003003003","0,8998998998999","0,830830830830831"
"4560","-2,12812812812813","6,87187187187187","-26,1281281281281","1,3003003003003","0,8998998998999","0,830830830830831"
"4561","-2,12812812812813","6,87187187187187","-26,1281281281281","-1,6996996996997","-0,1001001001001","-1,16916916916917"
"4569","-0,128128128128128","3,87187187187187","-26,1281281281281","-1,6996996996997","-0,1001001001001","-1,16916916916917"
"4569","-0,128128128128128","3,87187187187187","-26,1281281281281","0,3003003003003","-0,1001001001001","1,83083083083083"
"4577","-0,128128128128128","3,87187187187187","-26,1281281281281","0,3003003003003","-0,1001001001001","1,83083083083083"
"4577","-0,128128128128128","3,87187187187187","-26,1281281281281","0,3003003003003","-2,1001001001001","0,830830830830831"
"4589","-1,12812812812813","7,87187187187187","-25,1281281281281","0,3003003003003","-2,1001001001001","0,830830830830831"
"4589","-1,12812812812813","7,87187187187187","-25,1281281281281","1,3003003003003","0,8998998998999","-1,16916916916917"
"4597","-1,12812812812813","8,87187187187187","-28,1281281281281","1,3003003003003","0,8998998998999","-1,16916916916917"
"4601","-1,12812812812813","8,87187187187187","-28,1281281281281","2,3003003003003","1,8998998998999","0,830830830830831"
"4609","-1,12812812812813","2,87187187187187","-27,1281281281281","2,3003003003003","1,8998998998999","0,830830830830831"
"4610","-1,12812812812813","2,87187187187187","-27,1281281281281","0,3003003003003","-0,1001001001001","-0,169169169169169"
"4618","-1,12812812812813","1,87187187187187","-26,1281281281281","0,3003003003003","-0,1001001001001","-0,169169169169169"
"4622","-1,12812812812813","1,87187187187187","-26,1281281281281","-0,6996996996997","-0,1001001001001","-0,169169169169169"
"4626","-1,12812812812813","1,87187187187187","-26,1281281281281","-0,6996996996997","-0,1001001001001","-0,169169169169169"
"4626","-1,12812812812813","1,87187187187187","-26,1281281281281","0,3003003003003","-1,1001001001001","-0,169169169169169"
"4638","-1,12812812812813","5,87187187187187","-27,1281281281281","0,3003003003003","-1,1001001001001","-0,169169169169169"
"4642","-1,12812812812813","5,87187187187187","-27,1281281281281","0,3003003003003","2,8998998998999","-2,16916916916917"
"4650","-1,12812812812813","3,87187187187187","-28,1281281281281","0,3003003003003","2,8998998998999","-2,16916916916917"
"4651","-1,12812812812813","3,87187187187187","-28,1281281281281","3,3003003003003","-1,1001001001001","0,830830830830831"
"4659","-3,12812812812813","4,87187187187187","-26,1281281281281","3,3003003003003","-1,1001001001001","0,830830830830831"
"4659","-3,12812812812813","4,87187187187187","-26,1281281281281","1,3003003003003","0,8998998998999","-2,16916916916917"
"4671","-1,12812812812813","6,87187187187187","-26,1281281281281","1,3003003003003","0,8998998998999","-2,16916916916917"
"4671","-1,12812812812813","6,87187187187187","-26,1281281281281","1,3003003003003","-0,1001001001001","-0,169169169169169"
"4675","-1,12812812812813","6,87187187187187","-26,1281281281281","1,3003003003003","-0,1001001001001","-0,169169169169169"
"4679","-1,12812812812813","6,87187187187187","-26,1281281281281","0,3003003003003","1,8998998998999","0,830830830830831"
"4687","-0,128128128128128","3,87187187187187","-26,1281281281281","0,3003003003003","1,8998998998999","0,830830830830831"
"4691","-0,128128128128128","3,87187187187187","-26,1281281281281","-1,6996996996997","0,8998998998999","-2,16916916916917"
"4700","-1,12812812812813","4,87187187187187","-30,1281281281281","-1,6996996996997","0,8998998998999","-2,16916916916917"
"4700","-1,12812812812813","4,87187187187187","-30,1281281281281","1,3003003003003","-1,1001001001001","-2,16916916916917"
"4708","-1,12812812812813","4,87187187187187","-26,1281281281281","1,3003003003003","-1,1001001001001","-2,16916916916917"
"4712","-1,12812812812813","4,87187187187187","-26,1281281281281","1,3003003003003","0,8998998998999","-0,169169169169169"
"4720","-0,128128128128128","6,87187187187187","-26,1281281281281","1,3003003003003","0,8998998998999","-0,169169169169169"
"4720","-0,128128128128128","6,87187187187187","-26,1281281281281","-0,6996996996997","0,8998998998999","-0,169169169169169"
"4728","-0,128128128128128","6,87187187187187","-26,1281281281281","-0,6996996996997","0,8998998998999","-0,169169169169169"
"4728","-0,128128128128128","6,87187187187187","-26,1281281281281","3,3003003003003","-1,1001001001001","-1,16916916916917"
"4740","-0,128128128128128","2,87187187187187","-26,1281281281281","3,3003003003003","-1,1001001001001","-1,16916916916917"
"4741","-0,128128128128128","2,87187187187187","-26,1281281281281","2,3003003003003","-0,1001001001001","-0,169169169169169"
"4749","-2,12812812812813","3,87187187187187","-26,1281281281281","2,3003003003003","-0,1001001001001","-0,169169169169169"
"4749","-2,12812812812813","3,87187187187187","-26,1281281281281","-2,6996996996997","-0,1001001001001","-0,169169169169169"
"4761","-2,12812812812813","6,87187187187187","-26,1281281281281","-2,6996996996997","-0,1001001001001","-0,169169169169169"
"4761","-2,12812812812813","6,87187187187187","-26,1281281281281","-3,6996996996997","1,8998998998999","0,830830830830831"
"4769","-1,12812812812813","5,87187187187187","-26,1281281281281","-3,6996996996997","1,8998998998999","0,830830830830831"
"4769","-1,12812812812813","5,87187187187187","-26,1281281281281","0,3003003003003","-1,1001001001001","-0,169169169169169"
"4777","-1,12812812812813","5,87187187187187","-26,1281281281281","0,3003003003003","-1,1001001001001","-0,169169169169169"
"4778","-1,12812812812813","5,87187187187187","-26,1281281281281","2,3003003003003","-3,1001001001001","-1,16916916916917"
"4790","-1,12812812812813","5,87187187187187","-24,1281281281281","2,3003003003003","-3,1001001001001","-1,16916916916917"
"4790","-1,12812812812813","5,87187187187187","-24,1281281281281","-0,6996996996997","0,8998998998999","0,830830830830831"
"4798","-1,12812812812813","5,87187187187187","-24,1281281281281","-0,6996996996997","0,8998998998999","0,830830830830831"
"4802","-1,12812812812813","5,87187187187187","-24,1281281281281","-0,6996996996997","-0,1001001001001","-1,16916916916917"
"4810","0,871871871871872","1,87187187187187","-26,1281281281281","-0,6996996996997","-0,1001001001001","-1,16916916916917"
"4810","0,871871871871872","1,87187187187187","-26,1281281281281","0,3003003003003","-0,1001001001001","-0,169169169169169"
"4818","-0,128128128128128","2,87187187187187","-26,1281281281281","0,3003003003003","-0,1001001001001","-0,169169169169169"
"4822","-0,128128128128128","2,87187187187187","-26,1281281281281","1,3003003003003","0,8998998998999","-1,16916916916917"
"4827","-0,128128128128128","2,87187187187187","-26,1281281281281","1,3003003003003","0,8998998998999","-1,16916916916917"
"4827","-0,128128128128128","2,87187187187187","-26,1281281281281","-2,6996996996997","-1,1001001001001","0,830830830830831"
"4839","-1,12812812812813","5,87187187187187","-27,1281281281281","-2,6996996996997","-1,1001001001001","0,830830830830831"
"4839","-1,12812812812813","5,87187187187187","-27,1281281281281","-1,6996996996997","0,8998998998999","-1,16916916916917"
"4851","-1,12812812812813","5,87187187187187","-27,1281281281281","-1,6996996996997","0,8998998998999","-1,16916916916917"
"4851","-1,12812812812813","5,87187187187187","-27,1281281281281","0,3003003003003","-0,1001001001001","0,830830830830831"
"4860","0,871871871871872","3,87187187187187","-26,1281281281281","0,3003003003003","-0,1001001001001","0,830830830830831"
"4860","0,871871871871872","3,87187187187187","-26,1281281281281","1,3003003003003","-0,1001001001001","-0,169169169169169"
"4871","-0,128128128128128","3,87187187187187","-28,1281281281281","1,3003003003003","-0,1001001001001","-0,169169169169169"
"4872","-0,128128128128128","3,87187187187187","-28,1281281281281","-0,6996996996997","-0,1001001001001","0,830830830830831"
"4876","0,871871871871872","3,87187187187187","-28,1281281281281","-0,6996996996997","-0,1001001001001","0,830830830830831"
"4880","0,871871871871872","3,87187187187187","-28,1281281281281","0,3003003003003","0,8998998998999","1,83083083083083"
"4888","0,871871871871872","3,87187187187187","-23,1281281281281","0,3003003003003","0,8998998998999","1,83083083083083"
"4892","0,871871871871872","3,87187187187187","-23,1281281281281","-0,6996996996997","0,8998998998999","-0,169169169169169"
"4900","-1,12812812812813","4,87187187187187","-26,1281281281281","-0,6996996996997","0,8998998998999","-0,169169169169169"
"4900","-1,12812812812813","4,87187187187187","-26,1281281281281","-4,6996996996997","-1,1001001001001","-1,16916916916917"
"4909","0,871871871871872","5,87187187187187","-29,1281281281281","-4,6996996996997","-1,1001001001001","-1,16916916916917"
"4912","0,871871871871872","5,87187187187187","-29,1281281281281","-0,6996996996997","-1,1001001001001","0,830830830830831"
"4921","-0,128128128128128","4,87187187187187","-23,1281281281281","-0,6996996996997","-1,1001001001001","0,830830830830831"
"4921","-0,128128128128128","4,87187187187187","-23,1281281281281","-3,6996996996997","0,8998998998999","-1,16916916916917"
"4925","-0,128128128128128","4,87187187187187","-23,1281281281281","-3,6996996996997","0,8998998998999","-1,16916916916917"
"4929","-0,128128128128128","4,87187187187187","-23,1281281281281","0,3003003003003","-0,1001001001001","0,830830830830831"
"4941","-2,12812812812813","5,87187187187187","-26,1281281281281","0,3003003003003","-0,1001001001001","0,830830830830831"
"4941","-2,12812812812813","5,87187187187187","-26,1281281281281","-0,6996996996997","-2,1001001001001","-0,169169169169169"
"4949","0,871871871871872","5,87187187187187","-25,1281281281281","-0,6996996996997","-2,1001001001001","-0,169169169169169"
"4950","0,871871871871872","5,87187187187187","-25,1281281281281","2,3003003003003","0,8998998998999","0,830830830830831"
"4962","-1,12812812812813","3,87187187187187","-27,1281281281281","2,3003003003003","0,8998998998999","0,830830830830831"
"4962","-1,12812812812813","3,87187187187187","-27,1281281281281","-2,6996996996997","0,8998998998999","-2,16916916916917"
"4970","-3,12812812812813","4,87187187187187","-26,1281281281281","-2,6996996996997","0,8998998998999","-2,16916916916917"
"4970","-3,12812812812813","4,87187187187187","-26,1281281281281","0,3003003003003","-0,1001001001001","-2,16916916916917"
"4974","-0,128128128128128","4,87187187187187","-26,1281281281281","0,3003003003003","-0,1001001001001","-2,16916916916917"
"4978","-0,128128128128128","4,87187187187187","-26,1281281281281","-0,6996996996997","1,8998998998999","1,83083083083083"
"4990","-0,128128128128128","3,87187187187187","-25,1281281281281","-0,6996996996997","1,8998998998999","1,83083083083083"
"4991","-0,128128128128128","3,87187187187187","-25,1281281281281","0,3003003003003","-1,1001001001001","1,83083083083083"
"4999","-3,12812812812813","3,87187187187187","-25,1281281281281","0,3003003003003","-1,1001001001001","1,83083083083083"
"4999","-3,12812812812813","3,87187187187187","-25,1281281281281","2,3003003003003","-0,1001001001001","-0,169169169169169"
"5007","-2,12812812812813","7,87187187187187","-26,1281281281281","2,3003003003003","-0,1001001001001","-0,169169169169169"
"5011","-2,12812812812813","7,87187187187187","-26,1281281281281","-0,6996996996997","-1,1001001001001","-0,169169169169169"
"5019","-2,12812812812813","3,87187187187187","-26,1281281281281","-0,6996996996997","-1,1001001001001","-0,169169169169169"
"5019","-2,12812812812813","3,87187187187187","-26,1281281281281","1,3003003003003","2,8998998998999","-2,16916916916917"
"5027","0,871871871871872","3,87187187187187","-27,1281281281281","1,3003003003003","2,8998998998999","-2,16916916916917"
"5027","0,871871871871872","3,87187187187187","-27,1281281281281","0,3003003003003","1,8998998998999","-0,169169169169169"
"5039","-0,128128128128128","3,87187187187187","-24,1281281281281","0,3003003003003","1,8998998998999","-0,169169169169169"
"5040","-0,128128128128128","3,87187187187187","-24,1281281281281","-2,6996996996997","-0,1001001001001","1,83083083083083"
"5048","1,87187187187187","8,87187187187187","-26,1281281281281","-2,6996996996997","-0,1001001001001","1,83083083083083"
"5048","1,87187187187187","8,87187187187187","-26,1281281281281","2,3003003003003","-1,1001001001001","0,830830830830831"
"5060","-1,12812812812813","3,87187187187187","-27,1281281281281","2,3003003003003","-1,1001001001001","0,830830830830831"
"5060","-1,12812812812813","3,87187187187187","-27,1281281281281","-1,6996996996997","-3,1001001001001","-2,16916916916917"
"5068","-0,128128128128128","3,87187187187187","-26,1281281281281","-1,6996996996997","-3,1001001001001","-2,16916916916917"
"5068","-0,128128128128128","3,87187187187187","-26,1281281281281","0,3003003003003","-0,1001001001001","-1,16916916916917"
"5076","-2,12812812812813","3,87187187187187","-25,1281281281281","0,3003003003003","-0,1001001001001","-1,16916916916917"
"5076","-2,12812812812813","3,87187187187187","-25,1281281281281","0,3003003003003","-1,1001001001001","-0,169169169169169"
"5089","-1,12812812812813","6,87187187187187","-26,1281281281281","0,3003003003003","-1,1001001001001","-0,169169169169169"
"5089","-1,12812812812813","6,87187187187187","-26,1281281281281","1,3003003003003","-2,1001001001001","-1,16916916916917"
"5097","-0,128128128128128","3,87187187187187","-25,1281281281281","1,3003003003003","-2,1001001001001","-1,16916916916917"
"5097","-0,128128128128128","3,87187187187187","-25,1281281281281","1,3003003003003","-0,1001001001001","-0,169169169169169"
"5105","-0,128128128128128","2,87187187187187","-26,1281281281281","1,3003003003003","-0,1001001001001","-0,169169169169169"
"5105","-0,128128128128128","2,87187187187187","-26,1281281281281","0,3003003003003","2,8998998998999","0,830830830830831"
"5117","-1,12812812812813","6,87187187187187","-26,1281281281281","0,3003003003003","2,8998998998999","0,830830830830831"
"5117","-1,12812812812813","6,87187187187187","-26,1281281281281","1,3003003003003","0,8998998998999","-1,16916916916917"
"5126","-1,12812812812813","4,87187187187187","-26,1281281281281","1,3003003003003","0,8998998998999","-1,16916916916917"
"5126","-1,12812812812813","4,87187187187187","-26,1281281281281","-2,6996996996997","2,8998998998999","-0,169169169169169"
"5134","0,871871871871872","3,87187187187187","-26,1281281281281","-2,6996996996997","2,8998998998999","-0,169169169169169"
"5138","0,871871871871872","3,87187187187187","-26,1281281281281","1,3003003003003","-1,1001001001001","-0,169169169169169"
"5146","-1,12812812812813","3,87187187187187","-26,1281281281281","1,3003003003003","-1,1001001001001","-0,169169169169169"
"5146","-1,12812812812813","3,87187187187187","-26,1281281281281","-0,6996996996997","-1,1001001001001","-0,169169169169169"
"5154","-2,12812812812813","3,87187187187187","-28,1281281281281","-0,6996996996997","-1,1001001001001","-0,169169169169169"
"5154","-2,12812812812813","3,87187187187187","-28,1281281281281","-4,6996996996997","-0,1001001001001","-2,16916916916917"
"5166","-1,12812812812813","5,87187187187187","-27,1281281281281","-4,6996996996997","-0,1001001001001","-2,16916916916917"
"5167","-1,12812812812813","5,87187187187187","-27,1281281281281","-1,6996996996997","0,8998998998999","2,83083083083083"
"5175","0,871871871871872","6,87187187187187","-26,1281281281281","-1,6996996996997","0,8998998998999","2,83083083083083"
"5175","0,871871871871872","6,87187187187187","-26,1281281281281","0,3003003003003","2,8998998998999","-2,16916916916917"
"5183","0,871871871871872","3,87187187187187","-25,1281281281281","0,3003003003003","2,8998998998999","-2,16916916916917"
"5187","0,871871871871872","3,87187187187187","-25,1281281281281","0,3003003003003","-1,1001001001001","-0,169169169169169"
"5195","-1,12812812812813","4,87187187187187","-27,1281281281281","0,3003003003003","-1,1001001001001","-0,169169169169169"
"5195","-1,12812812812813","4,87187187187187","-27,1281281281281","0,3003003003003","-0,1001001001001","-1,16916916916917"
"5203","-1,12812812812813","5,87187187187187","-28,1281281281281","0,3003003003003","-0,1001001001001","-1,16916916916917"
"5204","-1,12812812812813","5,87187187187187","-28,1281281281281","-0,6996996996997","-0,1001001001001","0,830830830830831"
"5216","-2,12812812812813","6,87187187187187","-30,1281281281281","-0,6996996996997","-0,1001001001001","0,830830830830831"
"5216","-2,12812812812813","6,87187187187187","-30,1281281281281","-0,6996996996997","0,8998998998999","-1,16916916916917"
"5224","-0,128128128128128","2,87187187187187","-26,1281281281281","-0,6996996996997","0,8998998998999","-1,16916916916917"
"5224","-0,128128128128128","2,87187187187187","-26,1281281281281","1,3003003003003","-0,1001001001001","1,83083083083083"
"5236","-3,12812812812813","3,87187187187187","-26,1281281281281","1,3003003003003","-0,1001001001001","1,83083083083083"
"5237","-3,12812812812813","3,87187187187187","-26,1281281281281","-0,6996996996997","0,8998998998999","-1,16916916916917"
"5244","-2,12812812812813","7,87187187187187","-26,1281281281281","-0,6996996996997","0,8998998998999","-1,16916916916917"
"5245","-2,12812812812813","7,87187187187187","-26,1281281281281","-0,6996996996997","1,8998998998999","-0,169169169169169"
"5257","-0,128128128128128","3,87187187187187","-26,1281281281281","-0,6996996996997","1,8998998998999","-0,169169169169169"
"5261","-0,128128128128128","3,87187187187187","-26,1281281281281","0,3003003003003","-0,1001001001001","1,83083083083083"
"5265","-1,12812812812813","2,87187187187187","-27,1281281281281","0,3003003003003","-0,1001001001001","1,83083083083083"
"5265","-1,12812812812813","2,87187187187187","-27,1281281281281","-1,6996996996997","1,8998998998999","-0,169169169169169"
"5273","-0,128128128128128","5,87187187187187","-29,1281281281281","-1,6996996996997","1,8998998998999","-0,169169169169169"
"5277","-0,128128128128128","5,87187187187187","-29,1281281281281","0,3003003003003","-1,1001001001001","1,83083083083083"
"5285","-1,12812812812813","9,87187187187187","-27,1281281281281","0,3003003003003","-1,1001001001001","1,83083083083083"
"5285","-1,12812812812813","9,87187187187187","-27,1281281281281","3,3003003003003","-1,1001001001001","-1,16916916916917"
"5293","0,871871871871872","1,87187187187187","-26,1281281281281","3,3003003003003","-1,1001001001001","-1,16916916916917"
"5294","0,871871871871872","1,87187187187187","-26,1281281281281","3,3003003003003","-0,1001001001001","-0,169169169169169"
"5306","0,871871871871872","2,87187187187187","-25,1281281281281","3,3003003003003","-0,1001001001001","-0,169169169169169"
"5306","0,871871871871872","2,87187187187187","-25,1281281281281","1,3003003003003","2,8998998998999","-0,169169169169169"
"5314","-3,12812812812813","7,87187187187187","-29,1281281281281","1,3003003003003","2,8998998998999","-0,169169169169169"
"5314","-3,12812812812813","7,87187187187187","-29,1281281281281","3,3003003003003","0,8998998998999","0,830830830830831"
"5326","0,871871871871872","4,87187187187187","-26,1281281281281","3,3003003003003","0,8998998998999","0,830830830830831"
"5326","0,871871871871872","4,87187187187187","-26,1281281281281","1,3003003003003","-0,1001001001001","-1,16916916916917"
"5335","1,87187187187187","3,87187187187187","-26,1281281281281","1,3003003003003","-0,1001001001001","-1,16916916916917"
"5335","1,87187187187187","3,87187187187187","-26,1281281281281","-2,6996996996997","-1,1001001001001","1,83083083083083"
"5343","-1,12812812812813","3,87187187187187","-26,1281281281281","-2,6996996996997","-1,1001001001001","1,83083083083083"
"5347","-1,12812812812813","3,87187187187187","-26,1281281281281","1,3003003003003","1,8998998998999","1,83083083083083"
"5355","-1,12812812812813","5,87187187187187","-29,1281281281281","1,3003003003003","1,8998998998999","1,83083083083083"
"5355","-1,12812812812813","5,87187187187187","-29,1281281281281","2,3003003003003","0,8998998998999","1,83083083083083"
"5363","0,871871871871872","6,87187187187187","-27,1281281281281","2,3003003003003","0,8998998998999","1,83083083083083"
"5367","0,871871871871872","6,87187187187187","-27,1281281281281","2,3003003003003","-1,1001001001001","1,83083083083083"
"5375","-1,12812812812813","3,87187187187187","-24,1281281281281","2,3003003003003","-1,1001001001001","1,83083083083083"
"5376","-1,12812812812813","3,87187187187187","-24,1281281281281","-0,6996996996997","-0,1001001001001","-0,169169169169169"
"5384","-0,128128128128128","5,87187187187187","-26,1281281281281","-0,6996996996997","-0,1001001001001","-0,169169169169169"
"5384","-0,128128128128128","5,87187187187187","-26,1281281281281","2,3003003003003","-1,1001001001001","0,830830830830831"
"5396","-1,12812812812813","3,87187187187187","-26,1281281281281","2,3003003003003","-1,1001001001001","0,830830830830831"
"5396","-1,12812812812813","3,87187187187187","-26,1281281281281","2,3003003003003","0,8998998998999","0,830830830830831"
"5404","-1,12812812812813","4,87187187187187","-27,1281281281281","2,3003003003003","0,8998998998999","0,830830830830831"
"5404","-1,12812812812813","4,87187187187187","-27,1281281281281","0,3003003003003","-2,1001001001001","2,83083083083083"
"5416","-1,12812812812813","4,87187187187187","-27,1281281281281","0,3003003003003","-2,1001001001001","2,83083083083083"
"5416","-1,12812812812813","4,87187187187187","-27,1281281281281","-0,6996996996997","-1,1001001001001","-3,16916916916917"
"5425","-3,12812812812813","5,87187187187187","-24,1281281281281","-0,6996996996997","-1,1001001001001","-3,16916916916917"
"5425","-3,12812812812813","5,87187187187187","-24,1281281281281","1,3003003003003","1,8998998998999","0,830830830830831"
"5433","-1,12812812812813","5,87187187187187","-24,1281281281281","1,3003003003003","1,8998998998999","0,830830830830831"
"5437","-1,12812812812813","5,87187187187187","-24,1281281281281","3,3003003003003","-1,1001001001001","-0,169169169169169"
"5445","-1,12812812812813","5,87187187187187","-25,1281281281281","3,3003003003003","-1,1001001001001","-0,169169169169169"
"5445","-1,12812812812813","5,87187187187187","-25,1281281281281","2,3003003003003","-1,1001001001001","-0,169169169169169"
"5453","0,871871871871872","5,87187187187187","-28,1281281281281","2,3003003003003","-1,1001001001001","-0,169169169169169"
"5457","0,871871871871872","5,87187187187187","-28,1281281281281","1,3003003003003","-2,1001001001001","0,830830830830831"
"5466","-1,12812812812813","4,87187187187187","-26,1281281281281","1,3003003003003","-2,1001001001001","0,830830830830831"
"5466","-1,12812812812813","4,87187187187187","-26,1281281281281","-0,6996996996997","1,8998998998999","-0,169169169169169"
"5474","-1,12812812812813","6,87187187187187","-26,1281281281281","-0,6996996996997","1,8998998998999","-0,169169169169169"
"5474","-1,12812812812813","6,87187187187187","-26,1281281281281","1,3003003003003","-1,1001001001001","1,83083083083083"
"5486","0,871871871871872","4,87187187187187","-23,1281281281281","1,3003003003003","-1,1001001001001","1,83083083083083"
"5486","0,871871871871872","4,87187187187187","-23,1281281281281","4,3003003003003","-1,1001001001001","-1,16916916916917"
"5494","-1,12812812812813","3,87187187187187","-26,1281281281281","4,3003003003003","-1,1001001001001","-1,16916916916917"
"5494","-1,12812812812813","3,87187187187187","-26,1281281281281","2,3003003003003","-1,1001001001001","-1,16916916916917"
"5506","-0,128128128128128","3,87187187187187","-28,1281281281281","2,3003003003003","-1,1001001001001","-1,16916916916917"
"5507","-0,128128128128128","3,87187187187187","-28,1281281281281","1,3003003003003","1,8998998998999","-1,16916916916917"
"5515","-0,128128128128128","6,87187187187187","-23,1281281281281","1,3003003003003","1,8998998998999","-1,16916916916917"
"5515","-0,128128128128128","6,87187187187187","-23,1281281281281","-4,6996996996997","0,8998998998999","0,830830830830831"
"5523","-0,128128128128128","5,87187187187187","-27,1281281281281","-4,6996996996997","0,8998998998999","0,830830830830831"
"5527","-0,128128128128128","5,87187187187187","-27,1281281281281","-0,6996996996997","0,8998998998999","1,83083083083083"
"5535","1,87187187187187","3,87187187187187","-26,1281281281281","-0,6996996996997","0,8998998998999","1,83083083083083"
"5535","1,87187187187187","3,87187187187187","-26,1281281281281","-0,6996996996997","-1,1001001001001","-1,16916916916917"
"5543","-0,128128128128128","3,87187187187187","-27,1281281281281","-0,6996996996997","-1,1001001001001","-1,16916916916917"
"5547","-0,128128128128128","3,87187187187187","-27,1281281281281","-0,6996996996997","-1,1001001001001","-0,169169169169169"
"5556","-0,128128128128128","4,87187187187187","-28,1281281281281","-0,6996996996997","-1,1001001001001","-0,169169169169169"
"5556","-0,128128128128128","4,87187187187187","-28,1281281281281","-0,6996996996997","2,8998998998999","-1,16916916916917"
"5564","-1,12812812812813","3,87187187187187","-29,1281281281281","-0,6996996996997","2,8998998998999","-1,16916916916917"
"5564","-1,12812812812813","3,87187187187187","-29,1281281281281","-0,6996996996997","-1,1001001001001","-0,169169169169169"
"5576","-0,128128128128128","3,87187187187187","-25,1281281281281","-0,6996996996997","-1,1001001001001","-0,169169169169169"
"5576","-0,128128128128128","3,87187187187187","-25,1281281281281","-3,6996996996997","-3,1001001001001","-2,16916916916917"
"5584","-1,12812812812813","4,87187187187187","-27,1281281281281","-3,6996996996997","-3,1001001001001","-2,16916916916917"
"5585","-1,12812812812813","4,87187187187187","-27,1281281281281","-1,6996996996997","-1,1001001001001","-1,16916916916917"
"5596","-1,12812812812813","4,87187187187187","-25,1281281281281","-1,6996996996997","-1,1001001001001","-1,16916916916917"
"5597","-1,12812812812813","4,87187187187187","-25,1281281281281","1,3003003003003","0,8998998998999","-1,16916916916917"
"5605","0,871871871871872","4,87187187187187","-28,1281281281281","1,3003003003003","0,8998998998999","-1,16916916916917"
"5605","0,871871871871872","4,87187187187187","-28,1281281281281","0,3003003003003","-1,1001001001001","-1,16916916916917"
"5613","-0,128128128128128","3,87187187187187","-24,1281281281281","0,3003003003003","-1,1001001001001","-1,16916916916917"
"5617","-0,128128128128128","3,87187187187187","-24,1281281281281","-0,6996996996997","-0,1001001001001","-1,16916916916917"
"5625","0,871871871871872","4,87187187187187","-26,1281281281281","-0,6996996996997","-0,1001001001001","-1,16916916916917"
"5626","0,871871871871872","4,87187187187187","-26,1281281281281","-2,6996996996997","0,8998998998999","-0,169169169169169"
"5633","-1,12812812812813","3,87187187187187","-27,1281281281281","-2,6996996996997","0,8998998998999","-0,169169169169169"
"5637","-1,12812812812813","3,87187187187187","-27,1281281281281","-0,6996996996997","0,8998998998999","-1,16916916916917"
"5646","-0,128128128128128","4,87187187187187","-27,1281281281281","-0,6996996996997","0,8998998998999","-1,16916916916917"
"5646","-0,128128128128128","4,87187187187187","-27,1281281281281","1,3003003003003","-0,1001001001001","0,830830830830831"
"5654","0,871871871871872","4,87187187187187","-27,1281281281281","1,3003003003003","-0,1001001001001","0,830830830830831"
"5654","0,871871871871872","4,87187187187187","-27,1281281281281","-1,6996996996997","-1,1001001001001","-3,16916916916917"
"5666","-0,128128128128128","3,87187187187187","-24,1281281281281","-1,6996996996997","-1,1001001001001","-3,16916916916917"
"5666","-0,128128128128128","3,87187187187187","-24,1281281281281","-0,6996996996997","0,8998998998999","-1,16916916916917"
"5675","0,871871871871872","3,87187187187187","-26,1281281281281","-0,6996996996997","0,8998998998999","-1,16916916916917"
"5675","0,871871871871872","3,87187187187187","-26,1281281281281","-0,6996996996997","-0,1001001001001","-2,16916916916917"
"5683","0,871871871871872","3,87187187187187","-26,1281281281281","-0,6996996996997","-0,1001001001001","-2,16916916916917"
"5687","0,871871871871872","3,87187187187187","-26,1281281281281","0,3003003003003","-1,1001001001001","-0,169169169169169"
"5695","-2,12812812812813","3,87187187187187","-27,1281281281281","0,3003003003003","-1,1001001001001","-0,169169169169169"
"5695","-2,12812812812813","3,87187187187187","-27,1281281281281","-0,6996996996997","0,8998998998999","-0,169169169169169"
"5703","-0,128128128128128","3,87187187187187","-27,1281281281281","-0,6996996996997","0,8998998998999","-0,169169169169169"
"5707","-0,128128128128128","3,87187187187187","-27,1281281281281","-0,6996996996997","0,8998998998999","-0,169169169169169"
"5715","-0,128128128128128","3,87187187187187","-26,1281281281281","-0,6996996996997","0,8998998998999","-0,169169169169169"
"5715","-0,128128128128128","3,87187187187187","-26,1281281281281","-0,6996996996997","-0,1001001001001","-0,169169169169169"
"5724","-0,128128128128128","4,87187187187187","-26,1281281281281","-0,6996996996997","-0,1001001001001","-0,169169169169169"
"5727","-0,128128128128128","4,87187187187187","-26,1281281281281","-0,6996996996997","-1,1001001001001","-2,16916916916917"
"5736","0,871871871871872","4,87187187187187","-27,1281281281281","-0,6996996996997","-1,1001001001001","-2,16916916916917"
"5736","0,871871871871872","4,87187187187187","-27,1281281281281","-1,6996996996997","-1,1001001001001","-3,16916916916917"
"5744","1,87187187187187","4,87187187187187","-24,1281281281281","-1,6996996996997","-1,1001001001001","-3,16916916916917"
"5744","1,87187187187187","4,87187187187187","-24,1281281281281","-1,6996996996997","-0,1001001001001","-4,16916916916917"
"5756","-1,12812812812813","4,87187187187187","-26,1281281281281","-1,6996996996997","-0,1001001001001","-4,16916916916917"
"5756","-1,12812812812813","4,87187187187187","-26,1281281281281","0,3003003003003","0,8998998998999","-0,169169169169169"
"5765","-1,12812812812813","4,87187187187187","-25,1281281281281","0,3003003003003","0,8998998998999","-0,169169169169169"
"5765","-1,12812812812813","4,87187187187187","-25,1281281281281","1,3003003003003","-0,1001001001001","-1,16916916916917"
"5773","1,87187187187187","6,87187187187187","-24,1281281281281","1,3003003003003","-0,1001001001001","-1,16916916916917"
"5777","1,87187187187187","6,87187187187187","-24,1281281281281","-1,6996996996997","0,8998998998999","-0,169169169169169"
"5785","0,871871871871872","4,87187187187187","-26,1281281281281","-1,6996996996997","0,8998998998999","-0,169169169169169"
"5785","0,871871871871872","4,87187187187187","-26,1281281281281","-1,6996996996997","0,8998998998999","-1,16916916916917"
"5793","0,871871871871872","5,87187187187187","-25,1281281281281","-1,6996996996997","0,8998998998999","-1,16916916916917"
"5797","0,871871871871872","5,87187187187187","-25,1281281281281","-1,6996996996997","1,8998998998999","-1,16916916916917"
"5806","0,871871871871872","3,87187187187187","-28,1281281281281","-1,6996996996997","1,8998998998999","-1,16916916916917"
"5806","0,871871871871872","3,87187187187187","-28,1281281281281","0,3003003003003","-0,1001001001001","-3,16916916916917"
"5814","-1,12812812812813","6,87187187187187","-27,1281281281281","0,3003003003003","-0,1001001001001","-3,16916916916917"
"5814","-1,12812812812813","6,87187187187187","-27,1281281281281","0,3003003003003","0,8998998998999","-1,16916916916917"
"5826","-0,128128128128128","5,87187187187187","-27,1281281281281","0,3003003003003","0,8998998998999","-1,16916916916917"
"5826","-0,128128128128128","5,87187187187187","-27,1281281281281","-0,6996996996997","0,8998998998999","-2,16916916916917"
"5834","0,871871871871872","3,87187187187187","-24,1281281281281","-0,6996996996997","0,8998998998999","-2,16916916916917"
"5834","0,871871871871872","3,87187187187187","-24,1281281281281","2,3003003003003","0,8998998998999","-0,169169169169169"
"5846","-1,12812812812813","5,87187187187187","-25,1281281281281","2,3003003003003","0,8998998998999","-0,169169169169169"
"5846","-1,12812812812813","5,87187187187187","-25,1281281281281","0,3003003003003","0,8998998998999","-1,16916916916917"
"5855","-1,12812812812813","5,87187187187187","-30,1281281281281","0,3003003003003","0,8998998998999","-1,16916916916917"
