Timer,AX,AY,AZ,GX,GY,GZ,A
"44","0.388432702606212","-1.03855765797929","-1.4584077115316","-0.976436986790432","0.0810424848268476","0","0.1875"
"50","0.388432702606212","-1.03855765797929","-1.4584077115316","0.023563013209568","-0.918957515173152","0","0.1875"
"50","-0.611567297393788","-0.0385576579792931","0.541592288468404","0.023563013209568","-0.918957515173152","0","0.1875"
"58","-0.611567297393788","-0.0385576579792931","0.541592288468404","-1.97643698679043","-0.918957515173152","0","0.1875"
"58","-0.611567297393788","-0.0385576579792931","0.541592288468404","-1.97643698679043","-0.918957515173152","0","0.1875"
"65","-0.611567297393788","-0.0385576579792931","0.541592288468404","-1.97643698679043","0.0810424848268476","0","0.1875"
"65","1.38843270260621","-0.0385576579792931","0.541592288468404","-1.97643698679043","0.0810424848268476","0","0.1875"
"77","1.38843270260621","-0.0385576579792931","0.541592288468404","5.02356301320957","1.08104248482685","0","0.1875"
"77","1.38843270260621","-0.0385576579792931","0.541592288468404","5.02356301320957","1.08104248482685","0","0.1875"
"84","1.38843270260621","-0.0385576579792931","0.541592288468404","-1.97643698679043","-2.91895751517315","0","0.1875"
"84","-0.611567297393788","-0.0385576579792931","1.5415922884684","-1.97643698679043","-2.91895751517315","0","0.1875"
"92","-0.611567297393788","-0.0385576579792931","1.5415922884684","1.02356301320957","-0.918957515173152","0","0.1875"
"93","-1.61156729739379","-0.0385576579792931","2.5415922884684","1.02356301320957","-0.918957515173152","0","0.1875"
"98","-1.61156729739379","-0.0385576579792931","2.5415922884684","0.023563013209568","1.08104248482685","0","0.1875"
"99","-1.61156729739379","-0.0385576579792931","2.5415922884684","0.023563013209568","1.08104248482685","0","0.1875"
"104","-1.61156729739379","-0.0385576579792931","2.5415922884684","-0.976436986790432","0.0810424848268476","0","0.1875"
"104","1.38843270260621","-1.03855765797929","0.541592288468404","-0.976436986790432","0.0810424848268476","0","0.1875"
"111","1.38843270260621","-1.03855765797929","0.541592288468404","1.02356301320957","0.0810424848268476","0","0.1875"
"111","1.38843270260621","-1.03855765797929","0.541592288468404","1.02356301320957","0.0810424848268476","0","0.1875"
"116","1.38843270260621","-1.03855765797929","0.541592288468404","0.023563013209568","1.08104248482685","0","0.1875"
"116","-1.61156729739379","-0.0385576579792931","-1.4584077115316","0.023563013209568","1.08104248482685","0","0.1875"
"122","-1.61156729739379","-0.0385576579792931","-1.4584077115316","-0.976436986790432","-1.91895751517315","0","0.1875"
"122","-0.611567297393788","-0.0385576579792931","0.541592288468404","-0.976436986790432","-1.91895751517315","0","0.1875"
"128","-0.611567297393788","-0.0385576579792931","0.541592288468404","-0.976436986790432","-2.91895751517315","0","0.1875"
"128","-0.611567297393788","-0.0385576579792931","0.541592288468404","-0.976436986790432","-2.91895751517315","0","0.1875"
"133","-0.611567297393788","-0.0385576579792931","0.541592288468404","-1.97643698679043","-0.918957515173152","0","0.1875"
"133","0.388432702606212","-0.0385576579792931","0.541592288468404","-1.97643698679043","-0.918957515173152","0","0.1875"
"139","0.388432702606212","-0.0385576579792931","0.541592288468404","-1.97643698679043","3.08104248482685","0","0.1875"
"140","-0.611567297393788","-0.0385576579792931","-0.458407711531596","-1.97643698679043","3.08104248482685","0","0.1875"
"145","-0.611567297393788","-0.0385576579792931","-0.458407711531596","0.023563013209568","-0.918957515173152","0","0.1875"
"145","-2.61156729739379","1.96144234202071","-1.4584077115316","0.023563013209568","-0.918957515173152","0","0.1875"
"151","-2.61156729739379","1.96144234202071","-1.4584077115316","0.023563013209568","-0.918957515173152","0","0.1875"
"151","2.38843270260621","-1.03855765797929","1.5415922884684","0.023563013209568","-0.918957515173152","0","0.1875"
"157","2.38843270260621","-1.03855765797929","1.5415922884684","-1.97643698679043","2.08104248482685","0","0.1875"
"157","2.38843270260621","-1.03855765797929","1.5415922884684","-1.97643698679043","2.08104248482685","0","0.1875"
"163","2.38843270260621","-1.03855765797929","1.5415922884684","2.02356301320957","1.08104248482685","0","0.1875"
"163","-0.611567297393788","-2.03855765797929","0.541592288468404","2.02356301320957","1.08104248482685","0","0.1875"
"168","-0.611567297393788","-2.03855765797929","0.541592288468404","1.02356301320957","0.0810424848268476","0","0.1875"
"168","-1.61156729739379","-0.0385576579792931","0.541592288468404","1.02356301320957","0.0810424848268476","0","0.1875"
"174","-1.61156729739379","-0.0385576579792931","0.541592288468404","3.02356301320957","-0.918957515173152","0","0.1875"
"174","0.388432702606212","-0.0385576579792931","-4.4584077115316","3.02356301320957","-0.918957515173152","0","0.1875"
"180","0.388432702606212","-0.0385576579792931","-4.4584077115316","0.023563013209568","-1.91895751517315","0","0.1875"
"180","-0.611567297393788","0.961442342020707","0.541592288468404","0.023563013209568","-1.91895751517315","0","0.1875"
"185","-0.611567297393788","0.961442342020707","0.541592288468404","1.02356301320957","0.0810424848268476","0","0.1875"
"186","0.388432702606212","-0.0385576579792931","0.541592288468404","1.02356301320957","0.0810424848268476","0","0.1875"
"191","0.388432702606212","-0.0385576579792931","0.541592288468404","0.023563013209568","1.08104248482685","0","0.1875"
"192","-2.61156729739379","0.961442342020707","-1.4584077115316","0.023563013209568","1.08104248482685","0","0.1875"
"197","-2.61156729739379","0.961442342020707","-1.4584077115316","5.02356301320957","-0.918957515173152","0","0.1875"
"197","-2.61156729739379","0.961442342020707","-1.4584077115316","5.02356301320957","-0.918957515173152","0","0.1875"
"202","-2.61156729739379","0.961442342020707","-1.4584077115316","0.023563013209568","0.0810424848268476","0","0.1875"
"202","-1.61156729739379","0.961442342020707","-2.4584077115316","0.023563013209568","0.0810424848268476","0","0.1875"
"209","-1.61156729739379","0.961442342020707","-2.4584077115316","2.02356301320957","-1.91895751517315","0","0.1875"
"209","0.388432702606212","-0.0385576579792931","-0.458407711531596","2.02356301320957","-1.91895751517315","0","0.1875"
"214","0.388432702606212","-0.0385576579792931","-0.458407711531596","-3.97643698679043","4.08104248482685","0","0.1875"
"214","-0.611567297393788","-1.03855765797929","-0.458407711531596","-3.97643698679043","4.08104248482685","0","0.1875"
"220","-0.611567297393788","-1.03855765797929","-0.458407711531596","-1.97643698679043","3.08104248482685","0","0.1875"
"220","0.388432702606212","-0.0385576579792931","-1.4584077115316","-1.97643698679043","3.08104248482685","0","0.1875"
"226","0.388432702606212","-0.0385576579792931","-1.4584077115316","0.023563013209568","-0.918957515173152","0","0.1875"
"226","-2.61156729739379","-0.0385576579792931","0.541592288468404","0.023563013209568","-0.918957515173152","0","0.1875"
"231","-2.61156729739379","-0.0385576579792931","0.541592288468404","1.02356301320957","-2.91895751517315","0","0.1875"
"231","-0.611567297393788","-0.0385576579792931","0.541592288468404","1.02356301320957","-2.91895751517315","0","0.1875"
"237","-0.611567297393788","-0.0385576579792931","0.541592288468404","2.02356301320957","2.08104248482685","0","0.1875"
"237","1.38843270260621","-1.03855765797929","-0.458407711531596","2.02356301320957","2.08104248482685","0","0.1875"
"243","1.38843270260621","-1.03855765797929","-0.458407711531596","-2.97643698679043","1.08104248482685","0","0.1875"
"243","2.38843270260621","-0.0385576579792931","-0.458407711531596","-2.97643698679043","1.08104248482685","0","0.1875"
"249","2.38843270260621","-0.0385576579792931","-0.458407711531596","0.023563013209568","-0.918957515173152","0","0.1875"
"249","0.388432702606212","1.96144234202071","2.5415922884684","0.023563013209568","-0.918957515173152","0","0.1875"
"255","0.388432702606212","1.96144234202071","2.5415922884684","0.023563013209568","1.08104248482685","0","0.1875"
"255","1.38843270260621","-0.0385576579792931","0.541592288468404","0.023563013209568","1.08104248482685","0","0.1875"
"262","1.38843270260621","-0.0385576579792931","0.541592288468404","0.023563013209568","-1.91895751517315","0","0.1875"
"263","0.388432702606212","1.96144234202071","-1.4584077115316","0.023563013209568","-1.91895751517315","0","0.1875"
"268","0.388432702606212","1.96144234202071","-1.4584077115316","3.02356301320957","-0.918957515173152","0","0.1875"
"269","-0.611567297393788","-0.0385576579792931","-1.4584077115316","3.02356301320957","-0.918957515173152","0","0.1875"
"275","-0.611567297393788","-0.0385576579792931","-1.4584077115316","-0.976436986790432","2.08104248482685","0","0.1875"
"275","-0.611567297393788","-0.0385576579792931","0.541592288468404","-0.976436986790432","2.08104248482685","0","0.1875"
"282","-0.611567297393788","-0.0385576579792931","0.541592288468404","-2.97643698679043","2.08104248482685","0","0.1875"
"282","0.388432702606212","-0.0385576579792931","0.541592288468404","-2.97643698679043","2.08104248482685","0","0.1875"
"290","0.388432702606212","-0.0385576579792931","0.541592288468404","-0.976436986790432","1.08104248482685","0","0.1875"
"290","1.38843270260621","-1.03855765797929","1.5415922884684","-0.976436986790432","1.08104248482685","0","0.1875"
"296","1.38843270260621","-1.03855765797929","1.5415922884684","-4.97643698679043","1.08104248482685","0","0.1875"
"296","-1.61156729739379","-0.0385576579792931","0.541592288468404","-4.97643698679043","1.08104248482685","0","0.1875"
"302","-1.61156729739379","-0.0385576579792931","0.541592288468404","1.02356301320957","1.08104248482685","0","0.1875"
"302","0.388432702606212","0.961442342020707","-0.458407711531596","1.02356301320957","1.08104248482685","0","0.1875"
"309","0.388432702606212","0.961442342020707","-0.458407711531596","-0.976436986790432","0.0810424848268476","0","0.1875"
"309","-0.611567297393788","-2.03855765797929","0.541592288468404","-0.976436986790432","0.0810424848268476","0","0.1875"
"315","-0.611567297393788","-2.03855765797929","0.541592288468404","-3.97643698679043","1.08104248482685","0","0.1875"
"315","1.38843270260621","-0.0385576579792931","0.541592288468404","-3.97643698679043","1.08104248482685","0","0.1875"
"323","1.38843270260621","-0.0385576579792931","0.541592288468404","1.02356301320957","-1.91895751517315","0","0.1875"
"323","0.388432702606212","-0.0385576579792931","0.541592288468404","1.02356301320957","-1.91895751517315","0","0.1875"
"330","0.388432702606212","-0.0385576579792931","0.541592288468404","0.023563013209568","1.08104248482685","0","0.1875"
"330","1.38843270260621","1.96144234202071","-1.4584077115316","0.023563013209568","1.08104248482685","0","0.1875"
"336","1.38843270260621","1.96144234202071","-1.4584077115316","-0.976436986790432","2.08104248482685","0","0.1875"
"336","0.388432702606212","-0.0385576579792931","-0.458407711531596","-0.976436986790432","2.08104248482685","0","0.1875"
"342","0.388432702606212","-0.0385576579792931","-0.458407711531596","5.02356301320957","0.0810424848268476","0","0.1875"
"342","-0.611567297393788","1.96144234202071","-0.458407711531596","5.02356301320957","0.0810424848268476","0","0.1875"
"347","-0.611567297393788","1.96144234202071","-0.458407711531596","3.02356301320957","1.08104248482685","0","0.1875"
"348","-0.611567297393788","-0.0385576579792931","-0.458407711531596","3.02356301320957","1.08104248482685","0","0.1875"
"353","-0.611567297393788","-0.0385576579792931","-0.458407711531596","1.02356301320957","-0.918957515173152","0","0.1875"
"353","-0.611567297393788","-0.0385576579792931","-0.458407711531596","1.02356301320957","-0.918957515173152","0","0.1875"
"359","-0.611567297393788","-0.0385576579792931","-0.458407711531596","1.02356301320957","2.08104248482685","0","0.1875"
"359","-1.61156729739379","-0.0385576579792931","0.541592288468404","1.02356301320957","2.08104248482685","0","0.1875"
"364","-1.61156729739379","-0.0385576579792931","0.541592288468404","1.02356301320957","0.0810424848268476","0","0.1875"
"364","1.38843270260621","1.96144234202071","-2.4584077115316","1.02356301320957","0.0810424848268476","0","0.1875"
"370","1.38843270260621","1.96144234202071","-2.4584077115316","0.023563013209568","0.0810424848268476","0","0.1875"
"370","1.38843270260621","-0.0385576579792931","-0.458407711531596","0.023563013209568","0.0810424848268476","0","0.1875"
"376","1.38843270260621","-0.0385576579792931","-0.458407711531596","1.02356301320957","0.0810424848268476","0","0.1875"
"376","1.38843270260621","-0.0385576579792931","3.5415922884684","1.02356301320957","0.0810424848268476","0","0.1875"
"381","1.38843270260621","-0.0385576579792931","3.5415922884684","0.023563013209568","0.0810424848268476","0","0.1875"
"382","0.388432702606212","-0.0385576579792931","-2.4584077115316","0.023563013209568","0.0810424848268476","0","0.1875"
"387","0.388432702606212","-0.0385576579792931","-2.4584077115316","0.023563013209568","2.08104248482685","0","0.1875"
"387","1.38843270260621","-0.0385576579792931","-1.4584077115316","0.023563013209568","2.08104248482685","0","0.1875"
"393","1.38843270260621","-0.0385576579792931","-1.4584077115316","3.02356301320957","0.0810424848268476","0","0.1875"
"394","-0.611567297393788","-0.0385576579792931","-0.458407711531596","3.02356301320957","0.0810424848268476","0","0.1875"
"399","-0.611567297393788","-0.0385576579792931","-0.458407711531596","0.023563013209568","-1.91895751517315","0","0.1875"
"399","-1.61156729739379","0.961442342020707","-0.458407711531596","0.023563013209568","-1.91895751517315","0","0.1875"
"406","-1.61156729739379","0.961442342020707","-0.458407711531596","-1.97643698679043","0.0810424848268476","0","0.1875"
"406","0.388432702606212","-0.0385576579792931","1.5415922884684","-1.97643698679043","0.0810424848268476","0","0.1875"
"412","0.388432702606212","-0.0385576579792931","1.5415922884684","0.023563013209568","1.08104248482685","0","0.1875"
"412","-0.611567297393788","-0.0385576579792931","0.541592288468404","0.023563013209568","1.08104248482685","0","0.1875"
"418","-0.611567297393788","-0.0385576579792931","0.541592288468404","1.02356301320957","-0.918957515173152","0","0.1875"
"418","-0.611567297393788","-0.0385576579792931","0.541592288468404","1.02356301320957","-0.918957515173152","0","0.1875"
"425","-0.611567297393788","-0.0385576579792931","0.541592288468404","-0.976436986790432","-0.918957515173152","0","0.1875"
"425","-0.611567297393788","1.96144234202071","-0.458407711531596","-0.976436986790432","-0.918957515173152","0","0.1875"
"432","-0.611567297393788","1.96144234202071","-0.458407711531596","0.023563013209568","1.08104248482685","0","0.1875"
"432","0.388432702606212","-1.03855765797929","-1.4584077115316","0.023563013209568","1.08104248482685","0","0.1875"
"438","0.388432702606212","-1.03855765797929","-1.4584077115316","0.023563013209568","-0.918957515173152","0","0.1875"
"438","-1.61156729739379","-2.03855765797929","1.5415922884684","0.023563013209568","-0.918957515173152","0","0.1875"
"444","-1.61156729739379","-2.03855765797929","1.5415922884684","-1.97643698679043","-0.918957515173152","0","0.1875"
"444","-0.611567297393788","0.961442342020707","-1.4584077115316","-1.97643698679043","-0.918957515173152","0","0.1875"
"451","-0.611567297393788","0.961442342020707","-1.4584077115316","0.023563013209568","1.08104248482685","0","0.1875"
"451","0.388432702606212","-0.0385576579792931","-2.4584077115316","0.023563013209568","1.08104248482685","0","0.1875"
"457","0.388432702606212","-0.0385576579792931","-2.4584077115316","-1.97643698679043","1.08104248482685","0","0.1875"
"457","0.388432702606212","-1.03855765797929","-1.4584077115316","-1.97643698679043","1.08104248482685","0","0.1875"
"463","0.388432702606212","-1.03855765797929","-1.4584077115316","0.023563013209568","0.0810424848268476","0","0.1875"
"463","-0.611567297393788","-0.0385576579792931","0.541592288468404","0.023563013209568","0.0810424848268476","0","0.1875"
"469","-0.611567297393788","-0.0385576579792931","0.541592288468404","-1.97643698679043","2.08104248482685","0","0.1875"
"469","-1.61156729739379","0.961442342020707","1.5415922884684","-1.97643698679043","2.08104248482685","0","0.1875"
"477","-1.61156729739379","0.961442342020707","1.5415922884684","1.02356301320957","-0.918957515173152","0","0.1875"
"477","1.38843270260621","0.961442342020707","2.5415922884684","1.02356301320957","-0.918957515173152","0","0.1875"
"484","1.38843270260621","0.961442342020707","2.5415922884684","-0.976436986790432","0.0810424848268476","0","0.1875"
"485","-0.611567297393788","-0.0385576579792931","-3.4584077115316","-0.976436986790432","0.0810424848268476","0","0.1875"
"492","-0.611567297393788","-0.0385576579792931","-3.4584077115316","-2.97643698679043","-0.918957515173152","0","0.1875"
"492","-2.61156729739379","-1.03855765797929","0.541592288468404","-2.97643698679043","-0.918957515173152","0","0.1875"
"498","-2.61156729739379","-1.03855765797929","0.541592288468404","-1.97643698679043","-0.918957515173152","0","0.1875"
"498","-0.611567297393788","-0.0385576579792931","0.541592288468404","-1.97643698679043","-0.918957515173152","0","0.1875"
"506","-0.611567297393788","-0.0385576579792931","0.541592288468404","0.023563013209568","1.08104248482685","0","0.1875"
"506","1.38843270260621","-0.0385576579792931","-0.458407711531596","0.023563013209568","1.08104248482685","0","0.1875"
"514","1.38843270260621","-0.0385576579792931","-0.458407711531596","0.023563013209568","-0.918957515173152","0","0.1875"
"514","-1.61156729739379","-2.03855765797929","0.541592288468404","0.023563013209568","-0.918957515173152","0","0.1875"
"520","-1.61156729739379","-2.03855765797929","0.541592288468404","0.023563013209568","-0.918957515173152","0","0.1875"
"520","-1.61156729739379","-0.0385576579792931","-0.458407711531596","0.023563013209568","-0.918957515173152","0","0.1875"
"528","-1.61156729739379","-0.0385576579792931","-0.458407711531596","-2.97643698679043","0.0810424848268476","0","0.1875"
"528","-1.61156729739379","-0.0385576579792931","2.5415922884684","-2.97643698679043","0.0810424848268476","0","0.1875"
"533","-1.61156729739379","-0.0385576579792931","2.5415922884684","2.02356301320957","-2.91895751517315","0","0.1875"
"534","0.388432702606212","-0.0385576579792931","3.5415922884684","2.02356301320957","-2.91895751517315","0","0.1875"
"540","0.388432702606212","-0.0385576579792931","3.5415922884684","-0.976436986790432","2.08104248482685","0","0.1875"
"540","1.38843270260621","0.961442342020707","0.541592288468404","-0.976436986790432","2.08104248482685","0","0.1875"
"546","1.38843270260621","0.961442342020707","0.541592288468404","1.02356301320957","0.0810424848268476","0","0.1875"
"546","1.38843270260621","1.96144234202071","2.5415922884684","1.02356301320957","0.0810424848268476","0","0.1875"
"551","1.38843270260621","1.96144234202071","2.5415922884684","0.023563013209568","0.0810424848268476","0","0.1875"
"551","0.388432702606212","-1.03855765797929","-0.458407711531596","0.023563013209568","0.0810424848268476","0","0.1875"
"557","0.388432702606212","-1.03855765797929","-0.458407711531596","-0.976436986790432","-0.918957515173152","0","0.1875"
"558","-0.611567297393788","-1.03855765797929","0.541592288468404","-0.976436986790432","-0.918957515173152","0","0.1875"
"564","-0.611567297393788","-1.03855765797929","0.541592288468404","3.02356301320957","-0.918957515173152","0","0.1875"
"564","2.38843270260621","-0.0385576579792931","-0.458407711531596","3.02356301320957","-0.918957515173152","0","0.1875"
"569","2.38843270260621","-0.0385576579792931","-0.458407711531596","1.02356301320957","1.08104248482685","0","0.1875"
"569","-0.611567297393788","-0.0385576579792931","0.541592288468404","1.02356301320957","1.08104248482685","0","0.1875"
"575","-0.611567297393788","-0.0385576579792931","0.541592288468404","-1.97643698679043","1.08104248482685","0","0.1875"
"575","0.388432702606212","-1.03855765797929","1.5415922884684","-1.97643698679043","1.08104248482685","0","0.1875"
"581","0.388432702606212","-1.03855765797929","1.5415922884684","0.023563013209568","0.0810424848268476","0","0.1875"
"581","-0.611567297393788","-1.03855765797929","-3.4584077115316","0.023563013209568","0.0810424848268476","0","0.1875"
"586","-0.611567297393788","-1.03855765797929","-3.4584077115316","-0.976436986790432","1.08104248482685","0","0.1875"
"586","-0.611567297393788","-1.03855765797929","0.541592288468404","-0.976436986790432","1.08104248482685","0","0.1875"
"593","-0.611567297393788","-1.03855765797929","0.541592288468404","-0.976436986790432","1.08104248482685","0","0.1875"
"593","1.38843270260621","-0.0385576579792931","0.541592288468404","-0.976436986790432","1.08104248482685","0","0.1875"
"598","1.38843270260621","-0.0385576579792931","0.541592288468404","-0.976436986790432","-0.918957515173152","0","0.1875"
"598","-0.611567297393788","0.961442342020707","0.541592288468404","-0.976436986790432","-0.918957515173152","0","0.1875"
"603","-0.611567297393788","0.961442342020707","0.541592288468404","2.02356301320957","-2.91895751517315","0","0.1875"
"604","0.388432702606212","-2.03855765797929","-0.458407711531596","2.02356301320957","-2.91895751517315","0","0.1875"
"610","0.388432702606212","-2.03855765797929","-0.458407711531596","-1.97643698679043","2.08104248482685","0","0.1875"
"610","-0.611567297393788","0.961442342020707","-0.458407711531596","-1.97643698679043","2.08104248482685","0","0.1875"
"615","-0.611567297393788","0.961442342020707","-0.458407711531596","-0.976436986790432","2.08104248482685","0","0.1875"
"615","-1.61156729739379","0.961442342020707","2.5415922884684","-0.976436986790432","2.08104248482685","0","0.1875"
"621","-1.61156729739379","0.961442342020707","2.5415922884684","-1.97643698679043","3.08104248482685","0","0.1875"
"621","-0.611567297393788","-0.0385576579792931","0.541592288468404","-1.97643698679043","3.08104248482685","0","0.1875"
"627","-0.611567297393788","-0.0385576579792931","0.541592288468404","1.02356301320957","0.0810424848268476","0","0.1875"
"627","-0.611567297393788","-1.03855765797929","0.541592288468404","1.02356301320957","0.0810424848268476","0","0.1875"
"633","-0.611567297393788","-1.03855765797929","0.541592288468404","2.02356301320957","-2.91895751517315","0","0.1875"
"633","1.38843270260621","0.961442342020707","-1.4584077115316","2.02356301320957","-2.91895751517315","0","0.1875"
"638","1.38843270260621","0.961442342020707","-1.4584077115316","0.023563013209568","2.08104248482685","0","0.1875"
"638","-0.611567297393788","-0.0385576579792931","-3.4584077115316","0.023563013209568","2.08104248482685","0","0.1875"
"644","-0.611567297393788","-0.0385576579792931","-3.4584077115316","0.023563013209568","2.08104248482685","0","0.1875"
"644","2.38843270260621","-1.03855765797929","-0.458407711531596","0.023563013209568","2.08104248482685","0","0.1875"
"650","2.38843270260621","-1.03855765797929","-0.458407711531596","0.023563013209568","-1.91895751517315","0","0.1875"
"650","-0.611567297393788","-1.03855765797929","2.5415922884684","0.023563013209568","-1.91895751517315","0","0.1875"
"657","-0.611567297393788","-1.03855765797929","2.5415922884684","2.02356301320957","2.08104248482685","0","0.1875"
"657","0.388432702606212","1.96144234202071","-0.458407711531596","2.02356301320957","2.08104248482685","0","0.1875"
"662","0.388432702606212","1.96144234202071","-0.458407711531596","4.02356301320957","0.0810424848268476","0","0.1875"
"662","-1.61156729739379","0.961442342020707","0.541592288468404","4.02356301320957","0.0810424848268476","0","0.1875"
"668","-1.61156729739379","0.961442342020707","0.541592288468404","2.02356301320957","0.0810424848268476","0","0.1875"
"668","-0.611567297393788","-1.03855765797929","0.541592288468404","2.02356301320957","0.0810424848268476","0","0.1875"
"673","-0.611567297393788","-1.03855765797929","0.541592288468404","2.02356301320957","-0.918957515173152","0","0.1875"
"673","0.388432702606212","0.961442342020707","0.541592288468404","2.02356301320957","-0.918957515173152","0","0.1875"
"679","0.388432702606212","0.961442342020707","0.541592288468404","0.023563013209568","0.0810424848268476","0","0.1875"
"679","-0.611567297393788","-0.0385576579792931","0.541592288468404","0.023563013209568","0.0810424848268476","0","0.1875"
"685","-0.611567297393788","-0.0385576579792931","0.541592288468404","-1.97643698679043","1.08104248482685","0","0.1875"
"685","-0.611567297393788","0.961442342020707","1.5415922884684","-1.97643698679043","1.08104248482685","0","0.1875"
"691","-0.611567297393788","0.961442342020707","1.5415922884684","-0.976436986790432","0.0810424848268476","0","0.1875"
"691","-0.611567297393788","-0.0385576579792931","0.541592288468404","-0.976436986790432","0.0810424848268476","0","0.1875"
"697","-0.611567297393788","-0.0385576579792931","0.541592288468404","-0.976436986790432","0.0810424848268476","0","0.1875"
"697","-0.611567297393788","-0.0385576579792931","-2.4584077115316","-0.976436986790432","0.0810424848268476","0","0.1875"
"703","-0.611567297393788","-0.0385576579792931","-2.4584077115316","1.02356301320957","2.08104248482685","0","0.1875"
"703","0.388432702606212","0.961442342020707","-0.458407711531596","1.02356301320957","2.08104248482685","0","0.1875"
"710","0.388432702606212","0.961442342020707","-0.458407711531596","-0.976436986790432","1.08104248482685","0","0.1875"
"710","1.38843270260621","-0.0385576579792931","0.541592288468404","-0.976436986790432","1.08104248482685","0","0.1875"
"715","1.38843270260621","-0.0385576579792931","0.541592288468404","0.023563013209568","1.08104248482685","0","0.1875"
"715","-0.611567297393788","-2.03855765797929","0.541592288468404","0.023563013209568","1.08104248482685","0","0.1875"
"723","-0.611567297393788","-2.03855765797929","0.541592288468404","0.023563013209568","-0.918957515173152","0","0.1875"
"723","0.388432702606212","-0.0385576579792931","2.5415922884684","0.023563013209568","-0.918957515173152","0","0.1875"
"729","0.388432702606212","-0.0385576579792931","2.5415922884684","1.02356301320957","-0.918957515173152","0","0.1875"
"729","0.388432702606212","0.961442342020707","-2.4584077115316","1.02356301320957","-0.918957515173152","0","0.1875"
"736","0.388432702606212","0.961442342020707","-2.4584077115316","-0.976436986790432","2.08104248482685","0","0.1875"
"736","-0.611567297393788","0.961442342020707","-0.458407711531596","-0.976436986790432","2.08104248482685","0","0.1875"
"742","-0.611567297393788","0.961442342020707","-0.458407711531596","0.023563013209568","3.08104248482685","0","0.1875"
"742","-0.611567297393788","-0.0385576579792931","0.541592288468404","0.023563013209568","3.08104248482685","0","0.1875"
"748","-0.611567297393788","-0.0385576579792931","0.541592288468404","2.02356301320957","0.0810424848268476","0","0.1875"
"748","0.388432702606212","-1.03855765797929","2.5415922884684","2.02356301320957","0.0810424848268476","0","0.1875"
"753","0.388432702606212","-1.03855765797929","2.5415922884684","-0.976436986790432","-0.918957515173152","0","0.1875"
"753","-1.61156729739379","0.961442342020707","-2.4584077115316","-0.976436986790432","-0.918957515173152","0","0.1875"
"759","-1.61156729739379","0.961442342020707","-2.4584077115316","-0.976436986790432","2.08104248482685","0","0.1875"
"760","0.388432702606212","-0.0385576579792931","-1.4584077115316","-0.976436986790432","2.08104248482685","0","0.1875"
"765","0.388432702606212","-0.0385576579792931","-1.4584077115316","1.02356301320957","1.08104248482685","0","0.1875"
"765","0.388432702606212","0.961442342020707","0.541592288468404","1.02356301320957","1.08104248482685","0","0.1875"
"771","0.388432702606212","0.961442342020707","0.541592288468404","-0.976436986790432","1.08104248482685","0","0.1875"
"771","0.388432702606212","-1.03855765797929","0.541592288468404","-0.976436986790432","1.08104248482685","0","0.1875"
"777","0.388432702606212","-1.03855765797929","0.541592288468404","2.02356301320957","-1.91895751517315","0","0.1875"
"777","-0.611567297393788","-0.0385576579792931","3.5415922884684","2.02356301320957","-1.91895751517315","0","0.1875"
"782","-0.611567297393788","-0.0385576579792931","3.5415922884684","1.02356301320957","-1.91895751517315","0","0.1875"
"783","-1.61156729739379","-0.0385576579792931","0.541592288468404","1.02356301320957","-1.91895751517315","0","0.1875"
"788","-1.61156729739379","-0.0385576579792931","0.541592288468404","-0.976436986790432","-1.91895751517315","0","0.1875"
"788","-1.61156729739379","-0.0385576579792931","-0.458407711531596","-0.976436986790432","-1.91895751517315","0","0.1875"
"794","-1.61156729739379","-0.0385576579792931","-0.458407711531596","5.02356301320957","-2.91895751517315","0","0.1875"
"795","0.388432702606212","-0.0385576579792931","0.541592288468404","5.02356301320957","-2.91895751517315","0","0.1875"
"800","0.388432702606212","-0.0385576579792931","0.541592288468404","0.023563013209568","0.0810424848268476","0","0.1875"
"800","1.38843270260621","-0.0385576579792931","1.5415922884684","0.023563013209568","0.0810424848268476","0","0.1875"
"806","1.38843270260621","-0.0385576579792931","1.5415922884684","1.02356301320957","1.08104248482685","0","0.1875"
"806","-0.611567297393788","-0.0385576579792931","-2.4584077115316","1.02356301320957","1.08104248482685","0","0.1875"
"812","-0.611567297393788","-0.0385576579792931","-2.4584077115316","1.02356301320957","1.08104248482685","0","0.1875"
"812","-0.611567297393788","-1.03855765797929","0.541592288468404","1.02356301320957","1.08104248482685","0","0.1875"
"818","-0.611567297393788","-1.03855765797929","0.541592288468404","0.023563013209568","-1.91895751517315","0","0.1875"
"818","-0.611567297393788","0.961442342020707","-1.4584077115316","0.023563013209568","-1.91895751517315","0","0.1875"
"824","-0.611567297393788","0.961442342020707","-1.4584077115316","0.023563013209568","1.08104248482685","0","0.1875"
"824","0.388432702606212","-0.0385576579792931","-0.458407711531596","0.023563013209568","1.08104248482685","0","0.1875"
"830","0.388432702606212","-0.0385576579792931","-0.458407711531596","-1.97643698679043","-1.91895751517315","0","0.1875"
"830","-1.61156729739379","-1.03855765797929","0.541592288468404","-1.97643698679043","-1.91895751517315","0","0.1875"
"835","-1.61156729739379","-1.03855765797929","0.541592288468404","0.023563013209568","1.08104248482685","0","0.1875"
"835","0.388432702606212","1.96144234202071","-1.4584077115316","0.023563013209568","1.08104248482685","0","0.1875"
"841","0.388432702606212","1.96144234202071","-1.4584077115316","-0.976436986790432","0.0810424848268476","0","0.1875"
"841","-2.61156729739379","-0.0385576579792931","-1.4584077115316","-0.976436986790432","0.0810424848268476","0","0.1875"
"847","-2.61156729739379","-0.0385576579792931","-1.4584077115316","2.02356301320957","-1.91895751517315","0","0.1875"
"847","-0.611567297393788","-0.0385576579792931","-0.458407711531596","2.02356301320957","-1.91895751517315","0","0.1875"
"852","-0.611567297393788","-0.0385576579792931","-0.458407711531596","1.02356301320957","0.0810424848268476","0","0.1875"
"852","-2.61156729739379","-0.0385576579792931","2.5415922884684","1.02356301320957","0.0810424848268476","0","0.1875"
"859","-2.61156729739379","-0.0385576579792931","2.5415922884684","0.023563013209568","1.08104248482685","0","0.1875"
"859","-1.61156729739379","-0.0385576579792931","-1.4584077115316","0.023563013209568","1.08104248482685","0","0.1875"
"865","-1.61156729739379","-0.0385576579792931","-1.4584077115316","4.02356301320957","1.08104248482685","0","0.1875"
"865","-0.611567297393788","-0.0385576579792931","-0.458407711531596","4.02356301320957","1.08104248482685","0","0.1875"
"871","-0.611567297393788","-0.0385576579792931","-0.458407711531596","2.02356301320957","2.08104248482685","0","0.1875"
"871","0.388432702606212","-0.0385576579792931","4.5415922884684","2.02356301320957","2.08104248482685","0","0.1875"
"878","0.388432702606212","-0.0385576579792931","4.5415922884684","-1.97643698679043","2.08104248482685","0","0.1875"
"878","0.388432702606212","-0.0385576579792931","-2.4584077115316","-1.97643698679043","2.08104248482685","0","0.1875"
"883","0.388432702606212","-0.0385576579792931","-2.4584077115316","-0.976436986790432","-1.91895751517315","0","0.1875"
"883","-2.61156729739379","1.96144234202071","0.541592288468404","-0.976436986790432","-1.91895751517315","0","0.1875"
"889","-2.61156729739379","1.96144234202071","0.541592288468404","-1.97643698679043","2.08104248482685","0","0.1875"
"889","-0.611567297393788","0.961442342020707","0.541592288468404","-1.97643698679043","2.08104248482685","0","0.1875"
"894","-0.611567297393788","0.961442342020707","0.541592288468404","-0.976436986790432","-0.918957515173152","0","0.1875"
"895","0.388432702606212","-1.03855765797929","2.5415922884684","-0.976436986790432","-0.918957515173152","0","0.1875"
"900","0.388432702606212","-1.03855765797929","2.5415922884684","-0.976436986790432","-0.918957515173152","0","0.1875"
"900","-0.611567297393788","-0.0385576579792931","1.5415922884684","-0.976436986790432","-0.918957515173152","0","0.1875"
"906","-0.611567297393788","-0.0385576579792931","1.5415922884684","0.023563013209568","-0.918957515173152","0","0.1875"
"906","-2.61156729739379","-0.0385576579792931","-0.458407711531596","0.023563013209568","-0.918957515173152","0","0.1875"
"912","-2.61156729739379","-0.0385576579792931","-0.458407711531596","-2.97643698679043","1.08104248482685","0","0.1875"
"912","0.388432702606212","-0.0385576579792931","1.5415922884684","-2.97643698679043","1.08104248482685","0","0.1875"
"918","0.388432702606212","-0.0385576579792931","1.5415922884684","0.023563013209568","1.08104248482685","0","0.1875"
"918","0.388432702606212","-0.0385576579792931","0.541592288468404","0.023563013209568","1.08104248482685","0","0.1875"
"925","0.388432702606212","-0.0385576579792931","0.541592288468404","1.02356301320957","1.08104248482685","0","0.1875"
"926","-0.611567297393788","-0.0385576579792931","-0.458407711531596","1.02356301320957","1.08104248482685","0","0.1875"
"931","-0.611567297393788","-0.0385576579792931","-0.458407711531596","1.02356301320957","2.08104248482685","0","0.1875"
"931","0.388432702606212","-0.0385576579792931","0.541592288468404","1.02356301320957","2.08104248482685","0","0.1875"
"937","0.388432702606212","-0.0385576579792931","0.541592288468404","-3.97643698679043","2.08104248482685","0","0.1875"
"937","-1.61156729739379","1.96144234202071","-1.4584077115316","-3.97643698679043","2.08104248482685","0","0.1875"
"945","-1.61156729739379","1.96144234202071","-1.4584077115316","-2.97643698679043","-1.91895751517315","0","0.1875"
"945","-0.611567297393788","0.961442342020707","-0.458407711531596","-2.97643698679043","-1.91895751517315","0","0.1875"
"952","-0.611567297393788","0.961442342020707","-0.458407711531596","-0.976436986790432","-0.918957515173152","0","0.1875"
"952","-0.611567297393788","-0.0385576579792931","-1.4584077115316","-0.976436986790432","-0.918957515173152","0","0.1875"
"959","-0.611567297393788","-0.0385576579792931","-1.4584077115316","1.02356301320957","1.08104248482685","0","0.1875"
"959","0.388432702606212","-0.0385576579792931","2.5415922884684","1.02356301320957","1.08104248482685","0","0.1875"
"964","0.388432702606212","-0.0385576579792931","2.5415922884684","0.023563013209568","-1.91895751517315","0","0.1875"
"964","1.38843270260621","0.961442342020707","2.5415922884684","0.023563013209568","-1.91895751517315","0","0.1875"
"970","1.38843270260621","0.961442342020707","2.5415922884684","-0.976436986790432","0.0810424848268476","0","0.1875"
"970","-0.611567297393788","-0.0385576579792931","0.541592288468404","-0.976436986790432","0.0810424848268476","0","0.1875"
"977","-0.611567297393788","-0.0385576579792931","0.541592288468404","-0.976436986790432","3.08104248482685","0","0.1875"
"977","0.388432702606212","-1.03855765797929","0.541592288468404","-0.976436986790432","3.08104248482685","0","0.1875"
"983","0.388432702606212","-1.03855765797929","0.541592288468404","0.023563013209568","2.08104248482685","0","0.1875"
"983","0.388432702606212","-0.0385576579792931","0.541592288468404","0.023563013209568","2.08104248482685","0","0.1875"
"989","0.388432702606212","-0.0385576579792931","0.541592288468404","-0.976436986790432","0.0810424848268476","0","0.1875"
"989","-0.611567297393788","-0.0385576579792931","-0.458407711531596","-0.976436986790432","0.0810424848268476","0","0.1875"
"995","-0.611567297393788","-0.0385576579792931","-0.458407711531596","2.02356301320957","-0.918957515173152","0","0.1875"
"995","1.38843270260621","-0.0385576579792931","1.5415922884684","2.02356301320957","-0.918957515173152","0","0.1875"
"1001","1.38843270260621","-0.0385576579792931","1.5415922884684","-0.976436986790432","5.08104248482685","0","0.1875"
"1001","0.388432702606212","-2.03855765797929","0.541592288468404","-0.976436986790432","5.08104248482685","0","0.1875"
"1006","0.388432702606212","-2.03855765797929","0.541592288468404","-1.97643698679043","0.0810424848268476","0","0.1875"
"1006","0.388432702606212","-0.0385576579792931","-0.458407711531596","-1.97643698679043","0.0810424848268476","0","0.1875"
"1012","0.388432702606212","-0.0385576579792931","-0.458407711531596","1.02356301320957","-0.918957515173152","0","0.1875"
"1012","-1.61156729739379","0.961442342020707","-0.458407711531596","1.02356301320957","-0.918957515173152","0","0.1875"
"1018","-1.61156729739379","0.961442342020707","-0.458407711531596","1.02356301320957","0.0810424848268476","0","0.1875"
"1018","-1.61156729739379","-0.0385576579792931","-0.458407711531596","1.02356301320957","0.0810424848268476","0","0.1875"
"1023","-1.61156729739379","-0.0385576579792931","-0.458407711531596","1.02356301320957","0.0810424848268476","0","0.1875"
"1024","0.388432702606212","-0.0385576579792931","-0.458407711531596","1.02356301320957","0.0810424848268476","0","0.1875"
"1029","0.388432702606212","-0.0385576579792931","-0.458407711531596","0.023563013209568","0.0810424848268476","0","0.1875"
"1029","1.38843270260621","-0.0385576579792931","-1.4584077115316","0.023563013209568","0.0810424848268476","0","0.1875"
"1035","1.38843270260621","-0.0385576579792931","-1.4584077115316","-2.97643698679043","-1.91895751517315","0","0.1875"
"1035","2.38843270260621","-1.03855765797929","0.541592288468404","-2.97643698679043","-1.91895751517315","0","0.1875"
"1040","2.38843270260621","-1.03855765797929","0.541592288468404","-0.976436986790432","-0.918957515173152","0","0.1875"
"1041","0.388432702606212","0.961442342020707","1.5415922884684","-0.976436986790432","-0.918957515173152","0","0.1875"
"1046","0.388432702606212","0.961442342020707","1.5415922884684","-1.97643698679043","-0.918957515173152","0","0.1875"
"1047","-0.611567297393788","0.961442342020707","-2.4584077115316","-1.97643698679043","-0.918957515173152","0","0.1875"
"1052","-0.611567297393788","0.961442342020707","-2.4584077115316","-0.976436986790432","1.08104248482685","0","0.1875"
"1052","-0.611567297393788","-0.0385576579792931","-0.458407711531596","-0.976436986790432","1.08104248482685","0","0.1875"
"1058","-0.611567297393788","-0.0385576579792931","-0.458407711531596","-0.976436986790432","1.08104248482685","0","0.1875"
"1058","-1.61156729739379","0.961442342020707","-1.4584077115316","-0.976436986790432","1.08104248482685","0","0.1875"
"1064","-1.61156729739379","0.961442342020707","-1.4584077115316","0.023563013209568","2.08104248482685","0","0.1875"
"1064","-0.611567297393788","-0.0385576579792931","0.541592288468404","0.023563013209568","2.08104248482685","0","0.1875"
"1069","-0.611567297393788","-0.0385576579792931","0.541592288468404","-1.97643698679043","-2.91895751517315","0","0.1875"
"1069","2.38843270260621","-0.0385576579792931","-0.458407711531596","-1.97643698679043","-2.91895751517315","0","0.1875"
"1075","2.38843270260621","-0.0385576579792931","-0.458407711531596","-1.97643698679043","1.08104248482685","0","0.1875"
"1076","1.38843270260621","-1.03855765797929","1.5415922884684","-1.97643698679043","1.08104248482685","0","0.1875"
"1081","1.38843270260621","-1.03855765797929","1.5415922884684","0.023563013209568","-0.918957515173152","0","0.1875"
"1081","-2.61156729739379","-1.03855765797929","0.541592288468404","0.023563013209568","-0.918957515173152","0","0.1875"
"1086","-2.61156729739379","-1.03855765797929","0.541592288468404","-3.97643698679043","0.0810424848268476","0","0.1875"
"1086","1.38843270260621","0.961442342020707","-1.4584077115316","-3.97643698679043","0.0810424848268476","0","0.1875"
"1092","1.38843270260621","0.961442342020707","-1.4584077115316","-0.976436986790432","2.08104248482685","0","0.1875"
"1093","1.38843270260621","-0.0385576579792931","-0.458407711531596","-0.976436986790432","2.08104248482685","0","0.1875"
"1098","1.38843270260621","-0.0385576579792931","-0.458407711531596","-2.97643698679043","2.08104248482685","0","0.1875"
"1098","-1.61156729739379","-0.0385576579792931","-0.458407711531596","-2.97643698679043","2.08104248482685","0","0.1875"
"1103","-1.61156729739379","-0.0385576579792931","-0.458407711531596","-0.976436986790432","-0.918957515173152","0","0.1875"
"1103","-0.611567297393788","-0.0385576579792931","-1.4584077115316","-0.976436986790432","-0.918957515173152","0","0.1875"
"1109","-0.611567297393788","-0.0385576579792931","-1.4584077115316","2.02356301320957","1.08104248482685","0","0.1875"
"1109","0.388432702606212","-1.03855765797929","0.541592288468404","2.02356301320957","1.08104248482685","0","0.1875"
"1115","0.388432702606212","-1.03855765797929","0.541592288468404","-1.97643698679043","-1.91895751517315","0","0.1875"
"1115","0.388432702606212","-0.0385576579792931","-0.458407711531596","-1.97643698679043","-1.91895751517315","0","0.1875"
"1121","0.388432702606212","-0.0385576579792931","-0.458407711531596","-0.976436986790432","0.0810424848268476","0","0.1875"
"1121","-1.61156729739379","-0.0385576579792931","1.5415922884684","-0.976436986790432","0.0810424848268476","0","0.1875"
"1128","-1.61156729739379","-0.0385576579792931","1.5415922884684","-1.97643698679043","2.08104248482685","0","0.1875"
"1128","0.388432702606212","-1.03855765797929","-1.4584077115316","-1.97643698679043","2.08104248482685","0","0.1875"
"1133","0.388432702606212","-1.03855765797929","-1.4584077115316","2.02356301320957","1.08104248482685","0","0.1875"
"1133","0.388432702606212","-0.0385576579792931","0.541592288468404","2.02356301320957","1.08104248482685","0","0.1875"
"1141","0.388432702606212","-0.0385576579792931","0.541592288468404","-1.97643698679043","1.08104248482685","0","0.1875"
"1141","0.388432702606212","-0.0385576579792931","-2.4584077115316","-1.97643698679043","1.08104248482685","0","0.1875"
"1148","0.388432702606212","-0.0385576579792931","-2.4584077115316","2.02356301320957","3.08104248482685","0","0.1875"
"1148","-1.61156729739379","-0.0385576579792931","-0.458407711531596","2.02356301320957","3.08104248482685","0","0.1875"
"1155","-1.61156729739379","-0.0385576579792931","-0.458407711531596","3.02356301320957","-2.91895751517315","0","0.1875"
"1155","1.38843270260621","-0.0385576579792931","-1.4584077115316","3.02356301320957","-2.91895751517315","0","0.1875"
"1161","1.38843270260621","-0.0385576579792931","-1.4584077115316","0.023563013209568","1.08104248482685","0","0.1875"
"1161","1.38843270260621","-0.0385576579792931","-0.458407711531596","0.023563013209568","1.08104248482685","0","0.1875"
"1167","1.38843270260621","-0.0385576579792931","-0.458407711531596","-1.97643698679043","-2.91895751517315","0","0.1875"
"1167","-1.61156729739379","-0.0385576579792931","1.5415922884684","-1.97643698679043","-2.91895751517315","0","0.1875"
"1173","-1.61156729739379","-0.0385576579792931","1.5415922884684","-0.976436986790432","0.0810424848268476","0","0.1875"
"1173","-1.61156729739379","0.961442342020707","1.5415922884684","-0.976436986790432","0.0810424848268476","0","0.1875"
"1180","-1.61156729739379","0.961442342020707","1.5415922884684","0.023563013209568","-0.918957515173152","0","0.1875"
"1180","0.388432702606212","0.961442342020707","-2.4584077115316","0.023563013209568","-0.918957515173152","0","0.1875"
"1185","0.388432702606212","0.961442342020707","-2.4584077115316","1.02356301320957","1.08104248482685","0","0.1875"
"1185","-0.611567297393788","-0.0385576579792931","-2.4584077115316","1.02356301320957","1.08104248482685","0","0.1875"
"1191","-0.611567297393788","-0.0385576579792931","-2.4584077115316","0.023563013209568","1.08104248482685","0","0.1875"
"1191","-0.611567297393788","1.96144234202071","3.5415922884684","0.023563013209568","1.08104248482685","0","0.1875"
"1197","-0.611567297393788","1.96144234202071","3.5415922884684","0.023563013209568","1.08104248482685","0","0.1875"
"1197","-1.61156729739379","-1.03855765797929","0.541592288468404","0.023563013209568","1.08104248482685","0","0.1875"
"1203","-1.61156729739379","-1.03855765797929","0.541592288468404","1.02356301320957","0.0810424848268476","0","0.1875"
"1203","0.388432702606212","-0.0385576579792931","0.541592288468404","1.02356301320957","0.0810424848268476","0","0.1875"
"1209","0.388432702606212","-0.0385576579792931","0.541592288468404","0.023563013209568","2.08104248482685","0","0.1875"
"1209","-0.611567297393788","-1.03855765797929","-1.4584077115316","0.023563013209568","2.08104248482685","0","0.1875"
"1214","-0.611567297393788","-1.03855765797929","-1.4584077115316","0.023563013209568","-1.91895751517315","0","0.1875"
"1215","2.38843270260621","-1.03855765797929","0.541592288468404","0.023563013209568","-1.91895751517315","0","0.1875"
"1220","2.38843270260621","-1.03855765797929","0.541592288468404","3.02356301320957","0.0810424848268476","0","0.1875"
"1220","0.388432702606212","1.96144234202071","-0.458407711531596","3.02356301320957","0.0810424848268476","0","0.1875"
"1226","0.388432702606212","1.96144234202071","-0.458407711531596","2.02356301320957","-1.91895751517315","0","0.1875"
"1227","0.388432702606212","1.96144234202071","1.5415922884684","2.02356301320957","-1.91895751517315","0","0.1875"
"1232","0.388432702606212","1.96144234202071","1.5415922884684","2.02356301320957","-0.918957515173152","0","0.1875"
"1232","2.38843270260621","-4.03855765797929","2.5415922884684","2.02356301320957","-0.918957515173152","0","0.1875"
"1238","2.38843270260621","-4.03855765797929","2.5415922884684","1.02356301320957","-0.918957515173152","0","0.1875"
"1238","1.38843270260621","1.96144234202071","-1.4584077115316","1.02356301320957","-0.918957515173152","0","0.1875"
"1244","1.38843270260621","1.96144234202071","-1.4584077115316","2.02356301320957","-0.918957515173152","0","0.1875"
"1244","-1.61156729739379","-0.0385576579792931","-0.458407711531596","2.02356301320957","-0.918957515173152","0","0.1875"
"1249","-1.61156729739379","-0.0385576579792931","-0.458407711531596","1.02356301320957","2.08104248482685","0","0.1875"
"1249","-0.611567297393788","0.961442342020707","0.541592288468404","1.02356301320957","2.08104248482685","0","0.1875"
"1255","-0.611567297393788","0.961442342020707","0.541592288468404","0.023563013209568","0.0810424848268476","0","0.1875"
"1255","-0.611567297393788","-0.0385576579792931","0.541592288468404","0.023563013209568","0.0810424848268476","0","0.1875"
"1260","-0.611567297393788","-0.0385576579792931","0.541592288468404","-0.976436986790432","2.08104248482685","0","0.1875"
"1261","0.388432702606212","-0.0385576579792931","-1.4584077115316","-0.976436986790432","2.08104248482685","0","0.1875"
"1266","0.388432702606212","-0.0385576579792931","-1.4584077115316","0.023563013209568","-0.918957515173152","0","0.1875"
"1266","0.388432702606212","0.961442342020707","-0.458407711531596","0.023563013209568","-0.918957515173152","0","0.1875"
"1272","0.388432702606212","0.961442342020707","-0.458407711531596","-0.976436986790432","-0.918957515173152","0","0.1875"
"1272","-0.611567297393788","1.96144234202071","-3.4584077115316","-0.976436986790432","-0.918957515173152","0","0.1875"
"1278","-0.611567297393788","1.96144234202071","-3.4584077115316","-0.976436986790432","2.08104248482685","0","0.1875"
"1278","0.388432702606212","-0.0385576579792931","-0.458407711531596","-0.976436986790432","2.08104248482685","0","0.1875"
"1283","0.388432702606212","-0.0385576579792931","-0.458407711531596","0.023563013209568","-0.918957515173152","0","0.1875"
"1283","-0.611567297393788","-0.0385576579792931","2.5415922884684","0.023563013209568","-0.918957515173152","0","0.1875"
"1289","-0.611567297393788","-0.0385576579792931","2.5415922884684","0.023563013209568","-1.91895751517315","0","0.1875"
"1289","-1.61156729739379","0.961442342020707","-0.458407711531596","0.023563013209568","-1.91895751517315","0","0.1875"
"1295","-1.61156729739379","0.961442342020707","-0.458407711531596","2.02356301320957","-2.91895751517315","0","0.1875"
"1295","0.388432702606212","-1.03855765797929","-0.458407711531596","2.02356301320957","-2.91895751517315","0","0.1875"
"1300","0.388432702606212","-1.03855765797929","-0.458407711531596","0.023563013209568","0.0810424848268476","0","0.1875"
"1300","-0.611567297393788","-0.0385576579792931","0.541592288468404","0.023563013209568","0.0810424848268476","0","0.1875"
"1306","-0.611567297393788","-0.0385576579792931","0.541592288468404","2.02356301320957","3.08104248482685","0","0.1875"
"1306","0.388432702606212","-0.0385576579792931","2.5415922884684","2.02356301320957","3.08104248482685","0","0.1875"
"1312","0.388432702606212","-0.0385576579792931","2.5415922884684","4.02356301320957","1.08104248482685","0","0.1875"
"1312","-2.61156729739379","0.961442342020707","-0.458407711531596","4.02356301320957","1.08104248482685","0","0.1875"
"1317","-2.61156729739379","0.961442342020707","-0.458407711531596","3.02356301320957","2.08104248482685","0","0.1875"
"1317","2.38843270260621","1.96144234202071","0.541592288468404","3.02356301320957","2.08104248482685","0","0.1875"
"1325","2.38843270260621","1.96144234202071","0.541592288468404","1.02356301320957","1.08104248482685","0","0.1875"
"1325","1.38843270260621","-1.03855765797929","-0.458407711531596","1.02356301320957","1.08104248482685","0","0.1875"
"1331","1.38843270260621","-1.03855765797929","-0.458407711531596","-1.97643698679043","-0.918957515173152","0","0.1875"
"1331","0.388432702606212","-2.03855765797929","0.541592288468404","-1.97643698679043","-0.918957515173152","0","0.1875"
"1339","0.388432702606212","-2.03855765797929","0.541592288468404","2.02356301320957","1.08104248482685","0","0.1875"
"1339","0.388432702606212","-0.0385576579792931","0.541592288468404","2.02356301320957","1.08104248482685","0","0.1875"
"1348","0.388432702606212","-0.0385576579792931","0.541592288468404","2.02356301320957","1.08104248482685","0","0.1875"
"1348","-1.61156729739379","-0.0385576579792931","0.541592288468404","2.02356301320957","1.08104248482685","0","0.1875"
"1354","-1.61156729739379","-0.0385576579792931","0.541592288468404","0.023563013209568","1.08104248482685","0","0.1875"
"1354","-1.61156729739379","-0.0385576579792931","0.541592288468404","0.023563013209568","1.08104248482685","0","0.1875"
"1364","-1.61156729739379","-0.0385576579792931","0.541592288468404","1.02356301320957","1.08104248482685","0","0.1875"
"1364","-0.611567297393788","0.961442342020707","-1.4584077115316","1.02356301320957","1.08104248482685","0","0.1875"
"1371","-0.611567297393788","0.961442342020707","-1.4584077115316","-0.976436986790432","-0.918957515173152","0","0.1875"
"1371","-0.611567297393788","-0.0385576579792931","-0.458407711531596","-0.976436986790432","-0.918957515173152","0","0.1875"
"1378","-0.611567297393788","-0.0385576579792931","-0.458407711531596","-0.976436986790432","-1.91895751517315","0","0.1875"
"1378","-1.61156729739379","-0.0385576579792931","0.541592288468404","-0.976436986790432","-1.91895751517315","0","0.1875"
"1384","-1.61156729739379","-0.0385576579792931","0.541592288468404","-0.976436986790432","1.08104248482685","0","0.1875"
"1384","0.388432702606212","-0.0385576579792931","-0.458407711531596","-0.976436986790432","1.08104248482685","0","0.1875"
"1390","0.388432702606212","-0.0385576579792931","-0.458407711531596","3.02356301320957","1.08104248482685","0","0.1875"
"1390","0.388432702606212","-1.03855765797929","-1.4584077115316","3.02356301320957","1.08104248482685","0","0.1875"
"1396","0.388432702606212","-1.03855765797929","-1.4584077115316","2.02356301320957","1.08104248482685","0","0.1875"
"1396","1.38843270260621","-0.0385576579792931","-1.4584077115316","2.02356301320957","1.08104248482685","0","0.1875"
"1401","1.38843270260621","-0.0385576579792931","-1.4584077115316","1.02356301320957","-0.918957515173152","0","0.1875"
"1401","-1.61156729739379","0.961442342020707","-2.4584077115316","1.02356301320957","-0.918957515173152","0","0.1875"
"1408","-1.61156729739379","0.961442342020707","-2.4584077115316","5.02356301320957","-4.91895751517315","0","0.1875"
"1408","0.388432702606212","1.96144234202071","1.5415922884684","5.02356301320957","-4.91895751517315","0","0.1875"
"1415","0.388432702606212","1.96144234202071","1.5415922884684","4.02356301320957","0.0810424848268476","0","0.1875"
"1415","-0.611567297393788","-0.0385576579792931","-1.4584077115316","4.02356301320957","0.0810424848268476","0","0.1875"
"1424","-0.611567297393788","-0.0385576579792931","-1.4584077115316","-2.97643698679043","1.08104248482685","0","0.1875"
"1424","-0.611567297393788","0.961442342020707","0.541592288468404","-2.97643698679043","1.08104248482685","0","0.1875"
"1433","-0.611567297393788","0.961442342020707","0.541592288468404","1.02356301320957","1.08104248482685","0","0.1875"
"1433","-0.611567297393788","-1.03855765797929","-0.458407711531596","1.02356301320957","1.08104248482685","0","0.1875"
"1440","-0.611567297393788","-1.03855765797929","-0.458407711531596","0.023563013209568","-0.918957515173152","0","0.1875"
"1440","2.38843270260621","-0.0385576579792931","-0.458407711531596","0.023563013209568","-0.918957515173152","0","0.1875"
"1447","2.38843270260621","-0.0385576579792931","-0.458407711531596","2.02356301320957","0.0810424848268476","0","0.1875"
"1447","-1.61156729739379","-0.0385576579792931","0.541592288468404","2.02356301320957","0.0810424848268476","0","0.1875"
"1453","-1.61156729739379","-0.0385576579792931","0.541592288468404","-0.976436986790432","0.0810424848268476","0","0.1875"
"1453","1.38843270260621","-2.03855765797929","1.5415922884684","-0.976436986790432","0.0810424848268476","0","0.1875"
"1459","1.38843270260621","-2.03855765797929","1.5415922884684","-0.976436986790432","1.08104248482685","0","0.1875"
"1459","1.38843270260621","1.96144234202071","-0.458407711531596","-0.976436986790432","1.08104248482685","0","0.1875"
"1465","1.38843270260621","1.96144234202071","-0.458407711531596","2.02356301320957","0.0810424848268476","0","0.1875"
"1465","-0.611567297393788","-0.0385576579792931","-2.4584077115316","2.02356301320957","0.0810424848268476","0","0.1875"
"1471","-0.611567297393788","-0.0385576579792931","-2.4584077115316","-1.97643698679043","0.0810424848268476","0","0.1875"
"1471","-0.611567297393788","-0.0385576579792931","-2.4584077115316","-1.97643698679043","0.0810424848268476","0","0.1875"
"1477","-0.611567297393788","-0.0385576579792931","-2.4584077115316","1.02356301320957","-0.918957515173152","0","0.1875"
"1477","0.388432702606212","-0.0385576579792931","-0.458407711531596","1.02356301320957","-0.918957515173152","0","0.1875"
"1482","0.388432702606212","-0.0385576579792931","-0.458407711531596","2.02356301320957","-0.918957515173152","0","0.1875"
"1482","0.388432702606212","-0.0385576579792931","-0.458407711531596","2.02356301320957","-0.918957515173152","0","0.1875"
"1487","0.388432702606212","-0.0385576579792931","-0.458407711531596","2.02356301320957","-0.918957515173152","0","0.1875"
"1488","-0.611567297393788","1.96144234202071","0.541592288468404","2.02356301320957","-0.918957515173152","0","0.1875"
"1493","-0.611567297393788","1.96144234202071","0.541592288468404","-1.97643698679043","0.0810424848268476","0","0.1875"
"1494","0.388432702606212","-0.0385576579792931","0.541592288468404","-1.97643698679043","0.0810424848268476","0","0.1875"
"1499","0.388432702606212","-0.0385576579792931","0.541592288468404","0.023563013209568","0.0810424848268476","0","0.1875"
"1499","0.388432702606212","-0.0385576579792931","1.5415922884684","0.023563013209568","0.0810424848268476","0","0.1875"
"1504","0.388432702606212","-0.0385576579792931","1.5415922884684","-2.97643698679043","3.08104248482685","0","0.1875"
"1504","-0.611567297393788","-0.0385576579792931","0.541592288468404","-2.97643698679043","3.08104248482685","0","0.1875"
"1511","-0.611567297393788","-0.0385576579792931","0.541592288468404","1.02356301320957","0.0810424848268476","0","0.1875"
"1511","-1.61156729739379","0.961442342020707","-2.4584077115316","1.02356301320957","0.0810424848268476","0","0.1875"
"1519","-1.61156729739379","0.961442342020707","-2.4584077115316","-1.97643698679043","0.0810424848268476","0","0.1875"
"1519","-1.61156729739379","-1.03855765797929","0.541592288468404","-1.97643698679043","0.0810424848268476","0","0.1875"
"1527","-1.61156729739379","-1.03855765797929","0.541592288468404","-1.97643698679043","0.0810424848268476","0","0.1875"
"1527","0.388432702606212","-2.03855765797929","0.541592288468404","-1.97643698679043","0.0810424848268476","0","0.1875"
"1535","0.388432702606212","-2.03855765797929","0.541592288468404","-0.976436986790432","-0.918957515173152","0","0.1875"
"1535","-0.611567297393788","-0.0385576579792931","-0.458407711531596","-0.976436986790432","-0.918957515173152","0","0.1875"
"1543","-0.611567297393788","-0.0385576579792931","-0.458407711531596","2.02356301320957","1.08104248482685","0","0.1875"
"1543","0.388432702606212","-0.0385576579792931","1.5415922884684","2.02356301320957","1.08104248482685","0","0.1875"
"1550","0.388432702606212","-0.0385576579792931","1.5415922884684","-0.976436986790432","0.0810424848268476","0","0.1875"
"1550","0.388432702606212","-0.0385576579792931","3.5415922884684","-0.976436986790432","0.0810424848268476","0","0.1875"
"1557","0.388432702606212","-0.0385576579792931","3.5415922884684","-0.976436986790432","0.0810424848268476","0","0.1875"
"1557","0.388432702606212","-0.0385576579792931","-0.458407711531596","-0.976436986790432","0.0810424848268476","0","0.1875"
"1564","0.388432702606212","-0.0385576579792931","-0.458407711531596","-1.97643698679043","-0.918957515173152","0","0.1875"
"1564","1.38843270260621","-1.03855765797929","0.541592288468404","-1.97643698679043","-0.918957515173152","0","0.1875"
"1570","1.38843270260621","-1.03855765797929","0.541592288468404","-1.97643698679043","2.08104248482685","0","0.1875"
"1570","0.388432702606212","-0.0385576579792931","0.541592288468404","-1.97643698679043","2.08104248482685","0","0.1875"
"1576","0.388432702606212","-0.0385576579792931","0.541592288468404","2.02356301320957","2.08104248482685","0","0.1875"
"1576","-1.61156729739379","-0.0385576579792931","-0.458407711531596","2.02356301320957","2.08104248482685","0","0.1875"
"1581","-1.61156729739379","-0.0385576579792931","-0.458407711531596","-0.976436986790432","-1.91895751517315","0","0.1875"
"1582","-0.611567297393788","0.961442342020707","1.5415922884684","-0.976436986790432","-1.91895751517315","0","0.1875"
"1587","-0.611567297393788","0.961442342020707","1.5415922884684","0.023563013209568","-1.91895751517315","0","0.1875"
"1587","0.388432702606212","1.96144234202071","-0.458407711531596","0.023563013209568","-1.91895751517315","0","0.1875"
"1593","0.388432702606212","1.96144234202071","-0.458407711531596","-1.97643698679043","-0.918957515173152","0","0.1875"
"1593","-0.611567297393788","-0.0385576579792931","-0.458407711531596","-1.97643698679043","-0.918957515173152","0","0.1875"
"1599","-0.611567297393788","-0.0385576579792931","-0.458407711531596","-4.97643698679043","0.0810424848268476","0","0.1875"
"1599","1.38843270260621","1.96144234202071","-1.4584077115316","-4.97643698679043","0.0810424848268476","0","0.1875"
"1604","1.38843270260621","1.96144234202071","-1.4584077115316","-1.97643698679043","3.08104248482685","0","0.1875"
"1604","0.388432702606212","-0.0385576579792931","3.5415922884684","-1.97643698679043","3.08104248482685","0","0.1875"
"1610","0.388432702606212","-0.0385576579792931","3.5415922884684","0.023563013209568","1.08104248482685","0","0.1875"
"1610","0.388432702606212","-0.0385576579792931","3.5415922884684","0.023563013209568","1.08104248482685","0","0.1875"
"1616","0.388432702606212","-0.0385576579792931","3.5415922884684","0.023563013209568","1.08104248482685","0","0.1875"
"1616","2.38843270260621","0.961442342020707","0.541592288468404","0.023563013209568","1.08104248482685","0","0.1875"
"1621","2.38843270260621","0.961442342020707","0.541592288468404","1.02356301320957","0.0810424848268476","0","0.1875"
"1621","-0.611567297393788","-0.0385576579792931","0.541592288468404","1.02356301320957","0.0810424848268476","0","0.1875"
"1627","-0.611567297393788","-0.0385576579792931","0.541592288468404","1.02356301320957","1.08104248482685","0","0.1875"
"1627","1.38843270260621","0.961442342020707","1.5415922884684","1.02356301320957","1.08104248482685","0","0.1875"
"1633","1.38843270260621","0.961442342020707","1.5415922884684","1.02356301320957","3.08104248482685","0","0.1875"
"1633","-0.611567297393788","0.961442342020707","0.541592288468404","1.02356301320957","3.08104248482685","0","0.1875"
"1638","-0.611567297393788","0.961442342020707","0.541592288468404","-0.976436986790432","-0.918957515173152","0","0.1875"
"1638","1.38843270260621","-1.03855765797929","2.5415922884684","-0.976436986790432","-0.918957515173152","0","0.1875"
"1644","1.38843270260621","-1.03855765797929","2.5415922884684","-0.976436986790432","-0.918957515173152","0","0.1875"
"1644","-0.611567297393788","-0.0385576579792931","0.541592288468404","-0.976436986790432","-0.918957515173152","0","0.1875"
"1650","-0.611567297393788","-0.0385576579792931","0.541592288468404","2.02356301320957","1.08104248482685","0","0.1875"
"1650","0.388432702606212","-0.0385576579792931","-2.4584077115316","2.02356301320957","1.08104248482685","0","0.1875"
"1655","0.388432702606212","-0.0385576579792931","-2.4584077115316","-0.976436986790432","1.08104248482685","0","0.1875"
"1656","-0.611567297393788","-1.03855765797929","-0.458407711531596","-0.976436986790432","1.08104248482685","0","0.1875"
"1661","-0.611567297393788","-1.03855765797929","-0.458407711531596","-0.976436986790432","0.0810424848268476","0","0.1875"
"1661","-2.61156729739379","-0.0385576579792931","-1.4584077115316","-0.976436986790432","0.0810424848268476","0","0.1875"
"1667","-2.61156729739379","-0.0385576579792931","-1.4584077115316","-0.976436986790432","0.0810424848268476","0","0.1875"
"1667","-2.61156729739379","-0.0385576579792931","-1.4584077115316","-0.976436986790432","0.0810424848268476","0","0.1875"
"1672","-2.61156729739379","-0.0385576579792931","-1.4584077115316","1.02356301320957","-0.918957515173152","0","0.1875"
"1673","1.38843270260621","-0.0385576579792931","-0.458407711531596","1.02356301320957","-0.918957515173152","0","0.1875"
"1678","1.38843270260621","-0.0385576579792931","-0.458407711531596","1.02356301320957","1.08104248482685","0","0.1875"
"1678","0.388432702606212","0.961442342020707","0.541592288468404","1.02356301320957","1.08104248482685","0","0.1875"
"1684","0.388432702606212","0.961442342020707","0.541592288468404","3.02356301320957","-0.918957515173152","0","0.1875"
"1684","-0.611567297393788","-1.03855765797929","-0.458407711531596","3.02356301320957","-0.918957515173152","0","0.1875"
"1690","-0.611567297393788","-1.03855765797929","-0.458407711531596","3.02356301320957","-0.918957515173152","0","0.1875"
"1690","-0.611567297393788","-2.03855765797929","0.541592288468404","3.02356301320957","-0.918957515173152","0","0.1875"
"1696","-0.611567297393788","-2.03855765797929","0.541592288468404","1.02356301320957","1.08104248482685","0","0.1875"
"1697","0.388432702606212","-0.0385576579792931","-0.458407711531596","1.02356301320957","1.08104248482685","0","0.1875"
"1702","0.388432702606212","-0.0385576579792931","-0.458407711531596","0.023563013209568","-0.918957515173152","0","0.1875"
"1702","2.38843270260621","0.961442342020707","0.541592288468404","0.023563013209568","-0.918957515173152","0","0.1875"
"1708","2.38843270260621","0.961442342020707","0.541592288468404","-0.976436986790432","1.08104248482685","0","0.1875"
"1708","-2.61156729739379","-0.0385576579792931","-1.4584077115316","-0.976436986790432","1.08104248482685","0","0.1875"
"1714","-2.61156729739379","-0.0385576579792931","-1.4584077115316","0.023563013209568","-1.91895751517315","0","0.1875"
"1714","-1.61156729739379","-0.0385576579792931","0.541592288468404","0.023563013209568","-1.91895751517315","0","0.1875"
"1719","-1.61156729739379","-0.0385576579792931","0.541592288468404","2.02356301320957","-0.918957515173152","0","0.1875"
"1719","-0.611567297393788","-0.0385576579792931","0.541592288468404","2.02356301320957","-0.918957515173152","0","0.1875"
"1725","-0.611567297393788","-0.0385576579792931","0.541592288468404","-0.976436986790432","-0.918957515173152","0","0.1875"
"1725","-0.611567297393788","-0.0385576579792931","0.541592288468404","-0.976436986790432","-0.918957515173152","0","0.1875"
"1731","-0.611567297393788","-0.0385576579792931","0.541592288468404","1.02356301320957","-1.91895751517315","0","0.1875"
"1731","1.38843270260621","-1.03855765797929","0.541592288468404","1.02356301320957","-1.91895751517315","0","0.1875"
"1736","1.38843270260621","-1.03855765797929","0.541592288468404","-0.976436986790432","-1.91895751517315","0","0.1875"
"1736","2.38843270260621","0.961442342020707","-0.458407711531596","-0.976436986790432","-1.91895751517315","0","0.1875"
"1744","2.38843270260621","0.961442342020707","-0.458407711531596","-0.976436986790432","-1.91895751517315","0","0.1875"
"1744","0.388432702606212","-0.0385576579792931","-0.458407711531596","-0.976436986790432","-1.91895751517315","0","0.1875"
"1750","0.388432702606212","-0.0385576579792931","-0.458407711531596","-1.97643698679043","0.0810424848268476","0","0.1875"
"1750","-0.611567297393788","-0.0385576579792931","-1.4584077115316","-1.97643698679043","0.0810424848268476","0","0.1875"
"1757","-0.611567297393788","-0.0385576579792931","-1.4584077115316","-2.97643698679043","0.0810424848268476","0","0.1875"
"1758","-0.611567297393788","-0.0385576579792931","-1.4584077115316","-2.97643698679043","0.0810424848268476","0","0.1875"
"1765","-0.611567297393788","-0.0385576579792931","-1.4584077115316","-0.976436986790432","2.08104248482685","0","0.1875"
"1765","2.38843270260621","-0.0385576579792931","0.541592288468404","-0.976436986790432","2.08104248482685","0","0.1875"
"1771","2.38843270260621","-0.0385576579792931","0.541592288468404","-2.97643698679043","1.08104248482685","0","0.1875"
"1771","0.388432702606212","-0.0385576579792931","-2.4584077115316","-2.97643698679043","1.08104248482685","0","0.1875"
"1777","0.388432702606212","-0.0385576579792931","-2.4584077115316","0.023563013209568","-0.918957515173152","0","0.1875"
"1778","-2.61156729739379","-1.03855765797929","-0.458407711531596","0.023563013209568","-0.918957515173152","0","0.1875"
"1783","-2.61156729739379","-1.03855765797929","-0.458407711531596","1.02356301320957","1.08104248482685","0","0.1875"
"1783","2.38843270260621","0.961442342020707","0.541592288468404","1.02356301320957","1.08104248482685","0","0.1875"
"1789","2.38843270260621","0.961442342020707","0.541592288468404","-0.976436986790432","0.0810424848268476","0","0.1875"
"1789","2.38843270260621","0.961442342020707","0.541592288468404","-0.976436986790432","0.0810424848268476","0","0.1875"
"1795","2.38843270260621","0.961442342020707","0.541592288468404","0.023563013209568","-0.918957515173152","0","0.1875"
"1795","1.38843270260621","-0.0385576579792931","-2.4584077115316","0.023563013209568","-0.918957515173152","0","0.1875"
"1800","1.38843270260621","-0.0385576579792931","-2.4584077115316","0.023563013209568","-0.918957515173152","0","0.1875"
"1800","0.388432702606212","-0.0385576579792931","-3.4584077115316","0.023563013209568","-0.918957515173152","0","0.1875"
"1806","0.388432702606212","-0.0385576579792931","-3.4584077115316","1.02356301320957","-0.918957515173152","0","0.1875"
"1806","-1.61156729739379","0.961442342020707","-0.458407711531596","1.02356301320957","-0.918957515173152","0","0.1875"
"1813","-1.61156729739379","0.961442342020707","-0.458407711531596","0.023563013209568","-0.918957515173152","0","0.1875"
"1813","0.388432702606212","0.961442342020707","2.5415922884684","0.023563013209568","-0.918957515173152","0","0.1875"
"1818","0.388432702606212","0.961442342020707","2.5415922884684","-0.976436986790432","-0.918957515173152","0","0.1875"
"1818","0.388432702606212","0.961442342020707","2.5415922884684","-0.976436986790432","-0.918957515173152","0","0.1875"
"1824","0.388432702606212","0.961442342020707","2.5415922884684","-1.97643698679043","-0.918957515173152","0","0.1875"
"1824","1.38843270260621","0.961442342020707","1.5415922884684","-1.97643698679043","-0.918957515173152","0","0.1875"
"1830","1.38843270260621","0.961442342020707","1.5415922884684","-3.97643698679043","0.0810424848268476","0","0.1875"
"1830","0.388432702606212","-0.0385576579792931","-1.4584077115316","-3.97643698679043","0.0810424848268476","0","0.1875"
"1835","0.388432702606212","-0.0385576579792931","-1.4584077115316","-1.97643698679043","-2.91895751517315","0","0.1875"
"1835","0.388432702606212","0.961442342020707","0.541592288468404","-1.97643698679043","-2.91895751517315","0","0.1875"
"1841","0.388432702606212","0.961442342020707","0.541592288468404","-1.97643698679043","-0.918957515173152","0","0.1875"
"1841","-0.611567297393788","-0.0385576579792931","-0.458407711531596","-1.97643698679043","-0.918957515173152","0","0.1875"
"1847","-0.611567297393788","-0.0385576579792931","-0.458407711531596","-1.97643698679043","1.08104248482685","0","0.1875"
"1847","-0.611567297393788","-0.0385576579792931","-0.458407711531596","-1.97643698679043","1.08104248482685","0","0.1875"
"1852","-0.611567297393788","-0.0385576579792931","-0.458407711531596","-0.976436986790432","0.0810424848268476","0","0.1875"
"1852","1.38843270260621","-1.03855765797929","0.541592288468404","-0.976436986790432","0.0810424848268476","0","0.1875"
"1859","1.38843270260621","-1.03855765797929","0.541592288468404","-2.97643698679043","2.08104248482685","0","0.1875"
"1859","-0.611567297393788","0.961442342020707","-0.458407711531596","-2.97643698679043","2.08104248482685","0","0.1875"
"1864","-0.611567297393788","0.961442342020707","-0.458407711531596","-4.97643698679043","1.08104248482685","0","0.1875"
"1864","1.38843270260621","0.961442342020707","0.541592288468404","-4.97643698679043","1.08104248482685","0","0.1875"
"1871","1.38843270260621","0.961442342020707","0.541592288468404","-1.97643698679043","3.08104248482685","0","0.1875"
"1871","1.38843270260621","-0.0385576579792931","0.541592288468404","-1.97643698679043","3.08104248482685","0","0.1875"
"1871","1.38843270260621","-0.0385576579792931","0.541592288468404","-1.97643698679043","3.08104248482685","0","0.1875"
"1871","-0.611567297393788","-0.0385576579792931","-0.458407711531596","-1.97643698679043","3.08104248482685","0","0.1875"
"1877","-0.611567297393788","-0.0385576579792931","-0.458407711531596","1.02356301320957","-0.918957515173152","0","0.1875"
"1877","-0.611567297393788","-0.0385576579792931","-0.458407711531596","1.02356301320957","-0.918957515173152","0","0.1875"
"1883","-0.611567297393788","-0.0385576579792931","-0.458407711531596","5.02356301320957","-1.91895751517315","0","0.1875"
"1883","-0.611567297393788","-1.03855765797929","-0.458407711531596","5.02356301320957","-1.91895751517315","0","0.1875"
"1889","-0.611567297393788","-1.03855765797929","-0.458407711531596","1.02356301320957","-2.91895751517315","0","0.1875"
"1889","-0.611567297393788","-1.03855765797929","-0.458407711531596","1.02356301320957","-2.91895751517315","0","0.1875"
"1895","-0.611567297393788","-1.03855765797929","-0.458407711531596","1.02356301320957","-2.91895751517315","0","0.1875"
"1895","-0.611567297393788","-0.0385576579792931","-1.4584077115316","1.02356301320957","-2.91895751517315","0","0.1875"
"1901","-0.611567297393788","-0.0385576579792931","-1.4584077115316","1.02356301320957","1.08104248482685","0","0.1875"
"1901","-0.611567297393788","-0.0385576579792931","-0.458407711531596","1.02356301320957","1.08104248482685","0","0.1875"
"1907","-0.611567297393788","-0.0385576579792931","-0.458407711531596","1.02356301320957","-0.918957515173152","0","0.1875"
"1907","-0.611567297393788","-0.0385576579792931","-0.458407711531596","1.02356301320957","-0.918957515173152","0","0.1875"
"1913","-0.611567297393788","-0.0385576579792931","-0.458407711531596","5.02356301320957","-1.91895751517315","0","0.1875"
"1913","-0.611567297393788","-1.03855765797929","-0.458407711531596","5.02356301320957","-1.91895751517315","0","0.1875"
"1919","-0.611567297393788","-1.03855765797929","-0.458407711531596","1.02356301320957","-2.91895751517315","0","0.1875"
"1919","-0.611567297393788","-1.03855765797929","-0.458407711531596","1.02356301320957","-2.91895751517315","0","0.1875"
"1925","-0.611567297393788","-1.03855765797929","-0.458407711531596","1.02356301320957","-2.91895751517315","0","0.1875"
"1926","-0.611567297393788","-0.0385576579792931","-1.4584077115316","1.02356301320957","-2.91895751517315","0","0.1875"
"1931","-0.611567297393788","-0.0385576579792931","-1.4584077115316","1.02356301320957","1.08104248482685","0","0.1875"
"1931","-0.611567297393788","-0.0385576579792931","-0.458407711531596","1.02356301320957","1.08104248482685","0","0.1875"
"1937","-0.611567297393788","-0.0385576579792931","-0.458407711531596","1.02356301320957","-0.918957515173152","0","0.1875"
"1937","0.388432702606212","-0.0385576579792931","-3.4584077115316","1.02356301320957","-0.918957515173152","0","0.1875"
"1944","0.388432702606212","-0.0385576579792931","-3.4584077115316","1.02356301320957","-0.918957515173152","0","0.1875"
"1944","1.38843270260621","-4.03855765797929","-1.4584077115316","1.02356301320957","-0.918957515173152","0","0.1875"
"1951","1.38843270260621","-4.03855765797929","-1.4584077115316","1.02356301320957","0.0810424848268476","0","0.1875"
"1951","-3.61156729739379","-2.03855765797929","0.541592288468404","1.02356301320957","0.0810424848268476","0","0.1875"
"1958","-3.61156729739379","-2.03855765797929","0.541592288468404","1.02356301320957","0.0810424848268476","0","0.1875"
"1958","-0.611567297393788","-0.0385576579792931","1.5415922884684","1.02356301320957","0.0810424848268476","0","0.1875"
"1964","-0.611567297393788","-0.0385576579792931","1.5415922884684","10.0235630132096","-1.91895751517315","0","0.1875"
"1964","0.388432702606212","-0.0385576579792931","-3.4584077115316","10.0235630132096","-1.91895751517315","0","0.1875"
"1971","0.388432702606212","-0.0385576579792931","-3.4584077115316","7.02356301320957","-2.91895751517315","0","0.1875"
"1971","-0.611567297393788","-2.03855765797929","-0.458407711531596","7.02356301320957","-2.91895751517315","0","0.1875"
"1979","-0.611567297393788","-2.03855765797929","-0.458407711531596","7.02356301320957","1.08104248482685","0","0.1875"
"1979","-1.61156729739379","-0.0385576579792931","0.541592288468404","7.02356301320957","1.08104248482685","0","0.1875"
"1985","-1.61156729739379","-0.0385576579792931","0.541592288468404","7.02356301320957","1.08104248482685","0","0.1875"
"1985","-1.61156729739379","-0.0385576579792931","0.541592288468404","7.02356301320957","1.08104248482685","0","0.1875"
"1992","-1.61156729739379","-0.0385576579792931","0.541592288468404","7.02356301320957","0.0810424848268476","0","0.1875"
"1992","7.38843270260621","10.9614423420207","0.541592288468404","7.02356301320957","0.0810424848268476","0","0.1875"
"1998","7.38843270260621","10.9614423420207","0.541592288468404","7.02356301320957","0.0810424848268476","0","0.1875"
"1998","0.388432702606212","-14.0385576579793","4.5415922884684","7.02356301320957","0.0810424848268476","0","0.1875"
"2004","0.388432702606212","-14.0385576579793","4.5415922884684","7.02356301320957","0.0810424848268476","0","0.1875"
"2004","1.38843270260621","-6.03855765797929","0.541592288468404","7.02356301320957","0.0810424848268476","0","0.1875"
"2010","1.38843270260621","-6.03855765797929","0.541592288468404","-4.97643698679043","2.08104248482685","0","0.1875"
"2011","-5.61156729739379","0.961442342020707","-6.4584077115316","-4.97643698679043","2.08104248482685","0","0.1875"
"2016","-5.61156729739379","0.961442342020707","-6.4584077115316","-4.97643698679043","-0.918957515173152","0","0.1875"
"2016","-5.61156729739379","0.961442342020707","-6.4584077115316","-4.97643698679043","-0.918957515173152","0","0.1875"
"2022","-5.61156729739379","0.961442342020707","-6.4584077115316","4.02356301320957","1.08104248482685","0","0.1875"
"2022","2.38843270260621","-0.0385576579792931","3.5415922884684","4.02356301320957","1.08104248482685","0","0.1875"
"2029","2.38843270260621","-0.0385576579792931","3.5415922884684","4.02356301320957","0.0810424848268476","0","0.1875"
"2029","-5.61156729739379","-7.03855765797929","-1.4584077115316","4.02356301320957","0.0810424848268476","0","0.1875"
"2035","-5.61156729739379","-7.03855765797929","-1.4584077115316","0.023563013209568","0.0810424848268476","0","0.1875"
"2035","-1.61156729739379","0.961442342020707","-0.458407711531596","0.023563013209568","0.0810424848268476","0","0.1875"
"2041","-1.61156729739379","0.961442342020707","-0.458407711531596","-4.97643698679043","0.0810424848268476","0","0.1875"
"2042","-2.61156729739379","0.961442342020707","-2.4584077115316","-4.97643698679043","0.0810424848268476","0","0.1875"
"2048","-2.61156729739379","0.961442342020707","-2.4584077115316","2.02356301320957","1.08104248482685","0","0.1875"
"2048","-2.61156729739379","0.961442342020707","-2.4584077115316","2.02356301320957","1.08104248482685","0","0.1875"
"2055","-2.61156729739379","0.961442342020707","-2.4584077115316","4.02356301320957","1.08104248482685","0","0.1875"
"2055","-2.61156729739379","-3.03855765797929","-2.4584077115316","4.02356301320957","1.08104248482685","0","0.1875"
"2063","-2.61156729739379","-3.03855765797929","-2.4584077115316","-0.976436986790432","-0.918957515173152","0","0.1875"
"2063","0.388432702606212","-1.03855765797929","-3.4584077115316","-0.976436986790432","-0.918957515173152","0","0.1875"
"2069","0.388432702606212","-1.03855765797929","-3.4584077115316","-5.97643698679043","2.08104248482685","0","0.1875"
"2069","1.38843270260621","1.96144234202071","-0.458407711531596","-5.97643698679043","2.08104248482685","0","0.1875"
"2076","1.38843270260621","1.96144234202071","-0.458407711531596","-3.97643698679043","-1.91895751517315","0","0.1875"
"2076","2.38843270260621","2.96144234202071","0.541592288468404","-3.97643698679043","-1.91895751517315","0","0.1875"
"2082","2.38843270260621","2.96144234202071","0.541592288468404","-0.976436986790432","0.0810424848268476","0","0.1875"
"2082","2.38843270260621","2.96144234202071","0.541592288468404","-0.976436986790432","0.0810424848268476","0","0.1875"
"2088","2.38843270260621","2.96144234202071","0.541592288468404","-3.97643698679043","0.0810424848268476","0","0.1875"
"2088","-2.61156729739379","-0.0385576579792931","-0.458407711531596","-3.97643698679043","0.0810424848268476","0","0.1875"
"2094","-2.61156729739379","-0.0385576579792931","-0.458407711531596","-7.97643698679043","-0.918957515173152","0","0.1875"
"2094","-0.611567297393788","2.96144234202071","-0.458407711531596","-7.97643698679043","-0.918957515173152","0","0.1875"
"2100","-0.611567297393788","2.96144234202071","-0.458407711531596","-3.97643698679043","-0.918957515173152","0","0.1875"
"2100","-2.61156729739379","-7.03855765797929","0.541592288468404","-3.97643698679043","-0.918957515173152","0","0.1875"
"2105","-2.61156729739379","-7.03855765797929","0.541592288468404","2.02356301320957","0.0810424848268476","0","0.1875"
"2105","-2.61156729739379","2.96144234202071","-0.458407711531596","2.02356301320957","0.0810424848268476","0","0.1875"
"2111","-2.61156729739379","2.96144234202071","-0.458407711531596","-2.97643698679043","1.08104248482685","0","0.1875"
"2111","-2.61156729739379","2.96144234202071","-0.458407711531596","-2.97643698679043","1.08104248482685","0","0.1875"
"2117","-2.61156729739379","2.96144234202071","-0.458407711531596","6.02356301320957","-1.91895751517315","0","0.1875"
"2117","0.388432702606212","-1.03855765797929","1.5415922884684","6.02356301320957","-1.91895751517315","0","0.1875"
"2122","0.388432702606212","-1.03855765797929","1.5415922884684","9.02356301320957","-2.91895751517315","0","0.1875"
"2123","0.388432702606212","0.961442342020707","-2.4584077115316","9.02356301320957","-2.91895751517315","0","0.1875"
"2129","0.388432702606212","0.961442342020707","-2.4584077115316","0.023563013209568","1.08104248482685","0","0.1875"
"2129","-2.61156729739379","-5.03855765797929","-0.458407711531596","0.023563013209568","1.08104248482685","0","0.1875"
"2135","-2.61156729739379","-5.03855765797929","-0.458407711531596","3.02356301320957","1.08104248482685","0","0.1875"
"2135","-1.61156729739379","-0.0385576579792931","0.541592288468404","3.02356301320957","1.08104248482685","0","0.1875"
"2141","-1.61156729739379","-0.0385576579792931","0.541592288468404","-2.97643698679043","1.08104248482685","0","0.1875"
"2141","-1.61156729739379","-0.0385576579792931","0.541592288468404","-2.97643698679043","1.08104248482685","0","0.1875"
"2147","-1.61156729739379","-0.0385576579792931","0.541592288468404","-2.97643698679043","0.0810424848268476","0","0.1875"
"2148","4.38843270260621","13.9614423420207","-2.4584077115316","-2.97643698679043","0.0810424848268476","0","0.1875"
"2154","4.38843270260621","13.9614423420207","-2.4584077115316","-0.976436986790432","-0.918957515173152","0","0.1875"
"2154","-3.61156729739379","11.9614423420207","-5.4584077115316","-0.976436986790432","-0.918957515173152","0","0.1875"
"2161","-3.61156729739379","11.9614423420207","-5.4584077115316","10.0235630132096","-1.91895751517315","0","0.1875"
"2161","1.38843270260621","-8.03855765797929","-0.458407711531596","10.0235630132096","-1.91895751517315","0","0.1875"
"2168","1.38843270260621","-8.03855765797929","-0.458407711531596","3.02356301320957","0.0810424848268476","0","0.1875"
"2168","-3.61156729739379","-3.03855765797929","-1.4584077115316","3.02356301320957","0.0810424848268476","0","0.1875"
"2176","-3.61156729739379","-3.03855765797929","-1.4584077115316","-9.97643698679043","2.08104248482685","0","0.1875"
"2176","-3.61156729739379","-3.03855765797929","-1.4584077115316","-9.97643698679043","2.08104248482685","0","0.1875"
"2182","-3.61156729739379","-3.03855765797929","-1.4584077115316","-0.976436986790432","2.08104248482685","0","0.1875"
"2182","-3.61156729739379","3.96144234202071","-1.4584077115316","-0.976436986790432","2.08104248482685","0","0.1875"
"2191","-3.61156729739379","3.96144234202071","-1.4584077115316","8.02356301320957","-0.918957515173152","0","0.1875"
"2191","-2.61156729739379","-3.03855765797929","-2.4584077115316","8.02356301320957","-0.918957515173152","0","0.1875"
"2198","-2.61156729739379","-3.03855765797929","-2.4584077115316","0.023563013209568","0.0810424848268476","0","0.1875"
"2198","-2.61156729739379","-3.03855765797929","-0.458407711531596","0.023563013209568","0.0810424848268476","0","0.1875"
"2206","-2.61156729739379","-3.03855765797929","-0.458407711531596","-1.97643698679043","1.08104248482685","0","0.1875"
"2206","0.388432702606212","-2.03855765797929","0.541592288468404","-1.97643698679043","1.08104248482685","0","0.1875"
"2212","0.388432702606212","-2.03855765797929","0.541592288468404","1.02356301320957","1.08104248482685","0","0.1875"
"2212","0.388432702606212","-2.03855765797929","0.541592288468404","1.02356301320957","1.08104248482685","0","0.1875"
"2219","0.388432702606212","-2.03855765797929","0.541592288468404","-1.97643698679043","-0.918957515173152","0","0.1875"
"2219","-2.61156729739379","-5.03855765797929","0.541592288468404","-1.97643698679043","-0.918957515173152","0","0.1875"
"2226","-2.61156729739379","-5.03855765797929","0.541592288468404","2.02356301320957","-0.918957515173152","0","0.1875"
"2226","-1.61156729739379","-5.03855765797929","-0.458407711531596","2.02356301320957","-0.918957515173152","0","0.1875"
"2232","-1.61156729739379","-5.03855765797929","-0.458407711531596","0.023563013209568","-2.91895751517315","0","0.1875"
"2232","-2.61156729739379","-0.0385576579792931","-1.4584077115316","0.023563013209568","-2.91895751517315","0","0.1875"
"2238","-2.61156729739379","-0.0385576579792931","-1.4584077115316","1.02356301320957","1.08104248482685","0","0.1875"
"2238","2.38843270260621","-1.03855765797929","2.5415922884684","1.02356301320957","1.08104248482685","0","0.1875"
"2245","2.38843270260621","-1.03855765797929","2.5415922884684","4.02356301320957","-0.918957515173152","0","0.1875"
"2245","2.38843270260621","-1.03855765797929","2.5415922884684","4.02356301320957","-0.918957515173152","0","0.1875"
"2252","2.38843270260621","-1.03855765797929","2.5415922884684","2.02356301320957","0.0810424848268476","0","0.1875"
"2252","-1.61156729739379","-4.03855765797929","0.541592288468404","2.02356301320957","0.0810424848268476","0","0.1875"
"2258","-1.61156729739379","-4.03855765797929","0.541592288468404","0.023563013209568","0.0810424848268476","0","0.1875"
"2258","-1.61156729739379","1.96144234202071","-2.4584077115316","0.023563013209568","0.0810424848268476","0","0.1875"
"2264","-1.61156729739379","1.96144234202071","-2.4584077115316","-0.976436986790432","-0.918957515173152","0","0.1875"
"2265","-1.61156729739379","-1.03855765797929","-1.4584077115316","-0.976436986790432","-0.918957515173152","0","0.1875"
"2270","-1.61156729739379","-1.03855765797929","-1.4584077115316","4.02356301320957","3.08104248482685","0","0.1875"
"2270","-1.61156729739379","-2.03855765797929","0.541592288468404","4.02356301320957","3.08104248482685","0","0.1875"
"2277","-1.61156729739379","-2.03855765797929","0.541592288468404","1.02356301320957","0.0810424848268476","0","0.1875"
"2277","-1.61156729739379","-2.03855765797929","0.541592288468404","1.02356301320957","0.0810424848268476","0","0.1875"
"2283","-1.61156729739379","-2.03855765797929","0.541592288468404","-1.97643698679043","1.08104248482685","0","0.1875"
"2283","-0.611567297393788","-0.0385576579792931","0.541592288468404","-1.97643698679043","1.08104248482685","0","0.1875"
"2289","-0.611567297393788","-0.0385576579792931","0.541592288468404","3.02356301320957","-0.918957515173152","0","0.1875"
"2289","0.388432702606212","-2.03855765797929","-1.4584077115316","3.02356301320957","-0.918957515173152","0","0.1875"
"2295","0.388432702606212","-2.03855765797929","-1.4584077115316","0.023563013209568","-0.918957515173152","0","0.1875"
"2295","-1.61156729739379","-1.03855765797929","-1.4584077115316","0.023563013209568","-0.918957515173152","0","0.1875"
"2300","-1.61156729739379","-1.03855765797929","-1.4584077115316","-2.97643698679043","2.08104248482685","0","0.1875"
"2301","-2.61156729739379","-3.03855765797929","-2.4584077115316","-2.97643698679043","2.08104248482685","0","0.1875"
"2307","-2.61156729739379","-3.03855765797929","-2.4584077115316","-1.97643698679043","1.08104248482685","0","0.1875"
"2307","-2.61156729739379","-3.03855765797929","-2.4584077115316","-1.97643698679043","1.08104248482685","0","0.1875"
"2314","-2.61156729739379","-3.03855765797929","-2.4584077115316","-1.97643698679043","1.08104248482685","0","0.1875"
"2314","0.388432702606212","-0.0385576579792931","0.541592288468404","-1.97643698679043","1.08104248482685","0","0.1875"
"2320","0.388432702606212","-0.0385576579792931","0.541592288468404","-1.97643698679043","0.0810424848268476","0","0.1875"
"2321","-2.61156729739379","-1.03855765797929","-1.4584077115316","-1.97643698679043","0.0810424848268476","0","0.1875"
"2327","-2.61156729739379","-1.03855765797929","-1.4584077115316","5.02356301320957","1.08104248482685","0","0.1875"
"2327","3.38843270260621","2.96144234202071","2.5415922884684","5.02356301320957","1.08104248482685","0","0.1875"
"2334","3.38843270260621","2.96144234202071","2.5415922884684","4.02356301320957","3.08104248482685","0","0.1875"
"2334","-7.61156729739379","-7.03855765797929","-3.4584077115316","4.02356301320957","3.08104248482685","0","0.1875"
"2341","-7.61156729739379","-7.03855765797929","-3.4584077115316","-2.97643698679043","3.08104248482685","0","0.1875"
"2341","-7.61156729739379","-7.03855765797929","-3.4584077115316","-2.97643698679043","3.08104248482685","0","0.1875"
"2348","-7.61156729739379","-7.03855765797929","-3.4584077115316","-3.97643698679043","1.08104248482685","0","0.1875"
"2348","0.388432702606212","-2.03855765797929","0.541592288468404","-3.97643698679043","1.08104248482685","0","0.1875"
"2354","0.388432702606212","-2.03855765797929","0.541592288468404","-4.97643698679043","-0.918957515173152","0","0.1875"
"2354","1.38843270260621","0.961442342020707","-1.4584077115316","-4.97643698679043","-0.918957515173152","0","0.1875"
"2360","1.38843270260621","0.961442342020707","-1.4584077115316","0.023563013209568","1.08104248482685","0","0.1875"
"2360","-0.611567297393788","-0.0385576579792931","-0.458407711531596","0.023563013209568","1.08104248482685","0","0.1875"
"2367","-0.611567297393788","-0.0385576579792931","-0.458407711531596","4.02356301320957","0.0810424848268476","0","0.1875"
"2367","-3.61156729739379","-0.0385576579792931","0.541592288468404","4.02356301320957","0.0810424848268476","0","0.1875"
"2373","-3.61156729739379","-0.0385576579792931","0.541592288468404","0.023563013209568","0.0810424848268476","0","0.1875"
"2374","-3.61156729739379","-0.0385576579792931","0.541592288468404","0.023563013209568","0.0810424848268476","0","0.1875"
"2380","-3.61156729739379","-0.0385576579792931","0.541592288468404","-0.976436986790432","0.0810424848268476","0","0.1875"
"2380","0.388432702606212","-5.03855765797929","3.5415922884684","-0.976436986790432","0.0810424848268476","0","0.1875"
"2386","0.388432702606212","-5.03855765797929","3.5415922884684","-1.97643698679043","0.0810424848268476","0","0.1875"
"2387","1.38843270260621","2.96144234202071","-1.4584077115316","-1.97643698679043","0.0810424848268476","0","0.1875"
"2394","1.38843270260621","2.96144234202071","-1.4584077115316","5.02356301320957","-2.91895751517315","0","0.1875"
"2394","-1.61156729739379","-3.03855765797929","-1.4584077115316","5.02356301320957","-2.91895751517315","0","0.1875"
"2400","-1.61156729739379","-3.03855765797929","-1.4584077115316","6.02356301320957","-1.91895751517315","0","0.1875"
"2401","1.38843270260621","-4.03855765797929","0.541592288468404","6.02356301320957","-1.91895751517315","0","0.1875"
"2408","1.38843270260621","-4.03855765797929","0.541592288468404","3.02356301320957","1.08104248482685","0","0.1875"
"2408","1.38843270260621","-4.03855765797929","0.541592288468404","3.02356301320957","1.08104248482685","0","0.1875"
"2414","1.38843270260621","-4.03855765797929","0.541592288468404","0.023563013209568","0.0810424848268476","0","0.1875"
"2415","3.38843270260621","3.96144234202071","0.541592288468404","0.023563013209568","0.0810424848268476","0","0.1875"
"2421","3.38843270260621","3.96144234202071","0.541592288468404","1.02356301320957","-1.91895751517315","0","0.1875"
"2422","-1.61156729739379","-1.03855765797929","-1.4584077115316","1.02356301320957","-1.91895751517315","0","0.1875"
"2429","-1.61156729739379","-1.03855765797929","-1.4584077115316","1.02356301320957","3.08104248482685","0","0.1875"
"2429","2.38843270260621","-2.03855765797929","0.541592288468404","1.02356301320957","3.08104248482685","0","0.1875"
"2436","2.38843270260621","-2.03855765797929","0.541592288468404","3.02356301320957","1.08104248482685","0","0.1875"
"2436","-0.611567297393788","-0.0385576579792931","0.541592288468404","3.02356301320957","1.08104248482685","0","0.1875"
"2443","-0.611567297393788","-0.0385576579792931","0.541592288468404","-0.976436986790432","2.08104248482685","0","0.1875"
"2443","-0.611567297393788","-0.0385576579792931","0.541592288468404","-0.976436986790432","2.08104248482685","0","0.1875"
"2450","-0.611567297393788","-0.0385576579792931","0.541592288468404","1.02356301320957","0.0810424848268476","0","0.1875"
"2450","2.38843270260621","1.96144234202071","2.5415922884684","1.02356301320957","0.0810424848268476","0","0.1875"
"2457","2.38843270260621","1.96144234202071","2.5415922884684","1.02356301320957","0.0810424848268476","0","0.1875"
"2457","-5.61156729739379","-8.03855765797929","-1.4584077115316","1.02356301320957","0.0810424848268476","0","0.1875"
"2464","-5.61156729739379","-8.03855765797929","-1.4584077115316","2.02356301320957","-1.91895751517315","0","0.1875"
"2464","1.38843270260621","8.96144234202071","-0.458407711531596","2.02356301320957","-1.91895751517315","0","0.1875"
"2471","1.38843270260621","8.96144234202071","-0.458407711531596","-0.976436986790432","0.0810424848268476","0","0.1875"
"2471","-4.61156729739379","0.961442342020707","-2.4584077115316","-0.976436986790432","0.0810424848268476","0","0.1875"
"2478","-4.61156729739379","0.961442342020707","-2.4584077115316","6.02356301320957","0.0810424848268476","0","0.1875"
"2478","-4.61156729739379","0.961442342020707","-2.4584077115316","6.02356301320957","0.0810424848268476","0","0.1875"
"2485","-4.61156729739379","0.961442342020707","-2.4584077115316","2.02356301320957","0.0810424848268476","0","0.1875"
"2485","2.38843270260621","-0.0385576579792931","-3.4584077115316","2.02356301320957","0.0810424848268476","0","0.1875"
"2491","2.38843270260621","-0.0385576579792931","-3.4584077115316","-1.97643698679043","0.0810424848268476","0","0.1875"
"2491","0.388432702606212","-0.0385576579792931","-2.4584077115316","-1.97643698679043","0.0810424848268476","0","0.1875"
"2498","0.388432702606212","-0.0385576579792931","-2.4584077115316","4.02356301320957","-0.918957515173152","0","0.1875"
"2498","-1.61156729739379","-0.0385576579792931","-1.4584077115316","4.02356301320957","-0.918957515173152","0","0.1875"
"2504","-1.61156729739379","-0.0385576579792931","-1.4584077115316","3.02356301320957","1.08104248482685","0","0.1875"
"2504","-0.611567297393788","-0.0385576579792931","-0.458407711531596","3.02356301320957","1.08104248482685","0","0.1875"
"2510","-0.611567297393788","-0.0385576579792931","-0.458407711531596","2.02356301320957","1.08104248482685","0","0.1875"
"2510","-0.611567297393788","-0.0385576579792931","-0.458407711531596","2.02356301320957","1.08104248482685","0","0.1875"
"2516","-0.611567297393788","-0.0385576579792931","-0.458407711531596","1.02356301320957","-0.918957515173152","0","0.1875"
"2516","-1.61156729739379","-0.0385576579792931","-2.4584077115316","1.02356301320957","-0.918957515173152","0","0.1875"
"2523","-1.61156729739379","-0.0385576579792931","-2.4584077115316","1.02356301320957","2.08104248482685","0","0.1875"
"2523","0.388432702606212","-0.0385576579792931","-0.458407711531596","1.02356301320957","2.08104248482685","0","0.1875"
"2529","0.388432702606212","-0.0385576579792931","-0.458407711531596","3.02356301320957","2.08104248482685","0","0.1875"
"2529","-0.611567297393788","-2.03855765797929","0.541592288468404","3.02356301320957","2.08104248482685","0","0.1875"
"2536","-0.611567297393788","-2.03855765797929","0.541592288468404","4.02356301320957","-0.918957515173152","0","0.1875"
"2536","1.38843270260621","-0.0385576579792931","-0.458407711531596","4.02356301320957","-0.918957515173152","0","0.1875"
"2542","1.38843270260621","-0.0385576579792931","-0.458407711531596","-0.976436986790432","-0.918957515173152","0","0.1875"
"2543","1.38843270260621","-0.0385576579792931","-0.458407711531596","-0.976436986790432","-0.918957515173152","0","0.1875"
"2549","1.38843270260621","-0.0385576579792931","-0.458407711531596","4.02356301320957","-2.91895751517315","0","0.1875"
"2549","-1.61156729739379","-5.03855765797929","0.541592288468404","4.02356301320957","-2.91895751517315","0","0.1875"
"2556","-1.61156729739379","-5.03855765797929","0.541592288468404","4.02356301320957","-1.91895751517315","0","0.1875"
"2556","0.388432702606212","-9.03855765797929","0.541592288468404","4.02356301320957","-1.91895751517315","0","0.1875"
"2563","0.388432702606212","-9.03855765797929","0.541592288468404","-2.97643698679043","2.08104248482685","0","0.1875"
"2563","0.388432702606212","-9.03855765797929","0.541592288468404","-2.97643698679043","2.08104248482685","0","0.1875"
"2569","0.388432702606212","-9.03855765797929","0.541592288468404","-4.97643698679043","3.08104248482685","0","0.1875"
"2569","1.38843270260621","5.96144234202071","0.541592288468404","-4.97643698679043","3.08104248482685","0","0.1875"
"2579","1.38843270260621","5.96144234202071","0.541592288468404","0.023563013209568","2.08104248482685","0","0.1875"
"2579","1.38843270260621","5.96144234202071","0.541592288468404","0.023563013209568","2.08104248482685","0","0.1875"
"2585","1.38843270260621","5.96144234202071","0.541592288468404","3.02356301320957","-1.91895751517315","0","0.1875"
"2585","0.388432702606212","-5.03855765797929","2.5415922884684","3.02356301320957","-1.91895751517315","0","0.1875"
"2594","0.388432702606212","-5.03855765797929","2.5415922884684","-0.976436986790432","-0.918957515173152","0","0.1875"
"2594","0.388432702606212","-5.03855765797929","2.5415922884684","-0.976436986790432","-0.918957515173152","0","0.1875"
"2601","0.388432702606212","-5.03855765797929","2.5415922884684","-7.97643698679043","4.08104248482685","0","0.1875"
"2601","-0.611567297393788","-9.03855765797929","0.541592288468404","-7.97643698679043","4.08104248482685","0","0.1875"
"2610","-0.611567297393788","-9.03855765797929","0.541592288468404","-5.97643698679043","0.0810424848268476","0","0.1875"
"2610","-0.611567297393788","5.96144234202071","0.541592288468404","-5.97643698679043","0.0810424848268476","0","0.1875"
"2617","-0.611567297393788","5.96144234202071","0.541592288468404","0.023563013209568","2.08104248482685","0","0.1875"
"2617","-0.611567297393788","5.96144234202071","0.541592288468404","0.023563013209568","2.08104248482685","0","0.1875"
"2624","-0.611567297393788","5.96144234202071","0.541592288468404","1.02356301320957","1.08104248482685","0","0.1875"
"2624","-0.611567297393788","2.96144234202071","0.541592288468404","1.02356301320957","1.08104248482685","0","0.1875"
"2630","-0.611567297393788","2.96144234202071","0.541592288468404","-3.97643698679043","2.08104248482685","0","0.1875"
"2631","-2.61156729739379","-14.0385576579793","1.5415922884684","-3.97643698679043","2.08104248482685","0","0.1875"
"2636","-2.61156729739379","-14.0385576579793","1.5415922884684","-9.97643698679043","0.0810424848268476","0","0.1875"
"2636","0.388432702606212","1.96144234202071","-1.4584077115316","-9.97643698679043","0.0810424848268476","0","0.1875"
"2642","0.388432702606212","1.96144234202071","-1.4584077115316","1.02356301320957","0.0810424848268476","0","0.1875"
"2643","-2.61156729739379","-6.03855765797929","1.5415922884684","1.02356301320957","0.0810424848268476","0","0.1875"
"2649","-2.61156729739379","-6.03855765797929","1.5415922884684","6.02356301320957","0.0810424848268476","0","0.1875"
"2649","-2.61156729739379","-6.03855765797929","1.5415922884684","6.02356301320957","0.0810424848268476","0","0.1875"
"2655","-2.61156729739379","-6.03855765797929","1.5415922884684","-6.97643698679043","1.08104248482685","0","0.1875"
"2655","-2.61156729739379","-5.03855765797929","-1.4584077115316","-6.97643698679043","1.08104248482685","0","0.1875"
"2661","-2.61156729739379","-5.03855765797929","-1.4584077115316","-7.97643698679043","1.08104248482685","0","0.1875"
"2661","0.388432702606212","-5.03855765797929","1.5415922884684","-7.97643698679043","1.08104248482685","0","0.1875"
"2666","0.388432702606212","-5.03855765797929","1.5415922884684","2.02356301320957","-0.918957515173152","0","0.1875"
"2666","0.388432702606212","2.96144234202071","-0.458407711531596","2.02356301320957","-0.918957515173152","0","0.1875"
"2672","0.388432702606212","2.96144234202071","-0.458407711531596","6.02356301320957","1.08104248482685","0","0.1875"
"2672","3.38843270260621","2.96144234202071","2.5415922884684","6.02356301320957","1.08104248482685","0","0.1875"
"2678","3.38843270260621","2.96144234202071","2.5415922884684","2.02356301320957","1.08104248482685","0","0.1875"
"2678","-2.61156729739379","2.96144234202071","1.5415922884684","2.02356301320957","1.08104248482685","0","0.1875"
"2683","-2.61156729739379","2.96144234202071","1.5415922884684","4.02356301320957","1.08104248482685","0","0.1875"
"2683","-1.61156729739379","-4.03855765797929","0.541592288468404","4.02356301320957","1.08104248482685","0","0.1875"
"2689","-1.61156729739379","-4.03855765797929","0.541592288468404","-2.97643698679043","3.08104248482685","0","0.1875"
"2689","-1.61156729739379","-2.03855765797929","-0.458407711531596","-2.97643698679043","3.08104248482685","0","0.1875"
"2695","-1.61156729739379","-2.03855765797929","-0.458407711531596","2.02356301320957","3.08104248482685","0","0.1875"
"2695","2.38843270260621","-0.0385576579792931","-0.458407711531596","2.02356301320957","3.08104248482685","0","0.1875"
"2700","2.38843270260621","-0.0385576579792931","-0.458407711531596","3.02356301320957","2.08104248482685","0","0.1875"
"2700","0.388432702606212","1.96144234202071","1.5415922884684","3.02356301320957","2.08104248482685","0","0.1875"
"2706","0.388432702606212","1.96144234202071","1.5415922884684","2.02356301320957","-0.918957515173152","0","0.1875"
"2706","0.388432702606212","0.961442342020707","0.541592288468404","2.02356301320957","-0.918957515173152","0","0.1875"
"2712","0.388432702606212","0.961442342020707","0.541592288468404","1.02356301320957","-0.918957515173152","0","0.1875"
"2712","0.388432702606212","2.96144234202071","1.5415922884684","1.02356301320957","-0.918957515173152","0","0.1875"
"2718","0.388432702606212","2.96144234202071","1.5415922884684","1.02356301320957","2.08104248482685","0","0.1875"
"2718","0.388432702606212","2.96144234202071","1.5415922884684","1.02356301320957","2.08104248482685","0","0.1875"
"2724","0.388432702606212","2.96144234202071","1.5415922884684","2.02356301320957","-0.918957515173152","0","0.1875"
"2724","-1.61156729739379","7.96144234202071","-2.4584077115316","2.02356301320957","-0.918957515173152","0","0.1875"
"2730","-1.61156729739379","7.96144234202071","-2.4584077115316","1.02356301320957","1.08104248482685","0","0.1875"
"2730","3.38843270260621","-2.03855765797929","2.5415922884684","1.02356301320957","1.08104248482685","0","0.1875"
"2736","3.38843270260621","-2.03855765797929","2.5415922884684","0.023563013209568","0.0810424848268476","0","0.1875"
"2736","-3.61156729739379","1.96144234202071","-1.4584077115316","0.023563013209568","0.0810424848268476","0","0.1875"
"2742","-3.61156729739379","1.96144234202071","-1.4584077115316","5.02356301320957","0.0810424848268476","0","0.1875"
"2743","2.38843270260621","-1.03855765797929","0.541592288468404","5.02356301320957","0.0810424848268476","0","0.1875"
"2748","2.38843270260621","-1.03855765797929","0.541592288468404","3.02356301320957","1.08104248482685","0","0.1875"
"2748","-1.61156729739379","-0.0385576579792931","-2.4584077115316","3.02356301320957","1.08104248482685","0","0.1875"
"2754","-1.61156729739379","-0.0385576579792931","-2.4584077115316","1.02356301320957","1.08104248482685","0","0.1875"
"2754","2.38843270260621","1.96144234202071","-0.458407711531596","1.02356301320957","1.08104248482685","0","0.1875"
"2760","2.38843270260621","1.96144234202071","-0.458407711531596","2.02356301320957","3.08104248482685","0","0.1875"
"2760","-0.611567297393788","-2.03855765797929","0.541592288468404","2.02356301320957","3.08104248482685","0","0.1875"
"2766","-0.611567297393788","-2.03855765797929","0.541592288468404","0.023563013209568","0.0810424848268476","0","0.1875"
"2766","-0.611567297393788","-2.03855765797929","-0.458407711531596","0.023563013209568","0.0810424848268476","0","0.1875"
"2772","-0.611567297393788","-2.03855765797929","-0.458407711531596","1.02356301320957","2.08104248482685","0","0.1875"
"2773","0.388432702606212","3.96144234202071","0.541592288468404","1.02356301320957","2.08104248482685","0","0.1875"
"2779","0.388432702606212","3.96144234202071","0.541592288468404","5.02356301320957","0.0810424848268476","0","0.1875"
"2779","2.38843270260621","6.96144234202071","2.5415922884684","5.02356301320957","0.0810424848268476","0","0.1875"
"2785","2.38843270260621","6.96144234202071","2.5415922884684","5.02356301320957","-1.91895751517315","0","0.1875"
"2785","-3.61156729739379","-0.0385576579792931","-1.4584077115316","5.02356301320957","-1.91895751517315","0","0.1875"
"2791","-3.61156729739379","-0.0385576579792931","-1.4584077115316","-2.97643698679043","2.08104248482685","0","0.1875"
"2791","-3.61156729739379","-1.03855765797929","-2.4584077115316","-2.97643698679043","2.08104248482685","0","0.1875"
"2798","-3.61156729739379","-1.03855765797929","-2.4584077115316","-5.97643698679043","1.08104248482685","0","0.1875"
"2798","-0.611567297393788","-3.03855765797929","1.5415922884684","-5.97643698679043","1.08104248482685","0","0.1875"
"2805","-0.611567297393788","-3.03855765797929","1.5415922884684","-1.97643698679043","-0.918957515173152","0","0.1875"
"2806","0.388432702606212","-1.03855765797929","-0.458407711531596","-1.97643698679043","-0.918957515173152","0","0.1875"
"2814","0.388432702606212","-1.03855765797929","-0.458407711531596","-4.97643698679043","0.0810424848268476","0","0.1875"
"2814","-2.61156729739379","1.96144234202071","-1.4584077115316","-4.97643698679043","0.0810424848268476","0","0.1875"
"2823","-2.61156729739379","1.96144234202071","-1.4584077115316","-0.976436986790432","1.08104248482685","0","0.1875"
"2823","-1.61156729739379","-0.0385576579792931","-3.4584077115316","-0.976436986790432","1.08104248482685","0","0.1875"
"2831","-1.61156729739379","-0.0385576579792931","-3.4584077115316","-2.97643698679043","0.0810424848268476","0","0.1875"
"2831","-0.611567297393788","-8.03855765797929","0.541592288468404","-2.97643698679043","0.0810424848268476","0","0.1875"
"2839","-0.611567297393788","-8.03855765797929","0.541592288468404","-7.97643698679043","1.08104248482685","0","0.1875"
"2839","-2.61156729739379","-13.0385576579793","0.541592288468404","-7.97643698679043","1.08104248482685","0","0.1875"
"2845","-2.61156729739379","-13.0385576579793","0.541592288468404","-1.97643698679043","1.08104248482685","0","0.1875"
"2845","1.38843270260621","9.96144234202071","0.541592288468404","-1.97643698679043","1.08104248482685","0","0.1875"
"2851","1.38843270260621","9.96144234202071","0.541592288468404","7.02356301320957","-2.91895751517315","0","0.1875"
"2851","-2.61156729739379","-2.03855765797929","-1.4584077115316","7.02356301320957","-2.91895751517315","0","0.1875"
"2858","-2.61156729739379","-2.03855765797929","-1.4584077115316","5.02356301320957","-0.918957515173152","0","0.1875"
"2858","-0.611567297393788","-4.03855765797929","-0.458407711531596","5.02356301320957","-0.918957515173152","0","0.1875"
"2864","-0.611567297393788","-4.03855765797929","-0.458407711531596","-0.976436986790432","1.08104248482685","0","0.1875"
"2864","0.388432702606212","-0.0385576579792931","0.541592288468404","-0.976436986790432","1.08104248482685","0","0.1875"
"2869","0.388432702606212","-0.0385576579792931","0.541592288468404","0.023563013209568","-0.918957515173152","0","0.1875"
"2869","-1.61156729739379","-0.0385576579792931","-0.458407711531596","0.023563013209568","-0.918957515173152","0","0.1875"
"2875","-1.61156729739379","-0.0385576579792931","-0.458407711531596","2.02356301320957","-0.918957515173152","0","0.1875"
"2876","-0.611567297393788","2.96144234202071","-0.458407711531596","2.02356301320957","-0.918957515173152","0","0.1875"
"2881","-0.611567297393788","2.96144234202071","-0.458407711531596","1.02356301320957","-1.91895751517315","0","0.1875"
"2881","1.38843270260621","1.96144234202071","-0.458407711531596","1.02356301320957","-1.91895751517315","0","0.1875"
"2886","1.38843270260621","1.96144234202071","-0.458407711531596","-2.97643698679043","0.0810424848268476","0","0.1875"
"2887","-3.61156729739379","-7.03855765797929","-2.4584077115316","-2.97643698679043","0.0810424848268476","0","0.1875"
"2893","-3.61156729739379","-7.03855765797929","-2.4584077115316","-1.97643698679043","1.08104248482685","0","0.1875"
"2893","-1.61156729739379","-0.0385576579792931","-0.458407711531596","-1.97643698679043","1.08104248482685","0","0.1875"
"2898","-1.61156729739379","-0.0385576579792931","-0.458407711531596","4.02356301320957","1.08104248482685","0","0.1875"
"2898","-3.61156729739379","0.961442342020707","0.541592288468404","4.02356301320957","1.08104248482685","0","0.1875"
"2904","-3.61156729739379","0.961442342020707","0.541592288468404","3.02356301320957","0.0810424848268476","0","0.1875"
"2904","0.388432702606212","-2.03855765797929","-1.4584077115316","3.02356301320957","0.0810424848268476","0","0.1875"
"2910","0.388432702606212","-2.03855765797929","-1.4584077115316","4.02356301320957","-1.91895751517315","0","0.1875"
"2910","-1.61156729739379","1.96144234202071","-0.458407711531596","4.02356301320957","-1.91895751517315","0","0.1875"
"2915","-1.61156729739379","1.96144234202071","-0.458407711531596","4.02356301320957","-2.91895751517315","0","0.1875"
"2915","-0.611567297393788","1.96144234202071","0.541592288468404","4.02356301320957","-2.91895751517315","0","0.1875"
"2920","-0.611567297393788","1.96144234202071","0.541592288468404","5.02356301320957","0.0810424848268476","0","0.1875"
"2921","0.388432702606212","-2.03855765797929","0.541592288468404","5.02356301320957","0.0810424848268476","0","0.1875"
"2928","0.388432702606212","-2.03855765797929","0.541592288468404","-0.976436986790432","1.08104248482685","0","0.1875"
"2928","1.38843270260621","-2.03855765797929","0.541592288468404","-0.976436986790432","1.08104248482685","0","0.1875"
"2935","1.38843270260621","-2.03855765797929","0.541592288468404","0.023563013209568","0.0810424848268476","0","0.1875"
"2936","-0.611567297393788","-2.03855765797929","-1.4584077115316","0.023563013209568","0.0810424848268476","0","0.1875"
"2942","-0.611567297393788","-2.03855765797929","-1.4584077115316","2.02356301320957","1.08104248482685","0","0.1875"
"2942","0.388432702606212","-0.0385576579792931","0.541592288468404","2.02356301320957","1.08104248482685","0","0.1875"
"2948","0.388432702606212","-0.0385576579792931","0.541592288468404","5.02356301320957","-0.918957515173152","0","0.1875"
"2948","0.388432702606212","-1.03855765797929","-4.4584077115316","5.02356301320957","-0.918957515173152","0","0.1875"
"2953","0.388432702606212","-1.03855765797929","-4.4584077115316","4.02356301320957","-1.91895751517315","0","0.1875"
"2953","-0.611567297393788","-2.03855765797929","0.541592288468404","4.02356301320957","-1.91895751517315","0","0.1875"
"2959","-0.611567297393788","-2.03855765797929","0.541592288468404","2.02356301320957","2.08104248482685","0","0.1875"
"2959","-1.61156729739379","-2.03855765797929","0.541592288468404","2.02356301320957","2.08104248482685","0","0.1875"
"2965","-1.61156729739379","-2.03855765797929","0.541592288468404","1.02356301320957","0.0810424848268476","0","0.1875"
"2965","-1.61156729739379","-1.03855765797929","-3.4584077115316","1.02356301320957","0.0810424848268476","0","0.1875"
"2971","-1.61156729739379","-1.03855765797929","-3.4584077115316","3.02356301320957","2.08104248482685","0","0.1875"
"2971","1.38843270260621","-0.0385576579792931","0.541592288468404","3.02356301320957","2.08104248482685","0","0.1875"
"2976","1.38843270260621","-0.0385576579792931","0.541592288468404","1.02356301320957","2.08104248482685","0","0.1875"
"2977","1.38843270260621","-0.0385576579792931","0.541592288468404","1.02356301320957","2.08104248482685","0","0.1875"
"2982","1.38843270260621","-0.0385576579792931","0.541592288468404","2.02356301320957","-0.918957515173152","0","0.1875"
"2982","0.388432702606212","-0.0385576579792931","-1.4584077115316","2.02356301320957","-0.918957515173152","0","0.1875"
"2988","0.388432702606212","-0.0385576579792931","-1.4584077115316","0.023563013209568","1.08104248482685","0","0.1875"
"2988","-1.61156729739379","-0.0385576579792931","-0.458407711531596","0.023563013209568","1.08104248482685","0","0.1875"
"2993","-1.61156729739379","-0.0385576579792931","-0.458407711531596","-1.97643698679043","-1.91895751517315","0","0.1875"
"2993","-0.611567297393788","-0.0385576579792931","0.541592288468404","-1.97643698679043","-1.91895751517315","0","0.1875"
"2999","-0.611567297393788","-0.0385576579792931","0.541592288468404","-0.976436986790432","0.0810424848268476","0","0.1875"
"2999","0.388432702606212","-0.0385576579792931","0.541592288468404","-0.976436986790432","0.0810424848268476","0","0.1875"
"3006","0.388432702606212","-0.0385576579792931","0.541592288468404","-0.976436986790432","3.08104248482685","0","0.1875"
"3006","-0.611567297393788","-2.03855765797929","-1.4584077115316","-0.976436986790432","3.08104248482685","0","0.1875"
"3013","-0.611567297393788","-2.03855765797929","-1.4584077115316","1.02356301320957","2.08104248482685","0","0.1875"
"3014","-1.61156729739379","-1.03855765797929","-1.4584077115316","1.02356301320957","2.08104248482685","0","0.1875"
"3021","-1.61156729739379","-1.03855765797929","-1.4584077115316","-0.976436986790432","0.0810424848268476","0","0.1875"
"3022","0.388432702606212","-0.0385576579792931","1.5415922884684","-0.976436986790432","0.0810424848268476","0","0.1875"
"3030","0.388432702606212","-0.0385576579792931","1.5415922884684","-1.97643698679043","0.0810424848268476","0","0.1875"
"3030","1.38843270260621","-0.0385576579792931","-0.458407711531596","-1.97643698679043","0.0810424848268476","0","0.1875"
"3038","1.38843270260621","-0.0385576579792931","-0.458407711531596","0.023563013209568","2.08104248482685","0","0.1875"
"3039","-0.611567297393788","-2.03855765797929","0.541592288468404","0.023563013209568","2.08104248482685","0","0.1875"
"3045","-0.611567297393788","-2.03855765797929","0.541592288468404","-1.97643698679043","1.08104248482685","0","0.1875"
"3045","-0.611567297393788","-1.03855765797929","1.5415922884684","-1.97643698679043","1.08104248482685","0","0.1875"
"3052","-0.611567297393788","-1.03855765797929","1.5415922884684","0.023563013209568","-0.918957515173152","0","0.1875"
"3052","-0.611567297393788","-1.03855765797929","-1.4584077115316","0.023563013209568","-0.918957515173152","0","0.1875"
"3059","-0.611567297393788","-1.03855765797929","-1.4584077115316","1.02356301320957","3.08104248482685","0","0.1875"
"3059","-1.61156729739379","-0.0385576579792931","0.541592288468404","1.02356301320957","3.08104248482685","0","0.1875"
"3065","-1.61156729739379","-0.0385576579792931","0.541592288468404","2.02356301320957","0.0810424848268476","0","0.1875"
"3065","-0.611567297393788","-2.03855765797929","-1.4584077115316","2.02356301320957","0.0810424848268476","0","0.1875"
"3070","-0.611567297393788","-2.03855765797929","-1.4584077115316","0.023563013209568","1.08104248482685","0","0.1875"
"3070","0.388432702606212","-0.0385576579792931","1.5415922884684","0.023563013209568","1.08104248482685","0","0.1875"
"3076","0.388432702606212","-0.0385576579792931","1.5415922884684","2.02356301320957","2.08104248482685","0","0.1875"
"3076","-3.61156729739379","-0.0385576579792931","-1.4584077115316","2.02356301320957","2.08104248482685","0","0.1875"
"3081","-3.61156729739379","-0.0385576579792931","-1.4584077115316","1.02356301320957","-0.918957515173152","0","0.1875"
"3082","1.38843270260621","-2.03855765797929","-0.458407711531596","1.02356301320957","-0.918957515173152","0","0.1875"
"3087","1.38843270260621","-2.03855765797929","-0.458407711531596","-0.976436986790432","-0.918957515173152","0","0.1875"
"3088","1.38843270260621","-2.03855765797929","3.5415922884684","-0.976436986790432","-0.918957515173152","0","0.1875"
"3093","1.38843270260621","-2.03855765797929","3.5415922884684","1.02356301320957","0.0810424848268476","0","0.1875"
"3093","0.388432702606212","-0.0385576579792931","0.541592288468404","1.02356301320957","0.0810424848268476","0","0.1875"
"3099","0.388432702606212","-0.0385576579792931","0.541592288468404","2.02356301320957","2.08104248482685","0","0.1875"
"3099","-0.611567297393788","-2.03855765797929","-0.458407711531596","2.02356301320957","2.08104248482685","0","0.1875"
"3105","-0.611567297393788","-2.03855765797929","-0.458407711531596","2.02356301320957","3.08104248482685","0","0.1875"
"3105","-0.611567297393788","-2.03855765797929","0.541592288468404","2.02356301320957","3.08104248482685","0","0.1875"
"3111","-0.611567297393788","-2.03855765797929","0.541592288468404","2.02356301320957","0.0810424848268476","0","0.1875"
"3111","0.388432702606212","-0.0385576579792931","-0.458407711531596","2.02356301320957","0.0810424848268476","0","0.1875"
"3118","0.388432702606212","-0.0385576579792931","-0.458407711531596","2.02356301320957","-0.918957515173152","0","0.1875"
"3118","-1.61156729739379","0.961442342020707","0.541592288468404","2.02356301320957","-0.918957515173152","0","0.1875"
"3124","-1.61156729739379","0.961442342020707","0.541592288468404","2.02356301320957","-1.91895751517315","0","0.1875"
"3124","0.388432702606212","-3.03855765797929","-1.4584077115316","2.02356301320957","-1.91895751517315","0","0.1875"
"3130","0.388432702606212","-3.03855765797929","-1.4584077115316","-4.97643698679043","-1.91895751517315","0","0.1875"
"3130","-1.61156729739379","-2.03855765797929","-0.458407711531596","-4.97643698679043","-1.91895751517315","0","0.1875"
"3135","-1.61156729739379","-2.03855765797929","-0.458407711531596","-3.97643698679043","1.08104248482685","0","0.1875"
"3135","-0.611567297393788","0.961442342020707","0.541592288468404","-3.97643698679043","1.08104248482685","0","0.1875"
"3141","-0.611567297393788","0.961442342020707","0.541592288468404","3.02356301320957","-1.91895751517315","0","0.1875"
"3141","-0.611567297393788","-2.03855765797929","-0.458407711531596","3.02356301320957","-1.91895751517315","0","0.1875"
"3146","-0.611567297393788","-2.03855765797929","-0.458407711531596","-0.976436986790432","0.0810424848268476","0","0.1875"
