Timer,AX,AY,AZ,GX,GY,GZ
"1001","94.0661467268259","17.3735434002519","-33.7651590863575","-29.3614611002269","-17.9654940424293","67.9899059702248"
"1001","95.6765639763677","18.7626419317785","-34.5214085555168","35.727288289007","-1.41659825330643","99.2599521938445"
"1001","59.5100266974842","33.1085701256401","95.3837477589767","13.6765939760856","-5.45577926284939","96.5051102707095"
"1001","71.1157052114174","28.6672003458038","56.8946778493543","-28.5545434624551","39.5664152945275","93.8532028913016"
"1001","-139.839586993005","-30.2386273401694","-92.7789208930824","-17.5284261108109","28.332831460568","93.0543548917169"
"1001","-71.7639837920768","-11.8709183140429","-55.1537413067407","-46.6725668319856","46.3582951779021","71.38670463631"
"1001","-26.2054436077744","-52.8498621102966","-124.62906916624","-35.556330851485","39.4860664582602","71.4729823624645"
"1001","-30.343678876878","-37.0291430243683","-97.7633043739024","-11.7650735591234","11.0956140698323","44.2715220117578"
"1001","-31.4211228909941","-33.0992333872748","-89.977494579781","-18.1456441843092","15.8688412458844","44.7283897362772"
"1001","-31.7016496218767","-32.1230331456689","-87.7211346182049","-19.6527173746481","17.7563768921371","45.098408727555"
"1001","22.1540535111167","-154.492351976459","-15.2390063276325","-20.0086839072171","18.5027885092903","45.4048760656074"
"1001","5.17609470212621","-114.889223573638","-36.2333849486158","-4.21853740789566","9.17060586698709","21.4327731596134"
"1001","-9.68216137212589","310.076856674607","10.6984284939984","-9.48894833804549","11.4802649436579","21.8694242163813"
"1001","-7.55070391413782","178.639586759982","-6.70053733295686","190.339709427686","-10.0702039354296","9.13622413111543"
"1001","10.4006174646778","321.149939488787","-78.4404680449898","123.538687466169","-4.59217358904756","9.56679759160414"
"1001","5.07448027147234","256.549898682459","-60.2309974878667","54.8463875389397","-0.821370413750576","18.6402624812765"
"1001","38.4804870957505","-150.103120664101","-102.839301278764","68.6214556801709","-0.330234865354861","18.9199196683886"
"1001","27.1781806819048","-28.1168366166954","-87.1873644241207","-153.891664097437","14.3049991496694","34.3249998697168"
"1001","24.2354764394746","2.18488809858521","-82.6513682113458","-78.4486495222711","11.0923915656608","34.4567599996106"
"1002","23.4693046563588","9.71191892742679","-81.3368176970301","-60.6292174753183","9.82199023499802","34.5758283679733"
"1002","-82.8480253344028","-156.571685059175","-39.9111550399279","-56.4203167538392","9.31961965323654","34.6838392247719"
"1002","-49.5291416085472","-101.876984519799","-51.9058261998387","-90.7022411471439","12.3300761644191","48.788170342136"
"1002","75.7015364388738","50.0855129926917","69.462365604933","-78.7995371738903","11.5205383848116","48.8008719022539"
"1002","41.3069918281487","8.83341065699413","31.6353709326702","70.4074775191873","-22.4952962913058","42.3574592530744"
"1002","98.4581192392929","56.3889864983503","-3.26979093955697","22.649763027317","-14.9466004129951","42.4023436473458"
"1002","75.3381675174408","35.2019208710494","0.614548389875911","29.0075501018279","-13.5660833920877","28.4723567875569"
"1002","34.5258470200223","75.4805254377341","-99.1613092761653","20.5092418804666","-12.0201683948457","28.5823929285883"
"1002","43.8998221828217","59.4858403551147","-69.0767666219608","2.62774009542141","12.6595156177821","21.1665805548275"
"1002","46.3404600022152","55.5127170809211","-60.3581413930294","7.40417867293066","7.41890968945329","21.2980526552401"
"1002","46.9759121836006","54.5257824541748","-57.8314476434758","8.53236029634086","5.34655177746676","21.4193878924344"
"1002","-15.4855656236684","-254.000496135828","19.8596120582572","8.79883368540393","4.52705354117354","21.5314612790369"
"1002","4.25176647460629","-154.639262815786","-2.6251966369057","-52.8713225294441","9.01666189981517","10.9068758020123"
"1002","240.762340056732","619.725973764128","136.225260038209","-32.4376434033343","7.79204351236068","11.0555831037097"
"1002","169.340980979715","384.080404519712","91.4646982284752","244.014359847378","32.9806986632406","-3.82159098147531"
"1002","-23.2181936871544","17.2642829053494","-232.762743419443","155.311560839551","26.941361515613","-3.62076397809778"
"1002","26.6464906115385","102.146160691168","-144.725200657209","-79.0599293291853","50.2260726086697","-2.36252264686393"
"1002","-75.1866137523705","-328.681048354016","-90.1382261551537","-13.4178291469855","43.4338352074891","-2.19540188473165"
"1002","-35.7002028605562","-177.69969877267","-91.3186945593112","-246.609534794331","58.3980297196229","-2.04051890841854"
"1002","-25.4193960415745","-140.195520922826","-91.6607991985189","-160.688772760833","53.3155070720205","-1.8969412920796"
"1003","-22.7426526642439","-130.87938114733","-91.7599425417504","-140.394525651277","51.3056619957721","-1.76381483023445"
"1003","-182.092316335134","-97.0364756440087","-134.543571012853","-135.601080435053","50.5108839867798","-1.64035560045864"
"1003","-131.581098725578","-106.629805876706","-121.942443977646","-7.4750833871239","43.778364740643","2.76143520087766"
"1003","-240.204416981607","526.816997576432","-155.914893863752","-49.2120761266054","45.1160410097337","2.84704348471359"
"1003","-198.485927653384","321.166906296926","-143.760250732563","120.837642469904","-23.3509608080027","-23.867155315396"
"1003","28.0909980057196","-8.42110324802451","-128.266413775615","59.00291717688","-7.42571797682322","-23.6648290101372"
"1003","-36.916717060556","68.708338822633","-130.776235568871","-156.675788756518","-55.6831589284961","-42.767491791413"
"1003","92.2871629950044","-153.852922693919","-27.1816453148694","-93.618504473766","-40.7661983586932","-42.5007753434166"
"1003","41.9270938247135","-71.1377453395474","-58.1595034278921","-128.11102497028","-58.9357629496351","-54.0413721642922"
"1003","28.815186947463","-50.5910703298082","-67.1370151815804","-108.258063215993","-51.1207796160946","-53.7551690759464"
"1003","25.4013294053627","-45.4872203779768","-69.7387353196725","-103.568848384065","-48.0304036624747","-53.4895197609273"
"1003","62.7844970821794","-249.156291972301","115.918623345471","-102.461268768886","-46.808337904033","-53.2429376680132"
"1003","50.5176968460158","-182.748243261428","60.7228958517871","-38.7027622656964","-30.2795054989969","-65.8731877017871"
"1003","170.838089398072","156.04159623142","-20.2604972906483","-59.6431788112625","-33.7433039454106","-65.5992077028394"
"1003","131.165087326571","56.1979137454188","-5.72982048068964","125.901450288224","-6.23100043318964","-89.9911692294338"
"1003","202.598630396372","43.6576524403077","-20.3309244593838","61.7265801366771","-13.3514684400813","-89.6372291935264"
"1003","174.197293584782","33.5426174272116","-13.5623849466551","13.0564003535856","7.90116006931979","-103.239002664018"
"1003","-45.4330624536176","120.361476519502","-62.906709708001","20.5606380720601","1.30535100531205","-102.867380900216"
"1004","19.3832834482317","90.9275172334477","-47.2068996664723","11.7503017901038","40.415585253942","-104.665486343874"
"1004","36.2590722545359","83.6160416972293","-42.6570296055966","15.6693246503223","29.8814310918568","-104.334942920636"
"1004","40.6529059992867","81.7998512895037","-41.3384583925631","16.5949870451957","25.7157796342886","-104.028064519751"
"1004","-15.6111171856972","23.5459944007375","25.7413072711401","16.8136259508221","24.0685043240036","-103.743154118373"
"1004","2.73980379802173","42.0755779204653","6.18130155619978","-25.465998310235","26.6262169339893","-114.194080776897"
"1004","-196.019802355665","-28.6403061953579","-160.245679379655","-11.4523289961592","25.6376450086017","-113.897310834387"
"1004","-130.769482008281","-3.20632413096969","-114.47690866708","-8.14233893973264","15.6193762745674","-145.767996227399"
"1004","-98.123970706134","136.232939492821","-114.894495922714","-7.36052841401701","17.6577278012192","-145.358643548127"
"1004","-98.6242821392545","94.8700318005722","-107.01551444123","43.9744130294474","-15.2319306240978","-156.765497519022"
"1004","-126.588734204876","205.455585383229","-68.8180400238762","27.0995846684295","-7.23789687922058","-156.356337593238"
"1004","-117.869647384679","163.925337645265","-78.7482535237293","21.3499939763137","-24.935965283768","-163.477202064085"
"1004","-115.599518365307","153.609111160128","-81.6260705789403","20.9919565064049","-18.9345323553316","-163.088675690591"
"1004","-115.008460394344","151.046532444872","-82.4600738965313","20.9073890431185","-16.5613111701112","-162.727946123185"
"1004","73.026207768909","183.690329249705","146.464472753398","20.887414441442","-15.6228388317314","-162.393023931183"
"1004","13.9835086477915","172.799137155168","78.8077557770086","-9.10195037324878","-47.3428785735499","-167.439726623245"
"1004","9.0487858014569","-64.6203001503576","-120.370005931286","0.814644337925848","-39.8863279812118","-167.125426171202"
"1004","1.76396575469752","10.4040659292495","-73.092547311829","-106.198854264689","-35.3331339637329","-175.405866153144"
"1004","105.985114050675","-9.49481766592304","-81.6238898189746","-69.4751475993892","-34.5326078841196","-175.093991076593"
"1005","72.1204618294096","7.56224553137864","-71.0963082590488","-20.2336459211792","-40.6342762143013","-182.305145758903"
"1005","122.45100634925","192.213786296354","82.4518635805","-31.6029389831559","-39.0471347297673","-182.000477742869"
"1005","101.555226095135","135.08173120677","38.950760580335","-34.2883346593578","-38.419511653753","-181.717603845368"
"1005","96.1147346634613","120.889973344304","26.3439605214822","-34.9226177144653","-38.1713228631606","-181.454964871424"
"1005","94.6982311082862","117.364702094896","22.690457581033","10.7864380583931","-22.027602727054","-191.926418599423"
"1005","-20.486605506447","167.285336259747","-12.5722597783039","-4.41720898750652","-25.6436909026391","-191.648844147884"
"1005","15.5235061505349","150.685757552093","-2.79154151190292","-25.6462960733407","-3.00528193782232","-206.392548997448"
"1005","14.4613916821576","-233.53423278332","-82.0464497279393","-20.6605479146157","-9.05309461928712","-206.081633042834"
"1005","20.184856200142","-111.975523319943","-57.0148508178727","-77.6884189258853","-5.02642602282438","-227.223558900886"
"1005","35.5921302223041","54.8445785744566","-20.6872601447874","-58.1582448334282","-7.43411043204147","-226.853201542828"
"1005","31.6036168135506","18.2831455744543","-27.1593737085816","-83.5299184261458","4.45024961603828","-241.510755232206"
"1005","-47.7185028351797","114.297023005609","-32.4554107662861","-72.5226377792736","1.14982976218159","-241.119855407459"
"1005","-23.3710607699857","78.1471312820024","-31.9902242695323","46.4882335239421","3.05381888649009","-270.759751940096"
"1005","-17.0318837530009","69.1673998634256","-31.8554112935341","8.59827321387762","1.8067369612432","-270.279512164545"
"1005","-15.3813955766632","66.9368101574786","-31.8163419339885","-0.351230949085479","1.31358786168766","-269.833624067531"
"1005","-9.7327587430198","-0.177971045815482","-6.15208168012446","-2.46507915867622","1.11857578632276","-269.419630417983"
"1005","-11.26206179271","21.1505347757228","-13.7144726227726","-43.5318276887111","-10.1904432928722","-278.679016921234"
"1005","52.7063270130201","-139.953148007382","-84.3139189914838","-30.2316804708551","-7.66250921160278","-278.276082566951"
"1006","32.3613390280411","-84.9717409535723","-64.7739313418066","-39.4368416653178","-6.66285683057176","-297.189503592114"
"1006","77.5137218984805","-76.5690017532669","4.16608466825213","-34.6110753609046","-6.26755186977184","-296.750054535248"
"1006","60.2697391009433","-71.4817384835455","-12.8548127814143","-33.4712426643958","-6.11123151781924","-296.342039190563"
"1006","-65.9945374147571","90.9289013419196","-9.236560188219","-33.2020173239887","-6.04941581890887","-295.963209092846"
"1006","-28.8691037700777","39.272145971876","-13.1879755809582","7.4290363699533","-1.21129854134809","-303.112183688379"
"1006","-19.2030084539548","26.4404674505485","-14.3331121492321","-5.97402076698111","-2.29810171708901","-302.74979516856"
"1006","-16.6863133075867","23.2530436083963","-14.6649774758711","29.6638747431798","13.3177059597131","-309.914035130991"
"1006","-160.420916105335","1.44211149297733","-190.911326258395","16.0814474093277","9.4928588015146","-309.565820169331"
"1006","-114.844111862867","8.02421663777983","-138.988249071034","-27.6941478910898","3.16667924177475","-317.814749299812"
"1006","69.2464559342254","167.302984689702","124.03767268576","-15.0338228121325","3.66503946145736","-317.473636265393"
"1006","18.1768583682159","116.868263853569","55.2636756418408","16.1773551789704","-31.4381544352738","-327.872218313382"
"1006","166.666442313369","-233.718133076911","98.6099326286276","7.54934937153662","-23.3194465230166","-327.526994588523"
"1006","112.327660000479","-127.804747540723","74.1718576706202","12.5666492151173","-37.7590983207695","-331.492582702805"
"1006","294.758805414126","-187.323841266002","68.7997980500517","9.75172160552126","-32.4691492306548","-331.174514165791"
"1006","229.257155388295","-153.108546017443","66.2429528928039","-110.851744010514","-51.2365274260198","-335.165315040704"
"1006","212.202938632938","-144.609373624661","65.5019685623894","-71.3379500863694","-45.657944953365","-334.870655825411"
"1006","207.762648823078","-142.498156087665","65.2872282303973","-33.7840567888014","-37.0337064737561","-343.169309634871"
"1006","196.168739900901","148.791424631209","-86.9824353042571","-40.9139307276562","-37.6233167034693","-342.874364702862"
"1007","199.150113107183","55.1485486824887","-42.1108152950562","102.033838778234","21.5121567067822","-342.600517046104"
"1007","-151.480288293511","168.511991491223","-37.6578129869379","53.7977078298315","7.89683166170395","-342.34625758512"
"1007","-40.7715285011601","118.671778991856","-31.3673144503871","-14.0372215373166","55.4631545262436","-346.396303254927"
"1007","-29.3434140497327","113.297723781402","66.2266658683976","1.94035516644308","41.2728965447339","-346.156651114731"
"1007","-16.3679540287589","107.962793851669","38.5098061101947","-20.7428266210246","35.6614665300963","-355.577906821949"
"1007","-73.8769115311573","-364.542085670692","-97.787343753321","-11.1005316218997","33.4424690425097","-355.325264671543"
"1007","-53.8501255835328","-212.913582783837","-62.2868230404166","-31.7524839677067","22.9376378415","-367.949048069397"
"1007","-48.635888257767","-175.248650292886","-51.9986249087267","-23.6304181745425","24.7835819267409","-367.669858369724"
"1007","-47.2782929371541","-165.892578627345","-49.0170624225621","-118.721160261155","15.8862010750649","-375.982875084893"
"1007","-45.1851882885532","25.6040012991069","-97.7486729789368","-86.1813313777069","18.3677992230469","-375.701265758418"
"1007","-45.6402209426191","-34.8277274467733","-82.8712958197362","16.7498353700592","-1.51012007656386","-387.226624454365"
"1007","-10.9659579352412","226.913237078646","87.3292274989805","-12.938106824404","3.62930732977897","-386.927579856627"
"1007","-21.9380571582852","133.930404506084","39.6540450187346","99.9882705540272","-11.9884783732699","-384.506866749188"
"1007","32.6132280224369","0.482587352763794","-92.1659344249581","58.6611695538228","-7.16441341056523","-384.259306070936"
"1007","13.8163731552463","30.333786642812","-61.3679111565001","-74.5663707533459","-22.9069068027926","-386.172512312059"
"1007","73.2889275596461","-170.691170632929","-131.11152551366","-36.0343484667887","-18.132156550999","-385.948867844664"
"1007","51.7733899114717","-101.6263167343","-105.323514197697","-26.933191035137","-16.2440177370166","-385.741220557258"
"1007","46.1715364846447","-84.4704191948354","-97.8500415693236","-24.7835227415887","-15.4973675474014","-385.54842617926"
"1008","44.7130202100902","-80.2088475882899","-95.6841982073552","-63.0794376710672","-18.4112255382991","-385.369422289228"
"1008","103.480928772223","-217.526446760319","-33.4894771193393","-50.1248271959228","-17.5634886056669","-385.203222460224"
"1008","84.7819273040528","-172.636511848104","-51.4651890117538","-27.6631535905368","-10.8100271543889","-388.26349935833"
"1008","41.6413857214933","204.598101664966","93.8226101753798","-33.3577682115734","-12.1394219871128","-388.104876145134"
"1008","52.4091778793649","89.3042056012592","47.9276169228178","90.527175261289","11.4032425363501","-385.814540150309"
"1008","98.7036352350003","-121.501228896216","-28.6501890114241","48.7884573599227","5.71301086499111","-385.688030770078"
"1008","85.7570065623381","-69.8658721387734","-13.8427547575146","-19.2756037158147","-1.35082086848853","-389.85668858906"
"1008","-53.305491941964","-121.848608464597","-112.163250066536","-2.35214728990984","-1.14415961252312","-389.727164351739"
"1008","-11.5122438497208","-97.7612615418886","-80.6569373655342","-70.6707865765509","6.96035089506249","-388.535375408668"
"1008","-0.630821601663234","-91.777899057548","-71.5262772806229","-45.8074608221916","5.16521817622614","-388.428834546172"
"1008","2.20229990827983","-90.2916155438886","-68.8801741209998","-15.2415732291017","28.5237101810154","-387.25838498838"
"1008","-92.7400856731436","144.791616892248","-33.9094053960725","-22.0219948494865","22.7606488824217","-387.171657115293"
"1008","-62.4595854466274","69.1869311694655","-43.7747315875057","68.0942316208635","31.7135929837262","-389.234191866793"
"1008","-4.12619035795892","-79.2116771282298","64.52898639793","37.3794358635478","28.2539669018675","-389.149194515902"
"1008","-17.938323128267","-42.0742950191069","30.9158530313481","21.3056720011266","10.8403082184971","-393.356395028282"
"1008","82.843716546403","5.6858718649208","-105.37986552436","22.5090932920427","13.9542088165098","-393.262656545027"
"1008","49.0836471280155","-4.45037279096805","-70.8789300125173","-63.6329970094163","-4.06911369359199","-397.461741173883"
"1008","-34.5106153236765","-52.5097728199007","-55.7498282593247","-34.9795212456657","0.803699962899498","-397.360467332364"
"1009","-13.2754818696826","-38.4478584910106","-54.3653518272716","24.7024334420873","-2.083055520387","-400.481026092345"
"1009","-7.74663536565496","-34.9548407284701","-53.9641248155101","8.79914659673113","-0.224601106446183","-400.378372810056"
"1009","-6.30712740441115","-34.0871656165292","-53.8478475635179","10.334242360047","24.578674250744","-393.853885200678"
"1009","-37.2457956324968","-49.6360082822698","-67.4957167557613","7.69682774709723","19.3869415833052","-393.796090999729"
"1009","-27.3010851385748","-44.498383087583","-63.4509258486281","14.1290887148099","9.31112235251641","-391.599371767671"
"1009","121.417645479366","193.243449832797","-17.813636497207","11.6483710216989","10.3267159712241","-391.559782788137"
"1009","76.1385245188986","117.299167700718","-30.5877607744882","62.212712294637","-2.10813583360476","-389.37996656692"
"1009","259.188835176811","196.523849179105","5.04474964616663","45.1558702978784","0.974596225522768","-389.356071534114"
"1009","194.848392972141","160.203475520383","-7.62880105744476","-29.4250190358328","3.79819683970926","-387.190826679296"
"1009","202.451427681311","272.041608270808","-11.3016486115759","-7.04081947762545","3.9147683112386","-387.180460730165"
"1009","190.430977843445","230.822504604674","-12.3660550649341","-15.8641553109372","5.56542319243196","-382.884718208272"
"1009","187.301295507946","220.583567153177","-12.6745244694637","-9.94820290890926","5.21816215998321","-382.896248048388"
"1009","186.486441517185","218.040187244075","-12.7639201821922","-26.1888988316855","43.5902222374164","-372.191658054617"
"1009","243.68229918975","213.90521019686","-0.818456461148582","-20.0249064331951","34.7641626916743","-372.252762148622"
"1009","225.573993580225","214.878070652713","-4.35661153411524","-101.467718001313","95.4562673462571","-359.451141364609"
"1009","-363.658719508298","-401.442510853468","155.376426611846","-73.7042855566151","79.4565003338479","-359.565214255339"
"1009","-181.073212187434","-202.538219465301","107.667723517389","-165.919593748195","138.916374294028","-333.954419303902"
"1010","-208.3390560677","-231.951730154358","-181.499988793472","-131.700595306285","121.42933098879","-334.175551991739"
"1010","-172.438077410955","-194.25812620347","-104.301991068335","-211.808300065314","151.419036440023","-312.950276946507"
"1010","-36.097295936748","-74.544303806175","-124.684587488223","-180.729519073187","140.278238261334","-313.243235446141"
"1010","-73.5991788826123","-107.807064745043","-105.591548462174","-88.7262643512008","89.3405243218247","-319.944415833559"
"1010","-83.3632877293452","-116.069625024755","-100.058306569058","-114.995349238","98.1975912441007","-320.166264064733"
"1010","-85.9055019885191","-118.122067469366","-98.4547501207653","71.0544658473687","47.1450936771329","-340.731304309427"
"1010","-511.038789261911","-136.147872558169","-310.054318554273","5.99891923289368","60.9567702835214","-340.825337281708"
"1010","-377.727836457194","-130.625531565799","-247.376751039965","-32.2964573607793","76.0458386169406","-364.486293363469"
"1010","93.6302710132528","-178.298490894835","140.189772161143","-28.3417197322017","76.0126963759323","-364.454792826904"
"1010","-34.645441414967","-162.140583645113","36.508157915236","34.3254748871728","-37.9239973619671","-400.857548882314"
"1010","46.7723196834816","-440.134077679819","-7.22077070760485","14.1272934833865","-11.9793997262165","-400.65643359803"
"1010","1.97050545378358","-348.188417638278","-11.893595576756","19.9393552639587","-40.229186967052","-420.82876470068"
"1010","105.121794680621","38.9833686908463","20.9561174520999","15.3121482327287","-27.4003513135289","-420.558178823834"
"1010","65.9785905685918","-72.8421066198916","10.4761005234235","-75.734725917414","-39.977418779513","-426.73612488844"
"1010","55.7871421522162","-100.619858811315","7.43894815437403","-46.2397465762782","-33.9509248261759","-426.472165492063"
"1010","53.1336644111917","-107.519928000952","6.55876880203135","195.312652906494","-41.1951389039926","-419.797909916236"
"1010","146.383185775016","244.588726680853","-14.2186610577406","119.366663706568","-38.0598084795345","-419.601060578034"
"1011","116.661926066976","130.053474110076","-8.24004640003838","97.9008249259612","-1.51969914609966","-403.345349111743"
"1011","100.22542070627","119.118578681332","34.5372813887989","94.8306529871032","-9.07018973485771","-403.252400737583"
"1011","100.945960188687","106.402320917931","22.9343283897412","-52.2901419906602","21.6397350578316","-375.306333629194"
"1011","-168.510147672","-164.750815990225","-171.970191018989","-4.03966815372133","12.7837421614027","-375.359235035421"
"1011","-83.6665920928497","-79.1059926351885","-116.454329058968","30.2863965813296","34.9546280773329","-347.548585143949"
"1011","-25.044082051497","-183.946589777758","-18.2762010928892","25.394118435102","27.7219369480996","-347.727217439785"
"1011","-30.7809399383731","-137.989279235904","-37.8237724403072","-48.077337211696","55.3484179776124","-328.605541056866"
"1011","-32.2746064011093","-126.573358310296","-43.4887396852096","-24.4310924753382","47.273100604935","-328.851628835101"
"1011","-32.6635021251967","-123.737612505261","-45.1304706867468","-82.3428139127619","29.6387593445952","-317.293289453906"
"1011","-93.6520455553099","116.935621875197","-31.9246843175405","-60.0214028541949","31.6653926894172","-317.561712436609"
"1011","-74.5312156043166","39.7195078381363","-36.0975926602123","77.5360596722267","18.0257913088196","-310.310228677625"
"1011","-36.4997559361408","-182.646469410739","-21.9151561290978","35.0267530763011","21.6321142752865","-310.577440005939"
"1011","-45.5977648191547","-121.882782913176","-26.8050272044484","-31.4555161675944","15.0354194916276","-320.469303437597"
"1011","33.7963801732598","196.237411571254","-137.674666698343","-15.1584448719941","17.426806515411","-320.653606715119"
"1011","7.46769085433379","102.259333051317","-105.805148026398","-30.7109518897493","-12.1141315453066","-335.826140023312"
"1011","4.09194371132858","99.9340901255008","-36.7123744981179","-23.3844111692234","-4.79587170186041","-335.913389443352"
"1011","1.21302350908349","87.3564934589211","-51.6890021854821","100.048487782128","-17.9474970483879","-346.709693065032"
"1011","0.463458740392872","84.2321842404977","-56.029291000912","60.2029982110636","-13.1482076561116","-346.733742368056"
"1012","0.268299686653184","83.4560973336673","-57.287124699832","-5.65008479567884","-4.83213472128229","-352.11371899119"
"1012","31.5309505316576","-41.1000916707286","77.4538222459247","10.7955985544763","-5.54360668104352","-352.108868517285"
"1012","21.6705931764997","-1.04018776652356","37.5023074735107","-24.1236370326145","-4.22039530156958","-349.961305973409"
"1012","3.44658781455619","21.1719822740816","-105.760887858668","-10.3714642062721","-4.69714138609001","-349.967357528135"
"1012","7.70172814352775","19.6895457211152","-70.2791560124273","45.7908438104209","3.13712086613457","-337.114622086123"
"1012","3.59069942458745","-41.9846003631752","-41.1842485918308","29.0562261249941","1.23512052209279","-337.181236525278"
"1012","5.52033898584033","-22.3046259815464","-43.7524237578513","-50.7399629857226","14.9240070786403","-327.599320467183"
"1012","-94.8761905253245","134.972896569097","-100.933154712959","-26.5876028563101","11.3371735616226","-327.702794179158"
"1012","-63.0157484615575","87.0410609077936","-84.5043676858204","-33.2295012805149","8.31422984494183","-321.36968940112"
"1012","-54.720463004432","75.134662572531","-79.7432370712742","-27.7982993766589","8.11882965373701","-321.48958851096"
"1012","-52.5606762482573","72.1770808450198","-78.3634416736394","63.4384761457916","24.0871358875831","-315.171734230111"
"1012","-18.9452474270502","13.6396992482536","34.9093550372605","33.9883509852385","20.4016816132694","-315.305792976533"
"1012","-29.1930280674603","32.098854459431","1.73628129326766","-24.1179673366931","1.29416330613494","-316.501792077378"
"1012","55.1206692261865","-73.6664698471182","-69.4444637538069","-8.84251952574509","4.73823994846215","-316.612241947384"
"1012","27.0728501029189","-36.9388640477152","-54.0729388719031","-47.5657670348497","-3.52717149082624","-318.857850414197"
"1012","2.37386283819633","-64.5991697692505","-27.3856611258505","-32.7120913368609","-0.795665826460393","-318.942831605483"
"1012","5.94315640127014","-50.4700649363559","-32.6515773565658","9.59996656535487","0.284487394865638","-323.307852177709"
"1012","26.0084741731004","-106.51466440237","15.4180180108806","-2.40604201209853","0.711625803092908","-323.360644962903"
"1012","20.2327437664767","-86.4362953304621","0.34878610439436","10.6323966752806","8.9033223302249","-326.624250038984"
"1013","18.7289563315613","-81.448773847208","-4.01833979778877","4.71203994638325","7.14266666230452","-326.65441103988"
"1013","18.3374254791489","-80.2098599465405","-5.28395099574968","6.84127352336879","3.23731356517373","-325.610885128131"
"1013","61.7264062035028","221.372621858926","21.7124032744913","5.34419262397527","3.69297126952604","-325.642002114564"
"1013","48.0232984462991","124.286530533028","13.5360587022995","66.7236827376568","2.26860008077701","-325.670893318174"
"1013","-28.6092331979978","-118.779578636742","-103.416601999053","46.2213490798154","2.70534328509746","-325.697717948118"
"1013","-6.56152149391495","-54.1578612050874","-70.3099681007632","-4.48011728718257","10.9008379560794","-324.6510943144"
"1013","6.13743780280897","35.4614349277013","-69.2665075597783","9.54433614041169","9.14168423537009","-324.679335157402"
"1013","5.44377900686091","15.7231118186676","-63.9641083675223","-38.2934065780153","19.6779432550963","-323.634026435714"
"1013","-17.3521030773839","9.06846139702457","50.4454751910283","-20.5925495198884","16.8444270626724","-323.663488135733"
"1013","-10.2873110307862","8.41542813408257","17.6018469900097","25.9196102839206","15.7239345508486","-320.476253921758"
"1013","-8.44789943051827","8.25321289555706","8.08362732702853","12.905654195981","15.2808442758009","-320.517001012548"
"1013","-7.96898440897426","8.21291818914143","5.32520779437922","-9.57003667953178","2.26916697604774","-317.340244950863"
"1013","-56.5541240269337","1.19651975301238","-2.3149770370535","-3.87873289905367","5.12379776318684","-317.390720696833"
"1013","-41.2039046325709","3.45362729945026","-0.529134286863609","-9.58967366494065","9.46175503335308","-317.437585937376"
"1013","70.6502109549803","-97.5783433088056","-61.5786403509952","-6.93858212883168","9.17716737185635","-317.481098930181"
"1013","37.772902237668","-64.6749595777623","-43.2710403951804","14.8532314668524","-5.37638884608233","-320.736087992885"
"1013","-155.188642603137","73.1165291733214","-102.952864406996","8.00039775832216","-2.13148239600018","-320.758249279627"
"1013","-99.4287206754606","33.3443097213495","-82.248904520318","-30.6580805672408","-2.45286629935431","-325.064943424361"
"1013","-62.2956121704201","153.082980990814","-42.0448940256698","-18.7891065666675","-1.57995512915943","-325.0635818429"
"1013","-65.6275186033811","108.826392579373","-50.3936050487415","26.3455785373957","19.6244794668559","-327.205376676693"
"1014","-66.4950242997091","97.8329356562995","-52.8130961273149","13.0062667230613","15.0096124849127","-327.193969973365"
"1014","-66.7208908263668","95.1021310584415","-53.5142746760896","25.7297828617939","-10.883665339954","-328.254908696947"
"1014","20.2021437211066","-68.4747553045975","-5.831995250128","19.7350422951449","-6.12296589059484","-328.239958992431"
"1014","-7.16630010250005","-16.1076987462497","-20.0134729227478","-41.6501926369418","-23.4950742709354","-334.655255698963"
"1014","105.742907090049","-92.4310407767137","-1.89077788031607","-22.1492158893693","-18.364742920371","-334.611669369163"
"1014","66.1403053598323","-60.389966508549","-9.63874569789918","-66.9296161413512","-21.1496649824678","-331.356612215223"
"1014","-27.6733214691488","-34.9149037167073","-42.6676642538226","-49.5066232217153","-19.2509413135986","-331.334387707778"
"1014","-4.09893404404945","-38.5868288363963","-34.2395818300983","7.52272238059625","-23.3137781510453","-328.099164375485"
"1014","68.1451678437022","34.0681407530052","-30.0868927376811","-9.00710341752215","-21.9203961987179","-328.095354986124"
"1014","48.9548706894166","10.1158327938544","-29.8834262165108","-0.564783399523132","-6.9283756785986","-331.306406613519"
"1014","43.9584242313526","4.16601435531784","-29.8244607748516","-5.57073068667086","-9.99989474215052","-331.287773288213"
"1014","42.6575336298371","2.68806327386369","-29.8073723453151","19.7039197203186","-8.00538853444833","-331.270472795555"
"1014","172.791592444662","65.3784382989637","31.7646306518849","10.6737224644694","-9.21667616481666","-331.254409798676"
"1014","131.673707557904","44.9508979500016","13.6084524741923","40.2892643946445","-8.0911131057246","-340.883261379101"
"1014","65.2997462126882","-75.7287791323223","6.63652088755173","29.2843737487736","-8.6460177211737","-340.823365914496"
"1014","80.0184117234555","-39.7059391239854","5.61602619948729","-22.7014282771422","29.6439312744516","-341.839284254184"
"1014","43.8389627643802","-163.879161004919","-37.4346137124105","-6.98033139128269","20.7854015234749","-341.782534451819"
"1014","57.4191670127595","-118.724127025716","-24.910867700106","-1.50324889277218","28.5142660762822","-343.872902957065"
"1015","-31.2458004434792","-33.940408004748","-48.6445678109915","-1.20957710689036","24.5705870104897","-343.813748425322"
"1015","-1.33089178101216","-54.8799016193524","-39.5226925324169","-27.5972539955784","45.4748950636615","-343.758825188309"
"1015","6.45784844683323","-60.0813287809547","-36.8791352461029","-18.8299505261026","39.7413453140831","-343.707830583581"
"1015","8.48574948511954","-61.3733774338689","-36.1130213810692","44.9739588766921","53.5196322616059","-339.374365553997"
"1015","-36.2168175598916","123.974985885767","-29.0502149946763","25.0442663708374","48.9681514519098","-339.350871158911"
"1015","-21.8557192914645","64.0160234138622","-31.0033844127642","64.4319968717059","45.5637452714227","-342.543645839414"
"1015","-219.914491468051","101.669972480492","-175.225872642435","48.7352702243982","45.2174986388319","-342.50804290829"
"1015","-155.481699769941","81.0233158335591","-133.022147856303","-2.59492777271715","40.266905303371","-343.546516148419"
"1015","-15.1915588927847","-13.4368311275893","-18.1795822186611","12.2810209772507","41.3092306741241","-343.510707905495"
"1015","-49.6651741343066","14.099011470343","-44.8977304174797","-10.6623622957244","9.63025882717613","-346.692049541675"
"1015","-145.622675495055","-66.6408743593063","-68.0325232468657","-1.0815261701032","17.103049407414","-346.645831366298"
"1015","-120.606474023235","-36.6968815822367","-65.7370821543017","-28.8032059603536","-20.0558315686455","-350.889037198401"
"1015","-114.093176692132","-29.2587123397463","-65.0718538059373","-18.3509902983931","-9.75002953820365","-350.828728592266"
"1015","-112.39735400014","-27.4110508708223","-64.8790678717214","-14.1184030187101","-5.6746782011181","-355.058851875232"
"1015","-12.7965245082955","11.5830534310966","-37.4600640642563","-14.1186775724535","-4.06311138937207","-354.986396508303"
"1015","-43.864137545563","-0.730705010659828","-45.5139230477326","15.8659044475539","-48.3534416283012","-362.419830415332"
"1015","210.732162919484","110.064347127371","46.2128071195286","5.94818005346113","-37.8677171816268","-362.321554429948"
"1015","126.019660891379","72.5861394003208","17.7955939345344","38.881696034469","-44.9531199195048","-367.587955632736"
"1015","91.7861880908345","21.2381159451451","-52.0068829988592","26.6605017117807","-40.7549887538087","-367.477653732765"
"1016","89.8730528461666","32.4831272711082","-36.2359303016054","-4.44695480537103","-39.0948695890079","-372.732889228755"
"1016","37.1858377810034","-24.2778888657035","-41.9266179206302","4.20554972825092","-38.4383880422046","-372.612220299533"
"1016","53.4680278387639","-4.37747964321153","-37.5758027932566","-36.082018723564","-12.5058661733706","-375.714771292808"
"1016","57.7073103360364","0.565836129462085","-36.3149185254801","-21.5978313194248","-18.2510468628524","-375.595398330684"
"1016","58.8110633341237","1.79376921139816","-35.949509035492","-26.9957199722937","1.94087102124986","-379.770682102164"
"1016","95.6308135411041","-113.506629375754","20.5928512913095","-23.2706863901717","-4.07438802368156","-379.647309867188"
"1016","84.2173201506375","-76.1475619595537","3.97906180861275","-29.4460547559214","3.17426881354946","-377.389703365852"
"1016","100.381672126885","441.095743296051","24.8172545066345","-26.9046597384774","0.0406952446437514","-377.293582353585"
"1016","93.5902739285812","279.580387033427","15.856249171455","28.3734962247567","-7.61668298715069","-382.561984385317"
"1016","117.91659657649","190.414809425043","-91.0626343566107","10.430044261902","-6.64473519728764","-382.453540195974"
"1016","109.250274875198","196.265837449486","-61.0481702210456","67.9249468728887","51.5036869256664","-383.424382477463"
"1016","-166.129099524866","-597.505916563281","-113.916904736899","46.505084356683","38.4980399268404","-383.325780885301"
"1016","-80.8277443547507","-340.680979027789","-93.2384832587905","-73.2014073196854","59.0279765653934","-380.019643683812"
"1016","-58.6184137497475","-276.884966074436","-87.24579095611","-36.4757506239406","51.146384476109","-379.949992859642"
"1016","-52.8359221945004","-261.037862955091","-85.5090838736751","-225.347160547681","75.3071473851619","-375.599206080869"
"1016","-150.489674138118","-230.827440236436","-52.5120577561609","-157.958066854919","67.8613380377252","-375.559628952843"
"1016","-118.915113832593","-238.323089071864","-61.9493827408017","-60.9060218942239","55.2896036846062","-376.59441226843"
"1017","-105.475350941929","-45.7577305072433","-1.40711210796547","-83.9825964461083","56.3182065770226","-376.555178039464"
"1017","-104.976131771303","-108.923971732717","-20.8617109953954","109.876491806608","21.424693128152","-388.305574836699"
"1017","-43.9588641797415","131.118565091495","-153.054227540241","42.6654739841663","29.626317584995","-388.215471496984"
"1017","-63.0722154172175","44.7457840661973","-117.364167068696","53.24745822953","18.4285696584547","-407.41934440308"
"1017","-158.509743538536","343.83285266445","-185.690048755962","40.746893733851","23.0005050740609","-407.249573670916"
"1017","-131.358160189638","235.126893911272","-159.491172632589","36.0304921069228","13.5765392661942","-424.23641873219"
"1017","-124.288888079689","208.124038116686","-151.898629679075","35.9164910457185","16.8499033826121","-424.008203072814"
"1017","-122.448310035958","201.416455299458","-149.698279243067","115.260688373951","-7.52859079086734","-431.297018144949"
"1017","-222.86802788549","401.183960727718","-65.2610117759734","89.0015690316524","-1.16888162243517","-431.064467839212"
"1017","-191.013623210835","335.806752370368","-89.790741482609","40.4679712713729","-32.3496919065367","-437.277728809121"
"1017","66.0481580827017","-279.479393873168","101.483160038245","53.0044692870802","-23.6799071102996","-437.046558260143"
"1017","-10.0224235596008","-90.318145952476","40.9151299572831","-104.540495330788","-82.829251854738","-446.475688826483"
"1017","-26.3491271009561","-374.381863509225","-245.1384852339","-50.7521816235017","-67.219412123676","-446.230358294266"
"1017","-32.5999992695952","-255.944063499338","-171.038009248579","-184.443159049971","-101.160558658613","-429.929633470066"
"1017","783.401817468012","288.445808558392","274.565187489342","-133.0205993333","-89.5823279207034","-429.794891521471"
"1017","525.858631150123","129.67373331811","155.702841926272","-164.969801424521","-75.3764588355841","-401.810020312594"
"1017","458.8038726578","90.2343180266728","121.256041231719","-147.51611487481","-75.7588555282924","-401.82689325666"
"1018","441.345283670267","80.4374600075505","111.273215531375","59.4437148225266","-114.419453225316","-397.556441243292"
"1018","361.995326218393","526.412797605735","34.8417295734779","-6.67294398932077","-105.707493695305","-397.591452574184"
"1018","384.335520345122","381.194284354301","55.6915679633559","152.326956424439","-5.98896074546424","-401.910077605695"
"1018","344.921526168001","289.070497749857","15.5586495733858","90.882294540898","-26.556022349313","-401.919793500514"
"1018","360.659573993881","298.186698614437","30.9279633832291","-85.9006188367822","77.6299192675638","-418.001757087113"
"1018","-428.517215961804","-1332.03747760027","1.17813721026562","-35.6562555877146","48.8294605763979","-417.933385682458"
"1018","-177.989780834507","-804.989596583219","12.5565142057466","-346.564580040862","122.48208890008","-413.583786806948"
"1018","-215.400238917485","-318.495221647323","-203.051054105734","-237.000269105287","98.6074627848251","-413.545312612046"
"1018","-166.140544097778","-400.648695827164","-137.53502157819","-237.578522284971","71.5162894245862","-421.010297034484"
"1018","-153.315134166474","-421.055842240723","-118.548203641161","-222.715104091773","71.8032901596341","-420.941314771569"
"1018","-149.975869875292","-426.125032909797","-113.045745060168","181.178820144076","76.7304551537533","-435.878679930176"
"1018","-77.7813381297731","213.700370956045","-188.409923117706","49.5774515167278","75.6788652229077","-435.747582663373"
"1018","-99.9845415230603","6.63474136650554","-165.250774471925","350.088489384999","19.1035067945764","-465.628689027931"
"1018","-67.4934273549897","380.837214963194","87.7290456499138","233.068368023301","31.7312099140483","-465.372414466121"
"1018","-81.0339381142327","230.79012709795","17.0436466886154","152.514455271347","7.84270307984975","-486.565061318381"
"1018","-84.5593883185453","193.518022399235","-3.44127507950503","163.487843165736","16.3961740294994","-486.241808504522"
"1018","-85.4772856832813","184.259530225634","-9.37789036374172","-102.018291929749","-2.68522674658029","-495.58544340536"
"1019","-77.0180881570261","-415.334977015187","-94.8979428790303","-12.730109041316","3.76917787553841","-495.260732670787"
"1019","-79.8156247361466","-223.275883290724","-70.6820087699282","-123.925693184086","-24.1650706569826","-492.816189314276"
"1019","-80.5440002073378","-175.567882079348","-63.6641306358809","-75.1897835933997","-16.2114576117501","-492.546502948672"
"1019","-80.7336423485675","-163.717084830194","-61.6303204478267","-132.46680363518","1.37475659432289","-484.79540053993"
"1019","216.694881021495","-90.7094233490012","44.9912290506413","-106.995477856828","-0.670908229502584","-484.598730696188"
"1019","123.13431200955","-112.574121683039","13.8905962801839","52.4716189260109","-39.9892327082029","-475.843892462205"
"1019","215.330254474916","460.021730307995","71.5751421793336","3.13730753678972","-31.5373662511258","-475.715283525975"
"1019","172.334681632839","272.256097193055","49.2923628124181","261.346501020502","-18.5677942357999","-463.809049303074"
"1019","194.193318221316","507.621765412832","22.312370706758","169.33480064097","-19.4390752386799","-463.754462191977"
"1019","180.88450197332","405.087237506827","26.4934571021031","45.3013307812708","33.1667832945867","-456.20307309325"
"1019","-222.697096120402","-543.474384834784","-92.0085564139438","74.0049671595523","20.9693715141946","-456.191831164119"
"1019","-97.7748773617858","-252.099671563786","-56.3509313868865","-208.478965210061","48.2371489504075","-444.394568743692"
"1019","-65.2497334084734","-179.721400355029","-46.0172037734062","-111.200891230145","39.0199849592666","-444.441158735325"
"1019","-56.7813840652087","-161.74244094445","-43.0224466545972","-190.524638256319","36.9796848633085","-448.770534211636"
"1019","-21.5234379374522","-229.091907025747","21.1226929306158","-151.260688609056","35.1728636474966","-448.790231577195"
"1019","-31.343567577326","-204.821697566161","2.71222040753778","-25.5756699913264","16.8082365509873","-463.809933153814"
"1019","-13.0247255384104","-91.9454774279448","-23.1455611154022","-61.8892151062657","20.5460838944775","-463.755282821306"
"1020","-20.2551738902363","-124.906717363736","-18.6392534391109","30.0703828021763","17.2105145811199","-490.492779375334"
"1020","49.1873940439188","206.71549338497","-68.6391823686691","-5.20901370362026","18.8914889661334","-490.317755875514"
"1020","26.2676806493814","95.0913524256064","-53.1293691340345","120.507099637989","8.32431452038607","-513.728900963029"
"1020","-33.6285103754153","239.020145710601","-58.8957360523337","74.2008990111025","11.1456054418025","-513.465458290505"
"1020","-18.2232720975148","176.772449396068","-54.5668530997498","87.9567406866755","20.2840514423856","-525.007684164514"
"1020","58.8524316322857","70.2268937615659","-53.3123248671854","77.2058325657161","18.8977806812504","-524.724300265914"
"1020","36.9201056139545","95.7606879771628","-52.9487573825617","-64.6739200945768","11.9313601073759","-531.961893255999"
"1020","-7.06227457415337","-71.3047788534855","8.72365668173356","-19.1855265117571","13.1765418684288","-531.681784758693"
"1020","3.48633382199024","-13.8042951709498","-9.40342195228638","-43.7173484983974","18.4826122901863","-524.992535219232"
"1020","-73.7904916561258","-127.387620110806","-38.5994664564006","-29.511697217633","17.580857640146","-524.781764428279"
"1020","-47.9105303322511","-82.6020269308076","-33.060601236623","-31.4477698209397","9.20147771584004","-513.870774858945"
"1020","54.5076843033926","12.5995056730976","-50.2675695053297","-28.9050648321063","10.8879154062209","-513.740243038021"
"1020","26.1736145723889","-11.7521747148772","-44.2542202709846","3.44396470187721","3.53201653501633","-513.619048094418"
"1020","64.0270243410309","-5.5400173883099","-3.17702211054624","-6.91528370817453","5.62318205404343","-513.506522165867"
"1020","47.8826578230762","-10.9969006136035","-14.2726797267553","6.5121151906421","0.03188731240673","-515.545104183957"
"1020","14.1054332624764","22.6795403598578","-19.1984431730223","0.683629791326599","1.82085216598527","-515.437867427162"
"1020","22.3110882524851","11.0448598852206","-19.6259498480613","-4.22064790489248","15.3647453715907","-517.48136028514"
"1021","69.678096309529","15.1611627347302","11.033682294266","-3.37902477569066","12.7205753323998","-517.378683098257"
"1021","56.0107203295198","12.1836635573808","1.91897084188807","-11.9992494978748","14.8840734742268","-522.640997915337"
"1021","71.5882443066551","-175.976864335263","-36.6366232458969","-9.03532281137389","13.7396124239401","-522.526901926829"
"1021","64.6440577146086","-115.716451191348","-26.8101943117419","-40.0837011253766","11.6824863960284","-528.850144234579"
"1021","55.8774999822587","-104.250795240934","-5.15030007370176","-29.4172424830489","11.8690114928972","-528.721088112128"
"1021","57.5950112860672","-99.4026951204772","-9.87317289479245","-5.73222127516976","21.5701168848301","-536.101969888001"
"1021","4.11344600108544","-36.892509052653","29.8028194410807","-12.1378845652556","19.4063455173461","-535.954900799704"
"1021","21.1888165234127","-56.3648088286501","17.3010865657793","28.6803815937618","44.223619737214","-535.818351491375"
"1021","-80.4832330872835","0.104123762336464","-97.4846978987018","14.3215435249351","38.037422813967","-535.691569488299"
"1021","-45.9548894705732","-20.8688398072985","-65.7500942804163","14.4576310742452","33.9865805308422","-544.146092227899"
"1021","23.9223085818195","170.100314404365","-65.1042538047121","12.4897745782002","33.3847056388065","-543.995867090204"
"1021","7.11575685942171","105.537571676526","-59.9170865563992","64.9390550089224","7.47377755790506","-547.070976016146"
"1021","2.73994990080511","98.2579971978113","-66.9648032392363","47.3274304444724","13.2274973472321","-546.926123904346"
"1021","1.60065096219179","91.4497310995285","-64.0072607624772","13.1829664085926","17.1073198241572","-552.149280548266"
"1021","-70.0210908465516","-94.15917515382","-47.7583900122188","22.118138139293","17.6415662294622","-551.998827351575"
"1021","-47.6687540538278","-35.26493225523","-52.0493998808681","-58.6701285106726","24.2710602266855","-551.859135998472"
"1021","5.12116565488893","54.6832409072848","37.3474278597738","-30.752094360882","22.8926434034221","-551.729436699546"
"1022","-8.13428389706359","34.0266117468598","10.2549992888867","5.82671520437818","3.09286800247968","-548.394426195053"
"1022","-77.6917144856294","-11.3912885634815","-33.5106117777045","-2.53347082375087","7.26319682153958","-548.297967361123"
"1022","-57.8019070950575","0.326781479416212","-25.1940673711854","-9.79953198561108","2.49409145534198","-547.136878669416"
"1022","-19.5702340287554","-212.20888353824","-46.7266402501666","-8.51575559957828","4.60818486860328","-547.058842084053"
"1022","-28.6161147182409","-142.003320747601","-38.9668691711888","-59.3628111092919","-17.0196189700815","-546.986387417482"
"1022","129.075260219109","129.417537636185","40.2407580434257","-42.3727454358192","-11.5721701477436","-546.91911539778"
"1022","78.132285310407","51.8392170237997","18.1954569030616","67.4684266542508","-15.8362480839942","-547.92818482375"
"1022","40.5136955278246","128.906401619328","-75.4133512854035","33.4126086708182","-13.5224453996038","-547.865076007117"
"1022","44.7192005199883","93.0500998673034","-51.5415721163788","46.5343514386005","16.274566709194","-551.021069866274"
"1022","75.3879853360511","134.939618126772","-56.5948024805957","37.6336709038258","10.0575694080667","-550.95131702797"
"1022","66.3730071434453","116.345088386534","-51.0592495970921","-13.8551224951371","12.4127776524994","-556.244201131075"
"1022","57.0672915609162","-166.777810949612","8.69163557972519","1.98336645816048","10.3441269099091","-556.158487822511"
"1022","58.6444260217187","-78.1063091350482","-7.99231009492249","-75.4105529392193","12.7352097974931","-562.508082610989"
"1022","-31.406061807746","-117.385971743232","-76.1046332959334","-47.6907833265522","11.6807454107539","-562.403493989205"
"1022","-2.85189161148015","-92.1431467613652","-58.8438670375662","-62.3090832510819","22.4956684889339","-565.52097507339"
"1022","107.22113585325","-108.643525029427","88.1046303878943","-53.7618853907366","19.7723478872911","-565.415464260075"
"1022","76.880097399435","-99.7422638661837","47.6909143721094","-0.592780867934561","10.6726435074479","-568.532089116638"
"1022","-2.3447016625127","-37.9768588525888","-5.06584860084334","-17.0343849663837","12.0742343490016","-568.425783321244"
"1022","18.0280790984408","-56.6341642679875","3.64502269477005","24.941025156677","33.4877313158249","-564.040963483415"
"1023","-51.4719832807382","126.152219325092","-111.834044518323","8.85550130192206","28.9555364645795","-563.969787664405"
"1023","-26.5672393217384","64.556854121466","-76.3003571157933","27.9855807559523","28.7678719220777","-567.11829154992"
"1023","-27.041508770821","14.2244522807638","-47.1903927595122","19.5040527815401","27.6936614004754","-567.041584492126"
"1023","-23.1649910645022","21.72174677788","-49.7542043631267","-8.95630209738388","22.4552002600956","-570.184952785664"
"1023","-29.1142360043167","-88.5181308226457","-60.7583827151648","-0.67855945484754","23.3836904882547","-570.103477482274"
"1023","-26.6632002318484","-51.9020162306085","-57.9474392385264","-49.8736594170761","17.3326246111704","-572.170889089493"
"1023","15.7262432914087","-118.125156839346","54.0299142682171","-32.4934063977137","18.9397764524219","-572.090419755413"
"1023","2.76289286740456","-91.5751650691849","21.4814157111492","-5.4588027108578","3.52973671328013","-576.301824397447"
"1023","-14.5293807460141","-104.247644991286","-34.1265621816303","-12.0733038541776","7.43595324354657","-576.211989324817"
"1023","-11.0316517923143","-96.3955234684284","-23.2419847944481","0.47479126781627","8.98063697728645","-578.271639133001"
"1023","52.5059541268282","5.39600985366472","-91.9158149427411","-4.56138325935229","9.59147045740534","-578.183963197577"
"1023","33.0488061471091","-26.3186964335297","-69.8177757263989","36.5803523697982","1.81023204993582","-579.174088189938"
"1023","43.6396131009182","135.708220467988","15.2553369113894","22.2979168980146","3.73320027168199","-579.093390025768"
"1023","37.3970690937547","78.9561472800504","-6.09012222777801","43.6176836139953","6.09818106264518","-580.089993672819"
"1023","25.3339195689833","-40.2370588666649","-22.5372999275721","34.653353733908","6.03339479954444","-580.015310748336"
"1023","28.1931198079603","-9.84497543526759","-21.3037602353242","-48.5989230907725","15.6351210180903","-578.874440345923"
"1023","28.9375502246483","-9.3018883770687","-32.9176462860664","-22.262881350996","13.4320509093782","-578.815175845507"
"1023","29.1313724822628","-5.1669840748147","-29.283398629115","-30.152802956214","15.7699786769786","-576.617091483828"
"1024","23.9629261459943","-26.9106272454862","9.39413017473297","-24.0163806869247","14.6944945007404","-576.576235021674"
"1024","25.617253112225","-19.3118073438072","-1.39696157301466","-17.2755663940061","17.4783175828455","-572.252182958283"
"1024","-13.9636683474062","-94.4945201503847","-83.1932739418079","-18.6834046423821","16.5791593306644","-572.237428224521"
"1024","-1.26908223672257","-69.1701104809138","-60.8981844950168","-22.543537669233","17.8281515876958","-573.295258400649"
"1024","-3.18279016145925","-12.0831371152735","-64.6981502268812","-21.4552904478238","17.322056113483","-573.277422501558"
"1024","-0.681049209010488","-26.9025776756405","-59.7993960553358","1.73118638646659","13.9128093405158","-575.403921417606"
"1024","41.7215960752658","107.792418134732","-31.0165831359248","-5.79223171017865","14.5646485323006","-575.378312906048"
"1024","28.7616829035124","62.2510214149637","-38.6752045827189","36.5258266021601","10.0087406746784","-574.283006647801"
"1024","-59.8548061099943","22.9128581280203","34.353912681429","21.5212353050346","11.2071414275402","-574.266047110601"
"1024","-33.9272754468603","29.1411513821825","11.5180537336716","-13.7712574176608","19.703827805842","-574.250300680803"
"1024","19.7934930448163","-226.796523848784","45.9448275711817","-4.10724689768173","18.0637780639903","-574.235680585429"
"1024","6.78040222588493","-143.372138432665","31.921849405299","-102.36139140493","-1.83945809249982","-568.864458703332"
"1024","24.2679147942053","-334.592565136027","-26.868335112195","-68.5687494517642","2.28995795458837","-568.877437695929"
"1024","16.8210188722639","-261.092239178496","-11.9059744022217","-90.5716674572759","-0.89076848142155","-571.03254732953"
"1024","115.781058068559","-255.095739279315","-36.643149712971","-78.7686960283339","0.851437346362955","-571.033503024891"
"1024","83.5466068433883","-246.60619239608","-26.8120857089668","56.3043400568121","3.14493701807405","-574.248978892826"
"1024","-29.2242670666483","328.274944818225","-138.546124723938","13.2082187849981","3.05188408789977","-574.2344533443"
"1024","1.41435155449423","144.076982767883","-103.927112618071","142.369451558486","35.1062385298698","-578.507084845152"
"1024","-25.4012175522949","247.207476874958","0.166392565411904","93.8769786432456","27.7818901529678","-578.47409710407"
"1025","-12.3830039314946","187.825372088234","-24.6668779319282","63.0213599070709","21.6764169241184","-578.443468959975"
"1025","27.5388329237273","125.781569191776","57.0665216321233","66.7333478302452","21.2620537902998","-578.415031632051"
"1025","16.9330086236141","137.369719815932","28.7531997936037","-62.9112948735412","3.44806369317442","-578.388628412288"
"1025","99.413847700263","-448.288438256876","8.5765107333935","-19.533002051081","7.4036562664934","-578.364113801922"
"1025","71.8888198150453","-257.767517497326","9.72922256622343","-134.517164626323","10.5724229583022","-574.055234665653"
"1025","66.4619533419827","-296.26986937169","-97.6790554880913","-90.6761068163108","10.8254877402793","-574.054567546955"
"1025","64.0489972241216","-256.833958289542","-65.8064199158685","-66.2105477750545","31.7848087779758","-565.481712058938"
"1025","-11.3836316706888","13.9500240491678","-113.006061084812","-68.4318501808323","27.0730134963543","-565.522068731845"
"1025","11.9764905080466","-67.7864983048836","-93.6847128436934","105.659957257128","44.464460659333","-554.844243601683"
"1025","145.052094928096","507.453002573871","-9.4162967661217","47.7799622044531","39.3417766838539","-554.930198081615"
"1025","106.700080158007","310.344059032395","-30.9949603057076","115.243793769208","26.084147083369","-559.296122323625"
"1025","112.371359837625","310.426385243016","-64.6116801355221","85.1785647876361","27.8415178964969","-559.349754139545"
"1025","104.847952150922","282.446835297631","-58.3539449587229","-24.2233193137194","34.9546871745104","-563.685667741895"
"1025","188.131338965448","189.668372259104","-46.2792522355975","7.93625728153459","33.767536076754","-563.711435564535"
"1025","160.815264947391","215.621949716978","-48.7799562078175","-106.170129622694","50.9482195039345","-562.663830716422"
"1025","89.3366025423024","83.6927037927104","-112.781917142193","-64.1217436192076","46.7421906058616","-562.691160530816"
"1025","107.726191941063","129.921120306012","-94.3299508523067","-156.49059067767","83.5883301645208","-555.215828879956"
"1025","-458.086719076046","-277.227365315514","203.460996325579","-120.307857692811","74.1588569098696","-555.275204046639"
"1026","-277.403558020719","-139.364156438296","118.762047827509","-154.092862085032","91.2892916350408","-544.615037026692"
"1026","-407.803276198413","-593.814201638319","60.0120242308634","-138.072786977527","85.063392268438","-544.717386540851"
"1026","-339.754559223542","-427.700828803276","62.9860237422557","-238.353252066795","55.3239287402731","-542.669356022313"
"1026","-69.7898386370515","-374.176634261095","-79.808550497512","-203.039221448555","60.5636831916288","-542.767820125277"
"1026","-144.500970198379","-367.88107877066","-37.1910103152074","-2.44364426498296","-35.2423077371551","-556.789124782092"
"1026","505.807185712107","-147.367585619343","274.444003808125","-64.0635219743953","-12.1280610321548","-556.807492373237"
"1026","290.123473840739","-217.591434204816","189.757123325478","163.023010503828","-46.3107618338019","-592.185020002538"
"1026","291.375396134166","-995.228448855877","-315.350520481265","79.660223399691","-32.8280519006688","-592.032010380159"
"1026","258.701350581795","-754.395598182369","-180.732810457813","-253.986727828237","-27.4964164014397","-625.107360302218"
"1026","-471.755054779328","93.6467130670803","-316.16001678318","-154.79321784668","-25.3880615352727","-624.81684661823"
"1026","-246.938994610697","-145.697270454831","-253.407382825058","334.27994358095","110.228507800477","-612.760288615006"
"1026","512.66847129269","1117.30497978777","289.808717544175","185.797675939922","79.8570527250596","-612.566130310084"
"1026","307.442273439592","676.038173650435","140.234996277351","586.385854664107","26.1283939332462","-629.530332229755"
"1026","113.098347690467","-892.654235623617","343.156114334285","434.003678060814","30.8818028576322","-629.281093081623"
"1026","143.498348552954","-449.321696354695","257.963495909251","-535.04023038478","8.6931387666864","-645.122624552864"
"1026","-57.3430315694809","-1230.75970360544","-108.764848776848","-234.925729914434","14.9187996512958","-644.831019024491"
"1027","10.3652715236101","-915.871029830997","-15.0442439764162","-493.870627873562","4.54422947575484","-634.916506297975"
"1027","179.342424305268","52.159591542668","-107.597333717022","-368.032698862792","8.44168429667129","-634.711173818582"
"1027","136.337850208358","-215.378969420238","-64.4196029634928","533.008434989015","45.2831699488979","-613.08993845105"
"1027","-480.252576129106","604.471948295697","-157.938660394093","251.831866642645","37.8518563422055","-613.015259476554"
"1027","-292.790009550869","302.125145949821","-123.040871083221","245.388030138149","79.8408118009647","-603.302156653593"
"1027","-21.308147661051","-450.846769527278","189.777318927455","209.866013721386","68.4450261324856","-603.283827325843"
"1027","-78.6242715145538","-250.887041138944","103.433327723872","-274.750933009911","-17.8937873481702","-594.694572997951"
"1027","35.1858471803512","14.2299646949238","104.063418775475","-119.216119743352","-1.03581704381386","-594.719703831979"
"1027","-9.18219038190145","-42.914250035026","89.2460217753665","115.066683125127","-31.2742846474448","-580.813153426751"
"1027","-132.070750553831","265.184871202327","-393.902960100034","58.4036352471168","-20.2318575773212","-580.901331771693"
"1027","-100.066404725892","157.717530834176","-253.921538781093","127.918709136406","13.0168229175218","-569.19637814175"
"1027","-126.52638877789","-550.348990847804","-13.2614275734514","97.3379779366328","8.16476173011893","-569.328674121224"
"1027","-113.415593907655","-337.234640514578","-60.517129270843","-274.992277159065","17.477953923737","-579.095272632971"
"1027","-111.741662728632","-89.8691581782638","2.74678577094875","-155.935656901559","14.1607852207756","-579.163271129048"
"1027","-110.305832712909","-139.422899622632","-23.9190692794602","23.8722256664635","-32.0785761377764","-580.297935236951"
"1027","239.73500885104","252.886787999416","173.5765576688","-19.6576481996576","-22.3635812816679","-580.351437376068"
"1027","129.87274939506","119.337581343046","110.811609419672","151.732399574687","-71.4722601708761","-601.831702753317"
"1028","-18.766277707328","-318.455376560018","-220.343773939611","89.2142563381926","-57.8919151945675","-601.775495252002"
"1028","11.5335951125178","-196.204337939248","-133.31397741715","-89.5860131324678","37.3335535939013","-609.224014822763"
"1028","179.469154867905","56.61600713872","-2.06023858043098","-38.8181438307297","18.9897438064981","-609.139745430962"
"1028","131.193388316548","-7.58273156539769","-26.0223607251241","61.3632247813322","21.3631686526382","-612.276092320545"
"1028","-43.1620688185082","435.388614599695","-92.8235379459554","35.025787848384","16.3017215271858","-612.188097850793"
"1028","4.44219294759843","283.423901706527","-77.1827961448984","120.522701220419","43.1822469729273","-601.391102472442"
"1028","16.8365890936163","-419.931512803878","158.226395817858","88.7168364446852","35.8119471159416","-601.366410893764"
"1028","20.0636332725431","-214.646910636752","91.44895594649","-158.672796077621","16.8518421151188","-595.985837936639"
"1028","-17.3681737223229","-224.959561972541","-80.1108539659981","-81.1055452284352","19.3542122326367","-595.990134732032"
"1028","-5.11403737283263","-192.521252610976","-40.8295983779115","-76.8947964859856","54.0394646320315","-579.921181514766"
"1028","-149.792642858263","-100.386818887648","-130.347282912777","-67.9002292420148","46.7554849209408","-580.001632663398"
"1028","-102.461622141051","-125.500374978941","-97.2898791420777","43.5800336765045","43.8750903269817","-572.575622603715"
"1028","-161.463478232626","-21.3880219485401","-176.639890776076","7.91136442779326","42.7360601064175","-572.680791412276"
"1028","-135.8253880831","-58.5262303084133","-147.635853230951","32.9987754722689","11.7990452925542","-568.492319503391"
"1028","-14.3341425798001","198.49132434851","33.4994182652719","19.9243527952112","18.565237160524","-568.603446941983"
"1028","-48.7022976739912","110.335183918674","-15.0068288441351","34.4742377748625","-12.4548326195227","-566.563566467235"
"1028","131.969916051497","67.4177915191615","71.837414889621","27.9108804931563","-3.72148420871306","-566.669597645342"
"1029","70.0103050085646","68.7569945275725","38.0052368873663","-19.498238083429","-33.9636568368992","-575.340280553122"
"1029","-38.322447658118","-249.701048829819","-79.5418073318024","-4.69614118471198","-24.9226948906669","-575.39075375248"
"1029","-13.5283057541137","-146.806892888751","-50.6074282420253","-122.90231693885","13.9527516875068","-579.723734672565"
"1029","-226.267066068474","-228.095138821059","-189.298968521643","-81.8222897586316","7.32575251987053","-579.746779586269"
"1029","-155.656402508646","-187.287360184829","-143.49235208143","-1.56719031628908","-0.10851682314352","-581.911235130562"
"1029","-100.739613246196","22.5314929724417","-46.4178078807769","-22.6111570905831","-0.0483423134656426","-581.920868228193"
"1029","-107.44130431473","-39.3489332730473","-67.2852023802391","106.467325506658","-25.6974679740876","-590.502048363053"
"1029","198.729542426184","85.4075829849056","282.38807752638","60.9553072279297","-19.8402204010532","-590.469420879072"
"1029","101.445152375426","36.3974409153007","175.724844221451","85.4815491265295","-80.1017616828718","-602.225951844055"
"1029","234.422833116146","633.779041903388","-255.372432694505","71.2745798443542","-64.9317316466133","-602.141543898068"
"1029","178.045322627214","434.170256247453","-146.306211407535","112.01400179316","-15.6098036459595","-599.920114589183"
"1029","65.9470328024063","-272.262089109773","-174.555223001738","96.6365409392543","-23.1058208767035","-599.857583032482"
"1029","92.7607675430843","-72.7418049331196","-147.741903717098","-171.565986467548","71.8079480292203","-582.655052151469"
"1029","-161.203449291107","-669.519820177199","-110.897963090244","-84.9146840091187","48.3408788846757","-582.68300989232"
"1029","-77.3263759698539","-448.761102180922","-117.22043629601","-306.088862973034","56.7111375109597","-573.065202230649"
"1029","73.2452500771661","-188.987154445029","161.419404601214","-221.329594269121","49.0210928723781","-573.1353516479"
"1029","38.4485548305559","-241.458599337672","78.1703860788218","169.088890286294","7.47074115725912","-564.628247223645"
"1030","154.642629502365","521.464946250579","23.2609499078573","51.3046599580908","15.0399693533372","-564.729651818876"
"1030","112.895286257726","267.977229846636","25.3479675830399","194.573216912728","32.474181482878","-564.823802992996"
"1030","-171.097167532955","-183.844404543132","-196.372666898461","131.412855075312","30.3684085894423","-564.911219579672"
"1030","-88.0383409525898","-74.0781273145082","-130.628226299327","-162.186283862701","60.0222905942183","-575.70767841064"
"1030","-89.0281610697803","-307.799880301651","-183.403440571915","-73.5335910297178","52.7486935777966","-575.731871820907"
"1030","-76.2858737658837","-216.856999381014","-156.697916539458","-87.870124537048","32.2222714067503","-582.183511754363"
"1030","-142.553725041397","192.83645853206","44.2935864414631","-71.2563742257875","35.1052532655849","-582.173669038237"
"1030","-119.807432377299","73.6054276934526","-10.458242435171","98.465206950915","23.4088459931446","-575.735353300788"
"1030","94.8712848074657","-45.3433459302101","136.143056499982","44.5529765040047","26.7835903482141","-575.757567139697"
"1030","30.7657145536981","-23.8905447953198","83.628720921792","-6.98460434582798","-39.2733107516589","-584.350428121563"
"1030","-8.54029334335796","-248.020854377767","-41.0426858949896","2.84236114608072","-23.3950118503121","-584.328645959313"
"1030","-5.77412986808436","-172.695432830199","-13.1729766324243","-98.900899360045","-9.09327096281329","-582.165362842479"
"1030","135.856661033065","-146.978004138824","-76.9244451218557","-63.932376986353","-8.43775587758703","-582.156818309146"
"1030","91.7321016717114","-144.589724909923","-53.3998850825727","57.2104680378315","-0.155749523697463","-578.934296429106"
"1030","-13.6966973716756","349.953963209316","-97.8882456041268","21.8240740428278","-1.88069285480589","-578.942279963329"
"1030","12.8535270816945","190.799960315394","-80.7811569870695","110.47505697567","21.5055550116117","-569.305926840261"
"1030","45.8607800489575","128.494908511316","50.7310413457391","76.4141747344576","15.7534695582229","-569.358857343901"
"1030","39.4546528198059","126.018164196318","14.8438218349055","-33.9314716508455","-5.77583996797248","-571.551060776497"
"1031","74.3191068601767","-128.5786714806","83.1125660149197","-1.99480910511593","-2.28944231594496","-571.586456969548"
"1031","62.3965263759784","-46.8212178726636","56.8971312049826","-158.485113861051","5.50745752655568","-564.118614713226"
"1031","38.4166835659584","-466.163361418351","-31.0794156044093","-102.447692402063","4.59068250064291","-564.184943561717"
"1031","44.1732158536151","-319.329090331768","-9.57538372940365","-105.086032761027","20.2737265211762","-563.174998429111"
"1031","-70.8836633011458","-70.9117871341283","-104.244981422688","-96.7092014799338","16.4754674657296","-563.237294177976"
"1031","-33.8402362352089","-130.204253415977","-72.6806234515065","76.3582504019263","45.4600686398651","-564.366663453387"
"1031","-86.8224185581672","110.800539639477","-107.998233778395","20.2363053910392","37.9218095893795","-564.41524949679"
"1031","-64.6170271085058","24.6667856790036","-92.2334237216445","123.391438668553","23.7089591256684","-564.460360204267"
"1031","5.53100182009919","304.545659166186","45.7305601286892","81.7563967509431","25.0885950851029","-564.502244164898"
"1031","-13.2050355188418","202.068332508179","7.71309481792115","48.9928787965523","4.77491318639991","-569.898779741301"
"1031","119.348100700922","8.45934695038021","48.0013512862789","54.2542261844446","9.74202157423098","-569.909303766835"
"1031","74.8600544578551","56.3663483924662","29.6770550957763","-69.7330538143727","-9.1530215310392","-573.133663546966"
"1031","-21.9651989925458","-299.568851036967","-59.4329987208026","-28.0185075182961","-3.62492317982825","-573.127386448739"
"1031","1.82507180087098","-177.984122588298","-36.2574618774026","-162.797472763036","22.6294850714546","-566.692381282285"
"1031","21.9362766427418","-370.234999982456","-50.0634454188803","-112.631892769468","18.0115919133292","-566.717668888663"
"1031","19.1724935387957","-290.990640778966","-42.064476705893","-46.1050356143166","19.3945962005269","-554.954323063934"
"1031","-73.7478461537677","341.752921691247","-85.9216304238344","-61.3915753682067","17.94149476838","-555.032403613759"
"1031","-44.9408796647329","148.928143439024","-71.6316154573256","150.181722439659","15.7623192396942","-547.604192523045"
"1032","-60.0558856515011","195.616197248398","-14.4742384203076","78.1547520762297","15.9005807861182","-547.707317739246"
"1032","-50.9912764127296","153.213636789011","-28.9097935097633","32.9213361422327","1.51423708398325","-554.232243525155"
"1032","36.6110189495504","-41.2369889870483","31.8941651626129","38.2373280067367","4.82526645665262","-554.290444560293"
"1032","10.4194296199079","15.4609467358695","11.5154045543241","-113.957889229213","-14.7246605488538","-560.773659569843"
"1032","104.499041158861","-121.092497944564","-32.0147535462933","-62.9059799395219","-9.45553107464829","-560.793133380057"
"1032","70.9939063540492","-69.0127449784178","-22.6299738937555","-68.4856872848526","-0.953663438887347","-561.882743749149"
"1032","-5.57543316574515","-91.1079383111631","-13.06944241849","-59.8035987766175","-1.59166429172953","-561.89441482136"
"1032","13.4887314397238","-76.5964444258307","-14.2987607471636","-11.8940417256488","10.9925037117512","-554.40454449049"
"1032","-14.6007622823842","-281.43182624247","0.736740377774384","-26.5779364364207","7.96881761217411","-554.450420921833"
"1032","-2.91423170332517","-213.313492162756","-3.90590904042474","-82.9603145934672","18.0050268826635","-557.707604367473"
"1032","73.1932575292703","26.0601418861326","-87.3407690285893","-66.2776768684606","14.9737698052369","-557.731803074012"
"1032","51.0088441223848","-41.4787964077256","-63.5205374773382","17.0338402328948","10.5659670066818","-565.254977435899"
"1032","8.70046650195827","200.980745133304","-85.6906650825912","-8.28820911685589","10.8229347831207","-565.240022814519"
"1032","18.6849235008013","113.208354653029","-75.1156600073778","118.015999413706","17.3427810471975","-567.369196911892"
"1032","-77.8747914308424","98.4118432705206","-51.5286294463733","72.8487052490764","15.921004858543","-567.346072227248"
"1032","-46.0153841888934","90.7363496020272","-56.6930101687769","7.50242942649136","26.5906772673776","-573.753778705983"
"1032","-49.8978260231438","-47.7948517683891","42.7118861929457","23.0678192362817","23.8099183889485","-573.703145073669"
"1032","-43.9086708576673","-4.2063789428062","12.5198374142851","-93.1942660796614","8.26927017404819","-574.727662751313"
"1033","39.413615880873","-172.041806345738","-49.2460149710052","-52.655050097781","11.1238385720543","-574.678897180465"
"1033","14.1076699700563","-111.732582963368","-36.1460151499205","-66.0092348899898","-2.18836216412508","-577.848208320051"
"1033","-18.575618700729","-201.847444678272","-64.8433020754477","-56.1634565205441","1.54742890681849","-577.790820183619"
"1033","-12.0851431027814","-164.232221407592","-54.1598948409294","-57.3655163283837","1.42016160788515","-578.809066503522"
"1033","8.74074286213943","-160.143289488659","-30.5414488845889","-55.6494395409275","2.36983471868786","-578.754478162085"
"1033","3.16303639563144","-156.127587679603","-35.6967252951371","6.4889895597416","4.34993333162689","-582.989912542014"
"1033","69.55664375916","288.024035503891","-1.27663287105666","-13.8340848017612","4.13294832706014","-582.922388371878"
"1033","47.8430933478528","145.352506632014","-12.3015473382607","94.2490375119968","-0.766529476873405","-585.00275319461"
"1033","90.8995161393628","153.702442855243","40.9398498673681","55.7779730183265","0.296009143575382","-584.934310538873"
"1033","74.1098225470206","130.776589721853","23.3694275822775","55.5102274342489","-0.888375584579912","-584.870763552833"
"1033","99.3122310604905","-139.409443881824","18.2774463353444","50.4469866654619","-0.356731552534057","-584.811762051629"
"1033","88.8740098458538","-55.5243894357892","16.8017690523276","-125.365409786912","11.0854060836362","-583.685451387955"
"1033","-35.6182970603131","-258.89156566184","-96.4988146266008","-67.8918131157931","8.61011272722814","-583.639705175287"
"1033","1.96849219591147","-181.408525320444","-63.3337936611819","-84.3013549050999","36.513313088464","-579.311113122845"
"1033","-139.593697336843","-46.5561068699873","23.2363803321279","-71.1772434347775","29.547422279115","-579.292143143229"
"1033","-89.4512767062573","-79.0583993778271","3.32477578245961","41.2784064448905","18.7700256519744","-577.13147105498"
"1033","-152.940058337332","-225.508242380082","-50.3311736715375","5.84012090726953","19.5081858043836","-577.125350784633"
"1034","-125.47019831156","-182.886781671646","-37.8808903472706","-53.6805843864222","14.9864129166803","-579.262727316229"
"1034","-41.7740378332476","-396.503946803941","-29.1421590473288","-38.7392108787519","16.1983120847929","-579.247218349699"
"1034","-63.9826407947691","-321.567031583062","-29.6096384750117","-65.1947465183149","-20.2272758164023","-587.805054819954"
"1034","-363.763568421344","-555.18250641417","-103.283537620691","-54.4434710987098","-11.6314985948695","-587.750753432281"
"1034","-272.815478821306","-469.213225710536","-81.6345391362645","27.4670745788215","-0.209575733907324","-594.12951326231"
"1034","-125.621731125482","-190.373422364902","-244.669959015429","1.81411964122885","-0.692862870026071","-594.052003520916"
"1034","-158.297901462441","-268.108856871958","-192.918299843015","165.080027081054","-45.8115872322085","-614.339098722403"
"1034","-36.332809706572","555.099741641248","-246.32828849893","107.642984295727","-35.6534449657333","-614.175067924538"
"1034","-79.5775926918645","278.586996337074","-221.806724715321","423.907628700524","-82.9823269928455","-623.666535768423"
"1034","471.065757329288","1365.95468343269","277.836131761523","311.608465770205","-69.6981748310061","-623.479083558772"
"1034","291.433001398006","976.059774148123","134.634703706094","309.776951691701","-115.790899927373","-634.020334824004"
"1034","102.013028291704","-219.042676479371","252.182550272215","295.344353115825","-102.017918872288","-633.807575540916"
"1034","134.695045036702","111.090624544879","193.248403705912","-380.07343729077","-96.5714978569508","-613.250974116325"
"1034","44.0449385435633","-782.543050803832","-64.9685716224186","-158.605257264136","-94.417751928044","-613.164776339438"
"1034","77.442990128209","-447.524086115949","1.19907804031211","-571.939011573178","-5.31540274187002","-548.792973587438"
"1034","193.996096382652","-336.278907673023","-27.5107465518221","-405.567304783593","-25.0805537877834","-549.025654408416"
"1035","162.342231736336","-324.645302801759","-7.83097278508331","64.097106380602","-29.6874178780136","-520.310394887076"
"1035","435.921899089929","-143.092561115154","109.035037698777","-68.9694545629024","-33.5091673812967","-520.649123837508"
"1035","345.151966501465","-199.994366323401","77.9032922080984","45.9962194357748","-18.9748735100075","-511.319858072763"
"1035","142.336225531379","-149.319830115564","65.460791548633","-9.84920532504972","-23.2273971091423","-511.65791012615"
"1035","192.530477790088","-173.732137505404","63.8549032555148","-10.693121389295","60.1325261736793","-524.830135613456"
"1035","184.723570002867","282.625460963375","82.2016645485567","-17.8924520370009","40.0965763084004","-525.060158252885"
"1035","194.690938801365","131.985929548135","76.5186320596564","229.103274648211","89.9375844576194","-538.132081617385"
"1035","-515.965028875139","-19.2871629634933","-376.620039453817","146.442984326297","73.6468335391199","-538.268976695806"
"1035","-290.993664130344","8.13618944934688","-243.941505732105","-17.7129744273241","145.828100725404","-560.898199467189"
"1035","122.466506718366","-578.843253274318","16.8347444489627","25.5138406915478","125.371635995268","-560.908764999446"
"1035","26.1163044040792","-385.65054321545","-37.5912167475244","-290.579614796617","33.8452880466782","-581.27763549333"
"1035","-195.548701614044","-460.272758249288","23.5947273546606","-180.240017516155","49.6518871459962","-581.189530641183"
"1035","-140.262103615672","-408.80911940872","-3.67333229188538","-39.5309296393652","52.6933718585878","-585.393845930023"
"1035","2.86561585643258","-140.292208624916","-45.7796461198238","-71.295831016536","55.8961039461607","-585.297428602167"
"1035","-33.8691984480209","-219.591877718809","-37.9822304920434","168.133772832439","23.4668909924149","-591.637085024618"
"1035","-29.516496178047","163.577243296729","-22.0409402832781","84.686385156338","31.6430044107304","-591.523268923269"
"1035","-36.3832128492393","28.7574950363159","-25.4210882684616","96.7247918767633","26.8533986409231","-584.988416966"
"1036","149.709725522325","93.357350608774","-55.473998669807","81.5682303543505","29.9593853248863","-584.920999773685"
"1036","90.1614714917548","53.4041304208618","-47.1834567406734","49.7674481974044","-15.3445454730809","-587.001463922167"
"1036","34.6456524853418","90.7727684380075","-154.233357883565","58.2561911263994","-4.25964168852907","-586.933113487457"
"1036","43.1913782752539","73.0552397504419","-121.256863196138","-6.76329596281121","22.5876055975853","-569.725179949934"
"1036","172.4098595997","-283.41689591452","108.915126731998","15.8792804448486","19.2041461444875","-569.748121483654"
"1036","133.053592061953","-170.965543887026","46.619923991076","-72.2541515535536","27.4935281920261","-551.553420333702"
"1036","21.9077332082419","-164.051489581411","37.1174951475695","-40.0710252085101","24.7715015230936","-551.66017725978"
"1036","50.9694458886999","-150.334019688208","29.3636518598923","-27.1780512234233","73.4363815519819","-528.18564867316"
"1036","-31.9250702331401","-85.6206580474038","78.4224315009694","-27.1327663139572","61.6805396785411","-528.390241637274"
"1036","-1.50774861169773","-104.545683019244","62.6398692993634","32.8472235944978","73.0773568300397","-521.079493589719"
"1036","-118.842050850703","-72.4631678036586","-90.7210218710346","13.0143318465911","67.5841418313122","-521.291679775042"
"1036","-77.3915808615275","-85.493783771445","-48.1656441562522","8.32985749483674","58.9936612725313","-520.417158875289"
"1036","-30.067031818766","-225.355212084972","-76.8776196735511","7.22339756800531","59.596620816289","-520.605192027854"
"1036","-38.745462562014","-182.097171249787","-61.1984692538454","-0.0931562441757947","29.3484626575651","-526.137422815959"
"1036","-6.2122694883432","-6.70161190582577","-25.8710610873291","2.17869391705899","36.3870576710921","-526.273935841058"
"1036","-17.7418244506459","-57.1328779532613","-33.6330316895213","83.8502254832519","34.3567440176756","-527.472213667225"
"1036","-86.8498956655597","205.340631423671","-112.841296335085","57.1408160715209","36.5538718649102","-527.584779266446"
"1037","-66.8430916473258","113.539764984479","-90.7961799248539","110.801420943757","31.0044791232019","-536.261529191391"
"1037","49.7027007145751","32.9334698442154","-19.4199713578601","89.4759078727818","32.8100138052063","-536.317635437144"
"1037","16.046931800066","45.9106469118461","-36.7348501010577","-16.0978766688167","6.24652002612281","-547.085023540565"
"1037","-13.5914326827574","-108.509542244441","-52.0139488863256","15.9658864884164","12.7421876538843","-547.082225638211"
"1037","-9.30817099339594","-56.8679371970817","-50.4418950803474","-85.8165119867801","12.1017350548495","-552.437275423439"
"1037","80.5285112743216","-65.059189421518","83.4089691477818","-47.8572338934796","13.8484729265739","-552.409281116155"
"1037","52.9186739858206","-55.0939187512666","44.199504712415","3.43990910655593","3.30730415342801","-554.52634824998"
"1037","-27.3346577404796","-43.860532013063","-50.9631574772783","-8.44384714258989","6.13887882105796","-554.491982606969"
"1037","-6.22966899684039","-46.0701281966056","-29.541691642011","1.09586169370518","28.1178520584711","-551.245486588602"
"1037","-56.4030861784275","167.075870306905","-102.00267123012","-3.65088538005196","23.8092705144317","-551.231210842888"
"1037","-37.4663957535959","98.0219160140354","-77.002163627645","41.0868177296272","17.2918018565404","-550.146426723286"
"1037","-6.44142658446292","170.200187265009","-97.1200464856057","25.6537398626949","17.7145182515485","-550.139236681298"
"1037","-13.3636674924396","137.129466142148","-86.9502923714805","25.5360949333618","9.85889036793042","-547.9895019175"
"1037","35.2835042575664","-9.46157607399472","-25.856396458896","23.5083075253993","11.7524418349018","-547.993536630134"
"1037","18.9494357452853","33.1248103657017","-42.1511320525339","-72.2159991472763","7.68755968939874","-550.140341763744"
"1037","-37.4924591128822","-105.18238425455","-12.6694969504581","-40.825816472324","9.08013284015032","-550.133586975937"
"1038","-22.1878493605278","-54.5382675430103","-24.1255968305344","-45.7581611658829","11.2353729185153","-552.270374376796"
"1038","-21.6823664380801","-141.799176199388","-17.1844469703722","-39.9231673840723","11.0876462795948","-552.254318419763"
"1038","-19.5507573057582","-106.475023227266","-21.1728729543003","-56.1829855097417","11.0292288993978","-556.525528981482"
"1038","1.87987723829367","-118.71957492467","-32.5899104619675","-50.0235097228549","11.0061281889638","-556.491221940346"
"1038","-4.54037497558207","-109.76115486699","-29.8986152808554","-34.4582364676839","-6.653140147004","-563.960075442081"
"1038","65.1131381873651","-44.4783568678313","-1.75553313172857","-38.7817618381285","-2.63636402539373","-563.894685505113"
"1038","42.2483471597285","-64.2619322995985","-9.59955120886643","4.29210231406382","-5.86163306658369","-571.334679455354"
"1038","65.8690240919242","13.1488459363451","-58.0480682032147","-10.533969727438","-4.13704127456676","-571.242494276498"
"1038","55.018978240424","-14.6221062209513","-45.0886493556825","30.0592218564758","10.9859536674411","-573.299962080405"
"1038","107.862404785552","-18.0172917028831","16.8137029660454","14.6472217935382","7.96622744677423","-573.210260218402"
"1038","89.6208864427475","-20.8606650102529","0.753261392638081","-1.33966942952045","8.37665716590497","-576.341563219722"
"1038","18.7652672149218","-151.185165419904","-22.7132755621884","1.88427093930604","7.53895848895565","-576.248885648567"
"1038","38.3170741057422","-109.558125756454","-18.5139752929987","-50.268325943677","24.8578302285234","-577.234366769756"
"1038","-50.5327448382143","-37.911951080938","-44.6601343036923","-32.5866255432048","20.7064468516815","-577.149356908248"
"1038","-19.6659646936983","-55.1148464402498","-36.237399619322","-14.2998346009728","43.1331773845109","-575.998898249565"
"1038","-37.7239447576137","5.42100694052247","14.0890277006399","-17.980544996933","37.0016580707739","-575.930731336162"
"1038","-27.4255775569782","-16.5417224443984","0.673835053610685","-18.8499186447739","34.5769952100093","-575.867440368741"
"1039","58.7583060927054","-114.831980013632","7.04723170508692","-19.0552623035387","33.6181806507533","-575.80867657327"
"1039","33.1974146037216","-86.2475473072428","2.89426848667422","-27.9227776945626","5.96154590668088","-587.540940744344"
"1039","226.600536359676","-252.555227240162","-18.8316277104967","-25.0172603822636","12.0249392213776","-587.434001796348"
"1039","161.955584794153","-194.866507231328","-13.1278825308879","-38.4414072595101","24.0500076274122","-592.692359694005"
"1039","265.159362540837","-77.1922327473337","92.847033495462","-33.6121537416655","22.8052298277146","-592.574589822585"
"1039","223.029824505835","-106.961622934687","62.5590036630423","62.7738515025478","35.1494524844503","-597.822891527473"
"1039","25.9197031414877","48.5421266551078","-76.1934778039968","31.5399602058958","32.0308818153078","-597.695784777834"
"1039","81.5994885652627","-5.83031903368178","-40.4045223726368","24.1626011931794","30.7976666702134","-597.577769911842"
"1039","-237.913819193064","215.377453153332","-142.905660945657","22.4200893336871","30.3100010838157","-597.468196591505"
"1039","-129.103314489487","136.32606536851","-106.610916000683","66.1035817613357","121.576939249189","-601.652579041187"
"1039","-112.950525224128","39.6192053158542","-22.5541267239141","51.4215022377571","100.667758516364","-601.537654660409"
"1039","-101.744933926407","59.5969582716214","-41.1941205880393","-12.0156582050423","74.7492480666528","-605.717068808387"
"1039","-84.9103160381723","-149.135381766805","-145.78742757457","7.00065939403978","75.4999694656774","-605.597531506098"
"1039","-88.5272016838567","-78.9850627076791","-118.09900171255","-103.154918021276","30.8692244299769","-616.201839758577"
"1039","84.494778272072","-150.890993969005","52.3938249451802","-64.1733617088544","41.2203344242208","-616.047627027274"
"1039","29.5433281703709","-117.752622852051","6.80335318483178","-24.9813787108101","19.6406812377454","-623.405151634224"
"1039","15.2359948331792","-109.520961342397","-6.40895460583057","-32.7243403786108","27.1071708707143","-623.236396103876"
"1040","11.5108922773291","-107.476194236302","-10.2379361981426","-34.5532065772708","30.059737630601","-623.079711574091"
"1040","-6.85535557920623","34.9111111836075","-21.6087660598658","-34.9851797312269","31.2273077874113","-622.934234612104"
"1040","-1.6372499559808","-10.7194949088942","-18.9040797113249","33.7010969233981","34.8981297123375","-626.013752079066"
"1040","-76.8226683194028","70.7803942986923","-11.2794669794911","10.9246061017838","34.3497284327244","-625.872993167503"
"1040","-52.3981816248904","38.0251884276325","-13.069822588726","-17.3845740765857","8.45994608674416","-636.457597782043"
"1040","13.108707447504","-208.328523922805","-102.518859412963","-11.0711243865656","14.2220277967476","-636.285090804388"
"1040","-3.83571174240612","-133.523456062302","-76.4415612510252","-73.0768042275768","6.87325390046857","-646.840218276478"
"1040","75.2551538849673","28.6893032266729","-91.11679818086","-51.7223748569313","9.96723693685181","-646.640342641957"
"1040","47.847501791412","-13.0166062067972","-82.3697427048188","18.5821844951104","-16.0867497016643","-660.384647656822"
"1040","73.7646587241211","114.999717614173","-14.8473673467701","-1.8120724149647","-9.38960133514685","-660.145829254951"
"1040","61.5125316683712","67.7993206087009","-33.2791029366815","-6.62913967034461","-6.74126475061642","-659.924093416584"
"1040","70.4999869816196","106.870934755439","60.5706631088034","-7.76691767545496","-5.69400011182965","-659.718218234307"
"1040","65.8399892705815","87.5764299699339","29.7687145260525","46.6422277632981","7.55659336289214","-663.81318724714"
"1040","122.034713163536","-188.713955949663","-6.52095156042472","28.4935179104151","4.79644016713638","-663.61524512893"
"1040","103.66574919698","-102.3452392205","-1.03784729414927","-108.078364095323","21.355091831589","-683.790522422623"
"1040","50.1733161976313","-245.541159448289","-45.6241089626351","-65.3362660976484","16.9030851854035","-683.522671997228"
"1041","64.2458571674759","-187.1114154732","-31.5453925039779","-95.8081638009608","45.6291668275158","-686.488569314779"
"1041","64.4305547651853","-172.597308162337","-44.5672806141036","-80.0055420277398","37.988678186613","-686.242317447533"
"1041","66.4786432158471","-168.991964433276","-38.3410777932805","11.9171315169541","47.8037654445387","-694.585915943926"
"1041","-18.2303150311446","185.726263388399","-10.8837606028265","-16.3709864217597","43.6850673424448","-694.332700919899"
"1041","8.71459270026311","71.839235882647","-17.9265162090179","-23.0525618888013","42.0563593808675","-694.097598242719"
"1041","8.77150674315902","87.3393205284961","-49.0408654886349","-24.6307315930741","41.4122991564105","-693.879312345072"
"1041","12.786325063363","66.1895837090644","-41.0579329484636","72.0056607082732","49.1803982995545","-703.320405929933"
"1041","12.0919990210079","-38.9051134173291","-83.2095381630303","39.8309101442015","47.2522342552726","-703.086182707372"
"1041","12.9112220967541","-8.01092200251569","-69.4252481669289","-73.5968426529906","32.0487382083522","-724.299303577367"
"1041","-179.975171345282","-385.688122514992","-104.765008372872","-40.38816514441","35.0366308769507","-723.995060284768"
"1041","-119.19568276175","-259.504166265611","-92.006617442933","-94.2774635675835","42.6364007003843","-730.141756432107"
"1041","-65.098932470655","-256.185284845107","-67.7868326062093","-72.0059672828341","41.6416721018713","-729.848782409768"
"1041","-73.0141314792149","-239.360865674115","-72.7678385153272","-33.2332488798615","5.94804754349466","-740.292059785972"
"1041","-75.0749577255848","-235.181634195798","-74.211354685204","-43.0752396891096","13.833274123655","-739.988334638229"
"1041","-75.6115209646309","-234.143501730608","-74.6296916578387","-45.3998907839753","16.9514272369942","-739.706334801782"
"1041","-159.253790462326","-4.42638307481926","-112.375236208226","-45.9489669635408","18.1844772628095","-739.444506275738"
"1041","-133.031156274656","-78.3640260544996","-101.314051558666","89.7341550449398","-0.582613356908649","-750.988230837117"
"1042","145.179598330304","180.022032644115","122.506790632501","44.7821343862162","3.99608283535703","-750.706238425513"
"1042","61.6154302648209","86.2058323400639","58.3709989376874","99.4252930475973","-66.3983973592673","-784.733361145186"
"1042","438.235234956082","511.310536812908","168.04886947536","75.3318564727267","-49.235361249821","-784.326540416016"
"1042","307.293158398198","360.907701532681","124.833971217353","194.871048925477","-80.9577504678933","-795.735643995657"
"1042","400.194154361135","526.732512731171","11.4085591667484","152.105876614357","-69.5021289581404","-795.328659975309"
"1042","351.382151477478","451.923846815479","37.5374043523627","-22.0287955824908","8.83755827307439","-788.521610256927"
"1042","-136.247552579383","-1080.0388794873","-161.824046134585","29.8410749323129","-6.18360590594419","-788.201465476247"
"1042","9.79163550126631","-596.582587077066","-98.5998212849821","42.0925953431508","-12.1236114815142","-787.904220495178"
"1042","-39.1669814991714","-501.01309114389","181.382786754973","44.986370686861","-14.4725416854118","-787.628237302251"
"1042","-1.91400185726518","-463.273368440149","109.522907719319","-345.894339607037","79.2674886395736","-755.226109722187"
"1042","-119.208187393116","-61.5409278801079","223.803089123041","-216.219285723911","57.3362734653376","-755.141690483254"
"1042","-76.7472724922352","-185.749497080252","177.921959640892","250.068885467086","55.0819708772987","-738.990367046215"
"1042","-314.460082152461","19.8623893782926","-30.3369091779022","113.204865950176","50.1905239972575","-738.994339876615"
"1042","-233.351741062914","-64.0630588365646","23.3088069394244","73.8227508451684","45.0471232338933","-742.212617065396"
"1042","-90.4595382457499","-116.43911946615","-398.954580355454","68.5208038334969","45.0132043679741","-742.200692460604"
"1042","-123.255672411325","-111.449475370193","-265.328261220057","5.53540207207956","-35.2280873862038","-768.977858591938"
"1043","-131.794577623285","-110.210034206758","-226.60279975454","25.6584238262095","-16.9588983094018","-768.839667123958"
"1043","-134.017793989297","-109.902153650936","-215.380000418148","30.4114260855481","-9.73448589475526","-768.711360424106"
"1043","-131.117363958639","349.092812172647","-489.179314774375","31.53407211522","-6.87764673689838","-768.592231439753"
"1043","-132.362198822996","201.10840998101","-406.527491585589","194.069091655463","-39.4436404292458","-801.699038534367"
"1043","338.755274973888","-157.945217574189","711.950695319271","140.459415163305","-31.3216159177714","-801.437731906763"
"1043","190.416910401395","-63.1351151529404","396.090312478961","-150.88387822731","-89.0830107411231","-844.056296854415"
"1043","440.574779679041","-62.3547925076063","278.899725792382","-61.6983608953772","-73.9243167287543","-843.626376691879"
"1043","339.706673670062","-49.1609582403142","259.937407753417","10.5172923675043","-75.9527139020615","-842.15567899734"
"1043","224.722855877367","-282.349206775499","-275.718665011891","-1.42556942969883","-71.7548281972867","-841.790179589718"
"1043","245.785305430594","-205.27380189806","-120.95401639222","-103.019394851325","29.3877636084169","-825.377881511008"
"1043","251.26919140809","-186.128061709701","-76.1025793764879","-71.0155763226658","7.38383529057398","-825.139547088239"
"1043","252.696993304455","-181.372207777529","-63.1044469197679","-63.4563626204315","-1.31745146288513","-824.918260610185"
"1043","-46.1487957133876","42.2620138800278","-237.19790291477","-61.6708971846468","-4.75830938935493","-824.712802645697"
"1043","48.0427695322772","-29.1866372572601","-183.650908469028","5.7753295944262","42.0177566886305","-806.306039301955"
"1043","48.2118676248192","727.27132140842","201.269536790154","-16.2940575889873","30.5149976477941","-806.215902739267"
"1043","62.2558945389808","473.177535628888","96.8210781827639","144.29067316053","25.9663187289893","-777.200916803857"
"1043","133.758278460929","-204.750697209425","122.987944846943","88.2203438329312","24.1675781109407","-777.261358624051"
"1044","113.37486527132","-22.1499139623521","97.5712113264318","-348.335975046668","25.060837336547","-771.959829515407"
"1044","-88.5111872787625","-982.208221727437","-174.875020635232","-211.44937398425","24.4140699300594","-772.037516191452"
"1044","-28.0748784028007","-646.689316382393","-98.8310685569479","-235.558824432121","61.0631349050006","-774.252704999546"
"1044","-12.3394898888024","-563.345507806448","-76.7932158723326","-209.253410158374","52.5557299992379","-774.309442435426"
"1044","-8.24257437077094","-542.642679091624","-70.4065547681224","-203.040143830702","49.1915411806078","-774.362121470263"
"1044","-207.234124792202","-94.3459282018791","-154.065466531248","-201.572587454024","47.86119819908","-774.411032399498"
"1044","-144.044194187912","-235.987796078297","-128.310166113576","199.157271153032","44.126008993772","-786.243269374872"
"1044","211.637319283479","128.192158651035","116.871050294802","66.8085589474627","44.6489567199989","-786.229152225373"
"1044","109.243683004433","-9.34455015843194","48.925583634681","44.3671717936509","-40.1857990868243","-831.220284330634"
"1044","126.07507296943","-267.71349456305","-56.275087027534","34.0665780186198","-20.73306056996","-830.993222757112"
"1044","105.457346891443","-203.893043021825","-36.7626776776086","-116.525825419632","-13.0406224957076","-847.926874962895"
"1044","-91.2708015910513","20.4002070729026","-137.140043396681","-68.0953359298673","-9.99870613648092","-847.649271306971"
"1044","-32.4915644997348","-42.8847396082765","-104.229820270842","107.377468565348","32.9226936162042","-840.962347438812"
"1044","-17.1876164362195","-58.6048924757012","-94.6923011224624","55.8236612102003","23.8956359796419","-840.753735965031"
"1044","-13.2030321183435","-62.5098212010136","-91.9282885189052","43.6467940462899","20.3259544254606","-840.560046367958"
"1044","-163.513997998726","526.808467367377","-31.2704113566895","40.7706515936857","18.9143508984541","-840.380211293049"
"1044","-115.649436446769","336.19673297714","-48.6915069924576","130.045255282413","2.31056721876065","-829.497944623119"
"1045","524.821630480996","-835.67719423504","211.340144421066","100.131670544424","5.74472675143539","-829.394081166649"
"1045","330.576703011442","-484.773864821372","131.698395413717","-390.215791114704","-66.7069093702271","-818.582351902442"
"1045","356.546500225284","-436.143663634873","19.6877019144894","-232.034509675122","-49.3573599872951","-818.543980345557"
"1045","319.308078759609","-402.063789403854","39.2265384034667","61.0788726602351","36.1267090972244","-812.079176421378"
"1045","-243.591948720424","478.697189662718","-264.656475099848","-14.6885545430686","20.9307365968847","-812.0767967606"
"1045","-72.1503800951377","199.480612209345","-171.723032688133","231.985801590244","104.776828646071","-813.146116826793"
"1045","-27.5133110890723","130.122455003351","-144.790535660162","140.249604429987","81.9331305362795","-813.13894895155"
"1045","-15.8914626340625","112.893700124659","-136.985386325995","118.581767576592","72.8997631806165","-813.132293790918"
"1045","-193.787792506222","451.927097508867","-117.62146315152","113.463884249848","69.3275864958187","-813.126114670671"
"1045","-136.105443564264","340.143915465468","-122.009717908769","126.365476373955","67.9149962883128","-825.978731671863"
"1045","45.9180516233791","-994.314902117222","61.4196997617969","121.412796864098","67.3563981924142","-825.912007263902"
"1045","-2.68973550452249","-579.798101642796","6.57830572808359","-385.968403638014","-33.9516224751956","-862.282058994181"
"1045","49.0211502968275","-408.518707137123","-4.18437014488396","-218.810444351282","-11.0131117475189","-862.050578709183"
"1045","25.4847600642149","-404.972439724847","-10.3034382482428","-41.751580175435","1.26686369141924","-862.907185606777"
"1045","-182.441122072587","222.980289116349","-165.994396310451","-77.9307646067694","4.12288694672999","-862.702519831867"
"1045","-120.577362329306","20.9654547613696","-121.114281644256","271.575771445374","22.9024130410965","-856.08331663376"
"1046","-104.470318193056","-29.2155794985864","-108.107838285499","151.128251674566","19.3286343630704","-855.937581803617"
"1046","-100.276637241822","-41.6806848827486","-104.338517059322","122.678879577412","17.9154106594789","-855.80227131461"
"1046","-76.5694783201045","477.198938588727","2.78599073557042","115.959216322723","17.3565620523526","-855.676639518714"
"1046","-83.397007447306","308.090048221109","-28.1688826346956","160.230922069778","-34.2102728247421","-854.488464592746"
"1046","440.19568037537","-756.849871794717","-13.1969913759346","144.687776910544","-22.601987011069","-854.385279238213"
"1046","274.519928484033","-437.383844172235","-22.8580751971571","-393.415706491987","-35.6617116644432","-852.146415659635"
"1046","180.934597472721","-249.428582697745","20.5173906692317","-217.514265725282","-29.826080839291","-852.067696898026"
"1046","185.568424718914","-264.739984578179","6.08778056566902","69.2017528468795","36.6638781967811","-845.565431784946"
"1046","-180.288470058642","384.802407130278","-20.326526371276","-2.07671403981764","22.9568287754953","-845.528270515792"
"1046","-64.5441282369932","173.150503747483","-14.9815020680066","150.412573266748","62.4640920507978","-841.207649330052"
"1046","-34.4085653488189","120.575595331728","-13.4324918578339","90.4301225169882","50.0869400094532","-841.19608006494"
"1046","-26.5623748889303","107.515845096807","-12.9835822748127","76.2624330209632","45.1924890029223","-841.185338343705"
"1046","36.3677733829355","-125.187476107371","4.24847211170669","72.9160638221925","43.2570154323213","-841.175364972536"
"1046","17.7524658090342","-51.9916139620843","-0.757607061658126","-88.3803902428158","7.19138040173402","-855.095988634718"
"1046","122.502846213626","-576.804719653141","-56.934656855899","-35.4781680001218","14.9294982589774","-855.020876893542"
"1046","86.775986537901","-397.169722405761","-41.2149988658366","-33.5656254992856","24.4077086459711","-861.380314924477"
"1047","-59.9572817922224","313.059065991245","-125.589561130813","-27.1138882334502","24.1557951374168","-861.284865462831"
"1047","-19.1612195913028","109.481828590604","-98.0416591965498","179.011114132299","28.8698505766707","-857.981654921504"
"1047","-100.740180198514","281.365543771571","-69.5358127351588","111.697271406342","27.7339880868529","-857.914721414925"
"1047","-68.9803363827247","197.061926083121","-73.2747002101327","94.0341245811289","25.6802622945368","-856.781046118342"
"1047","-60.7112430035934","176.120678174422","-74.3582453064345","90.8621379981479","25.8681319888119","-856.728462061356"
"1047","-58.5582756996799","170.918815241396","-74.6722611690615","90.1129235123858","25.9424236361287","-856.679639316252"
"1047","115.965961417865","-0.278277853939173","27.8484868974018","89.9359611164263","25.9718017052331","-856.634308838231"
"1047","61.4056437417805","54.1958986279419","-2.44057513504797","-119.998364995528","-15.7350779336258","-856.592220827136"
"1047","1.96958910716082","-336.891539549011","-53.9733672470482","-50.5842740361536","-6.22774751914887","-856.553143350893"
"1047","12.4946299508288","-203.03872280641","-43.9077841198329","-64.173503994408","-8.886376037095","-840.443918402432"
"1047","58.7258838065762","19.3831871826221","-18.7581902992896","-50.383242645165","-5.93771054298022","-840.486978437108"
"1047","45.7627992707967","-33.3666054701699","-24.469733708758","55.1745389713714","-4.77168311216381","-836.240840364563"
"1047","136.328078804516","-93.7629239951054","66.2256133732271","22.1069959673586","-4.31058639836905","-836.298426471982"
"1047","105.907941404443","-81.7655337725111","38.5095010927293","-8.63290236415668","-2.52369162021486","-839.566482006295"
"1047","97.9876582246448","-78.7853494127221","30.4772568085413","-2.89358160044195","-2.81707761755197","-839.60077512632"
"1047","95.9255082473722","-78.0450635127433","28.1494791033591","-1.5379698593074","-2.93309488753234","-839.632615276239"
"1047","182.370442228238","-132.160690173264","22.3442919122628","-1.2177781034606","-2.9789730380094","-839.662177915804"
"1047","154.877518629075","-114.603159010374","23.6619245887931","-68.1666544591479","-15.8335758123454","-843.975743998214"
"1048","25.9447954731021","-194.318489977096","-124.743259187352","-45.9797944769212","-12.9168310941129","-843.980762808087"
"1048","62.3754639113268","-166.119994985663","-80.7516969172193","-3.69946142128144","34.7687432091675","-852.557658712936"
"1048","23.1508365134634","217.4780031387","-13.2764924394784","-14.712963320031","24.6256423056694","-852.521053447821"
"1048","40.9381884728796","97.7647891185079","-25.7218983461319","72.6396185021421","20.6146298966242","-849.272478006423"
"1048","-4.88010860192033","55.7665202173329","45.9199889296168","42.27205749827","19.0285054265457","-849.256271577792"
"1048","12.1904946673582","52.3340360024094","22.682104978049","-3.70433734155537","11.9830542175438","-850.312753898075"
"1048","16.6350509218066","51.4813975883256","15.9476698358613","7.43616495377805","13.1969839126646","-850.293666554608"
"1048","17.7922496445082","51.2695998874037","13.9960026023535","10.0675208816728","13.6770232139752","-850.275944519487"
"1048","99.8564729221276","-237.796562498097","27.1119681661555","10.6890398972174","13.8668511189428","-850.259490132871"
"1048","74.2229736298911","-144.601383388486","22.9130293815694","-144.378801640029","9.12824439810573","-845.958094676488"
"1048","-101.195818543106","64.2178642779297","-192.078322087515","-93.0053982905049","10.2543982696198","-845.964375933713"
"1048","-49.8684100503666","10.0891333099526","-129.383707363446","100.800541914708","10.699727286467","-839.541030829686"
"1048","-27.8064594607616","75.4652869437542","-54.7780848657924","43.5769706699736","10.8758292724057","-839.577144459928"
"1048","-27.0623402324255","46.7049013055254","-66.1570660587381","19.478104364885","-0.286435562774424","-844.968322454854"
"1049","185.367095167656","-167.127735788024","69.0711220739728","19.7860185839772","2.29953137249341","-844.973872124094"
"1049","118.67589479488","-102.244344388326","27.260811818243","-80.6780100748688","-20.7462312326987","-855.694319938198"
"1049","101.311962949136","-86.127133505638","15.1440105088466","-47.4073366656798","-14.8595034622448","-855.647939362468"
"1049","96.7910347388418","-82.1235744894822","11.632511238131","-39.5488953333717","-12.5316415627523","-855.60487636664"
"1049","71.2590358483939","-65.3647040183541","-37.2706196908943","-37.6927531563314","-11.6111062102757","-855.564893645845"
"1049","78.6114438701225","-70.2017550153513","-23.4429498470234","-21.3801126785638","-4.8288571753846","-855.527770869518"
"1049","57.9104611889101","-108.186834525718","-10.8846545158264","-26.5271119715158","-6.14686817626101","-855.493303467228"
"1049","65.5206878693818","-96.6224315815635","-12.2452084466124","-29.5066217712719","10.9820676936138","-849.032124435374"
"1049","72.72102106815","-76.2338296356338","-65.6555740539324","-29.210373771493","6.75557561603939","-849.033110380147"
"1049","71.5957225914576","-81.1692454627533","-50.134119512404","-18.5575842687531","0.270568615759022","-845.819437267775"
"1050","111.314383581723","-59.6244515319558","-42.215545909586","-22.0414247578492","0.706121727342647","-845.835636621642"
"1050","98.655659770849","-67.2726661256164","-41.9207104392841","-29.9195093044208","-11.9581027016924","-849.065265776645"
"1050","95.359794405141","-69.1725034310174","-41.8352658972378","-27.7802911545139","-8.96607430910036","-849.063881137483"
"1050","94.5016724750661","-69.6444281845389","-41.810503714594","-27.2750137253108","-7.78289934859461","-849.062595540883"
"1050","176.041180493903","52.8501540489249","0.951568787693692","-27.1556685895783","-7.31502177409239","-849.061401902379"
"1050","150.271064677432","13.2781414160069","-11.6558052566734","34.6056168971283","10.5201302031807","-852.274882177251"
"1050","258.377507092529","-1017.73286859741","265.162645312548","14.193462253789","6.57290593504552","-852.258503779456"
"1050","220.524442335696","-690.838807456146","181.385780319362","-320.458947954134","40.3122726721077","-819.025882079475"
"1050","565.554813514376","-1630.81864809088","-114.814243187458","-212.502924611611","31.6542496417945","-819.170373558911"
"1050","451.388012142842","-1281.3121969046","-41.6542384115744","-343.982454904062","53.9034212414779","-821.447588655477"
"1050","849.613844679095","-880.957930714982","-13.6113822045593","-286.037557471276","46.7016875927992","-821.561915669746"
"1051","707.297181861865","-960.508842176868","-9.48444617538185","482.556447540882","138.522713559959","-834.52641906058"
"1051","670.243165442018","-980.269504933272","-8.28844299874244","236.09623251811","115.83264265063","-834.563577863521"
"1051","660.595664540416","-985.17810730371","-7.94183631804314","177.88300921829","106.860026007524","-834.598078715459"
"1051","-1187.67087380113","2555.33228342026","-555.104061148522","164.133206368197","103.311872731765","-834.630111738328"
"1051","-607.891395026492","1412.80469336445","-393.673943116083","982.817625600825","377.892685456284","-819.658440300749"
"1051","-684.830602031161","-6.0373049388927","176.429105524085","710.188628318114","314.473587648031","-819.757685199939"
"1052","-573.862737293792","289.518483953253","35.647333372738","-906.352015356364","-95.6988323416768","-816.635242627023"
"1052","570.136419696768","-1195.98623380947","-299.305494727318","-408.174458604502","-17.8984083963128","-816.73614684447"
"1052","226.991658207089","-674.989645729158","-224.376213439638","-394.570655833141","-115.497426229296","-817.901362943585"
"1052","165.483592279272","-869.618173198497","168.451103076522","-332.357475124106","-74.0922184297466","-817.983231704922"
"1052","133.469157709728","-732.964428740018","65.2940885510768","-181.850081073506","-19.2094608657432","-776.269593504832"
"1052","125.133778276784","-699.019266968519","35.3987579249655","-223.300649546264","-21.5064901740178","-776.539711447185"
"1052","122.963552526264","-690.587196466102","26.7349671264826","-233.091159540691","-22.4148330118823","-776.790507985209"
"1052","-559.53913457977","-233.077354325705","-104.040524334904","-235.403651009028","-22.7740303055901","-777.023365169509"
"1053","-345.237692668463","-379.430665279236","-66.9398041174344","233.221678241237","65.3345945210385","-762.238153039296"
"1053","724.766784706492","1034.53732239664","161.007011767926","77.9096890144012","45.1764827055115","-762.510519902775"
"1053","420.356534417522","557.770816009109","100.066944361082","286.394008574486","-140.900780822119","-797.052348849666"
"1053","302.827308505448","-735.981055933764","-295.547023366869","196.637430065215","-103.483624979086","-797.123417662973"
"1053","294.22702755064","-386.352539454461","-189.197591919506","-523.028718088987","-2.04118507078479","-804.69010953581"
"1053","309.38419957625","-754.919157995264","-1.03906717555955","-297.01187817002","-15.9265407280784","-804.715559639103"
"1053","303.330568820705","-586.472108406682","-38.5099463666774","-100.759300391262","52.3922490634491","-812.239895885946"
"1053","301.75442637206","-544.629403174749","-49.369162556898","-135.404982586481","33.4083969093467","-812.22602004046"
"1053","301.344056939444","-534.235561398341","-52.5162084445724","-143.588197203163","25.9013763950065","-812.213136727416"
"1053","-356.345512686173","755.770298236209","-50.007843688842","-145.521049934576","22.93278200514","-812.201174951454"
"1053","-149.583649034036","341.211262111741","-51.2809091798471","390.218453704342","81.1275041522343","-805.760891729483"
"1054","408.744206538631","-1087.72547114788","269.866971480508","212.758647434942","67.1401661471897","-805.781278817075"
"1054","264.112212775654","-685.677241872851","174.936959172407","-386.518540759938","5.44946414300973","-815.443973225252"
"1054","-359.802244740021","403.845095110079","-286.963898693465","-212.06616040984","16.0543433988067","-815.415499827479"
"1054","-185.246586082225","109.485406717374","-166.824682915546","291.25533319684","87.639380747194","-806.816827029933"
"1054","-352.034416911167","388.436712924147","-253.431745483385","148.138482333982","73.9471414446467","-806.833213092837"
"1054","-273.459824026728","256.728976031044","-207.530831395601","206.052420095549","65.3235339918342","-797.204661469682"
"1054","-253.001894524391","224.01241599011","-194.22855613097","167.731532526634","63.9133937563136","-797.26483543576"
"1054","-247.675403299191","215.885533498911","-190.373501591585","158.680244533193","63.3557644832757","-797.32070518747"
"1054","11.1776707388929","126.286929767602","72.4036746744205","156.54235526346","63.1352542118034","-797.372578603161"
"1054","-69.4265242593211","154.03039292544","-4.44240984433596","-66.2017556687573","-50.8755327942593","-795.277682516795"
"1054","290.56758000677","-697.360722754025","-129.324475002585","7.18669943253012","-24.9602347800798","-795.332633323081"
"1054","165.296783505973","-418.848591360048","-105.515815401027","-261.215196436364","17.3789250058484","-776.096122327081"
"1054","57.8764987405181","-433.742089928666","12.5467633212337","-162.610984259024","14.121624985431","-776.235589555953"
"1054","72.9082136730446","-389.441675477959","-18.2382117315033","-96.9896750258675","70.5976231022202","-756.006020053161"
"1054","-168.466875563332","117.264698296363","-28.8700210271515","-105.490102702345","56.930628700294","-756.223461764626"
"1054","-90.3120571665069","-39.8680604027971","-30.9511634536684","215.278024245399","56.3397920317407","-742.495466333811"
"1055","-69.9634214773381","-78.9002650070805","-31.5542871598648","108.042571475663","53.1061501472881","-742.749427703159"
"1055","-64.6653863349862","-88.5959707840503","-31.7290749112178","82.7138531786139","51.8274309618687","-742.985223339945"
"1055","223.754105023403","57.8813583633985","75.9626095975923","76.7312797478958","51.3217711474591","-743.204152630137"
"1055","133.847915945055","9.26672528818054","44.1721063912362","52.3887765565793","-5.03770335224634","-756.265776147246"
"1055","-134.849137854789","-330.357973210314","-257.484404103123","59.639144414849","7.67536943128294","-756.393108121322"
"1056","-63.8079525597834","-227.721671971826","-173.905711885575","-166.178894338046","28.748233509528","-768.298156722548"
"1056","-139.251834102815","379.303761470765","-33.3909422723938","-90.5164925132118","27.0813379630993","-768.351643018908"
"1056","-104.894641699158","198.090530024213","-60.6691792903743","184.869960717929","24.8176191716062","-773.75895102164"
"1056","168.475504859507","-176.223618209592","47.7187924803391","103.915481733191","24.9224487252454","-773.779476927115"
"1056","87.6510207742481","-81.2042706279219","11.1300762101511","-63.3651745994777","-44.0320729861777","-782.370770712601"
"1056","66.6073024833901","-57.6012062708962","0.526514492955","-18.8764044340141","-28.2996162035487","-782.347533454762"
"1056","61.1282934366035","-51.7381408929419","-2.54644166817703","-8.36827957606416","-22.0783353565714","-782.325958346613"
"1056","409.368765633461","-503.945435122765","193.235525959737","-5.88628945542053","-19.6181769775125","-782.3059264954"
"1056","299.037756315242","-357.274956847265","134.973952132622","-178.152720416853","-53.9455926545292","-785.501916045706"
"1056","-183.733588767138","539.192653506492","-254.733189489288","-120.841576472968","-45.5201091225137","-785.46929802632"
"1057","-48.4294629789119","270.877645981125","-149.671935339383","241.928103604468","108.640096645256","-740.43477369595"
"1057","-13.2012528776914","230.501427599023","-98.7023979396186","129.613301886067","75.6015821119172","-740.621546869007"
"1057","-4.02912468347688","205.471865144419","-95.9312146183909","7.83950649355578","20.8182548628773","-731.151194649336"
"1057","132.310996101659","-257.912436416351","65.6302959605327","33.0768717510851","25.1546031359289","-731.358252092926"
"1057","90.8089411366986","-112.018357159214","18.4514917602574","-248.461981543781","-0.408099581796819","-728.335910285831"
"1057","80.0033348521839","-75.7778710934113","4.77887864131235","-151.960682491985","6.48332328927326","-728.529755110269"
"1057","77.1899530262834","-66.7756357938495","0.816498655868468","-129.167341709149","9.20848425482242","-728.709734309206"
"1057","130.386193996348","-695.114476994838","66.3658227608942","-123.783617457276","10.2861285130683","-728.876839684052"
"1057","113.236535533026","-491.195554000116","46.3622887351446","-166.607065556633","26.7578505299765","-725.817403560154"
"1057","-127.819213670002","391.467169230772","-233.066154826926","-151.721845933846","23.2714682132409","-725.97680740613"
"1057","-54.581250892154","135.72299019986","-154.04567662733","128.711034750206","65.2158592882475","-720.767161617958"
"1057","-65.086609517953","215.826417588418","-117.463647506297","37.9485080168911","54.8024509718294","-720.930159245491"
"1057","-50.8218179138712","153.724326803648","-114.86202375266","74.7161404146367","7.36149299453733","-739.297499419417"
"1057","206.879186604179","-278.582154169557","108.217398459823","50.4005538189579","15.6013255709557","-739.351032732349"
"1057","127.97503514221","-147.968259758207","42.8667401803423","44.6572793029085","18.8597049390511","-739.400736833584"
"1057","107.43130072637","-115.52341316459","23.9278483862492","43.3007336963729","20.148206374968","-739.446885624764"
"1057","102.082469062525","-107.464025032665","18.439279000239","-124.580940550038","-14.6425321638438","-746.990439992471"
"1057","102.429467171797","27.659342205785","-20.7756399310028","-69.2341291587998","-6.40026614743187","-746.99440760506"
"1058","101.519812696939","-14.7756458862359","-10.1402860708583","10.8631398668104","17.7183239929338","-737.35432581727"
"1058","21.2596776599815","-242.514675101408","-94.2781049057386","-8.21810601677884","14.2558377436169","-737.403794365752"
"1058","46.3628950721419","-175.085669325002","-67.661593743603","-19.7802547156256","32.1413146987648","-726.73442934316"
"1058","153.797784718652","-21.7115330393653","30.6923617725901","-18.511202361555","27.2139910618727","-726.828238783305"
"1058","123.769872359147","-61.6129804646742","6.19574597839376","-122.27581835675","2.80171219586293","-724.772279058071"
"1058","244.684836099957","73.8579657480656","67.5043592384531","-87.7847345767173","7.14806146358385","-724.863381126616"
"1058","202.166638463543","24.5093172185454","45.2718496225973","20.8987214690027","2.44856205029376","-724.947966708748"
"1058","191.09646605945","12.250978713607","38.828776132425","-10.4305458522929","4.59018061030375","-725.026501925552"
"1058","188.214200961943","9.20597409080028","36.9615467140172","66.8320999164818","15.0644129006192","-728.314008089699"
"1058","-47.3872077450831","-305.08632652452","33.0000241791938","37.0813238346584","13.2063687079589","-728.366360545518"
"1058","26.2708643741275","-204.15738875703","33.8519585192272","-68.7186818447386","63.8174616375459","-727.343438744774"
"1058","-8.48002897871163","-193.099144368868","-143.761516063159","-37.7083514965639","51.8312349113481","-727.393686040227"
"1058","13.4721185252379","-182.352246388484","-91.2346376023936","-132.684356868992","29.4412390240404","-734.941045748201"
"1058","151.400048718359","-18.5357379087619","-29.8368423584367","-97.1174274899811","31.5872847750504","-734.94854650693"
"1058","111.311400832446","-69.8432716816414","-39.0435066655001","34.7495761610022","32.4359223090329","-738.170099273052"
"1058","60.8621464245434","-47.5562570011358","-5.7975232558976","-4.1038011327589","32.7715095926427","-738.161215945155"
"1058","70.7270189967723","-62.020101942001","-17.1626993848062","83.7282899033578","18.4631968583554","-748.868263147349"
"1059","73.2954684181903","-65.6129603616598","-20.4563745610484","49.4739876538167","21.8050829861044","-748.809440498927"
"1059","73.9641980324941","-66.5054361643588","-21.4108952867765","0.815752490483433","24.7311641133987","-754.112472960778"
"1059","-35.4588101672627","5.08835891409753","-6.295756676854","12.3228114952136","24.8882607274531","-754.03618210382"
"1059","-0.948530641876947","-18.1275476795771","-10.915326821629","4.45793056532922","29.7640561210678","-746.46464171756"
"1059","197.65709015517","-255.105283024652","11.6886445306359","8.60026737309535","28.6921524708743","-746.43468991264"
"1059","140.366677693339","-181.971196976802","4.23936917255957","6.05107039272329","15.4318156857547","-739.977703479684"
"1059","50.6459807101116","-169.059282945755","-122.763758971789","7.44895709407218","18.1881159632281","-739.982582128805"
"1059","70.2860162940959","-162.851928384777","-86.5697922201543","-83.9386092845546","17.6735164505534","-730.343346211549"
"1059","35.3879108115418","-49.2077786866072","-50.4276927591173","-53.5241005085014","18.4700219718269","-730.393600125859"
"1059","49.3017296998277","-84.9782628312193","-54.9535624454392","-78.0887270139556","31.6214546532572","-726.154141358256"
"1059","52.9243755892372","-93.8637483753246","-56.2651782503917","-65.8908240700932","28.8220890730278","-726.2179290032"
"1059","53.8675791299347","-96.0709271497388","-56.6452899502492","48.1098606661642","42.1561193452853","-727.348683460093"
"1059","5.40332313917474","27.7442105460487","-31.1025101058436","12.0365081020227","38.4289605990051","-727.398555603624"
"1059","20.7850161770201","-12.4997725186022","-38.7001065749609","37.0283340631019","32.1414111816796","-734.94556699411"
"1059","68.280763357626","-167.879061631193","20.6651291587027","23.9313344528732","32.6550473985213","-734.952744350329"
"1059","55.6469063029761","-123.47569962138","1.86942067604922","-39.1314344844438","11.9989124623482","-748.889291956756"
"1059","66.2746100238703","-105.439394615831","-60.0141167336535","-20.0266866439607","16.8306003909058","-748.82896512788"
"1060","61.0416725756743","-104.959127400326","-44.9482225207114","-13.7503951186629","21.9503699296345","-751.987541980571"
"1060","57.9395715946312","-61.0498957086647","-32.0310846321469","-13.2679523640659","21.9749440067995","-751.920187375536"
