Timer,AX,AY,AZ,GX,GY,GZ,A
"0","-798303437551481","993158133617509","-263301542922662","279206277234653","185228103222732","196283613176189","0"
"0","-186082595499365","266981729807893","-523487075044493","29082659203962","192891773910431","198252749458005","0"
"0.08999","-151255698477111","224551164780693","-453416330811436","705938384895921","-645145252870411","-362297569474601","0"
"0.17998","243336473445994","534769002422463","-112754413574995","450903208722814","-557803387042114","-304795322468571","0"
"0.26997","120029189665916","45020461706453","-191785442320251","-74711702955503","301741813407309","-136541625483826","0"
"0.35996","-348921167514305","-169688054873415","-317985303329772","-420860012549601","202647739932863","-124709472045258","0"
"0.44995","-213849091255289","-119694848251892","-299122375007782","-167330790237298","-118762380769266","279014889064572","0"
"0.53994","-180746313081473","-101065505713521","-292973625617446","-1379980706754","-11270724199718","253934682471819","0"
"0.62993","-172633651960038","-941234595517009","-290969314494449","-408561434691759","235742283647452","-158073517351","0"
"0.71992","303184325961873","-58989387590564","-17313390953745","-361277966490595","159943522843725","-139720907416675","0"
"0.80991","149795385109818","-658969954648316","-204723032676155","960721800695821","-253417352626131","-12717637373469","0"
"0.8999","-273879914019928","-263754144411618","-33220221634442","54229379041024","-23625547850081","-118596247420576","0"
"0.98989","-157712109647326","-217483810929487","-303756681511552","317717472807198","396397535257667","-112725882354574","0"
"1.07988","813487152653276","113150905792138","-394926038023879","266447515884809","269064635647275","-10870891334484","0"
"1.16987","199365309585361","-33425080290494","-364644567281196","-495994032192102","150385382522206","157168705022962","0"
"1.25986","488594399265304","-115191461840983","-220851345774414","-279971842513364","134200900070302","139124039398358","0"
"1.34985","119742239755713","-105660960049487","-253978984009134","-15803463084094","123215154171936","-136352281233075","0"
"1.43984","293458214078486","-102109505261398","-264777619907933","-892052016383556","115758181474086","-124878204602902","0"
"1.52983","719192522085973","-100786087944265","-268297657661563","-148588715441372","-15354573498091","145377513711631","0"
"1.61982","-701793770665716","111263754164603","-302925674586175","-127426685808931","-136346260808944","994912869730357","0"
"1.70981","-473962088182293","602821986858505","-294213389817092","280719474851627","13957071864861","-25631813556565","0"
"1.7998","-671412404571733","-121451523912578","-308113735243944","158456645104439","126860176487183","-238542171387255","0"
"1.88979","-167439648381672","-891729423016139","-302644839093503","-42171580936326","-146009758505918","-948134422420274","0"
"1.97978","-543005287365085","855912872368036","-384563610090913","-368704455999951","-131230928272321","-964505002538524","0"
"2.06977","-435047011246452","507155874425543","-361266720497106","-195227957115006","143042936856059","-360697800598233","0"
"2.15976","-935066663983406","517229324711161","-219750267053231","-19730634325863","129217081918676","-341539464169436","0"
"2.24975","-757608946970333","820099899898955","-253620064724827","519287396126046","11983224052756","662622662196326","0"
"2.33974","-714118508829754","932961864353085","-264660622775785","423780315288019","113461911276037","453475910631187","0"
"2.42973","-703460092608159","975018848636049","-268259520036952","-60790351083123","109137800390862","-100529162373749","0"
"2.51972","122956959152902","261805009879331","-386614713163762","-343140962794473","106202640492846","-100362140329818","0"
"2.60971","603306712218327","223031074655447","-355195025718883","-450029297118337","-292152945371104","162879117663477","0"
"2.6997","-148059219458032","534054139959492","-277991955295455","-384686461820512","-262552426851551","143032281850652","0"
"2.78969","-891303579933428","449954055687503","-29282602460444","-606958750247514","41814547121157","-211367946692095","0"
"2.87968","241198140819186","-120874417319016","-146998848402991","-778141513488553","380195873459623","-144652873552632","0"
"2.96967","142153375595581","-826842978039866","-189463477218604","199629928096816","-419271357147211","130573522980921","0"
"3.05966","125844823670863","-359059152527973","-32048775592958","156237723324774","-284596881779031","120923456101338","0"
"3.14965","408303945159393","-384743765652227","-293197817832506","-118090916547384","-15143920680723","-172441910950399","0"
"3.23964","477527595486384","-394314903065131","-284302100512633","-666583266577005","-134916379592785","-118013248131641","0"
"3.32963","494492576965264","-397881500347851","-281402358257682","-376263699420255","140541291525663","-807641637570859","0"
"3.41962","-27827251376034","-186383374820078","-246976539424961","-21238812703538","127518992067604","-552721855439978","0"
"3.50961","144165251590735","-151010751674381","-255754734826076","142354524494354","118679595442525","-266909590104238","0"
"3.5996","-164668710598447","574536262452826","-342317638713131","123907695966128","11267950821161","-245790597052892","0"
"3.68959","-403561732479801","151359801554735","-320534599873959","-300582981774122","-235143633573178","-997740155536648","0"
"3.77958","156954227366883","-130822033478162","121813675899043","-169668922662697","-159612966028769","-998453441022993","0"
"3.86957","106408802798557","-105211959393879","600620591550519","133976147016417","121286720741402","316693180712489","0"
"3.95956","-27451287778109","-111942189251906","-651134504195078","119178385371254","114449196786371","216733801609196","0"
"4.04954","-157867233198803","-104450148179688","-495343051525969","-606941368417541","-418676348740154","146395984761245","0"
"4.13953","-129280309646191","-101658307233577","-444559619226966","-516811400387709","-380556227408919","131751798804395","0"
"4.22952","-122274371266499","-100617953104008","-42800571365716","-352759322563926","17380360831048","121729827106869","0"
"4.31951","212878371308201","-149051047529761","-878037459458685","-634654537672473","150097094473941","114871138136245","0"
"4.4095","105015907302291","-137099199543517","-176907908598821","351282665985663","-394478939709165","110177289878085","0"
"4.49949","-342600494892401","111458412512807","-473797950417471","285393946137033","-364131286758993","10696498333306","0"
"4.58948","-212300054753878","540811453725782","-410575373572823","-326011541232385","-792894728212078","-553050792336864","0"
"4.67947","258364583610501","815208016945405","-105381673578183","-27112925128952","-859419171984611","-504742640772498","0"
"4.76946","123712688411353","617459399884228","-175897502038437","621170246027818","305905706131756","-208555267588824","0"
"4.85945","296663085122999","-108358892081059","-29932535288346","524843120349318","271887652743106","-205854927675229","0"
"4.94944","233747988620332","-717469102092566","-279559202685943","-103743817194831","-154455894829834","190683521928631","0"
"5.03943","283763292737593","-581037882452015","-273116018973551","-58559874522737","-104842997957439","162060649385268","0"
"5.12942","296020790052481","-530198029647041","-27101573055437","-320161834947004","-711662978794928","109086736680051","0"
"5.21941","117648732879424","-213861211859999","-169889333905649","-267827290022533","-483069165565895","746551696901646","0"
"5.3094","892267606950175","-173797299617078","-196925102364911","192373940614639","260963132481707","51091402411403","0"
"5.39939","-198526762929138","-93773483301201","-38988120256486","152141963905234","241381117770224","349651793867373","0"
"5.48938","-109047938505785","-103953336174243","-342779217079148","-157674392870299","-361530968744891","133956372257146","0"
"5.57937","357258330883388","-26378810856294","-193503002397501","-132555243300109","-245403327981952","123238560525967","0"
"5.66936","120625548906574","-474713697370908","-224843346092494","312283817521773","511826594294449","-156598141218376","0"
"5.75935","453941243196405","-104152092840187","-251799670593645","263380415747191","475906687861393","-107170323007381","0"
"5.84934","2622346332099","-952736486470843","-250586639691633","-513306670706317","187282488271262","-138897841232712","0"
"5.93933","215252148575863","-9196517719089","-250191227288491","-289744247329889","191367490003093","-126620330080331","0"
"6.02932","203737919293195","-907323054018264","-250062334472735","-734122000419215","-33434396272018","133454486213407","0"
"6.11931","-325561449722721","-902728869457829","-316981495462452","-632153947466708","-291191235042105","913316102157961","0"
"6.2093","-155279457220463","-901016888377349","-298795174091184","573830637087408","234252571338782","-125313059104646","0"
"6.29929","-640025129328705","401508343862235","-326347556247704","454568129281431","159008122580589","-117323377528261","0"
"6.38928","-458824142533545","868825218274628","-315328822613412","-186965055430332","265321483963457","197079596973841","0"
"6.47927","112061197242543","783319620370636","-294996745405956","-149088831234146","244339519817632","134874423805565","0"
"6.56926","-480291162541304","542840569249808","-29836908613022","-271262367865881","-166266042402078","92303366133318","0"
"6.65925","-438248252500795","-117413085895375","-28272807597347","-240225195421352","-1449806759131","631692144377473","0"
"6.74924","-333881181244916","-8139446413871","-287629566608708","-22270576175256","158867859739817","432308139978195","0"
"6.83923","-30830342822991","-67972452423419","-289227308420433","-212816634235426","107837792222529","295856659853805","0"
"6.92922","-302034962118672","-629708618655551","-289748125267165","-494341323576599","731991319734174","202474011209377","0"
"7.01921","-125006211524019","-611070646465426","-239697014050803","-45325248501874","496867824464084","138566173347163","0"
"7.1092","-181620902299774","-604125375689237","-253381823618985","600924885061938","337268528098567","-130615178240582","0"
"7.19919","-195495743859071","-108974501299397","-308063551309789","-432141818429825","22893424457191","-120951963512749","0"
"7.28918","-198896119727203","-970706752871569","-295888186542355","-211499710667316","155398099648343","172246816137997","0"
"7.37917","-199729466615897","500672303514461","-291919375662237","-206491197566609","105482556440923","117879732025426","0"
"7.46916","-199933699048966","-16955063137453","-290625660023895","-347217444997352","132192677399377","-255059674906719","0"
"7.55915","-375476257980109","-902332868587836","-306944240833703","-32665265004792","12185204271126","-237680927107594","0"
"7.64914","-318497338881715","-775397502739589","-302263618306425","115615631692036","114832931251129","-942240394124493","0"
"7.73913","-304533234090582","-728096193461016","-300737873002951","65261112110785","110068433986144","-960471334012675","0"
"7.82912","-301110982041873","-710469790885851","-300240524900748","368376896065501","-157407809397006","-228858272491283","0"
"7.91911","163014529964411","272513986224781","-23311722778729","207936293400104","-138967802750309","-219749598304701","0"
"8.0091","100344780384617","388139479904875","-251237006785133","117373001876008","567015214309492","181174492460872","0"
"8.09909","-195802014996532","114463664605618","-307364404093369","66253088117125","384883820855015","155553000241941","0"
"8.18908","-108380171088249","42653843272819","-295660285109229","-139813620957904","261254992489671","138018541814335","0"
"8.27907","141184990152328","-472313162625491","-241624204303775","-122473441894009","177337075248193","126018568131214","0"
"8.36906","723471553692814","-364210932419428","-254010030969661","-256238881143726","529688052872354","-137572735763413","0"
"8.45905","-313057536421576","164280109472372","-39196979875449","-231744945502543","488030853580437","-941499970182526","0"
"8.54904","-197510565512356","612174882432708","-356940626147488","-217918947611778","-332972066517364","-138006775393066","0"
"8.63903","-169192899336764","228121400627947","-34552214596067","-210114639619965","-290260006674628","-126010515601611","0"
"8.72902","-162252949190757","850073645910758","-341800057196556","368504162604889","135095710476212","145326261399793","0"
"8.81901","172883621321983","-647775916927067","-240145001326752","295114898270707","123822590298843","131019717329587","0"
"8.909","650171939490677","-492331441281388","-267008442425924","-464077776279467","-280192713197007","-273461614856889","0"
"8.99899","-18955842221815","-271670561842636","-275765134266236","-392616352961553","-254433950061784","-25027457498284","0"
"9.08898","-121948524341488","-289443292600018","-278619558303094","-651720302574649","-104828102085226","-102842694143154","0"
"9.17897","-35182030464052","-143521750733462","-296290310665021","-803407895221908","-103277263697947","-101945441032459","0"
"9.26896","-53917737774129","-116217984468171","-292050456301189","-519563191698807","294138659625441","-10133139220056","0"
"9.35895","-234108886551153","404188344146575","-374369858779297","-467489376164664","263900308302897","-100911158530193","0"
"9.44894","-35934424645513","878811995519024","-351203563267055","136118065161386","-285109466819382","30939911734656","0"
"9.53893","-390036293916305","-299877802514219","-343652032168212","768340420823239","-257771389468391","211741998252649","0"
"9.62892","-397558145397239","-739105832525351","-341190455093593","433702169929388","-107093520011007","144908861436101","0"
"9.71891","127075957397386","-902780161996403","-256686583031754","244810200145298","-104815004987957","991705863550594","0"
"9.8089","-443493749123563","-963771911833314","-279140805697161","138187074565338","-103268373529373","678689011875443","0"
"9.89889","-113931646686233","-986499932532652","-403642280437864","780019278836936","-102218536752137","4644711620352","0"
"9.98888","-807665453764437","-994969322676251","-374226100058889","-569810589529524","-233626995830327","-259948274765781","0"
"10.07887","502061442880858","-913492085176749","-130273173379509","-495852332065302","-222825642614922","-241026514876858","0"
"10.16886","123042674570028","-716819973521466","-190751693067758","-234452473610351","180869430547965","-22807712030942","0"
"10.25885","-154927788488183","-318060080837391","-344388264543256","-567874324477783","15489329851153","-219215004911722","0"
"10.34884","-105912173425751","-369465834579109","-314469268940514","-506268118583495","-259102251086333","-815866043128777","0"
"10.43883","-938996748391833","-388621721042949","-304716556185","-459984757244183","-240117971520292","-873985122166951","0"
"10.52882","-909557125506657","-39575998786147","-30153745861921","-3199214992522","169131583921247","-913759799088096","0"
"10.61881","102807536159878","-886627727324742","-250280284105656","-453592322220546","146925774635115","-940980205026433","0"
"10.7088","402940513918006","-769545124726692","-263571952504975","217949631796765","-13238944350923","298729540415509","0"
"10.79879","-978711913879291","-237707628762683","-351606115864297","166578576196498","-121985605427504","267567064681472","0"
"10.88878","-61732029031001","-339523224326413","-330302664348589","-1495254137102","-114923592184477","114677072841301","0"
"10.97877","-704244768990513","-865671609011916","-273137483419986","-127955420293716","-110129973651304","110044478337783","0"
"11.06876","-625547779795493","-761736017887402","-284503315461403","277734947535992","421608190887237","-246893852195032","0"
"11.15875","2712014129798","-397533545901107","-28820824247831","156771980423109","382546330283121","-168965568061118","0"
"11.24874","-902783851488355","-461816808076917","-289415939737129","884924784001077","223910483015858","-115634159929037","0"
"11.33873","-77705003602116","-485771380904546","-289809613529434","499510098185835","21623017836098","-791359985109955","0"
"11.42872","-945360552473738","-494697834540094","-289937939609183","289926332704959","788957933002062","257711161318338","0"
"11.51871","-986609241048102","-66076010603635","-273239476073225","250760372057668","856746917794395","239495512216792","0"
"11.6087","-996718260644534","-622641700744457","-277796268002774","-345561021935922","-173966018892147","-360975985832463","0"
"11.69869","-801889599519687","425064152347002","-346242824430179","-28216427166894","-150207337027653","-247039413741351","0"
"11.78868","-573985573432277","-109632190584554","-328554389056344","407278159747919","-530443430581619","-543160426340928","0"
"11.87867","-167146996103244","-980004806740322","-272567597085257","229894740482691","-488543595834248","-497974018168175","0"
"11.96866","-267441058946249","-804341243865361","-284317549274606","-274129986988676","683818686454144","-723595806680219","0"
"12.05865","-116528113015344","-106435363478971","-254667100035449","-24184386938719","464168759801341","-810838580533551","0"
"12.14863","-179543132874204","-961244886783875","-265001925497473","-510726215652018","315072755166603","-870544501569249","0"
"12.23862","-194986534655921","-92282234987969","-268370774687726","-46250120219485","21386799294886","-911405157979761","0"
"12.32861","-198771325315762","-908504541054489","-269468920457906","-148173046628209","-117603947945433","-939368770521634","0"
"12.4186","853256157453671","56145404796973","-186125413364715","-170745438442388","-11194937027505","-958506094663858","0"
"12.50859","511081722504765","20922074310222","-208957880887706","103619977355005","156131050101331","165966652513229","0"
"12.59858","-801224201047572","-898451252034245","-333582652329148","5848997112341","138101152290796","145145283351095","0"
"12.68857","-422837487583673","-71121514388611","-304206663048897","330156096280219","-402621656069655","-667614706595332","0"
"12.77856","208806243000227","334972146968247","-361592130644011","186361945163222","-369658474929386","-45689229254979","0"
"12.86855","-703751890760131","124824323131465","-340298105578031","-133033882378901","181200885327399","13125079575308","0"
"12.95854","82752805239141","-278957171100662","-199434527073123","-118646508865915","155118286446121","121386958038185","0"
"13.04853","202806382150576","-229422671491399","-233517142776099","330280602775527","269534776204949","-169269864851426","0"
"13.13852","497027605555437","-210964090856132","-244627073247067","186432224867012","247199457215008","-11584241007207","0"
"13.22851","121809007223824","-204085668710832","-248248583877162","-42013668254274","999174062545927","-79278517668129","0"
"13.3185","877761056749338","123949332240818","-316390266104233","-367813092341384","999439362551324","-542554610159239","0"
"13.40849","59257976574367","461885910204462","-298602450706352","-338278196097725","364204098485951","-398403485964809","0"
"13.49848","522688979904141","-209835506861603","-3430250281559","-32160674651319","343581050589476","-367343924352171","0"
"13.58847","505560500234099","-159749975321983","-327505482094844","262017257111472","-331023037097792","180166067498113","0"
"13.67846","-213102486099544","-108973298444426","-322446566453453","191453259611105","-288937026495203","154862869259882","0"
"13.76845","-127718584224182","-354287457062421","-32079750871903","806888702331194","268114812149912","598276321356332","0"
"13.85844","103797877840712","-109664518553839","-186337611875767","455461370518023","246235600907122","409439512554712","0"
"13.94843","405367593130637","-973278039395371","-222507639490994","433231076149295","-328579260027853","-12876141528841","0"
"14.03842","250330449165361","-927306394727784","-234298004862015","375204434469379","-223036062986849","-119683312602734","0"
"14.12841","212334731466496","-91017547957317","-238141317260363","-882097921880189","116981629225046","-113470574765945","0"
"14.2184","-498947093234978","398095478174138","-289615006277141","-497914430168518","111526947029875","-109218793004371","0"
"14.30839","-273264438901149","856107484776156","-276393915238953","259001182379386","107824367501416","-106309021399168","0"
"14.39838","-568940290831223","-519041572462953","-305564816474337","233304171084637","105311096393394","-104317674883934","0"
"14.48837","-441403030488133","-444359758987967","-29507367246488","649459228517772","-28515961943489","160172087337275","0"
"14.57836","291823181794377","-742002080136571","-291653868024935","584364677384378","-193563278571492","141179684418932","0"
"14.66835","715185467808099","-652915783287462","-290539112341767","116960854990817","118982210089677","259745421170558","0"
"14.75834","193019909755225","356696873312176","-256695146641357","153127212361187","112884919775009","24088768892941","0"
"14.84833","122796848168366","132919844761072","-265663009053379","173541897369123","372988298727945","-166708318198623","0"
"14.93832","105586936041747","495313709011542","-268586268486841","185065296303257","349543671110006","-145652853558818","0"
"15.02831","101369217977154","184574147506545","-269539165099513","335123248702626","201508633399894","-262806702599945","0"
"15.1183","-426141959039491","-155857922069099","-30333036950264","319825885459699","201024044104227","-242982723500391","0"
"15.20829","-255421725502485","-120814946487077","-294345308459225","240842742965021","-635470438429347","337110724294201","0"
"15.29828","329626765795042","549794093153569","266491444448496","571481415306851","-431350489741179","230706858528294","0"
"15.38827","216669769630276","204875767017361","-587161032107322","506471726655816","-161400683665556","-247338178663385","0"
"15.47826","-407687681374123","-275887595681725","-304166486495367","46009968711171","-141678122801499","-232396603551389","0"
"15.56825","-220702041964121","-209458049209812","-254176093625573","326408901396507","-392532814846416","-222171109056159","0"
"15.65824","228756216488184","124494545475161","-555946282811755","453958514120769","-362810278161458","-215173136159177","0"
"15.74823","108907169148936","589389417237232","-46431449050119","-217928961503048","-210513863388235","-341947443776827","0"
"15.83822","795351718796889","345102423831676","-434445220772232","-166566908515096","-207136697236139","-328707372028302","0"
"15.92821","723368316113457","254071098159815","-424708717189311","101085230136752","-204844313223369","750441035819482","0"
"16.0182","-315510815847737","-124447408500988","-421534903337133","875465606099686","-203288267643928","513575752438943","0"
"16.10819","-190562552135687","-902893314381819","-420500333351871","655491013967925","-701109636867548","-964161381335818","0"
"16.19818","226142649944192","851752749815022","-336461623637972","631322799786695","-797116440483429","-975473295477865","0"
"16.28817","108266649502786","505605642603214","-359067475550042","-53074640822234","310134748447504","-361448431525032","0"
"16.37816","-376902320801056","-108800611562084","-19903337787244","-386695156280709","274758281121261","-342053170003156","0"
"16.46815","-235805073782901","-781851039310923","-246866968061731","412383819349445","-277739191808047","65910703474971","0"
"16.55814","-16612717406074","-830501045152752","-49682342874892","363436863395242","-252768526166796","451069937746327","0"
"16.64813","-169050867441689","-748630027232339","-438301884604689","487011957167265","160544523670648","162433135142932","0"
"16.73812","-169767391401686","-718121537232518","-419225582123617","710435607323631","141096970617594","142727066921573","0"
"16.82811","-169942993463309","-706752825987544","-413007268480824","-347005081017263","127896181050677","129240919001442","0"
"16.9181","128351232231302","-281808320602523","-126395281997864","-282979394159064","118935627262","120011468271818","0"
"17.00809","314556696636149","-230485126414704","-202968202640987","614481241340302","-192677771228188","-149431800808297","0"
"17.09808","-273895051950734","114111814498676","-278149605227111","52106740353289","-130787596016173","-133829405753126","0"
"17.18807","-21810982491971","425227295314519","-272656531653207","-680088616012898","-887772116246442","-12315166906518","0"
"17.27806","-204438264132235","-146890201452186","-270865951199822","-558100546639416","-602610151414685","-115844197335749","0"
"17.36805","-201087707285676","-11747320698375","-270282274626605","515631276177872","128030624167956","-110843217761423","0"
"17.45804","150718443572143","-73964049666957","-320312895420614","421716559286032","11902688580209","-107420721222422","0"
"17.54803","369373124885614","-777507580209388","-306621406577294","-349062038732156","245036322143535","264849933624764","0"
"17.63802","905240939025863","-79161840439164","-30215838383224","-284140477189742","230570170440612","181254085867263","0"
"17.72801","22185186265032","-79687667464879","-300703569658938","396123148253407","-175612528466599","124043994249676","0"
"17.818","-350441310058342","-961572030980681","-316969637083682","223598113935863","-151324969994277","848913967141233","0"
"17.90799","-236869394011183","-922944257188409","-312271896737105","586834891394026","525766548005974","580967202778823","0"
"17.99798","-56002077763646","556073219118912","-360961453720945","505461974432232","485368978310807","397593753630039","0"
"18.08797","-439217081387861","207215626183489","-346832817511415","-114683818283088","615843121456326","272099340839738","0"
"18.17796","-585103630282191","23995292769443","-258525827258204","-647351349703434","739238448122273","18621532810677","0"
"18.26795","-520856766505419","152152185272228","-279740345229369","-180094176915433","-181942367259678","-13028908399279","0"
"18.35794","-680603977339076","-101971733092376","-353616830502014","-145210452796057","-155621596396169","-120728795947701","0"
"18.44793","-619754014361018","-756403844956309","-33769839225688","-41262653807435","126486813349747","-114186067216285","0"
"18.53792","-604841213749711","-658282469926315","-332509449493476","-363573869902801","117978963645162","-109708451160053","0"
"18.62791","-601186460136257","-621718432188548","-330818006740911","381881619568498","376446080845371","156482827488611","0"
"18.7179","-249305758276115","-445357266411762","-246565175821157","302666020086006","351890776371828","138654883252307","0"
"18.80789","-363068618777784","-47963788244504","-26910123051666","114398110915571","-193261407754405","126454058086075","0"
"18.89788","-399640308519372","-817884061655366","-293187615706724","108127246436256","-16330483918063","118104237559162","0"
"18.98787","-160779195553448","-743928423116068","-29103906898398","-389658279885257","-108495660817445","-282300520146713","0"
"19.07786","-190387963970703","-716369527231814","-290338705933464","-219948914487824","-736456860905593","-256323614438686","0"
"19.16785","-197644330912324","-706099955399835","-290110408174175","-155968755609665","-499898985718433","-370109400328874","0"
"19.25784","-550407697918233","-102774491240112","-306776283882414","-131592468778554","-339326047713137","-347980435914762","0"
"19.34783","-436861156518191","-947602979436584","-30220886927932","312827271162678","-230330866727286","193417765725443","0"
"19.43782","-409033745470908","-91773881721508","-300720026430089","263687176939143","-156346111726126","163931870771457","0"
"19.52781","-402213944567715","-906610208854872","-300234707442799","-19471089436503","-106126056829458","-119374204428934","0"
"19.6178","301427444408001","-739727324434754","-249855625531413","-153461095223983","-720372244235819","-11325903187934","0"
"19.70779","738723107991587","-777539935786161","-263433526297466","300483171482753","-264731134873325","-109074020408023","0"
"19.79778","181042516335073","-791630461402967","-267859522669552","256719350345727","-243938797213169","-106209944067901","0"
"19.88777","443689825949083","-796881167584371","-26930226733408","-342197380320758","298659125566388","-498940300659809","0"
"19.97776","-525390147499257","-147894156441732","-319993441861771","-280265609789616","266968751899274","-467711301664638","0"
"20.06775","-355237475339493","-306055050951353","-306517274111102","-245307220852917","377578744527871","799146472389933","0"
"20.15774","-489029827259524","-527728179166912","-268643851581739","-225574393152877","352659616280991","546908059763024","0"
"20.24772","-421818978967319","-510332653707193","-27629822955948","726708876176457","-606184505281992","37428486037014","0"
"20.33771","-405347284812634","-503850369401831","-27879333169226","410202571624413","-411471513723251","256147544731734","0"
"20.4277","-401310485468191","-501434805128545","-279606661615489","166707930811294","-279302432065535","-114033629603497","0"
"20.51769","-575813673819814","150408971954519","-313352371382016","137654369808319","-189587482865681","-109604128158044","0"
"20.60768","-518580031046087","-668737471706342","-304352480424905","-309405533142323","11925208282035","156554222523926","0"
"20.69767","372909033539028","-227963808865588","-284678486563245","-261755721604842","113068106478125","138703743532105","0"
"20.78766","913906564795787","-210420458970744","-288265343106354","-913056316669475","10887048993697","126487496362721","0"
"20.87765","-50407996101307","-11802985477831","-272694258798402","-950923232593047","10602119303616","118127121553065","0"
"20.96764","-350014882810178","-941714794034515","-277618543204078","-972297825364036","-160155032966038","112405571719571","0"
"21.05763","-13676488738183","-690072818977036","-295964009179026","-984363059750901","-140832588522026","108489941949079","0"
"21.14762","-184502659","-696300726305126","-291944091612118","-386224114847528","-127716721331537","-15731673282562","0"
"21.23761","-196201990189842","-698621499312047","-290633716696748","-348670595345675","-118813811937387","-139225579070466","0"
"21.3276","-19906920299953","-699486314259656","-290206573007791","-183919520642982","-24489168989893","471885449097137","0"
"21.41759","-72624940503106","-699808579682159","-273327042661621","-190923113503295","-230471995630628","322941994130699","0"
"21.50758","-55544805782169","-699928668960018","-27782481213557","235783746124142","4355809149421","221010272244364","0"
"21.59757","128885909777356","-21176568986258","-296031246785059","176645330297844","295667633960403","151251745902577","0"
"21.68756","-147826342789758","-329856196804181","-291966009094466","-143843071639453","200696005662607","-130528362592726","0"
"21.77755","-187213544445054","-211125640119908","-223679684894104","-124747930462941","136230287195789","-120892549901894","0"
"21.86754","-196866360259167","-266881778332375","-241420351262097","-257522752981119","141368242154176","14882881917546","0"
"21.95753","-550217036812389","200548933283046","-397865933387414","-232469647713566","128080317248179","133416746088995","0"
"22.04752","-436814430260415","747327354777547","-358862592653525","212332133334158","-130604600463253","-869421781314579","0"
"22.13751","117455226007355","-297623345527539","-145265121751333","163407688388464","-886529962141403","-59500203775217","0"
"22.2275","-467071750149827","-23637845157454","-195638627377226","422898261843206","-601766990585888","-135635464019187","0"
"22.31749","264045748885082","111915720492866","-212058908906081","369371910415489","-408472952323112","-124387672546691","0"
"22.40748","140203500947699","4170437507933","-217411437822556","-522162205489688","-27726704088091","-116690075143244","0"
"22.49747","-129408718314137","155407559643805","-403299439558317","-425403047901527","-188205881250234","-111422107122106","0"
"22.58746","-8455958767159","579112132683961","-353893461820853","490534524252679","-265519675204777","-239380369925341","0"
"22.67745","492765647010256","-113699335962947","-254087095610363","407550291999881","-244474049897769","-226950555940275","0"
"22.76744","120764508018116","-862841599883422","-2715531551751","736017335386956","-230188506095723","-218444023427584","0"
"22.85743","556073873777718","529981080586126","-260506282914327","850990717963596","-220491632814785","-212622448343965","0"
"22.94742","362757287507129","-105722556702748","-266905327406439","91588930217993","503326542874833","-770748878179433","0"
"23.03741","-126405232208845","-815812007484374","-285731521802129","952522357056585","34165263659693","-843108503177868","0"
"23.1274","-762742578468806","-680420381221825","-281868307563874","973200477015605","231910130204799","305427539394798","0"
"23.21739","413070913542524","-955439742947586","-280609013325559","984872576066021","157418098766372","272150942296677","0"
"23.30738","101233326538118","-85792320608376","-280198520435222","991461081041944","106853710087333","-408439788506782","0"
"23.39737","-852652782668594","-170640916753637","-330285594017135","995180069171693","725311476183757","-374212420854457","0"
"23.48736","-586426357150879","-314531424241089","-316612507122597","-187378836001822","137044413162111","175465507306286","0"
"23.57735","-696673440385641","-856358642075047","-31215548287171","-149322396366041","125145348694969","151645969300825","0"
"23.66734","-623692236943513","-758265625483849","-310702624031112","-127840823872249","24918946886084","135344705683832","0"
"23.75733","961636533390216","-70768516227892","-276748446643788","-115715203051635","233389281703921","124188687651502","0"
"23.84732","-127417712445384","-214578973024324","-285680383286809","321789450441145","-437941100054393","-146573057104761","0"
"23.93731","-105967443413323","-430904541180333","-322072520104712","268746023896852","-39363293312426","-131872980959577","0"
"24.0273","-78814718791444","-411516296114283","-313935286544366","-48301962821276","1649272813039","272877670896092","0"
"24.11729","-54611015950754","-241555533218447","-244321611433343","-272648236636966","144071939297793","249874944039523","0"
"24.20728","-586792950941827","-278221201157127","-261629600437118","-302496837638814","-134326596201079","-289942763316499","0"
"24.29727","280699250071804","-291884328745591","-267271495886106","-257855996756261","-12330052381206","-198426746042599","0"
"24.38726","-670015672413537","-296975768940021","-269110587894448","544490146663472","-115816144622557","-145143113531024","0"
"24.47725","-779104573867781","-136137138050582","-353411548129747","307346264381222","-110735828633696","-130894377296165","0"
"24.56724","-568401534792962","-176202085492111","-3308911821758","173486566851457","156954789097928","104204393134017","0"
"24.65723","-692256008250559","-191131923662091","-273329322925446","979272968828834","138660297450215","713138635240089","0"
"24.74722","-622609635058148","-196695392030721","-284565849498867","436187815384466","-137999960405127","136443949816864","0"
"24.83721","-790635347575075","-101244811669471","-304968920799964","376873413723178","-125793963872514","124940972115957","0"
"24.9272","-245854010542022","-81643094816422","-301619722062545","-230821093478619","-117508664881839","-144947428216856","0"
"25.01719","-111237668569963","-417915114077203","-250307099569108","-173844080796141","-111884693157659","-991969801188599","0"
"25.10718","-17824657755522","-469411814034771","-263580693557513","187089859221174","156174952232059","-678869641617909","0"
"25.19717","-370161288129001","-325865681020454","-267907494868663","105605895143546","138130952584319","-464594778750533","0"
"25.28716","-317194773000561","-372374520475247","-269317904860299","287702876760513","125882879952995","-13474300208056","0"
"25.37715","-128721501163032","-389705616380139","-336738833299818","249505306410054","117569020159665","-123776902626369","0"
"25.46714","-182531426659827","-396163891598048","-318716073361994","227944070403136","-152316492281939","-116272085445954","0"
"25.55713","-546703903918284","-235834599345216","-245880007349996","215773482224864","-135511871524869","-111136049506582","0"
"25.64712","-435953449451114","-276089347195927","-26213759167908","653502133955232","-124105075936717","239423518649845","0"
"25.73711","-584303795903344","-779297642035975","-284177380157118","804413678746064","-11636226593994","163853131522717","0"
"25.8271","-520660747148462","-666813635129878","-281361703089365","-341700336870389","285256701025922","-383476892244609","0"
"25.91709","214140888167487","260461457437259","-23022299297127","-279985045579882","257871330462113","-357128682600591","0"
"26.00708","-145736956976472","-11576596026173","-243553277279893","-101595468242055","-249597180948822","555935468216496","0"
"26.09707","-537686501718968","-494082770933744","-298119440161405","-100900587838255","-169423878326108","380462904837021","0"
"26.18706","-433743510209592","-435059088662827","-28590640466449","-100508351362336","-115003103953107","28916451226007","0"
"26.27705","293700338214889","-250328540679198","-31540590236301","-100286947143423","-780628684074398","261021091983344","0"
"26.36704","719785907651492","-28149038257423","-305021871137685","433914116543628","-529882343565445","241760713679216","0"
"26.45703","-103531489176483","-293102559459031","-335117570444248","244929836837595","-359678428106095","228579580442014","0"
"26.54702","-706684768014772","-297429731532432","-324927883410982","300932227758329","12967961854261","219558871156171","0"
"26.63701","-801638269074594","-299042212838787","-3216063450805","256972827418988","120146205424329","213385411366687","0"
"26.727","-724908992002746","-29964308932792","-320523621259362","232159233341066","11367502727222","-843347305482383","0"
"26.81699","171357963855428","188340728789238","-236469214811","218152799078749","109282461235609","-766538434802715","0"
"26.90698","-108989471819498","701834591382668","-25906995004922","210246640860454","-157941319235331","-187719206508552","0"
"26.99697","-704173120930569","-299318591968039","-249696831065498","205783882059601","-13932994348279","-191595451931769","0"
"27.08696","-550037713970735","-237010169737951","-256641469906814","-838419614965505","-126696742062031","-19424821952422","0"
"27.17695","-863248002770739","-70199923232414","-309126100145047","-473259503817717","-118121460994179","-196063681429032","0"
"27.26694","-740007993372026","-575273176221205","-296234546216877","116839485941631","-112300652559047","-657426434817697","0"
"27.35693","518642590466162","-365313954556908","-225071102473553","109505320031915","-108349550481995","-765554563108254","0"
"27.44692","127106298206668","-387074560724741","-241873912476367","105365431535279","-237788661920603","-839553694547004","0"
"27.53691","-495326952503056","-120886300143482","-264091428490899","103028604556513","-225650536736853","-890196127189275","0"
"27.6269","-347869739834397","-10150949875785","-26133368537371","-472503989634582","31107299981752","390780722245258","0"
"27.71689","-136239166610362","-129209551244634","-327395918470272","-397372665290515","275395156046485","267436739045837","0"
"27.80688","-184373818017058","-299092402809364","-30893026380503","756965759754436","-145185810991709","-113261036396628","0"
"27.89687","-371662921175809","-525133611680056","-302911003393224","427281558629952","-130671641860793","-109075392229959","0"
"27.98686","-31756278561918","-509365811737504","-300948901503961","454778749054485","143422573783316","-237774359847311","0"
"28.07685","-128811691830953","-178018265021542","-250088431793451","387367366735648","129474775433379","-225851458483073","0"
"28.16684","-182553530131742","-254544616198997","-263509414292888","-224897612077277","120007160127895","454351145613805","0"
"28.25683","-20231800881426","-12032555500249","-351585730246182","-170500475972454","113580644822485","310942126486052","0"
"28.34681","-804508139305312","-170310042916398","-330296019236552","147311633988374","241339472421292","-110283678946371","0"
"28.4368","-952089845301556","-35167221735769","-256395023244528","126705816546365","228060788663341","-107037792312298","0"
"28.52679","-988258422038278","-319255181706158","-272305471715916","-284788537872904","219047361136692","158310533546484","0"
"28.61678","-97717477676282","-469911178045328","-260751515983686","-160753493502474","212929143604062","13990570172985","0"
"28.70677","-692436083215144","-426051764475984","-26698526617562","-907399078146273","766550864585653","-135816879142603","0"
"28.79676","-447161260236809","-572443862782041","-453160520133604","-512196076788861","841537241072105","-124511826749439","0"
"28.88675","-487050549382826","-526995546401815","-403848178173522","140662210061243","892437185845766","147884349893509","0"
"28.97674","-496826414255182","-218519154981542","-270591746344277","122952441729918","926987520177893","101206907198999","0"
"29.06673","-499222233685624","-133614737027023","-297154068164459","-305975068716974","950439915023702","-124637228115051","0"
"29.15672","728638157796307","-663469864972741","-289072309910321","-172712573294871","966359148068353","-116860862297302","0"
"29.24671","329555961202274","-560915558001748","-296437894375166","-727515958409207","22983757217736","-111538987912155","0"
"29.3367","-13476816415956","-344918992308149","-282098564250786","-628425060274602","220253422650475","-107896882121988","0"
"29.42669","-858730535040788","-138324911971722","-287424364298808","-428938217517177","816267281945364","261591253987001","0"
"29.51668","119151669822386","-339753249298477","-222199242244299","-416334644632702","87528420974195","179023958825911","0"
"29.60667","593980901933974","-314813686692671","-2409377704928","164993180235765","223655503449294","-250875176620046","0"
"29.69666","-254430170143902","182687543697003","-297266861861541","93133067521205","216057100977266","-2348172019732","0"
"29.78665","-623544569488917","680768511439548","-285628489210022","339677232573433","787783102361431","392992714513513","0"
"29.87664","-106823655445821","-300103600272083","-281834721968669","278843071658163","85594945540818","268950549644317","0"
"29.96663","-714753042299774","-237302695940776","-280598065409155","-329709288219817","902220041720991","184060404894587","0"
"30.05662","424831945912847","-864844149310446","-26345465767207","-273216504346675","933628017386977","125964541417606","0"
"30.14661","104115660760491","-698691762799427","-267866410876274","-384881622952109","954947413012662","-122942901710239","0"
"30.2366","-325468874757861","141670514815182","-269304512686914","-347912804095369","969418789158583","-115701324216768","0"
"30.32659","-230749276098389","-120192596667519","-269773291587736","390721761307771","-341968966327696","208180365857518","0"
"30.41658","-734013396829137","-821204136234885","-336887275981663","307655980982113","-232124851419248","142471404061129","0"
"30.50657","-557350817592872","-682429708945375","-318764461311106","-313445375822254","-157563849214243","-121813229424489","0"
"30.59656","363407285616449","-793452590885641","-195674898205459","-264036076105237","-106952643921651","-114928215782565","0"
"30.68655","890620162422886","-734824257801015","-225551320258176","194513952591148","-139380907260049","-241779828786839","0"
"30.77654","-120662067908866","-620333038206261","-503134860317816","153349928256364","-126731335725167","-228592662157047","0"
"30.86653","-82416002907904","-211323875590059","-433618931635108","130114229348459","139761341759372","-219567823827094","0"
"30.95652","-284584841060845","-592427468493071","-210075254328015","116998463519834","948684935900319","-213391538263387","0"
"31.04651","-233451981134676","-534442255267558","-257206589148377","109595057495633","138560648149879","539622507342666","0"
"31.1365","-108198242041569","-350098683326143","-322790900528342","105416085297184","126174552675179","36929888160882","0"
"31.22649","-177501690301846","-38140472832276","-314169457437463","-327602953931795","-14354072513849","252735314227583","0"
"31.31648","-720963748297655","-393070641181467","-244397944258362","-272027549911175","-974338983247224","172963261571355","0"
"31.40647","-554152675850899","-397417837476677","-261654482693398","333556419635475","-138734785060391","118370042369552","0"
"31.49646","-864256476778589","-104998141965953","-284019900834298","275388079858981","-126292754934621","810083413279597","0"
"31.58645","-740255145072121","-893153301809901","-281310369461031","-475212897794747","-117847238882937","137107406170531","0"
"31.67644","-789550026398693","-346505001175436","-31390773003969","-398901752288104","-112114513543243","125395018576346","0"
"31.76643","-228412509243439","-442801485121217","-304533511016188","-687199255040501","-240344278298826","-277310963115522","0"
"31.85642","-106963193804524","-804157313314753","-251256909083852","-823434563420328","-227385261611014","-25290893509105","0"
"31.94641","-177199010937669","-738813275227144","-263890303528809","340626672289737","-350709897624924","-104645558605772","0"
"32.0364","-369904555810195","-635197748740638","-368450183000842","279378998252702","-334421332374327","-103179258785939","0"
"32.12639","-317131854344683","-211877795504832","-342533628975492","-329406775790853","205119478198173","293877027803848","0"
"32.21638","397771438666114","221045667080539","-200163241961923","-273045746316359","171353969689277","201119219865246","0"
"32.30637","172976315436233","823706568566937","-233754682400941","458749150012018","148434306159891","137639001256687","0"
"32.39636","-408592854413959","-945720782644701","-328405974501291","258948372910406","132876685395438","941953468178298","0"
"32.48635","-251120879858883","-728829704429712","-309259512368996","-128936624136565","-274046890955878","644640202349637","0"
"32.57634","-563513459578408","-322535397800848","-30301832874305","-11633374522326","-250262232113541","441169340656561","0"
"32.66633","-440073050181429","-371133520730982","-300983886411948","608547071529622","-366238538822538","134582686527158","0"
"32.75632","116656619947929","26170046991688","-199878953651642","517717765463785","-344962006779515","123667188235716","0"
"32.84631","-469028933416396","975202992732928","-226921718707351","-10776583893366","-662775720196996","-14692995317264","0"
"32.9363","-869872301332547","-451867676948944","-319438335205935","-608301697048706","-771095790694574","-132117228219328","0"
"33.02629","-968108962943236","-356592108186526","-299596031600663","-34336572544118","-348704382748882","141147039611705","0"
"33.11628","-274710937303657","167119195009893","-32660861224543","-19381833386256","-333060010475385","128159603247363","0"
"33.20627","-218309777968067","62275447640017","-315413919191944","276166378073976","-454561856038371","-122920235856165","0"
"33.29626","-289947609309475","-111594498929961","-24480360219514","242993343251357","-437036000260704","-841223355421461","0"
"33.38625","-825983957791921","-854998116169251","-261786715251834","224268287539336","-293018561132013","125806436797007","0"
"33.47624","-797705329733246","-269550908608238","-367764475081578","213698627172319","-295261074484837","117661028066406","0"
"33.56623","-572960113793927","-35138933286404","-342310108358037","641790279233163","-32541114445228","112086593543149","0"
"33.65622","859682503036465","-564138576150605","-267051557070952","79780273303867","-542096350014868","108271644375854","0"
"33.74621","-148878147042566","-146493930326818","-282519482437011","-198520118779065","-333160147342465","105660825809716","0"
"33.8362","-889441342027052","-993740998702612","-287561571249814","-155611273516497","-322508750889208","103874072359963","0"
"33.92619","-67093481755897","-809459910833989","-289205143932934","121627013749072","810845332385316","23421475737569","0"
"34.01618","-441891838992676","-252581510677566","-239520018102988","68654333880398","550393079012819","223415390317172","0"
"34.10617","-485759146323484","-345065841105648","-253324128144818","387530484821849","373600894432056","844612020389755","0"
"34.19616","299675963070657","-216793375697878","-35826562647486","218747846170767","253596263548185","893657869520484","0"
"34.28615","-143640706699764","-268993808432822","-332473468975171","431894908398924","-247028312699635","-388411626156904","0"
"34.37614","-194111281677249","19976190448048","-324065984085659","374450212984969","-23192231217683","-265815412055305","0"
"34.46613","-138162817405489","744394563545366","-321325391245831","198471242519247","-485910675662138","113371994378584","0"
"34.55612","-160649658526876","-12741480918733","-337172332635454","19913706812927","-458315241402026","109151328014854","0"
"34.64611","-381399653839275","-976686972835895","-332337969526429","-374700630273436","-307462680846403","237826327658241","0"
"34.7361","406528505317618","-214897153970828","-230320344928207","-298612594605448","-30506558738725","225887023445979","0"
"34.82609","996299462795146","-331023108415371","-257065599283768","605656828654486","225045841741048","-45410775137345","0"
"34.91608","-502060717615838","-699768208390056","-332744941978489","516086321155251","18487977066001","-310775555930655","0"
"35.00607","-349520016869512","-637177715207194","-317414182237344","348666495635062","-106626679762992","110295078456025","0"
"35.09606","565326418580531","-1102061666619","-211975040998649","632344275356335","-104498118855363","107045593740349","0"
"35.18605","289532347625239","-975296441793182","-237604981544021","-494966456084047","293309956292905","10482175938397","0"
"35.27604","-304535385931389","-125353035353496","-296180470669678","-410051967559503","263337793405708","103299844472122","0"
"35.36603","-150126496041607","-115721168948997","-285274357628366","-750138447452166","110871935054818","23382177577488","0"
"35.45602","-463269761030826","-795847596084248","-29845957955114","-858961607921378","10737975242707","22314644737336","0"
"35.54601","-340013325776163","-86118855421573","-292757574167601","338621290837233","-159232857482848","-472863301129259","0"
"35.636","-134313756459948","-23459362878635","-324379476216901","278247028277004","-140206625735646","-323611202062036","0"
"35.72599","-183901948253086","-401098730323203","-314687286397586","387721183497586","482925244247489","-221468254884532","0"
"35.81598","154930242318831","250623876570539","-177605565014484","349515639943703","327804454805796","-15156517329767","0"
"35.90597","379695187850049","-116132548762909","-212920954928235","327949903333235","-129895975640621","-273499547379982","0"
"35.99596","-868157156126873","-331483467045536","-391835674183859","315776774716541","-120293066292345","-250300534682749","0"
"36.08595","-59022609044028","-311732027571126","-350156611417244","-121754695319649","-24589579182386","423393447749531","0"
"36.17594","-522112153086418","183835895933003","-269609286330576","-687264058067452","-231153569203333","384446185308615","0"
"36.26593","-505419134440285","685047741574726","-283353226961951","-325900497861296","-890256302826448","226228556119566","0"
"36.35592","-67682060069214","-625415958170367","-287833347447491","-271066571063812","-925507160271968","217949911853879","0"
"36.4459","-618826803582047","-483999206072241","-289293734981408","190545476071398","-227064583242355","-313969612245752","0"
"36.53589","974818582501279","10333216478697","-239548896179644","151109857538641","-218371147625821","-277996839952082","0"
"36.62588","46538111902016","698737460141732","-253333541548606","415956552438827","-476712291107715","272875582458314","0"
"36.71587","-211636432684322","-154150912036368","-157385166195557","365453550336928","-452071477030886","249873514785321","0"
"36.80586","-134908541949522","-107631662776421","-186108817330065","498395472585341","225259827069226","-289952544635309","0"
"36.89585","41838796759052","88712812981572","-64745982267703","716861216603635","185025021596206","-198433440037101","0"
"36.98584","-484486101588221","518787956130088","-527846683732084","51467792453081","-10652808499182","24954685921179","0"
"37.07583","106558899350857","-140856566592842","-187531024673766","464731808146604","-104431193786533","23390814772395","0"
"37.16582","638611684795677","-102677645893276","-256598127290845","-424781386217618","-367250000571575","-399213965721561","0"
"37.25581","-1747432337466","-104724209406219","-413034324241542","-326881486799644","-345648576121561","-273208157661176","0"
"37.3458","-103219191680412","-954868426805391","-384027924216711","-558727073342012","-330985761847067","244429537525715","0"
"37.43579","898020648315098","38144105798576","-357832396719072","-489596062200155","-321032801432543","230406030688828","0"
"37.52578","371067363749292","794046303093539","-359293425071901","410746356113193","-500346851419943","89245353248115","0"
"37.61577","241924322741413","-312512878206735","-276068207029571","31895918719605","-660840823888786","92639893696934","0"
"37.70576","210274600594782","-241926900468713","-298939233304683","-881278632801276","-769782403918932","949629991535577","0"
"37.79575","-2078884539802","-117982132171429","-373355691572411","-758772270850956","-843730775168629","965528517548053","0"
"37.88574","-133990006319022","-13179524186302","-357613268644995","281453433736505","427284636594222","-165486062307664","0"
"37.97573","77162408153578","257933382343973","-235299643248778","-27666289601228","290036209566798","-144816384124298","0"
"38.06572","189105720228219","-154827110671781","-265428998177208","515043466461779","-244554808408842","264019655806095","0"
"38.15571","221837578431552","-226146947036931","-208289105629604","421384760590472","-23024332410329","243812826500877","0"
"38.2457","129859336393835","-184649058036101","-229663180939585","814108229539456","440076542192491","-331429787981715","0"
"38.33569","-681747318095126","911922083826157","-236630500955296","895070385423206","3950824482494","-226819023239467","0"
"38.42568","-167079178432895","33981946825276","-238901642396379","668290612728426","-692427673952235","-155227053116131","0"
"38.51567","-140803474529918","-101252073499749","-289862849913031","594994356591134","-630617832678744","-106231997982282","0"
"38.60566","-949014074579852","-8164580087141","-276474704976056","-307699201586588","-588661978099508","124293328373843","0"
"38.69565","56742043907838","-580661107703034","-272110563424207","-217239171569535","-560182795865643","116625509271649","0"
"38.78564","139060526196335","-592793537722676","-270687981612147","-226241618297539","119753951201157","111377920484511","0"
"38.87563","340802491665803","541836790912996","-25348396771013","-127705738400235","812876923539273","107786653174745","0"
"38.96562","835221478751178","264646460487718","-257875965086778","4234515939964","-473307097783511","-157798039209759","0"
"39.05561","-524430601562744","-13032691822067","-343009097400301","369684247693377","-449760068475534","-139554968424978","0"
"39.1456","-355002314683212","-987538682217159","-320759995072642","-521985901664588","947077093271943","449343186945349","0"
"39.23559","-13798718191489","432002694284965","-313507441980592","-425303530357688","642865731119174","307514853697689","0"
"39.32558","-184802212751025","160981873845772","-311143322944311","599305477159144","307879187429524","-261022429167085","0"
"39.41557","154709610057147","-156737066683805","-24341151340142","338287663710308","273227230594109","-241761628801275","0"
"39.50556","379154473482138","-121142551729658","-261332935241449","-268011573231602","-146657375440742","429237178041138","0"
"39.59555","-104366291436189","603655727469323","-367616556142245","-238390231844438","-1316705239604","388445431136483","0"
"39.68554","-708730659094994","-165713047770857","-342261891133583","208990163921618","-12149761058035","-165724929944228","0"
"39.77553","-275662145650627","238248540336071","-233555251544989","161521259734219","-114592346537816","-144979856829449","0"
"39.86552","-369527908652655","887811510708342","-25812008371377","13472666948191","-242026204649874","780826866209117","0"
"39.95551","133945465794794","-14315396995701","-299608084765355","11960202990829","-22852693510416","534370758256819","0"
"40.0455","-426658306008309","-109807343331931","-293131953093992","-319595468195534","-483605930272608","-262761249137213","0"
"40.13549","-612426352308901","490812924885604","-324501512737755","-267507595154957","-45675080505317","-242951616730892","0"
"40.22548","-45206037409936","182896971248262","-314727066714726","479661164765485","-174279681325318","-978311161312768","0"
"40.31547","2892113340209","-582788746616767","-227839414421105","401412648481184","-182541324685308","-985156912913006","0"
"40.40546","708784483622291","-468114563491303","-249516594829429","-216969525769151","-56028162246058","32579286223704","0"
"40.49545","-68459949572821","-913590001681584","-340284188515678","-166025339506853","-701523900988019","222961307253024","0"
"40.58544","-469748202400777","-779592370974293","-319871754906109","149837697102145","184502390101486","15258696642595","0"
"40.67543","-417093536043316","840201758449931","-329958195870623","128131693702025","157359312330354","104425214446073","0"
"40.76542","-404189197203753","-941624653679293","-32324607901879","11587938922865","271055960439854","270273452499561","0"
"40.85541","-500416538623116","-648768334859218","-237356655982798","108963377923343","248232020690871","248092707516365","0"
"40.9454","-163248968339404","-555437166553305","-259359229774745","-384938600554745","232739376197634","-302139770405875","0"
"41.03539","-106845577677748","293021393018545","-300012009942365","-217284815201181","222223135967701","-206773953610465","0"
"41.12538","-790299274876275","109191756322492","-293263620823698","274841774603777","215084825357015","117412586510221","0"
"41.21537","155332444649089","-284782504903483","-27432355035273","242245649411814","21023941699238","11191656878029","0"
"41.30536","-112916924868287","-231593429136574","-278149644339134","-632605275493792","-189412824949906","-234081916123407","0"
"41.39535","172326892182171","-699980733218274","-329617720659951","-357084273135689","-160692462621253","-160197524478588","0"
"41.48534","422330015879487","-574521000892863","-316394800047929","266950568229891","-141197389983997","-142526838528358","0"
"41.57533","-867112283363796","-395618437475697","-328824810831701","237791330421219","-127964344635099","-129103889650971","0"
"41.66532","-589970018317679","-14021418067166","-322876628824914","-657748399028918","145260257983174","-119917690148801","0"
"41.75531","179920630496935","-828664997366045","-237236226083807","-371276715626614","130722175676823","-113630974609279","0"
"41.8453","-313984701831712","-685209930970113","-259319973169088","-451617465165362","120853881978942","222349118720519","0"
"41.93529","-258679991344837","-306280886055553","-299999213443318","-385582928945682","114155390495984","152168005879806","0"
"42.02528","-214380994958277","-365076424805836","-293259449541308","369458250438999","109608526618503","10413849241535","0"
"42.11527","-554509434741076","-224250137665846","-307802778766021","295653448570473","106522164387106","712687633634896","0"
"42.20526","-437866389396002","-271772502941689","-302543476425821","11043975157296","236548251919904","268004340270864","0"
"42.29525","-409280102851276","-61495309953937","-233867922262871","105892886522702","224808559787297","246539806002992","0"
"42.38524","-402274320586249","-542836226748208","-251481711108925","246879718657565","216839783201361","231850225061651","0"
"42.47523","-400557378965722","297717018598843","-340924758635731","226462014956444","211430663476646","221797186615101","0"
"42.56522","-400136599612784","110941538476156","-320080561928363","713835284644883","756379342863478","346480713593795","0"
"42.65521","-490484637784692","-121394554744601","-246324790497889","838469700873264","834632921671949","331809784271412","0"
"42.7452","-163005562345963","-10797248618688","-262282577905806","908821611694531","887750608194809","190206033392194","0"
"42.83519","-154410839823755","-591178603721513","-300964935467846","948532884920493","923806321741744","193297349785153","0"
"42.92518","-792767293065764","-471240967413982","-293574246522863","-464585281093729","-37293021797488","638494622887267","0"
"43.01517","-949212458193835","-263811388628242","-291165099260608","-262242671434254","-25314101559208","752598289273115","0"
"43.10516","-987553246585099","-286514643201139","-290379788097543","-148027114761519","247059214440604","830686871217679","0"
"43.19515","-275187467955098","-783182533747342","-290123799751585","-835562976260843","231943287945796","884127981597892","0"
"43.28514","-21842656368563","-668261304683002","-290040355078508","-471647027926381","895616828599466","92070121942026","0"
"43.37513","-380008395545384","-62543695417737","-306753448633238","-266228788579479","929145827435112","945730671751902","0"
"43.46512","-319608052192721","-609478849559445","-302201425659592","142050612177505","-369305819015421","-352774810856151","0"
"43.55511","-655790455443575","-109173993632804","-300717600028948","123736147746467","-250680812612309","-241426814738494","0"
"43.6451","-538180335459079","-971450142903034","-300233916507379","-30155131342892","247226210369291","246604542133134","0"
"43.73509","171204768820524","-601153426213143","-283335955838411","-170215513117287","232056642983682","231894528218276","0"
"43.82508","-146789213634501","-663165723543043","-287827717569099","-153161473380616","896386270388573","902640292029217","0"
"43.91507","-186959370086623","-198066312706819","-272551605742263","-130007852947673","929668116234854","933370401015279","0"
"44.00506","-196804068495257","-32475124853828","-277572042502695","600828500397347","359468101427953","227003578865589","0"
"44.09505","-374709263981257","-464874178331971","-279208557253451","51336089322578","340366306792063","218480310474087","0"
"44.18504","-318309367878691","-142794932848697","-279742012938134","320435004930427","631580603628067","-504796719674402","0"
"44.27503","-479979673790829","-341418961911905","-313396491932999","311534868842834","749920881531531","-345465323404641","0"
"44.36502","-419601013210642","-315434399344109","-304366862427097","-124149107655904","830248987675908","239484508336942","0"
"44.45501","-580296223684258","-631223308016091","-267942880608693","-700779705530421","884774841012217","227021824648332","0"
"44.54499","-519678591654625","-548899171917518","-276069733635324","103996740394046","488541871230911","350056274205573","0"
"44.63498","-329330222853727","-192750012034676","-278718848740235","102256024718425","460101268616762","33425677363358","0"
"44.72497","-382680609087504","-260034267700179","-279582382363407","-422799339891337","176553939908593","-20280976302551","0"
"44.81496","-220262944748019","-610578952966167","-263123574866773","-238655921497811","184085066918414","-170359427168368","0"
"44.90495","-280458446511556","-541206240821857","-267758487617712","130082064357112","-207166116104018","-165880686382246","0"
"44.99494","557741582780671","-678091040523254","-286009626942605","116980307470556","-172743205457964","-113522974167877","0"
"45.08493","-618236585676694","-629099915811421","-281958961661589","109584809020145","246985926490323","123794359314076","0"
"45.17492","-441628949036637","-773579728646388","-314119152024288","10541030037954","231893540874439","11628403219606","0"
"45.26491","-334709705222564","-727418816482532","-304602428366001","-184052835714407","-425931618924136","242707702399146","0"
"45.3549","-133013972007123","-710217372517311","-251279374113278","-147444981742595","-289117795744021","229227666595589","0"
"45.44489","-183583403665152","-703807410915201","-263897626467785","167722967660007","-196250046021518","884389218338577","0"
"45.53488","-546961717112579","-375946977523113","-301491393806232","946739401568933","-13321241767334","920880000762509","0"
"45.62487","-43601663300248","-453772769756413","-293745856459914","534402358238755","-904231544507796","-168541651555709","0"
"45.71486","-40882677392672","-157302023689493","-29122103905365","301652049146651","-613782634054386","-146907523164283","0"
"45.80485","-402163221030352","-246824897334293","-290398022825085","145256107357874","-416629041703922","-538400949314832","0"
"45.89484","125947368794278","-117448871998326","-256649155607858","125545541314405","-282803306513471","-368462889767559","0"
"45.98483","-446259636888592","-169238073165753","-265648017328891","-291337898965705","-19196383873736","26287479071387","0"
"46.07482","-612906731794488","-351272757582444","-335542557882886","-164450386234676","-130302986330281","24302932063817","0"
"46.16481","-452178103069695","-319106326655031","-318326122754269","134270715740299","-133005559613977","361011247888038","0"
"46.2548","-618025317611468","-795327528080953","-245752894918935","119344659448836","-122403818403983","341753976722663","0"
"46.34479","-166131264704686","-672787026331352","-262096156764477","-17618736150383","149034683303317","197011492951015","0"
"46.43478","-191699621960357","-789859332934612","-250683285464723","-143005187687513","133284214934478","197954769684636","0"
"46.52477","-197965785406504","-73348526291552","-256963025032854","306385177500202","122592966634488","-645266384205036","0"
"46.61476","-374993971675664","101201570199943","-275750329531659","26005083304185","115335862430643","-441597877746352","0"
"46.70475","-318379142597876","-877599750706846","-271874438330633","233896663367538","-21711258721738","101342053613915","0"
"46.79474","-304504267144217","-809118414855228","-354312482096957","219133519540877","-147373685952511","100918454830801","0"
"46.88473","-301103882969428","-677926074824075","-331184860155855","672468407699328","-100035670845208","100628558551965","0"
"46.97472","-475763040726233","-303566623328204","-273425053310922","815119498530315","-679031360094738","100430163618285","0"
"47.06471","-418567622144061","-364064979493714","-284597054789442","233117504862777","127511885233818","231857865975945","0"
"47.1547","-404550458756406","-386609141530094","-271498504678368","218693710928606","11867477140029","221802415791173","0"
"47.24469","-401115203375698","-395010018415609","-277228762523812","669985836897039","244797310679782","833573383557348","0"
"47.33468","-224780801711536","-398140528759339","-312577246203663","813718171312878","230407932033112","886103410280508","0"
"47.42467","-28156566000504","-399307084958858","-304099812410429","233038404682894","352761653754007","922053134125932","0"
"47.51466","-470974712038634","-742699719975616","-284596124220592","218649061553502","335814042337826","946655875171035","0"
"47.60465","-417394122810868","-15314784890401","-288238495404631","497633531451196","192189109254157","359476267476025","0"
"47.69464","-404262863485728","-508012791651528","-289425801301479","455110824968552","194698051483148","340703489499216","0"
"47.78463","-401044720983952","-440249984153817","-289812828109419","-430212105685305","642800174713912","3278560529724","0"
"47.87462","-492710215628342","-577734700175531","-323419575596416","-329946944184913","757536605552505","319063714112671","0"
"47.96461","-163060105680097","-528967128822677","-314374387022563","-129797269489967","347783999864356","181483066150316","0"
"48.0546","-366439464548851","-836266156541176","-244464745276856","-116819550404394","332435264485673","18732765429821","0"
"48.14459","-316282647335321","-750778343542668","-261676257861047","177612700119635","322016708212833","191327487213094","0"
"48.23458","-128497962026565","-393450268244872","-267286704834278","143809743108268","314944704420188","194064833787764","0"
"48.32457","-182476642820893","-460295211806271","-269115545564311","124729117634794","-862189265187304","-198752252249286","0"
"48.41456","-371197971091364","-322468462139031","-269711693862617","113958750168523","-585244787636931","-16758260787083","0"
"48.50455","-317448838008299","-371108577765559","-269906020677269","53853939298377","224516368062021","24843924384468","0"
"48.59454","-304276272809083","-551969784104494","-303449953633074","478200799709825","216641446605078","233150134277957","0"
"48.68453","-301048007272977","-519366067247217","-294384289369203","-13007182900269","211296034731127","-404401546188289","0"
"48.77452","-300256840312405","-344480679017206","-274688855343699","-734211463516497","207667626719896","-276758357362913","0"
"48.86451","-300062945122402","-379311230127283","-278268723023873","-759210670870272","205204702438959","375750051154177","0"
"48.9545","-124522919590414","746860850182033","-363137124938183","-646315653034155","203532895962165","351840701216868","0"
"49.04449","-181502459561436","466518630467538","-340801728285158","565836833471139","-326086216173676","203914496484262","0"
"49.13448","-199742098316328","-126530744485404","12848355062248","450055897618999","-285585965620294","202678945288659","0"
"49.22447","-803876848212134","-910656676394569","-872050042438689","-476618824742878","666752707109938","702699000577374","0"
"49.31446","-270686019849161","13370675328631","-283453030475171","-399695350479272","613189941699446","796537533008718","0"
"49.40445","-217323371591821","874661510589823","-247424116071874","361492265992263","180468882468717","860757361883836","0"
"49.49444","-204245524135447","-108774489417319","-269160337586992","291156919887951","186742487765231","90470717987323","0"
"49.58443","-20104047154384","-719017787756837","-25624570661615","-356517703310942","-205362287452986","-380849862330721","0"
"49.67442","-726732513537851","-237170999341465","-419438857336339","-20124218035871","-171518785996446","-260640403811577","0"
"49.76441","-555566455606714","-188757070835177","-372635025542446","-872679741802623","-164251047180777","-412527753859168","0"
"49.8544","-338125438714026","-405273330204634","-156494823939321","-753918487834951","-111491841881811","-37701008220503","0"
"49.94439","-384836096026836","-652908697558623","-206039474129354","-112668243954448","-271810100105064","419874081991271","0"
"50.03438","-109825373397193","-269801868141751","-339371631610206","-150704178676273","-248743922573711","287347222893804","0"
"50.12437","-873094513926082","-226011031134872","-312833994125626","-459280944055261","-100965772706558","196650448423006","0"
"50.21436","-11594360639179","148326227352882","-605508797841134","-433462087084631","-10065555611207","134580729458663","0"
"50.30435","-330384898314996","678196011647989","-520912177329984","585985469320084","-628929292333039","-122353239758783","0"
"50.39434","319030943119305","-598220065234967","310197948360177","461429120804942","-587515815098019","-115297780079455","0"
"50.48433","781864870696972","-473864903986704","10111540934981","-395388742566848","233321669092388","-110469268789882","0"
"50.57432","-173576351871777","233898538140907","-469248171925919","-223183566775207","190497313137418","-107164803548327","0"
"50.66431","-118031719519153","168716845012839","-355169927062591","130955426428825","161428601523257","-236466819383856","0"
"50.7543","211467389569845","46785934209537","-150580833228129","117473290808892","141697073142638","-224956623252442","0"
"50.84429","11221936171516","613494895750287","-183890804873854","540523232256992","-38175527943711","-855159682719422","0"
"50.93428","-175342602102195","-161053807672491","-26171005236024","479320609854222","-25913137226884","-900876322881733","0"
"51.02427","-95816831171989","-10393037305976","-247076838654209","-416546501281479","526725352057217","383471567658636","0"
"51.11426","-763270581745872","291648747607238","-158605370974962","-322233172889391","486019804174701","262434607782562","0"
"51.20425","-715506033594102","209057708110687","-179766274141936","592323811440896","-334337145195457","-113603364868116","0"
"51.29424","349154899940445","-244832456750097","-23688498850069","508560284075171","-291186607379746","-109309669933248","0"
"51.38423","100766070937263","-153970497382912","-225504009723919","-111780861257791","-129775410055329","288319216446979","0"
"51.47422","-248515489552256","-299121115582683","-439417968153164","-935838824796012","-120211227671511","260442600919396","0"
"51.56421","-211889930360576","-243210172935316","-37914762815432","-40246288591383","-113719163673333","-217621393954405","0"
"51.6542","-213333149738251","200737896558964","-342760975586151","-401390215763961","-109312420549346","-148932515430606","0"
"51.74419","-150422866104403","106171105802469","-340899996850638","173428804671329","-106321170776354","-101924235248374","0"
"51.83418","-135005132546033","-417276077718208","-273332196250235","978946920866468","-104290742645491","-697534027470736","0"
"51.92417","-131226632524313","-312333908554018","-291307080182597","-806062060335345","292085670785999","-136337157306938","0"
"52.01416","978396418016881","198705974363631","-397608128153365","-716315060727645","198264607636708","-124867887035288","0"
"52.10415","239780436776341","991403375061441","-372259143857045","626324536333484","145579065016225","145447597097621","0"
"52.19414","-134517587892741","294909267860308","-14637229756322","484199159218245","130938578457383","995392783102224","0"
"52.28413","-933608942103551","235367075223388","-202739828198152","-313792725236458","-275362457072481","26993907601859","0"
"52.37412","-832744202559275","-437764420205252","-455478102517861","-264232143096614","-251155224225159","247863871878899","0"
"52.46411","-808024783254491","-288600748108407","-397863347814612","-236256871414325","295185386776684","10119289275781","0"
"52.5541","426480873548837","220802238364144","-211679691382419","-220465777123108","200368661467985","100816374327135","0"
"52.64408","290272649094587","163836628045677","-250989294382996","936874830156884","145721885924277","-162568255699802","0"
"52.73407","1071138550083","-166589316930641","-24706277494158","790154443101005","131035523751621","-142819538732618","0"
"52.82406","262509208596108","-997195392492551","-255782845068615","-153984552595742","-110544976986559","22592734584534","0"
"52.91405","-104652159741174","104208375784406","-375807389954263","-8691906970718","-750367398355087","154616820110788","0"
"53.00404","-709431250652442","702002580709674","-344931862093084","-479723024672381","-137214490063347","-393632287099213","0"
"53.09403","426136183645254","-137755649313063","-167464407306087","-401447566305531","-125260795063841","-364078681740859","0"
"53.18402","104435296735621","-952485263040027","-209615235730586","360503199446449","147095398315561","-4754166987505","0"
"53.27401","-500883046673866","-258418134360587","-357277518806153","29059862528897","131967849170425","-451612566422296","0"
"53.364","-349231399242092","-20922180435414","-325411080867552","-179520292349379","-104216452452938","-406314150586465","0"
"53.45399","-663050395242488","150856170947181","-331763853242228","-144886514376522","-707410055387824","-593702046834425","0"
"53.54398","-539959564720242","750359526046578","-323834670223988","592429999456289","259440330682573","-721943807638996","0"
"53.63397","367669445752255","-229868808568879","-204067931278636","508620223616875","240347456309183","-809708009828955","0"
"53.72396","901065648528055","-173488793924424","-2350274962952","-687114627911756","-433217966070218","-350104031733191","0"
"53.81395","-173284220645148","428037973208044","-362301462530588","-562066492623645","-390426920642826","-334289457224975","0"
"53.90394","-117960125478305","340326370896219","-33378903284979","226285866646508","16710348804831","-603395583923962","0"
"53.99393","359924287933689","102636150138729","-22405305483668","171284098703697","145549124998673","-728577727383427","0"
"54.08392","-627765925446133","696143824875561","-248282352948241","283790845351673","-120282148017208","501386735677915","0"
"54.17391","-166369982586115","-121700379543361","-373362450085751","247297097047558","-816462266641095","343131648920958","0"
"54.2639","-191758125729199","-829920851126304","-344134883592913","-634622690710809","-554205793492604","-23964421690453","0"
"54.35389","-548965136576251","11044170938905","-317867262330419","-532436570194918","-37618892395891","-227131123638999","0"
"54.44388","-436507620893686","725230531304802","-319304790235927","673671106120178","-132376429966206","445593562220104","0"
"54.53387","468515430654915","-880693079385209","-185851029545803","554478079448332","-121976771974652","30494874090839","0"
"54.62386","190313894546303","-579125902888654","-222349027960077","565374980934763","149324557820359","-110693845416592","0"
"54.71385","-755328861734434","-193137282592197","-30120747842451","754668882743109","133480978634767","-107318495983225","0"
"54.80384","-487082197049144","-153527533961437","-286913014330068","-344508262287883","122726527715146","-105008524190314","0"
"54.89383","-245849156942383","-248521846564102","-248772851255813","-281570024468878","115426522253772","-10342765981186","0"
"54.98382","-28672898575561","-469024863723096","-256340279659808","328170015627552","-285891873762356","-102345771197145","0"
"55.07381","542374062917812","-136487285581385","-29228762691711","272347637051287","-258302478874946","-101605364245983","0"
"55.1638","-622002779580341","-119870246001676","-284005405039684","972844095476034","-239575094756558","-101098655472204","0"
"55.25379","-792706262371075","237079453510907","-348266820515631","984671410745486","-226863148106445","-100751881605451","0"
"55.34378","-571734967694143","-250060184017402","-329214152261694","386241520217834","310249892279375","-363641515532555","0"
"55.43377","184389584310168","-995069930696126","-222561778295887","348680420088283","274836439514264","-343554040445423","0"
"55.52376","-303032416259752","-872691035009409","-247796240649068","-246735084445225","118677092195637","196447036881005","0"
"55.61375","-829190715981031","-827087652883674","-289502521449332","-182826990229773","112677809034582","166004998624014","0"
"55.70374","-958138926131253","-810093967414984","-283097542557209","-290306417051981","-235155167403845","-117955427808307","0"
"55.79373","-2744665966931","335389943180219","-281009707785968","-250974916810999","-15962079506881","-112288070490368","0"
"55.88372","-218249896209259","622441013308177","-28032913504632","488993302289678","-142955964637579","231539487589002","0"
"55.97371","-379965098775416","-395412116679304","-380549052732474","406680324350671","-129158046170521","158457574788666","0"
"56.0637","-319597441239714","-774705825567805","-353217798787729","360217433452328","144449986236809","-120719191483047","0"
"56.15369","-100677286832748","711312922051185","-294087731523436","333990703662148","130172171941824","-114179494254619","0"
"56.24368","-775182340209084","265064289175423","-304813068399719","-111473548717748","25260162234312","-109703952853627","0"
"56.33367","15903722640265","-31559443992447","-241348036570097","-629230464236362","235705414739616","-106641047931223","0"
"56.42366","-112008975727558","-243075216408069","-260660302473934","-466178081460103","921153740103857","-104544902298068","0"
"56.51365","-178435605605335","-704259316788506","-333916709511079","-393801904169935","946480007937863","-103110373108719","0"
"56.60364","-194715107484499","-57611537613555","-317796143995463","-496501384623174","228488197554661","160998322694926","0"
"56.69363","-374197312001114","-202891882934903","-279060725557037","-45447176639154","219337481689028","141745131169901","0"
"56.78362","-318183901281362","-263813543624656","-28643411821665","-87318194185837","213126074310459","128568916314434","0"
"56.87361","-128963911710364","-110019499503147","-30557792146284","-436026717737723","208909837877258","119551572998042","0"
"56.9636","-182590835408519","-911864933850181","-301818238370105","753877671270474","-454557482886176","-281310014095505","0"
"57.05359","-897703476875908","-116715726941518","-31733298630509","425538437169554","-404911954836005","-255645746536661","0"
"57.14358","-672959659705039","-106228963572076","-312390337898479","240202049231059","251501258622472","-106518537201522","0"
"57.23357","840894429974223","-372268027033918","-260558297670559","135585929295997","17071634574452","-104461060214301","0"
"57.32356","-130376798738143","-515137752084268","-273662576751746","765336693917013","-120533035284371","160073959402611","0"
"57.41355","-182937098602453","-405640945597276","-227713304189059","432006667725157","-113937603215151","141112529072309","0"
"57.50354","-195818310580012","-464837956815969","-242735192537891","243853146520153","-109460694957791","128135985434115","0"
"57.59353","-198975172744786","164046454535407","-348073650785498","137646850176883","-106421817847926","119255290156351","0"
"57.68352","-1997488405289","-160549090139841","-32241089054576","-142776413712705","292004170134532","244741128037951","0"
"57.77351","-199938447109401","994017284216775","-314045585357879","-124145838154811","262451439824409","23061927240155","0"
"57.8635","-199984914929449","370411497810585","-311318741860428","29923874969698","-286092943138613","-173735665442359","0"
"57.95349","-375488809708596","138030474810496","-29368957700266","16891014913869","-25843896260208","-150462125674928","0"
"58.04348","-318500414995735","514358006947012","-297942987669907","-277572360822114","156695492487622","-266098001220119","0"
"58.13347","-655519001331527","191670831875154","-2658488863411","-243786972939741","138484289703701","-245235173839159","0"
"58.22346","-538113808860705","714243917573506","-275387153080994","623905025702054","126122721384275","-99393903217986","0"
"58.31345","17136780883704","-487941572776319","-261756053487441","352173276510572","117731821940183","-995852084360849","0"
"58.40344","-146785217932385","-370034717281407","-267312715861978","450539140665804","-416448138138834","-997161310757608","0"
"58.49343","-713435910883955","-977041439280815","-285864318458793","384974251251952","-379043742050039","-998057299782374","0"
"58.58342","-552307791599691","-803236971941051","-281911595368871","-826950611865254","-894118868691921","294823382504741","0"
"58.67341","136581915122831","-738470318387114","-314103712005735","-466785639633692","-928129028382541","264893826022585","0"
"58.7634","-147637732990173","-714335614160119","-304597395373988","-313455237153175","369996011261624","112847601250388","0"
"58.85339","-187167320911023","-705342036197357","-284758321634571","-264041642492873","251149307675826","108792451590815","0"
"58.94338","-196855032029653","-701990661189338","-288291366991941","-236149340269306","281289898475411","106017248159417","0"
"59.03337","-725706767228551","-700741801782005","-289443035884177","-220405079430177","255178707612341","104117995423464","0"
"59.12336","-555315070898496","-700276425685462","-28981844607657","362695557520134","-291029595438577","-160308741017261","0"
"59.21335","129211827390524","-374631188000675","-289940818759816","291836137240769","-261789909016731","-141273205446131","0"
"59.30334","-147818355366031","-453282452761378","-289980708656009","-352683751174785","286541983126335","266444484098804","0"
"59.39333","-117190802464644","331088417752319","-273253417524805","-199078044103748","258743766109693","245472294674287","0"
"59.48332","-783645594896745","123377086771691","-277800812506021","-154790665595321","371995712755033","995561804729697","0"
"59.57331","-270190202543704","534183078226737","-3462443058046","-130927476827401","348869914441506","996962653470932","0"
"59.6633","-217201859198813","387266193601662","-328554871940844","-117457514204593","689302176534281","-317713423879149","0"
"59.75329","-204215744493849","-15568877613992","-272567754491404","-109854176074705","789101663572732","-217432020559091","0"
"59.84328","-201033173300166","-580160060372837","-284317600584381","37991034640145","-464366289203049","-148802914863276","0"
"59.93327","-375745711558763","-216191368444774","-288147704889614","214446535868038","-315206835997139","-101835541126242","0"
"60.02326","-318563375199501","-80561746632451","-289396206263409","155658164954469","110725176418826","256157683546974","0"
"60.11325","-304549417936751","-491209789470868","-273062886932948","131417150862865","107280134245514","23843236604375","0"
"60.20324","-301114948296891","-371252588499764","-277738705135901","-258194649786951","-271794002555372","947382980931818","0"
"60.29323","-124780739198114","-489287538636343","-296003178435266","-145742143510787","-184490841778173","963990741618324","0"
"60.38322","-181565644684568","-433272188972215","-291956859637824","-29533341808227","11959803732841","-165591302345521","0"
"60.47321","-721959721646477","-900606307798371","-340858760890697","-253812488798605","113302936672349","-144888406747062","0"
"60.5632","-554396763952818","-774754115568921","-326799342668584","-517482096338639","-230911868323435","132406889075094","0"
"60.65319","131462367524099","-565120531327031","-305476091701191","-466314668249951","-156740489352344","12217814811096","0"
"60.74317","-147763200268744","-587002483317811","-308525338926601","136781148031735","385723855316783","-163855235086361","0"
"60.83316","-362690576477189","-595156593654344","-242558127597221","772083299265128","35818842976361","-112136825724947","0"
"60.92315","-315363888841631","-598195148688573","-261054756564314","187134873424211","752555254958901","518579653350461","0"
"61.01314","-65475031739387","-27385561906237","-317304995880711","149184687745716","832037171986835","48115179179522","0"
"61.10313","-537925423696041","-35299344405232","-305640919778886","-159343675199724","885988641264157","192410510791311","0"
"61.19312","171829493653474","-219747524813945","-251617891775549","-133497496693105","92261031756518","194806017468484","0"
"61.28311","-146773903194831","-270094645225313","-264007973271088","-118908203459394","-373742052729253","648819419955446","0"
"61.3731","-537940631244151","-126120131851498","-301527363619203","-110673041073407","-253692080280082","75966422139832","0"
"61.46309","-433805790985997","-172469339262548","-293757581561198","-249577954159763","379142885739153","215115731900683","0"
"61.55308","-572999386047352","-270050399805019","-291224861091875","-227985077599732","353721338489783","210344681346059","0"
"61.64307","-165027791987709","-727990922262981","-290399268697154","214863521423159","-192018841903453","338643017185794","0"
"61.73306","-542414201820477","-4153356486968","-256649561725516","164836571312465","-162461398863141","326445937362731","0"
"61.82305","-434902150996099","-342978780211452","-265648149711305","-437615483739945","253965106074291","549717261141107","0"
"61.91304","-233061135642214","-478751561200965","-285321718842629","-37767928420315","236630932811941","691842149640452","0"
"62.00303","-283594962289871","-42934605283283","-281734723849921","-487400711178128","927436057102715","210474225123674","0"
"62.09302","-295979536479252","-41093553961006","-280565468963031","-449334744162895","950744377057636","207168195490845","0"
"62.18301","-29901468517127","-404075029348731","-280184326253522","28123570372065","966565813618004","204905663759205","0"
"62.273","-29975852403418","-238782612855791","-296800379002614","-419659032192846","977305234362093","203357265709217","0"
"62.36299","-29994082029381","-277187897610851","-292216723579953","763116675942296","230580580726306","-192392834935657","0"
"62.45298","-475478003218713","-779707006853945","-307462880765472","430753542695128","220757768851475","-163230443775281","0"
"62.54297","-418497766595949","-666966181205065","-302432679672831","-262792187231165","819690729640872","25141771362901","0"
"62.63296","-40453333891262","-2994825186796","-300792982036908","-235444065050736","877608009167949","235188495438382","0"
"62.72295","-401111007731126","-362543075051885","-300258488825258","354206558997597","-304671067452693","-390451711134765","0"
"62.81294","-492872667829692","-711513837201703","-266603671627112","287044384809202","-271049593304522","-267211575281374","0"
"62.90293","-163064086976336","-641554616927044","-27563319088869","-325079924446315","160144552041946","113276445821784","0"
"62.99292","-190947933583508","35458689081047","-278576548641998","-270603385136041","108704397207543","109085937904758","0"
"63.08291","-19778156542777","-112258461618453","-27953599671592","-962998383600882","-256863416541763","-156908853916048","0"
"63.1729","-19945631729543","-167303913957872","-313329336702759","-979113839532224","-23859827474315","-138946440926509","0"
"63.26289","-199866756997502","-187816100991693","-304344971796835","-988210469121666","380420607507129","268036840835544","0"
"63.35288","-550952358842573","130012038637644","-318156627099984","-99334520873065","258225411336866","246562048259429","0"
"63.44287","-436994639257833","484478034032608","-312658820577275","-243177743157707","281770216771128","363428923840778","0"
"63.53286","-409066458744408","-470154096093904","-260645815128728","-224372375047101","25550474249856","343408550083282","0"
"63.62285","-402221961771033","-363406375918715","-273691104869532","-21375738104854","-290808286469129","665803484781243","0"
"63.71284","-495595337700736","-974571448173881","-294683779773922","-207765576106102","-261639686871715","771287524837284","0"
"63.80283","-16313081279001","-802316552225997","-291526774473036","-204383404955267","-241840355603832","-472157635299726","0"
"63.89282","-154717797265819","-871836933214775","-30723797764556","-202474283780022","-228400782773257","-323128268903967","0"
"63.98281","-792842520640369","-220695939429845","-302359367869338","-201396649473767","449640084753264","-153677252174425","0"
"64.0728","805694172225882","-595919882819857","-250548202351777","-200788361370803","305210847014325","-13673484505579","0"
"64.16279","197455445427786","-535743671693912","-26365928597469","230215147504216","152838460566636","401113857105508","0"
"64.25278","-697130888715443","-67605546383389","-318153995878571","173502044796425","135866177975047","369198808122557","0"
"64.34277","-472819332699869","-628341376676954","-305917668812126","141489417266764","124345575339302","-178896649539082","0"
"64.43276","108631326947585","-610561156180696","-28518869195087","123419372207988","116525514344294","-153994123745776","0"
"64.52275","-488696914875088","-603935518769762","-288431655059398","400326210407056","-209037358150184","-13695170094175","0"
"64.61274","-262961749738701","-601466535265851","-289488765668796","356630751129443","-141892307429985","-125288459331564","0"
"64.70273","-215430346610578","-600546491024896","-289833352641606","-986940079728406","-273873650965899","-24887001925106","0"
"64.79272","-730259111208408","-437467735150577","-306685971926012","-557094280826553","-250144638674097","-233444941988229","0"
"64.88271","-556430736295205","-47669792039621","-302179430237285","-174999470771843","302045132659645","171801875424416","0"
"64.9727","363632774479002","-491316692028205","-317450724232426","-142334663562868","205024983095516","149138707023602","0"
"65.06269","891172779102132","-496764244281408","-312428717000538","593870432895978","139168750455196","133628822557611","0"
"65.15268","-680129615795321","-498794225069017","-277311102193581","509433299554962","94466248994824","123014396900352","0"
"65.24267","-468652746874868","-499550678941604","-285863792450348","311112439822919","270654421196052","-158132239131467","0"
"65.33266","-658400539909867","-499832564595324","-288651717969929","61114628153229","247959460176659","-108220206279249","0"
"65.42265","-167120760195407","-499937606719704","-289560499706364","-49616301110972","-163808865872263","-138969691593444","0"
"65.51264","159042890860872","-825448569227933","-273116441764068","-410727382384768","-143312770947865","-126669501969014","0"
"65.60263","389774258516693","-746747268044265","-277756162435989","-36250186077601","-129400242451225","-118251679861765","0"
"65.69262","-692417636688598","-554684034391532","-262528280873051","-335280185590309","-119956567942311","-112490815095212","0"
"65.78261","-471664232774294","-583113417681674","-267564439281233","39785244701563","150695850560398","154578674352852","0"
"65.8726","-417563107059091","-268235549209919","-302686666955526","311681011789771","134411797378211","137351747052687","0"
"65.96259","-404304277289071","-350899176150845","-294135480357862","119486768700397","-140883796498674","-600123997169602","0"
"66.05258","-401054870469039","-54443893444944","-274607750922588","110999621575576","-127751480754588","-410703997638509","0"
"66.14257","-400258522309721","-516559764635776","-278242285367582","-37344469412285","277525824668858","-134374192312196","0"
"66.23256","-400063357337782","-506170845637721","-279427036717952","-210796893929075","252623694850628","-12352450204424","0"
"66.32255","-400015527295324","-502299509487128","-279813230818859","562314763022327","10359932034391","410154556545304","0"
"66.41254","126473714692897","-663592801048508","-296679412803507","491621191631349","102443179885626","375385948478357","0"
"66.50253","-444969695029217","-623697278770066","-292177292156229","16461029535892","-30462672782187","884645681008648","0"
"66.59252","-437382611871734","-283358755829544","-290709733216532","180023709178867","-206777342088472","921055514896821","0"
"66.68251","-333669034425584","-356534701513051","-290231352157866","-983827074645422","250206330665461","945973139257375","0"
"66.7725","-308251436362337","267140587084501","-306815708064566","-555337094789087","23407951654554","963025894995857","0"
"66.86249","-3020222202152","995475094439001","-302221720403377","-174900283565656","-411093451493055","-165657333093637","0"
"66.95248","-300495595484131","-288376345763472","-250503333325595","-142278675741081","-279045807495318","-144933595895215","0"
"67.04247","-300121458030161","-232932641237791","-263644659991593","-410971649126649","-189413288871203","132375963193303","0"
"67.13246","-300029766318627","-495361393917865","-284668640109492","-362639741086773","-128571700549946","12215698351274","0"
"67.22245","-300007294978549","-811951014434106","-281521839387635","382408903677891","-872730856468335","246726946080573","0"
"67.31244","-30000178781638","-929925256319755","-280496074888499","302963654124533","-592400306268077","231978297223977","0"
"67.40243","-30000043814898","-973887284278216","-280161705825857","258119498867211","-402114947885132","221884834749989","0"
"67.49242","-300000107379332","-42449875292109","-296793005408381","232806490574726","-272951295942597","214977219977655","0"
"67.58241","-300000026315983","-34639332763855","-292214320005065","-499248764151793","262389389951518","-528770653024168","0"
"67.6724","-124507499768134","-480023961235552","-307462097270739","-412469185567242","24234924598028","-361872249827024","0"
"67.76239","-181498680549521","-429820201129956","-302432424276587","210728484693908","-354959418720126","-247652785656558","0"
"67.85238","-195465790371794","-573848136417485","-267312310656555","162502482992221","-240942630599163","-169484955734433","0"
"67.94237","-198888778878309","-52751883619657","-275864186373741","-827284679735244","-163549262756197","-115989610793793","0"
"68.03236","-242351608765915","-347518734195706","-295392140441715","-466974209642756","-111015478172456","-793792567239775","0"
"68.12235","-814319371138718","-380443333750598","-291757679220375","-146189295015342","-753561109733103","-543244033230978","0"
"68.21234","-270941939910015","-55544829599862","-240352069545733","-126072294171636","-511509165613877","-371777328008057","0"
"68.30233","-217386091183636","-52066230305852","-253595352447486","315943222947232","-13559314610396","-134107791719862","0"
"68.39232","-379753401816474","-833171438773988","-324873449493103","26544602628994","-124160244245696","-123342186741468","0"
"68.48231","-319545559621645","-749625125121171","-308108013095292","-480824850634385","147842440358249","155888959429827","0"
"68.5723","-655775140080894","-393020531891599","-30264297384131","-402069509779614","132474933263537","10668498364921","0"
"68.66229","-538176582047593","-460135074463785","-30086153175183","730453661841376","254164711928111","13886462629454","0"
"68.75228","-158371109932132","-647880607931424","-30028083401652","412316376423405","236766423115806","126597598931514","0"
"68.84226","-265290309229203","-617842272947934","-300091543631058","-263832902883067","928355750693373","-144924481981414","0"
"68.93225","-116001018172136","-44391285093442","-249808958338722","-2360315138225","951368655162094","-130744753465327","0"
"69.02224","-179413955140721","-479099634158095","-263418314164965","667681968275792","-354221202888886","-25260411724347","0"
"69.11223","-194954876431518","-492211668811786","-267854563961691","376883879353465","-240441537643326","-236000428821432","0"
"69.20222","-198763566678532","-497097749237686","-269300650941135","212738197623222","-163209126254426","-224637441767696","0"
"69.29221","-19969698118635","314761046133633","-286512326836516","120083514332359","-110784597178242","-216861008513744","0"
"69.3822","-19992573768449","117292840277574","-282122827044393","580991842499201","-139641016120184","183151342878918","0"
"69.47219","-160392185361802","694651748880733","-732679918928976","502163771036953","-126907894818117","156905887933908","0"
"69.56218","-114800610792588","509799293602242","-609548281605801","-26009892610912","138562877651421","270507888063633","0"
"69.65217","-685287573648765","-39529538556159","-468969224314795","-190370426669071","940549890607269","248253147065203","0"
"69.74216","-771886859776199","-291595821641361","-483144585566748","-581671198896991","138505428338555","-30104177791769","0"
"69.83215","-968602680719216","235254606712637","-270141513651587","-50254724473675","126137070061956","-206022525728225","0"
"69.92214","-916812797393743","131580625774288","-330708775868098","403435851788489","117741561668061","117464011621803","0"
"70.01213","172826720502084","-11860922272548","-16630868757568","314832654863539","112042780987903","11195176233863","0"
"70.10212","876510009888088","-818401936464968","-222719093212757","264819148183962","108174510036717","108179370587498","0"
"70.19211","-284208446142609","295029963854268","-709835460423175","236588215924184","105548769375405","10559767683728","0"
"70.2821","-175341875303468","109940231971288","-588621071778292","-664539573277938","235887521869193","-27732621553286","0"
"70.37209","132126602961289","203704137012035","-971208058257457","-375110103703494","224360063344779","-189792419410809","0"
"70.46208","474794197292751","138644403200744","-206906172395526","409486454694336","-477068053057949","-144552210237485","0"
"70.55207","-166307240395197","-248937407084749","-225952679436754","361801399082886","-323828656506885","-130489983627492","0"
"70.64206","-108700991841573","-186868124659053","-242161280642336","-669988886588201","-286223294400142","-383993238576855","0"
"70.73205","-322723403011742","340742749006677","-598990983349404","-552399591114393","-258527443634554","-357482052077265","0"
"70.82204","-245174931129892","227352141095532","-505306973342677","662402656281439","288756509491785","186915189990476","0"
"70.91203","-226169744564657","185098162637688","-474768740993175","548117420794496","260246962756641","159481734029894","0"
"71.00202","-221512049736967","169352601974366","-464814175267762","483607272326098","240894989473826","140707230618615","0"
"71.09201","776969319736645","-438637704065291","-932828101540017","447193476286012","227759078425576","12785861326444","0"
"71.182","-660390989718966","-29519976036989","-192174510539618","-115244809916288","867214865005569","119065466287523","0"
"71.27199","387169708954514","999964949019028","-475514707778186","-955391642908907","909866880429932","113047742230036","0"
"71.36198","-560994228082702","372627840989783","-417875280053047","171603606750704","358124014866972","10892942111848","0"
"71.45197","361743944384662","-165123863240628","-131241816555202","-338669406458605","33945395530996","106110985341786","0"
"71.54196","164146879682294","-130541406142807","-197807736323035","-349776892893169","-695823109735245","-290508284964642","0"
"71.63195","-128821926119771","-688337951945789","-403649503408778","-328097371783433","-472317233039784","-261940723300019","0"
"71.72194","-844157796137607","-758390153647129","-360747866406317","-172306632059265","100060691871712","-110826600425033","0"
"71.81193","-208851942213115","116833644779169","-279802018070313","-184368030832374","100041196988881","-107409348895174","0"
"71.90192","-353154402508966","686313587266477","-293416051841552","-191176282329381","100027964072371","-10507070076434","0"
"71.99191","-375343049622507","-209708240259587","-264373238382098","-195019309934923","100018981711159","-103470211297274","0"
"72.0819","-160183730643369","-15342895960475","-274906135239904","-484295336200593","-321081923949809","-102374891954267","0"
"72.17189","-124319707053517","127920457938925","-429002196459701","-447581865061783","-217946952001589","-101625293479643","0"
"72.26188","-908616492450287","727627587874495","-389232981001645","721568716017531","117327072597875","162014659557558","0"
"72.35187","401828367138465","-128856199029515","-192126151525363","58151465956819","111761430271009","142440676781139","0"
"72.44186","229855535480331","-48017090288636","-237875121325138","502458883582319","107983532200169","129044923546977","0"
"72.53185","105633183000061","-229619586847014","-269528234230131","457834572975586","105419135676742","119877335797451","0"
"72.62184","258880452661191","-173395923717086","-269846218231972","-572228025703939","-424805856969771","113603357494316","0"
"72.71183","634451096394815","-15244468715105","-269949871665796","-453663509381545","-384716871581846","109309664886876","0"
"72.80182","155488060059672","-144637399450289","-269983659637145","-386737851675609","-357504900049308","106371210955982","0"
"72.89181","351366075621813","-440865388611706","-21977379132919","-348960582402288","-339033706839448","104360235254316","0"
"72.9818","237096030869864","-666171754322383","-233406850753994","-327636592132075","698675711093324","-291706437451763","0"
"73.07179","-119484874616308","-91286603151965","-371773179741562","-315599921144708","474253548119814","-262760697203016","0"
"73.16178","-745782516722562","-904794409596033","-336876534131137","-308805627646061","321918200866424","-242951239006318","0"
"73.25177","662423861793325","-576314773602224","-225059489461996","-30497047885831","218514607766085","-229394334581886","0"
"73.34176","-134750664995429","-653909825619239","-24861042104044","-159252283526353","279074690192329","43010493343461","0"
"73.43175","157091604322931","257189327933597","-273027626250433","-176999292793482","253675048087049","294348861899813","0"
"73.52174","988932197787566","177395945939237","-270986917125949","387196655395027","-159929186354205","41483464352803","0"
"73.61173","846302545749748","147661668065798","-270321705961346","305666177970122","-140679286274228","378588837284949","0"
"73.70172","811347593306029","136581459926263","-270104866683173","-888782086726033","797234877415849","485346944693707","0"
"73.79171","-130312906950373","-811415755430845","-353735653776677","-76300771670404","733880910617413","458408481475924","0"
"73.8817","-621334296368283","-584678293252181","-330996831085908","-15533326421838","302715353812721","-862811739215406","0"
"73.97169","358208416577428","-841932051225756","-25662346729904","-139944432112241","526690691756974","-590478354767499","0"
"74.06168","231223666454282","-727795323747699","-272379937759962","-131257957086027","678722738992701","-404102855352883","0"
"74.15167","515989399328282","-506253809887214","-310996671917295","-126354735849964","78192045530752","-276553943740498","0"
"74.24166","405778342286457","-53369838023898","-303584591672127","561101187891774","217318072348816","155983533308133","0"
"74.33165","-656637414573985","-153359166281914","-217467001153336","-98987887312765","211755320998879","144625879065842","0"
"74.42164","-327008885203866","-251629218367634","-239395199055483","-617195614672276","-452625999588393","233396316050393","0"
"74.51163","-246225195391802","-288248659257615","-24654314674147","-609706342650365","-403600884775083","216226947370996","0"
"74.60162","-226427138008474","-301894560756935","-248873167491448","-605478902001577","-370323164828571","204476828417553","0"
"74.69161","-397067637099267","169467210821871","-517477390767836","-603092654795342","-347734606921965","196435455551834","0"
"74.7816","-338887346013018","120867451348542","-445034468863477","26999821239875","-200280660112241","159356985088703","0"
"74.87159","219397955649657","-151110826101586","-120094913452499","22644560735192","-200190509061547","15798176910442","0"
"74.96158","462196886541804","-964610568489562","-194174173702228","-708897934022878","-200129315499241","491585679995968","0"
"75.05157","-540248734271143","492103329960716","-586608303552296","-48725566464644","-200087777968188","566837528941123","0"
"75.14156","-373977443836124","264934511645473","-494530289794937","-509940776214101","-112490712157207","-342076103862482","0"
"75.23155","386290758951372","-150009735226936","-794888015162019","-440281156404505","-10526645319272","-234104991660952","0"
"75.32154","16261343795407","68361466515088","-174197481227617","153441544319926","713946960577449","-199682359659811","0"
"75.41153","-1729922772349","-286396303803048","-305511490155027","-174707741737205","613103815706281","-146124707176681","0"
"75.50152","-952408254621678","-213374023687399","-288315995588578","222402399450579","-115952809856148","-422093042945054","0"
"75.59151","993066130675165","579409293087416","-182269005632036","177802689594421","-110828595522406","128930804499034","0"
"75.6815","46985313566971","904397823298205","-207700805370053","907427885215842","421133973885124","-411764240263271","0"
"75.77149","166134239194682","511577885484507","-333172882676502","13832800095581","38222443688929","-281797129190479","0"
"75.86148","191700350933294","378842574178843","-304073090191999","145716869574697","-405501687053342","-612886803143797","0"
"75.95147","-854989076028024","-337837262017187","-328068001691876","130160964356182","-275250178015607","-103803648768847","0"
"76.04146","-511506417408594","-19490148292275","-315889637236046","496034904073008","-150804762621927","287586470055105","0"
"76.13145","-763424144338772","-646119085463163","-111036319773597","541315221120162","-134485725712619","291504611718213","0"
"76.22144","-169694625479259","-504261220061144","-164260162286472","-201708647695287","537196845669729","-363631333120338","0"
"76.31143","-192572912364108","-451399177082507","-181609569822238","-166121766923927","493127741263392","-311983595004365","0"
"76.40142","-198179806993856","-431700617683238","-187264966494684","-886128234058549","-329512354050436","-145074201852772","0"
"76.49141","-726031436364392","-337939453128923","-339771106083943","-848616473884526","-287911591112353","-130847216539596","0"
"76.5814","-55539463916527","-12551764384228","-299483622928257","175651855042079","456871269192294","142016191447615","0"
"76.67139","-338083330811118","-306159964417769","-202649617809015","142702912409292","310119297133411","128754420543866","0"
"76.76138","-384825776435345","-283474681772075","-221084579682958","-481597111731613","-394258174538426","251242002594945","0"
"76.85137","-922758698217482","408469603408681","-394496775790803","-358952041431054","-363981433738684","235068244916057","0"
"76.94135","-754592573082576","246316346262082","-351024052287598","-433276432682041","529333227711841","-391274663899025","0"
"77.03134","-713379271200744","394290914065063","-336853222803343","-375230036697427","359305694178514","-26777477553956","0"
"77.12133","-703278923995619","523344380581425","-332233949105043","166728256028082","24389283557197","113237902354335","0"
"77.21132","-700803582079153","571434980804378","-330728201715766","142021181066236","165551830118736","109059560095773","0"
"77.30131","-700196937824359","589355505469328","-330237372345524","562981814369253","112374799330976","-253634290191988","0"
"77.3913","-700048264524147","-233321294969357","-229635612018305","579104486761608","762788035361497","-17357848946443","0"
"77.48129","-700011828425031","-162228149620667","-256842396490693","-11344354134928","517772303358648","-143442585247013","0"
"77.57128","352952141237048","23855665666151","-349412478495888","-9016707077191","351458263235958","-129730594865144","0"
"77.66127","11007215750788","15790546855031","-329587603073541","910373944916983","266627814791805","112168915450343","0"
"77.75126","278190099345958","-999787366299545","-272904394471723","513875288423106","245226243115045","767645056746701","0"
"77.84125","143669926691878","-560769395679252","-284427335318584","103388020653274","-335430672015051","525349586185953","0"
"77.93124","-647901023149402","-18617965307521","-237962592993026","888464079391489","-227686727655691","359530990631808","0"
"78.02123","-158784299960429","-14466124564372","-252816453357289","-772705623752785","-154551298601072","-26066644881167","0"
"78.11122","-389140517040202","-129189788831452","-257658375036969","-610379713712414","-10490775700988","-241518008223296","0"
"78.20121","-953685862141625","-123424491203192","-259236699120893","-109296576439719","257121128389489","297840426541962","0"
"78.2912","-702203751223961","106554168169062","-343452656681086","-965369261190169","238773206769892","266958586060481","0"
"78.38119","-474062564140213","522536233346419","-320904582354681","398635099974073","226318835177237","-280429779626917","0"
"78.47118","-671658645958475","-981697085007807","-296814279118397","268569409295248","217864941870748","-255043344671691","0"
"78.56117","-167445683140813","-742235946207997","-298961548673289","-919550393955962","608489761068973","254572026418124","0"
"78.65116","-543006766333279","-97847475086757","-299661495404643","-954588919487173","573641681404835","174220243532957","0"
"78.74115","-435047373704483","-866506992222291","-299889657456127","-38454346537365","215028723299549","-119640449240233","0"
"78.83114","-408589232769022","477104052465944","-299964031575478","-347721925584255","467169951328675","-113441240570989","0"
"78.92113","-402105005647","177788484658654","-299988275351309","-398306450542638","-200410083810763","-240762194653452","0"
"79.01112","-400515884118298","662512613629006","-299996178109307","-660364350280345","-168157283498154","-22789622873881","0"
"79.10111","-400126430265824","246879298206658","-299998754176022","121115173570182","-146264430000902","175599221846213","0"
"79.1911","-575523491570203","-967215726101393","-249778711704988","103208124304206","-131403796827765","15173747888276","0"
"79.28109","-518508914650652","-736839599556858","-263408454651813","-21742505988275","-121316559075304","-259283099196558","0"
"79.37108","-504536071021381","488159336441209","-385033408500742","-122729089492833","-114469450726073","-240571291845118","0"
"79.46107","-501111677302499","244644045413798","-354679566899271","-643489952778469","286541523607927","-962021045422107","0"
"79.55106","-324779937559382","-883562214557664","-261083636813724","-537441839598754","258743454193546","-974008523996977","0"
"79.64105","-381565448223009","-329251420976065","-28057411592841","240185650077413","-288609883850723","164905720150876","0"
"79.73104","-219989646773659","-977642384014975","-253446850845616","179130056136306","-260147434850611","144419218130412","0"
"79.82103","-280391468028749","-740724998770989","-264604160144765","-142440527977015","155535799925157","-264291462403039","0"
"79.91102","-295194440337241","-652439890534929","-268241114879604","-123956242022069","137697102881911","-24399884148524","0"
"80.00101","-298822277786721","-619541248131687","-269426655173291","-687736022466856","125588387447458","-985478003416486","0"
"80.091","-124218863126014","-119074139063874","-336774282703894","-605970632432104","117369121818521","-990061650461119","0"
"80.18099","-181427942943738","-232579623909834","-318727628825283","-272710069162168","24391104980521","-230883330864899","0"
"80.27098","-721925974401544","-763084139486646","-296104656284254","-284595757426234","229806347696271","-221135477845293","0"
"80.36097","-554388493349021","-660771820908524","-298730232496836","-291304826286241","-17613100311927","-82900909214688","0"
"80.45096","188640770351337","-459910156426892","-28284579906896","-295091868649147","-151676905004662","-882979767937413","0"
"80.54095","-292613824909683","-485060884513082","-287667940876021","-297229525924352","261285504359006","-919915421913868","0"
"80.63094","-258156244721454","156510564508801","-30598011136747","-298436161126269","241599940328667","-94519289926033","0"
"80.72093","-214252637789544","-44136717614428","-301949340452043","131542884953028","961165144976023","-227812669539219","0"
"80.81092","-203492964254018","-643806243862689","-300635427664214","742515076608532","973639318651826","-219034023999423","0"
"80.90091","-20085603798118","-867267637276992","-300207130732872","32901923091017","230331742315997","-8146274726912","0"
"80.9909","-551194806813551","-745997488289885","-30006751852794","272826990344212","220588860018487","-873137487623975","0"
"81.08089","-437054057178122","-591668726029141","-300022009054629","975549882620245","-502666575087242","171808983156475","0"
"81.17088","-584573527268506","279520031999423","-333487762433289","986198736035173","-341204657570409","149143571308291","0"
"81.26087","-520726851544757","104160596968442","-324396613926251","-443324182604115","-155281681662709","206867455274891","0"
"81.35086","-329587125076264","388144988508182","-287952578722532","-250241500729024","-137524610142155","141572893707651","0"
"81.44085","-382743569382528","144638698787087","-296072894935248","-157678669604754","138770852718757","132532352612491","0"
"81.53084","-571263388100623","-320081989992135","-248498997038017","-132557657372001","12631723727268","122264010993648","0"
"81.62083","-517464870077472","-244747461114934","-262991305302226","-261931079570766","382106011182517","-16326761937136","0"
"81.71082","-504280201867364","-216674734290826","-267715371629246","-234957998912945","355732676128586","-111734681960718","0"
"81.80081","-501048970186673","-20621368803373","-269255278333909","-650392758367807","735885863763155","-270773687041594","0"
"81.8908","377205457107854","123156345199968","-319978124829494","-584891623397736","82072216876852","-248435050644017","0"
"81.98079","924436021986538","458930916139375","-306512281208999","-69147183261621","219951890870031","299796893071294","0"
"82.07078","-15283689704881","171016430738138","-302122812171164","-651632754463916","213543128645484","205170569823402","0"
"82.16077","-11294899901407","637277170787298","-300691974343463","-198484792022067","-550492240838768","140411604304548","0"
"82.25076","-103173475068218","-160361154357972","-300225563287471","-242698099972809","-37366820441156","960928199417044","0"
"82.34075","-100777739190316","-122493035031005","-300073526998703","450111901732168","106756881692351","657625848667104","0"
"82.43074","-115314564446763","-596589554146406","-266543379510723","341179705722345","104586498522768","450056265491524","0"
"82.52073","-811054638542094","-473257308863258","-275613537431723","-150968983910051","-290078111743246","134643505550787","0"
"82.61072","-727216708120861","-427298669683589","-278570142192965","-128770266826781","-196901898179418","123708810660839","0"
"82.70071","-706670132924303","-41017260090573","-279533908401926","-546899992973744","-277607642741957","-146901468232078","0"
"82.7907","-350649669018268","-89199845645577","-296588361909464","-482920075514264","-252679232077487","-132097734116415","0"
"82.88069","-463397977613126","-771546478076726","-292147612242253","-161454261147973","284840585607086","-12196657320641","0"
"82.97068","386432771597257","-889397053913514","-3074403525017","-526669303515879","193346721845097","-115033158935222","0"
"83.06067","947049856806441","-833312998843928","-302425336121317","70271299858818","145245244225136","212753056726544","0"
"83.15066","232098180382035","-161470146919068","-284050294190718","396657710652183","130711984499562","145600794701615","0"
"83.24065","568814460500591","-311114020294059","-288060570865808","-121163397975412","252968041293661","-253162541761969","0"
"83.33064","-525083498384729","-692349267826192","-255887215005262","-111946022070765","235954135976998","-23638259514574","0"
"83.42063","-355162323328238","-634413114500483","-265399647098401","368102583552305","-304079027620609","-933355061601375","0"
"83.51062","-313518902704133","-612823734042507","-268500420234054","207781453268064","-27064772304263","-954390521372616","0"
"83.60061","-303313144176983","-604778647825981","-269511181093596","117285599860654","148408317386007","346848310874564","0"
"83.6906","-651796981950322","-439044809880112","-303321247539621","66203752636799","132859044495619","237370924212666","0"
"83.78059","-537201635209534","-477285602946605","-294342334967525","-139816405778837","-981671145651235","162448407257638","0"
"83.87058","-333624681582187","159407952448294","-308155767571169","-122475013831198","-666347801304566","1111740416737","0"
"83.96057","-383733073273458","-333398650501218","-302658540396157","174420382373897","-452309711119063","760836486532212","0"
"84.05056","-220520877338074","-389450109014192","-300866605990954","142007787756307","-307022960640192","520690037461886","0"
"84.14055","-28052165932383","-333332769344523","-300282488069259","267265358417371","-266326192743361","-128000055377221","0"
"84.23054","-295226346960185","130506662675412","-233130906546237","237969018830786","-245021505316958","-119162264351636","0"
"84.32053","-298830097300207","-578726977029984","-251241465658306","-209227924415629","297924194966043","-244677464411667","0"
"84.41052","-299713286174012","-843016440555689","-257144975361873","-161655467488206","266469888922787","-230575703229274","0"
"84.50051","-299929733628252","-941501504743731","-259069345924065","295857725605007","-547607417120543","305328959621159","0"
"84.5905","-299982779473639","-423291926309963","-293177222267151","254108442654681","-50019432504484","27208347772717","0"
"84.68049","-299995779680653","-345943614681117","-284295386963969","-56564382154162","-716475978432547","-145359005008093","0"
"84.77048","-299998965705518","-479856379793264","-298140463902583","-319286798092573","-807546947645927","-131042125916628","0"
"84.86047","-299999746520349","-429757753430073","-292653551850225","-305129426626389","451845829025463","-252807628609643","0"
"84.95046","-124507431197238","-24835304633404","-290864979871675","-259342004163265","306708082470955","-236139704924448","0"
"85.04044","-181498663744513","-280754232578726","-290281958002192","-377049937057224","-111302062655229","-931692805378623","0"
"85.13043","-370958292934561","326435796558163","-256611321888648","-343492082401231","-107671718409857","-953252931009618","0"
"85.22042","-317390098900034","-50571576776975","-265635684648983","-374430416987446","159034674118136","-968007931356214","0"
"85.31041","-304261877326049","-815809477650256","-268577361534521","-646887137209739","140072101002067","-978105740569119","0"
"85.4004","-301044479300935","-931363077534571","-269536261694979","207038793524442","127200510593258","330618439423306","0"
