Timer,AX,AY,AZ,GX,GY,GZ
"1001","4,01289488468007","-0,745110677901707","-27,9653580836756","-1,0931397066505","1,98744501492183","-1,04548579691592"
"1001","4,15054186252971","2,64744032318589","-32,231694841001","-1,11158430428206","1,98988361434776","-1,04572845280914"
"1001","4,18592562348398","1,63739136054243","-31,0977505138428","0,581499154360398","-1,303688198897","0,434704295527133"
"1001","2,47576967445282","1,33272022611538","-21,9025601153208","0,0940482452061541","-0,471587759536711","0,216573816435886"
"1001","2,99685876269707","1,24009944505855","-24,9893670552942","5,03369171234542","-3,45878600450978","0,0995619401720663"
"1001","-0,296981048304754","1,21192220555479","-25,6316454487333","3,53580587081402","-2,52793750867395","0,0350749621490357"
"1001","0,780402160841363","1,20334950996452","-25,7652861266486","-2,00739054386959","4,37342135624302","2,88429338780468"
"1001","7,96176515000803","6,28800958963692","-29,3769474140714","-0,693103691983745","2,84382135586731","2,47287672716841"
"1001","5,97329436296717","4,83498647977492","-28,1284360891099","6,49015748058104","-4,27187530492067","-2,08317540428827"
"1001","1,97652374361391","-0,694355200059837","-26,0767276282441","4,67462313621379","-2,81900606285451","-1,62450656082481"
"1001","2,85701189822908","0,623376195140738","-26,6498227912921","-2,66106992819736","-0,656897243219012","0,0735219040318383"
"1001","4,82353614009039","-0,671468112351346","-28,5609954830808","-0,891890891358092","-0,882949956649361","0,0207122866274387"
"1001","4,3743676470272","-0,0654166243550868","-27,9586586413401","-0,353874694606645","-4,2479487588753","-2,89310487284346"
"1001","2,52865781166164","1,81472693482631","-26,0414015499827","-0,190261277343154","-3,45248188455589","-2,51849206823272"
"1001","3,01166691557149","1,38674918739224","-26,6424723933345","1,55538937819253","3,40042519531707","-0,867346116593657"
"1001","1,42706384896235","1,25653955848395","-26,7675389197305","1,08625047647378","1,853488055117","-0,946302543277063"
"1001","1,98321002987534","1,21692407015053","-26,7935618689348","0,943582989240231","-0,342293263618596","-2,43252524596919"
"1001","3,85888475443605","-0,490884778269453","-26,7989765382697","0,900197092570895","-0,12829394018602","-2,26157123737876"
"1001","3,3842689389074","-0,0104752423351804","-26,8001031839767","0,887003224323108","-0,0516908597390868","0,718148793314821"
"1001","3,25132710207739","0,135686439605177","-30,3841918984902","0,882990902976687","-0,0242700630756424","0,380298720260534"
"1001","3,21408954824651","0,180155243135665","-29,1299434696688","2,57766573272702","-0,0144545297410679","-1,25034025188625"
"1001","-0,236132639220956","3,58519676004276","-34,2447498534699","2,09302482734197","-0,0109409668120017","-1,15994465147251"
"1001","0,797445973066366","2,62115994969929","-32,3090022202008","-1,44614689025984","-0,00968325375294414","0,332659059149536"
"1002","6,2466432759983","0,632101531610063","-30,1142985386453","-0,522426716956043","-0,00923304347612287","0,165264513371936"
"1002","4,77298579345952","1,02694259507862","-30,6576402778819","-1,93741378739455","-1,65111243490732","-1,37029081355758"
"1002","2,64031238963111","-2,24444156440591","-21,8110592194599","-1,367718435054","-1,23883868136712","-1,22685557443006"
"1002","3,04294182087402","-1,23974031527983","-24,9703258421966","5,58910875890882","-1,09126139466346","-1,14684440899089"
"1002","4,8756158741179","9,24047039535397","-27,4196106129611","3,70471471536334","-1,03843471005452","-1,10221251355238"
"1002","4,38895539416227","6,42901081759312","-26,9292402877693","6,52345105211283","0,622515649450011","-1,07731591219056"
"1002","0,812848001529461","5,5736413258246","-28,6191346792923","5,38064287497096","0,217068529181779","-1,06342806912946"
"1002","1,81116565146187","5,31340035589002","-27,9707558298797","-5,1422607899356","0,0719349003800495","0,386498020091206"
"1002","3,81069441830684","-4,94031283875919","-29,6277729366635","-2,34232844318891","0,0199829462134416","0,195297007738221"
"1002","3,37077062807818","-2,05994276814721","-28,9725532167526","-3,1867500045182","-1,6406542952617","1,53082025955236"
"1002","4,96744206778776","0,512148399145022","-28,8362197790192","-2,44354282617362","-1,23509509143539","1,27580296044776"
"1002","4,41467628768534","0,294691506629891","-28,8078524914066","1,17426018870781","-1,08992134126469","-0,308630164262333"
"1002","4,25984432520273","-1,46722450830019","-27,0100228838239","0,274452186319065","-1,03795502527485","-0,192459979303954"
"1002","4,21647525738204","-1,0032767489765","-27,6359433446827","-1,69507892592138","2,26472790560562","-1,56983699020983"
"1002","5,92422330152759","0,833632614296703","-27,7661804019375","-1,29402319121725","1,44695447617074","-1,33816659011912"
"1002","5,40257053397009","0,392501125484489","-27,7932791982592","3,91562485452913","-3,77189689748277","-4,09329433506138"
"1002","-1,62313013784923","-1,43746652613622","-24,2150634320505","2,49990489043073","-2,64003407289083","-3,63016200543018"
"1002","0,408942284159814","-0,994223063737344","-25,4705338619925","-6,41009761758974","2,69124856838921","-0,487458818821422"
"1002","4,4179259011274","2,53214321984417","-36,4833260490144","-4,11967395928053","1,59963157869338","-0,734393490387728"
"1002","3,54085865731348","1,60501873249128","-32,7747891602032","3,36043532176738","-0,433163588690347","-0,872138796070948"
"1002","-0,144603271346262","-0,372809335638022","-33,795070447169","1,63517397901744","-0,160821831910423","-0,948975998062119"
"1002","0,823083724466619","0,0254484935609016","-33,0073632873874","1,11051337276722","-4,98945617138557","-3,87619571245046"
"1003","2,81403271944407","-1,54914005888209","-20,2999727943604","0,950961457396489","-3,71791147125561","-3,50905986960913"
"1003","2,37170569992061","-1,02819905745407","-24,6559097756687","-2,48934907183932","-3,26275002778209","-0,419905523807194"
"1003","3,96770398524655","4,21756230705341","-27,3541891643603","-1,53556471652583","-3,09982068711187","-0,696710854682417"
"1003","3,41474965183995","2,81355332459862","-26,9156278601848","-2,94140911879647","1,88462305567994","3,475418846251"
"1003","4,97976077274783","2,3863921236123","-26,8243751575599","-2,36893343532298","0,668851804106769","2,80271973664379"
"1003","4,41812680747667","2,25643092399872","-26,8053879472039","4,58873927124807","0,233654993689419","-3,34124248891133"
"1003","0,821019034061583","0,521134941937376","-30,3852915142625","2,70460235231706","0,0778721821182752","-2,76847265265122"
"1003","1,81345439119214","0,993181684495937","-29,1301722698619","-6,3478480952768","1,66414880078309","1,87756778084818"
"1003","2,09143960574937","4,52831119103337","-23,4932345902052","-4,10074356809503","1,23197150919906","1,4692259537149"
"1003","2,16930440465764","3,60385286101219","-25,3203408740934","5,06208714518688","-2,20681153397651","2,68362353403667"
"1003","3,91101055218203","5,01834810871162","-27,4924392399189","2,84854980906129","-1,437756426094","2,36103981122992"
"1003","3,39886958867897","4,44869969217535","-26,9443939481017","3,87129702700338","0,479574666986495","-2,14544159454471"
"1003","6,69520859986","-0,811880607392078","-28,6222877446604","3,18231957304323","0,165901453495831","-1,65925083346923"
"1003","5,61852667865751","0,587619804122898","-27,9714118971926","2,97279808216505","-3,23046193487959","-4,27240181709211"
"1003","1,87715186003074","-4,07385893069493","-26,0440551563377","2,90908154849985","-2,44622231063009","-3,73007189133638"
"1003","2,82917742600607","-2,49208550874395","-26,6430245367846","-7,28566494865635","1,11858477205608","0,898988525744919"
"1003","-0,343948103591405","3,07642767320812","-30,3515080959192","-4,38593836534326","0,394641160238274","0,481174891606236"
"1003","0,767246419231181","1,77061396990253","-29,1231428575577","1,58356798694893","1,77753925045741","3,1324680615487"
"1003","4,51828835914436","9,8521084700371","-34,2433348306926","0,398924735634887","1,27256069237492","2,6114146421689"
"1003","3,56897059349641","7,31085406182532","-32,3087077923717","0,0386687958397235","1,09179884468171","-2,00577729627376"
"1003","5,02295869112868","-10,4198679174109","-26,5303829860816","-0,0708868379037991","1,02709343282119","-1,58134317742265"
"1003","4,43022672161541","-5,81433233298937","-28,3280704468798","-3,4959932477527","-0,638109029375369","-1,34458498112442"
"1003","0,824408269646362","-1,021613964829","-30,494047554196","-2,53758524366359","-0,234183989454689","-1,21251632541379"
"1004","1,81440372998227","-1,56345852585661","-29,9447285946449","1,14566141903105","-1,73163575215434","6,07205012768545"
"1004","5,53149731532764","10,1419810969669","-29,8304302304597","0,265755157373466","-1,26766276384545","5,13553309865599"
"1004","4,57267047630722","6,70328997023052","-29,806647843509","3,38996125430214","2,18250184949124","0,286586900884538"
"1004","0,864307349647732","-7,90895952338299","-24,4259179391719","2,34004795957342","1,41752088222132","0,581743664343861"
"1004","1,8255796259589","-4,35464763564163","-26,3063341063281","-3,06692091657533","-0,498351833719969","-2,137970064116"
"1004","3,81473183169038","3,5097544645751","-23,1137433765745","-1,71120720424844","-0,18415658034841","-1,65508305809652"
"1004","3,3719015241286","1,90245101292218","-24,4494519087872","-4,69071787484326","4,85443422559142","-1,38571862323323"
"1004","1,52796704052157","1,4134387050685","-30,1031580316363","-3,59680197701851","3,6580454270455","-1,23546152816804"
"1004","2,01147342774157","1,26465968204925","-28,279540805596","3,51944330763437","-0,0542943480265534","3,17489249352944"
"1004","0,427009652227491","1,21939456840066","-29,6920227081227","1,68352910307686","0,616838542139838","2,63507987441254"
"1004","0,983194849147587","1,20562293264152","-28,9859218501292","2,82111340467308","-7,35312583885719","-0,55039717561559"
"1004","1,13898460430748","4,59294514981206","-30,6309285737949","2,1670584824112","-5,20604991751235","-0,327322656431216"
"1004","1,18262195378599","3,62351735020095","-29,9732098191796","-1,42363288534414","-1,15340270137227","-0,202887040969503"
"1004","6,35453264821113","-0,0629373204440085","-31,6282835452231","-0,515580095417903","-1,70271932657726","-0,133474261545166"
"1004","4,80320604918453","0,815481247974933","-30,9726594605333","1,45645829796346","-3,54139295291517","-0,0947543666860112"
"1004","0,928881309280391","-0,613021317416121","-29,0443147404037","1,05616503999884","-3,19956355576941","-0,0731556024478176"
"1004","1,84366705693798","-0,0476345421674254","-29,6430785491824","-5,84914612950262","0,206878604664789","-1,50328652260982"
"1004","5,53969409324773","11,9946734862602","-27,9757378992459","-3,94908580517071","-0,573753227866303","-1,30104335244342"
"1004","4,57496642742627","8,6584725248365","-28,6288095700601","5,1082070296744","0,788852777957237","0,253951263382324"
"1004","7,74453404675214","2,55618542535981","-23,3889146218982","2,86257509668342","0,276610476473802","0,121359664697749"
"1004","6,63234293866772","3,69960165791252","-25,2986347204608","0,483772193648463","-3,19083259373331","-1,39478185308298"
"1004","1,16112595319021","-6,12705736266778","-27,4879227785629","0,760366329081438","-2,43203661340827","-1,24051718664731"
"1004","2,628615632322","-3,11675865473145","-26,9434541950931","-2,54731000395568","-2,16041842045655","4,61425150282634"
"1005","6,47945730705991","6,27788681823702","-26,8301650625067","-1,55319092597566","-2,06319012107789","3,88016348562194"
"1005","5,55809385652042","4,13615061371318","-26,806592669256","3,8368106497072","1,25569476455228","-0,855863590925538"
"1005","0,140328480706887","-3,29848391886856","-26,8016878940946","2,47593709641693","0,443720977953556","-0,497718188520471"
"1005","1,62279017496704","-1,56042629638765","-26,800667343524","-1,32970135342697","0,153067286633734","1,14424194130215"
"1005","0,318137878725053","2,35987932703178","-30,3843092847778","-0,487015046598621","0,0490250506993504","1,06016151860357"
"1005","0,952699418791493","1,5526084899217","-29,1299678945688","-0,230749924518856","0,0117821489867594","1,01325970666632"
"1005","6,29013040300416","1,30700124337956","-28,8689735004416","-0,152818418735015","-0,00154929968422532","0,987096898578598"
"1005","4,78516671612047","1,23227673113288","-28,8146676517328","-0,129119057915065","-0,00632141773879178","-0,469676421932505"
"1005","-0,796067479853657","1,20954225237007","-28,8033680787521","-0,121911963715807","-0,00802964250031255","-0,28229493788311"
"1005","0,640605927321331","1,20262542536008","-28,8010169443425","-1,81561524705733","-0,00864111769906217","-0,177769641228571"
"1005","2,76291993992962","1,20052102277468","-30,5924548821559","-1,33067888954847","-0,00886000102583998","-0,119463252546969"
"1005","2,35738880071115","1,19988077107617","-29,9652044883203","-4,57499731046335","-1,65097890083641","-2,97129705579423"
"1005","5,68358966099372","1,1996859783876","-29,8346907081142","-3,56161077441126","-1,23879088158434","-2,56210938074777"
"1005","4,61527216621954","1,19962671389582","-29,807534333258","1,8342501316713","2,1928368126305","1,9926815143301"
"1005","0,87624025774667","1,19960868303434","-24,4261023936249","0,475158430071295","1,42122037995839","1,53343879311176"
"1005","1,82892208246686","1,19960319725431","-26,3063724862927","-1,6340431530121","1,14501298491595","2,7194427939867"
"1005","5,53556396541367","1,19960152823907","-30,2814599426527","-1,27546190729809","1,04614193727387","2,38102054086933"
"1005","4,57380956167794","1,19960102045132","-29,1085677383244","3,92126943383575","-0,631290437168732","2,19224155568281"
"1005","2,58452231007712","1,19960086595999","-27,0725935637733","2,50162143523914","-0,231743209928092","2,08693670377138"
"1005","3,02731479073694","1,19960081895694","-27,6489626046952","-3,01778561423232","-0,0887215035986931","-0,856162858981206"
"1005","6,59113457681802","1,19960080465655","-33,1446707917245","-1,69626491296955","-0,0375255320419866","-0,497885126478384"
"1005","5,58937511788603","1,19960080030574","-31,2881784841039","0,401511140934044","-1,6612399985972","1,1441488198304"
"1005","3,58888228622178","-0,496155277849145","-25,5261113943005","0,0394553346316387","-1,24246393851104","1,06010957350607"
"1005","4,02853603793992","-0,0120787598043655","-27,3271816445828","-3,4624376410148","-4,37664018663234","1,01323073060844"
"1006","4,15168485728028","3,52671073282183","-25,9100083284399","-2,52738081576739","-3,49854819745531","0,987080735129682"
"1006","4,18617934674082","2,60336593132704","-26,6151330306086","-0,547130360136815","1,74189477476148","2,41467288366236"
"1006","-0,963846299096356","0,626687809651551","-28,5537774855383","-0,944926288884417","0,617760866949233","2,21101353377555"
"1006","0,593610391813416","1,02529550307102","-27,9571567719845","-1,06589802109046","-1,42667403860938","-0,786950217561832"
"1006","6,18954809354447","-2,24494268214012","-29,6249433418628","-1,10268613010657","-1,15849883612267","-0,459276872769083"
"1006","4,75699319864659","-1,23989277730525","-28,9719644548841","2,27791641537428","5,50565920609732","-0,276493852643047"
"1006","6,07562459411041","4,15315577921569","-27,0441701285941","1,30597456346672","3,89115756389982","-0,174533674992568"
"1006","5,44497865707905","2,79395802989158","-27,6430484593903","1,0104021834301","-1,61289020382466","1,32452099780568"
"1006","-1,61125144860593","7,46769860476851","-33,1434402186264","0,920517143837407","-0,583116124036981","1,1607249331652"
"1006","0,412269553743904","5,88965577314238","-31,2879224352462","2,58907765032606","-0,214498759220892","-1,81500224694886"
"1006","9,57854557681993","-1,37347847620469","-27,317985262546","2,09649524858056","-0,0825486894813484","-1,47492487933876"
"1006","7,14605709145687","0,416757065272097","-28,4919491010991","-4,83688151129067","-1,67735646334102","1,59913568510633"
"1006","3,02491529261489","-5,82159895751744","-23,3604376733934","-2,94535607340946","-1,24823297939158","1,31391072845022"
"1006","3,8705665696067","-3,71958086801479","-25,2927094404855","-7,45781871420773","2,18945692447798","1,15480630381081"
"1006","-1,05225073263276","3,70296966943203","-31,0705441787668","-5,83008118026925","1,42001051704903","1,06605454016216"
"1006","0,568847947339972","1,96123556486372","-29,2727547481189","4,84029192826369","6,07070154841737","1,01654695689666"
"1006","7,902507929215","3,12707962460409","-28,8986835687073","2,0852057771508","4,73546035931139","0,988930595260249"
"1006","5,95669617321875","2,48178059514257","-28,8208495104572","4,63916028769566","-3,95270458669616","-1,91083270866274"
"1006","7,13156221648077","-6,19332809735372","-23,4288729205587","3,41583063243435","-2,06271534570181","-1,52838110789838"
"1006","6,46064701456422","-3,83267719987476","-25,3069489577415","-5,43566502009127","3,53994581179544","0,127137525887095"
"1006","4,55282501643152","1,97280472089978","-27,4896527456505","-3,12744913430145","2,54547132692582","0,0506203192453161"
"1006","5,01843624876275","0,739087316361902","-26,943814154284","0,966280858649465","-1,09459131116357","1,45011658778652"
"1006","-0,0108318289315186","5,45100452361717","-28,6221671053055","0,211204631474999","-0,397586136683619","1,23078477054907"
"1007","1,58044955216933","3,8845767003992","-27,9713867954176","-0,018417827046578","-1,79012709515769","2,55061607317945"
"1007","5,46596579042921","0,016488400440211","-29,6279042234644","-0,0882471655423725","-1,28860029290707","2,28684547781487"
"1007","4,55431482736921","0,83964604089726","-28,972580533972","-0,10948261675283","-1,1090740338383","-0,744649578911161"
"1007","0,859165857084305","-0,60566932601487","-30,6281526080534","-0,115940423712277","-1,04481091260411","-0,435680695024689"
"1007","1,82413947280119","-0,0453977434604053","-29,9726322160626","4,96978071512063","-1,02180732097255","-0,263331412975337"
"1007","5,53422433682778","1,82081755768715","-24,4604547814442","3,51637395859211","-1,01357296792855","-0,167191391853205"
"1007","4,5734343262158","1,38860222238597","-26,3135202857002","1,37849069542282","2,27345569348084","2,77079583729877"
"1007","6,02420900097386","1,25710333312021","-28,4910200606196","1,72834969872099","1,45007867033176","2,40966633857735"
"1007","5,43057693853188","1,21709559515765","-27,9440986554132","1,83474357205727","-0,486697465744439","0,766041617643747"
"1007","3,54440226478574","-2,18658866965954","-26,038372012143","1,86709848125435","-0,179984789179785","0,849193496732123"
"1007","4,01607700147617","-1,22213892361552","-26,641842028747","-1,51485222247188","-3,35427518460472","0,895577347693639"
"1007","2,42829913211467","0,767045127651267","-24,9754806129088","-0,543320352231922","-2,4905424335957","0,921451226355281"
"1007","2,9835560377535","0,372242287313529","-25,6287560357573","-0,247872649671664","-2,18136113176303","2,3780633760115"
"1007","3,13908577471761","1,94788199912216","-32,9323934982994","-0,158025525123319","-2,07068676253103","2,19059198750061"
"1007","3,18265029203287","1,42726080654341","-30,4520821965602","-5,21838755525954","4,53709236779921","0,643837379312168"
"1007","4,91474878998141","-0,426891104402756","-24,5602153076861","-3,75726896689831","2,90240936122295","0,781025425970749"
"1007","4,39991668442103","0,00899444406000957","-26,3342777432055","-6,70472548732376","-0,966821968171006","-0,584627383686524"
"1007","0,815918303894762","-1,55414610345426","-24,9114848339393","-5,60106176205747","-0,351849892741732","-0,34641697981814"
"1007","1,81202565574894","-1,02972211609426","-25,6154402513232","-1,87364210780165","1,51032572254941","-0,213538252462256"
"1007","3,81093530903543","2,52134284888633","-29,3457685548918","-2,7401151417168","1,17690908447956","-0,139415729276934"
"1007","3,3708381025594","1,60173278525939","-28,1219486148701","-3,00361392651468","1,05755944758009","-0,0980686412013239"
"1007","1,52766917177782","3,01770308854717","-27,8673049060201","-3,08374522532296","1,01483711701346","-0,0750043738387855"
"1007","2,01138999348457","2,44850344871","-27,8143204625278","3,675466432778","0,999544254995099","1,38004051608517"
"1008","3,86677807783877","0,579571840388478","-31,3871501282277","1,7309765160563","0,994070030494454","1,19169487743542"
"1008","3,38647989117136","1,01096075573852","-30,1305589969759","2,83554240035157","-3,93401116527033","-4,68208488855428"
"1008","1,53205050093151","-0,553547865075017","-20,9094607674953","2,17144641218895","-2,69806440727569","-3,95860164600327"
"1008","2,01261722175298","-0,0295401057027739","-23,9908005332266","-3,11819349069124","-0,613605035190097","-2,11284845565436"
"1008","0,427330033621993","3,52139822444189","-30,0077251305023","-1,72679945056678","-0,867453101590432","-2,08324886233796"
"1008","0,98328458929041","2,60174963293566","-28,2596838094021","2,08812043202513","-0,958320416214863","-0,62455843140696"
"1008","4,57880153677852","-1,06956001614323","-26,1040367161094","1,24825665533282","-0,990847230321195","-0,810870511313382"
"1008","3,58592058278015","-0,186533666946551","-26,65550507117","-0,703045117957184","0,639550037595761","-3,79915759395511"
"1008","3,30781055471239","-3,30939041986786","-24,9783235211528","-0,296445750072219","0,223166149419837","-3,46608640171136"
"1008","3,22991079502783","-2,2595006098709","-25,629347567792","1,52309814876777","1,71615814963116","-0,395934027887646"
"1008","4,9279866507355","3,14719021531108","-32,9325165800587","1,07643055204451","1,25058874718793","-0,683339054715333"
"1008","4,4036246635207","1,79214304332533","-30,4521078065332","2,63649169783616","2,72597432768817","3,48287791492822"
"1008","5,97664461788429","-0,315877901189609","-29,9360020716134","2,11091409765288","2,25410254090148","2,80688056059183"
"1008","5,41725395971675","0,0427695365291156","-29,8286144778989","0,255188323092705","-2,84093007046115","-4,78110065555725"
"1008","3,54067044376802","1,84764191684628","-26,2224157445652","0,690852830382368","-1,66474514962858","-4,01383470423187"
"1008","4,01503170310097","1,39676337065303","-27,4720636786478","-7,65613439694305","0,398321908003148","-0,701479445586889"
"1008","2,4280063397519","1,25958631288654","-27,7320814919594","-5,19449497486627","0,136816260453631","-0,853778655983672"
"1008","2,98347402541164","1,21785102666291","-27,7861841407097","-2,75000311366008","1,68524839073584","0,503444831638162"
"1008","3,13906280272423","-0,49060275738352","-27,7974414332949","-3,00662090825467","1,23952430684637","0,260532376279361"
"1008","3,1826438574833","-0,0103894391944287","-27,799783770302","0,307130329978103","-3,84614848712801","-4,20150673623941"
"1008","4,91474698763768","1,83146862152052","-31,384125437175","-0,685141338937631","-2,66661313119659","-3,69052513785073"
"1008","4,39991617957716","1,39184274383255","-30,1299296408732","-4,37868611153455","-0,60234675365443","0,921048528955916"
"1009","5,9756058563193","-0,437666834752947","-24,4931841056989","-3,5019115566223","-0,863423093306585","0,493480421106801"
"1009","5,41696299834134","0,00571599358325822","-26,3203303696381","-3,23528002774807","0,68516271179511","0,254974020436136"
"1009","0,100797148404308","1,83636860157313","-26,7005099091646","-3,15419604579228","0,239493637259739","0,121930179895649"
"1009","1,61171728662936","1,39333353298721","-26,7796149513427","1,95814698904352","0,0799621797684739","-1,3944636078166"
"1009","3,75482811316899","-0,437213271211917","-28,588001708371","0,51283608428558","0,0228563867407208","-1,2403396628058"
"1009","3,35512224684238","0,00585398753438762","-27,9642779037374","1,7692048036382","3,28649592529839","0,287813046469309"
"1009","3,24316299406863","-3,25085764509933","-26,0425707659523","1,1512728171246","2,45474654456119","0,140248472951001"
"1009","3,21180274810363","-2,24169236884136","-26,6427156754393","-0,732538388391038","-1,12706710450036","0,057933878737221"
"1009","4,92291451251182","4,84836434125782","-26,7675895401326","-0,305414801173464","-0,409211153854945","0,0120170827269745"
"1009","4,40220393679805","3,00547101022784","-26,7935724016664","-5,26320937153231","3,13183326543636","-0,0135962629498685"
"1009","0,816558972668","0,749025836382439","-28,5909058749075","-3,77089950548177","2,39938358366248","-0,0278839209261578"
"1009","1,81220510970038","1,06251610427636","-27,9648821819598","0,0747093846817288","3,77923684574533","-2,92021219619003"
"1009","3,81098557482336","-2,23361854040671","-26,0426964998473","-0,755821711263181","3,27316836265313","-2,5336131815007"
"1009","3,37085218221279","-1,23644747599776","-26,6427418372498","-1,00839037289769","-0,192064730908708","-2,31796019475146"
"1009","-0,192222782397968","2,4584479143708","-23,1837406935705","-1,0851977665658","0,567522331444192","-2,19766446473975"
"1009","0,809745304083157","1,58259738363494","-24,4640164503725","-1,10855527926714","0,83942369968474","-2,13056099969069"
"1009","6,25008836906864","4,70763733571671","-24,7304070821978","-1,11565841574317","0,936753364334471","-2,09312928851398"
"1009","4,77395077816048","3,65841175079739","-24,7858357414903","2,27397147840855","-0,670447110743414","-0,630069939026624"
"1009","6,08037448169319","-1,7480769879411","-31,965077521124","1,30477488839793","-0,245759711325213","-0,813944945118204"
"1009","5,44630912007529","-0,392968332382965","-29,4588828545001","-4,07764763399991","-0,0937388427513869","0,525664905655543"
"1009","3,54880891337033","1,71507131813525","-28,9374117751862","-2,71446925268575","-0,0393215360133003","0,272927196611451"
"1009","4,01731132182103","1,35642957160435","-28,8289077989459","2,7877651036383","-1,66188289519374","-4,19459264716192"
"1009","2,42864487030651","1,24731499962767","-28,8063310668375","1,46102210047008","-1,24269406942414","-3,68666831488027"
"1010","2,98365288043928","1,21411755417459","-28,8016334617325","1,05755291517497","0,54939908119712","-1,96115837672215"
"1010","4,85900879869561","1,20401743313077","-28,800656017627","0,934855917268086","0,19089576251112","-1,99863297523269"
"1010","4,38430368421334","1,20094453267991","-28,8004526380414","0,897543146320412","0,0625661111772039","-2,01953708721684"
"1010","4,25133683438011","-0,495746455439936","-27,008483175208","0,88619614598997","0,01662929956875","-2,0311978365034"
"1010","4,21409227430442","-0,0119543780707086","-27,6356229731152","-4,20493952382176","0,00018578367966023","-2,03770244545436"
"1010","2,48376402230351","-4,95203180894743","-27,7661137413108","-2,75317935325417","-0,0057003282494704","-2,04133085187706"
"1010","2,99909198101546","-3,45502034727512","-27,7932653279922","1,08009817163256","-3,29188841455729","0,841003469311323"
"1010","3,14343745615458","3,78346060017745","-31,3827691262738","0,245817045810034","-2,46821049960586","0,448829618774187"
"1010","3,18386921585421","1,98572444141322","-30,1296474293918","1,68800297807383","-3,81540775337505","-2,65429144948873"
"1010","1,47529841965494","1,43877413964833","-26,2850525302126","1,12657893569715","-3,29764974345725","-2,38527704745544"
"1010","1,99672073098722","1,27236783406101","-27,4850966934616","0,955847075463565","3,45584882362584","0,649143113906342"
"1010","3,86266915723913","-0,474016350022082","-25,9428661634978","0,903926662551744","1,87332746670908","0,341805914342086"
"1010","3,38532896565638","-0,00534312554750856","-26,6219698541562","0,888137405214268","1,30684898972885","0,170366819810414"
"1010","-0,188167775970851","1,83300393178199","-23,1794186077455","0,883335813060284","1,10407266479694","0,0747345202530851"
"1010","0,810881128017254","1,39230985264979","-24,4631171416356","-0,814019371883766","1,03148696273799","-4,30514865218136"
"1010","4,53051062006733","1,25823135709733","-30,1060013956485","-0,330193575923623","1,00550422463896","-3,74833875836204"
"1010","3,57239409891733","1,21743878959788","-28,2801324324637","-5,27074472090833","-0,645837090495569","-0,55338027429787"
"1010","3,30402173109603","-5,57799640849899","-27,9002186645517","-3,77319104292828","-0,236950321974782","-0,771165851992882"
"1010","3,22884952999092","-3,64546627280749","-27,8211689222322","0,0740125166791021","1,55145510988391","-0,89265118567532"
"1010","1,48789759015638","3,72551858464197","-26,0127936716033","-0,756033632309387","1,1916317374122","-0,960418236442114"
"1010","2,00024981032717","1,96809593529039","-26,6365198704064","-1,00845481914814","2,70487010880411","-0,998220109560673"
"1010","3,86365766683873","1,43341077378592","-24,9743732162284","-1,085217364993","2,24654808628446","-1,01930678214126"
"1010","3,38560585125015","1,27073606258964","-25,6285256165685","-1,10856123924691","2,08248738647232","-1,0310693675329"
"1011","3,25170157670868","-0,474512806576247","-25,7646369740716","-1,11566022820284","2,02376030834747","-1,03763078278544"
"1011","3,21419444012685","-0,00549416943723057","-25,7929580528167","-2,81371406300882","0,360697847216087","0,400888284004793"
"1011","1,48379263936946","-1,55855417606594","-29,3827051906508","-2,33010072996722","0,765388920744363","0,203324196828624"
"1011","1,99909999677302","-1,03106324539925","-28,1296341261242","-3,87892649249557","-0,73178863298525","0,0931188319542124"
"1011","2,14343970140116","0,825178741613927","-29,6608311973508","-3,34993215604846","-0,267717488983838","0,0316439828523499"
"1011","2,18386984475698","0,389929086093511","-28,979431743433","-1,49316733489565","4,82452280856568","2,88171035284949"
"1011","3,9150903917021","1,95326310017128","-27,0457238686411","-1,92851586291788","3,64733835261203","2,47153676670449"
"1011","3,40001236846427","1,42889797383756","-27,6433717505177","6,41856745528369","-0,0581270465184101","-0,641624929177853"
"1011","3,25573690127669","1,26936307062888","-24,1838717614225","3,95695725492311","0,615466591489755","-0,378211398467804"
"1011","3,21532475109147","1,22082554579431","-25,4640437220347","3,20836927693346","0,856585800715382","-0,231273841750463"
"1011","3,20400514205171","1,20605829881773","-27,5223399017527","2,98071992745134","0,94289670060676","-0,149309010574696"
"1011","3,20083447312601","1,20156545366318","-26,9506154641739","-3,87208936569935","0,973792502994237","-1,54576648062754"
"1011","4,91984225369811","-0,49555754400401","-32,2074365633963","-1,95606295808896","0,984851947471901","-1,3247395582676"
"1011","4,40134338450175","-0,011896902914311","-30,301238337408","-1,3733897411687","-0,653229768303447","-2,64362529593629"
"1011","4,25610972432869","-1,56050216881801","-28,1126830853872","-1,1961959006414","-0,239596600868339","-2,3793272447314"
"1011","4,21542918035768","-1,03165591035645","-28,6573041459104","-1,14231036719134","-0,0915326991124329","-2,23189628404947"
"1011","4,20403439311755","2,5207545037334","-25,186770714708","-1,12592350686619","-0,0385318260462707","-2,14965622186019"
"1011","4,20084266646954","1,60155378482188","-26,4646469155211","-1,12094018065369","-0,0195596625920993","0,780577320537124"
"1011","4,19994865074279","1,32189255192064","-26,7305382648812","-1,11942472621963","-0,0127683973674214","0,415122653764509"
"1011","4,19969823327042","1,23680732126454","-26,7858630370458","-1,11896386894402","-0,0103373997922988","0,211264424911312"
"1011","7,63941988619811","-0,484835419945177","-30,3812289104635","-1,11882371994073","-0,00946720123360064","0,0975480566455319"
"1011","6,60290003111242","-0,00863476182594859","-29,129326952291","-1,11878109992762","3,27492539147514","1,47629385763775"
"1012","-2,2869129218814","1,832002471447","-28,868840137752","-1,1187681389684","2,45060476261973","1,24538699718147"
"1012","0,223014003478556","1,39200516442857","-28,8146399025772","-1,11876419747585","2,15553140241739","1,11658233853976"
"1012","4,36584662702045","6,34540688805109","-25,2195080147814","-1,11876299884825","2,04990710423381","1,04473241578291"
"1012","3,52627103900405","4,85244926147722","-26,4714586590104","0,577132362406841","2,01209788838619","-0,437526129366615"
"1012","3,29110247281496","-4,08055440811231","-32,1077370389831","0,0928626267590176","1,99856372221803","-0,264360834708359"
"1012","3,22523079275088","-1,79836649022973","-30,2804935727275","-3,44619621626864","0,351678491064385","-3,05212394665156"
"1012","3,20677986495564","-1,10402468468464","-29,9002938080375","-2,52244171724211","0,762160356963011","-2,60719630482347"
"1012","3,20161168439346","-0,892775409745479","-29,8211845575518","-2,24152335231016","0,909096220549265","-2,35900639434316"
"1012","3,20016405581783","0,867251975259757","-24,4289426347642","-2,15609467202854","0,961693301690897","-2,22056089023573"
"1012","3,19975856911555","0,402729611758317","-26,3069634633753","1,26167461055933","-3,94560072135567","0,74102521893144"
"1012","6,63943678651583","1,95715758231816","-30,2815829089415","0,301035349360629","-2,70221299841565","0,393059667260705"
"1012","5,60290476496073","1,43008284636464","-29,1085933242712","5,09658513394762","-0,615090062599241","-2,68540109063566"
"1012","5,31256789381123","1,26972356089497","-25,280671742452","3,55493581679206","-0,867984681187339","-2,40263065358251"
"1012","5,23124334522428","1,22093522276713","-26,4841851704454","1,39021754943618","-2,60055124861079","-2,24489541112748"
"1012","3,48856810762281","-0,489664409460951","-28,5265307904261","1,73191589369888","-2,22073982685095","-2,15690740583374"
"1012","4,00043762502002","-0,0101039525411688","-27,9514874743449","0,139933073046179","-2,08478273862726","-0,665646701942848"
"1012","4,14381437656017","0,13579940226874","-27,8318365698551","0,65580313219198","-2,03611561389305","-0,833790404858753"
"1012","4,18397479280596","0,180189611339599","-27,806940464562","0,812681798206927","2,90742688874998","1,95677385560352"
"1012","7,63501568602558","0,193695062697602","-27,8017602608569","0,860389385445817","1,67701465168565","1,51340875279264"
"1012","6,60166639657782","0,197804014202926","-27,8006824010828","0,874897501418319","-3,6895446832331","-0,176088701813788"
"1012","1,15253332791394","-3,19245801593333","-29,5923852727847","0,87930949207334","-2,6105553194445","-0,118525589512226"
"1012","2,6262088027347","-2,22392463655229","-28,9651900044997","-2,51113879298704","2,70180076680509","4,24012179694532"
"1012","3,03899134833063","1,4622579121729","-27,0427605493619","-1,54219107974635","1,60340883785092","3,67146613917452"
"1013","3,15461343260899","0,583756552313515","-27,6427551642152","0,448365764487674","-2,07385203152894","0,469899841123769"
"1013","4,90689555064802","2,01223392891192","-27,7675977566749","0,0537040600798596","-1,39016231552017","0,68399944247651"
"1013","4,39771695986933","1,44683949012613","-27,7935741113058","1,62958045792331","2,13865197715924","2,24560782269474"
"1013","4,25509394791336","1,27482166793211","-27,7989790855748","1,1088123550167","1,40182440597104","2,11670551961285"
"1013","4,21514465721697","1,22248629085284","-27,8001037140018","2,64633916613437","-2,14601108420467","-0,839557193151044"
"1013","2,48405879907425","-0,489192506421451","-22,4245562834623","2,11390876203175","-1,41599233043998","-0,488622140032048"
"1013","2,99917454919813","-0,00996037890907614","-24,3060507827371","-1,43979598123306","0,487365330730181","-1,73504241520152"
"1013","4,86335648178571","1,83159916050501","-31,8652472950001","-0,520495373745791","0,168690195216692","-1,4303216189033"
"1013","4,38552148808131","1,39188245952532","-29,4381108943415","-0,240931459514876","-1,58742312996772","1,62401631326672"
"1013","5,97157384418349","1,25810132533641","-25,3492354040086","-0,155914674468106","-1,21604049270166","1,3277896613267"
"1013","5,41583361520256","1,2173992282248","-26,4984514072505","3,26172934871803","2,20098052935738","-3,1639892210622"
"1013","6,98006439533218","-0,490740214312812","-28,5294992070474","2,30105199550856","1,42413550033148","-2,66959708605558"
"1013","6,41821185340803","-0,0104312596298632","-27,952105121266","-1,38288478760771","-3,78006516555901","-0,951635689535571"
"1013","6,26083465166474","0,135699821075994","-27,8319650854133","-0,50318839502319","-2,64295798165147","-0,993321021876284"
"1013","6,21675265188642","0,180159314366844","-27,8069672051611","-1,93156331744057","-5,52000081466194","-1,01657396893859"
"1013","-0,675178488856137","1,88944192185893","-27,8017658248497","-1,36593927786961","-4,54986548923794","-1,02954494737922"
"1013","1,39436332753755","1,40948076816655","-27,8006835587987","-1,19393017747559","-0,918515283314773","1,84757789244725"
"1013","5,41384227557382","1,26345550379855","-29,592385513674","-1,14162134944063","-1,61863915523457","1,45249696900413"
"1013","4,53971481704466","1,21902820448547","-28,9651900546222","3,96197101711845","-1,86925511244056","2,67429175774888"
"1013","4,29486813019127","-2,18600068501569","-25,2508334147287","2,51399899035575","-1,95896546303045","2,35583435195126"
"1013","4,22628556882892","-1,22196003286071","-26,4779766244095","3,76955844919245","-3,63311867938049","-0,706166147255407"
"1013","0,767283516172931","4,15861170773868","-28,5252389605274","3,15138036250703","-3,2323976465075","-0,414213834889021"
"1013","1,79840285220545","2,79561796298995","-27,9512186796098","-3,82019067354148","0,1951253315522","-1,69353591199448"
"1014","2,08722360793695","2,38093539883303","-27,8317806409672","-1,94028030614144","-0,577960423063544","-1,40716842645839"
"1014","2,16812348637612","2,25477074864422","-27,8069288272787","2,02319983574603","0,78734677267189","1,63693164650299"
"1014","7,35047156801611","0,520629843674375","-27,8017578394541","1,22851397719014","0,276071387647835","1,33499410334914"
"1014","5,80206852396313","0,993028011418816","-27,8006818972546","-0,709048965157998","-3,19102556567378","-0,275612111264864"
"1014","1,92856268379968","1,13675228327115","-34,9681666031388","-0,298271550044756","-2,43210568953825","-0,174041821277167"
"1014","2,84357780863381","1,18047951959408","-32,4595256086141","3,21843791060763","-2,16044314691015","-0,117383796893856"
"1014","4,81977319648717","1,19378326552231","-22,977909789558","2,28788685258114","-2,06319897214566","-0,0857787701935412"
"1014","4,37331363108814","1,19783084937635","-26,0050429166649","3,70079661679884","1,25569159622891","1,37403033327032"
"1014","4,24825847541793","1,19906230216746","-32,0106885838854","3,13046954524324","0,443719843822263","1,18834227221481"
"1014","4,21323001333152","1,19943696419582","-30,260300423608","-3,82654975769352","5,07918852602561","-1,79959671970793"
"1014","4,20341839741241","1,19955095284119","-29,89609216185","-1,94221413544819","3,73849835316131","-1,46633135520725"
"1014","4,20067012354568","1,19958563319386","-29,8203103090341","0,326716751831969","-1,66753601117391","1,60392933194775"
"1014","-0,959787373071343","2,89535226131159","-31,5964693076286","0,0167099866904041","-0,602677107264955","1,3165847245534"
"1014","0,594747313642963","2,41127895302889","-30,9660397812894","1,61833037511484","-3,50558189495879","1,15629791456069"
"1014","1,03017885617926","0,568246513784477","-32,6267916549693","1,10539114854762","-2,54470410064913","1,0668865917222"
"1014","1,15214501740805","1,00751509394135","-31,972349038669","0,949403763383522","-3,84278936085121","-1,86734722930749"
"1014","4,62610003536912","1,14115989009307","-21,0846144247284","0,901967219110679","-3,30745124865184","-1,50412400131802"
"1014","3,59916908625645","1,18182050718537","-24,8191723998023","-0,808353468086192","5,09438083065703","3,02502696733614"
"1014","1,59162561693774","1,194191252848","-30,9720139747931","-0,328470546230827","3,10189603373991","2,55148176084698"
"1014","2,02930445612676","1,19795497704092","-29,2522532872806","-0,182535748718674","2,38866726862364","-2,03920910641933"
"1014","2,15190009436651","1,1991000672551","-28,8944177712203","-0,138156246646433","2,13336029103648","-1,59999213780895"
"1014","2,18623963553158","1,19944845399424","-28,8199619137955","-3,51645021151724","-9,452313093821","2,97154972300078"
"1014","5,63565007776354","1,19955444854254","-19,8448339456626","-2,54380630869576","-6,59951438444449","2,52165103954184"
"1015","4,60184409230593","1,19958669673975","-22,9773534459024","-2,24802043146368","-0,652206477702794","-2,05584930440718"
"1015","-0,847416898783695","4,59110866172014","-37,9645628819639","-2,15807046630566","-1,52331140123609","-1,60927438701246"
"1015","0,626222744440859","3,62295860985901","-33,0829943368738","-0,434821235112184","-1,83513164190225","4,40855105191357"
"1015","4,47878704934864","-8,54188769795355","-24,8995638528737","-0,910772522053397","-1,94675064423175","3,76541948750118"
"1015","3,55790611458606","-5,24296826338823","-27,1968141088839","-6,14319667995651","-1,98670572108762","0,522308976718739"
"1015","3,29996358725432","4,23948831175768","-24,0909552380335","-4,73440304551964","-2,00100801848538","0,71323435046789"
"1015","3,22771282725413","2,12446810145808","-25,4447103157423","0,781703137503695","-3,64816820947269","-0,622442658303512"
"1015","3,20747509300144","1,48098605509518","-25,7263899996475","-0,54082137376101","-3,23778476804532","-0,367511128033828"
"1015","3,20180642062096","1,28521055282103","-25,7849998956556","2,4487822989308","-1,44884358797385","-0,225305007918939"
"1015","-0,239573193654945","1,2256470459488","-27,5891221691079","1,3579357335416","-1,80847518430914","-0,145979470678656"
"1015","0,796482259656061","1,20752521094029","-26,9645110412017","-0,669691161521655","-0,295168164836617","1,34044912801442"
"1015","6,24637333591886","-3,88525647773124","-34,0022550008418","-0,286302645041873","-0,753465614126983","1,16960997612271"
"1015","4,77291018213596","-2,43470435853501","-31,4666184788444","3,22207771450247","0,724523030735515","-1,81004598483133"
"1015","4,36018710853368","-3,68913876786108","-21,9793856233165","2,28899373515643","0,253583035440284","-1,47216017304582"
"1015","4,24458168260471","-3,07079281391241","-25,0053499976085","3,70113322532799","-4,84111603235112","-1,28368042601312"
"1015","0,772408332693204","7,29187164597956","-25,634971043907","3,1305719095811","-3,66481171644472","-1,17854249537975"
"1015","1,79983833433506","4,44464933573924","-25,7659780925392","-0,434728634693345","0,0403386282371172","0,322284794253713"
"1015","2,08762569236988","3,57839924993792","-25,7932371031651","0,481045631690155","-0,633367786488676","0,159477532223556"
"1015","2,16823611187516","3,31484792538839","-25,7989089633288","2,45543216469468","0,767513183248673","-1,37351891223701"
"1015","2,190815421047","-12,0271406550295","-27,5920162685282","2,0558529877378","0,268971766855731","-1,22865627514398"
"1015","2,19713997816762","-7,69484744994711","-26,9651132247306","3,63023395757572","0,0905141548712288","-2,59002803832575"
"1015","2,19891151256079","3,79776289207184","-25,0427445735762","3,10901108753062","0,0266335659612198","-2,34942957752041"
"1015","2,19940772661125","1,29431974997829","-25,6427518400878","-7,22486537553892","1,64580745384558","3,55349790156676"
"1016","2,19954671820228","3,92417454066002","-31,1433785002013","-4,36744891096256","1,22540605070871","2,84627386079212"
"1016","2,19958565031708","2,72429187954135","-29,2879095933173","-0,106704274212917","-2,20916170189686","1,00959039202037"
"1016","5,63938835125105","-6,11954551277552","-23,5260554454268","-0,810990512591577","-1,43859769091381","0,985050078404061"
"1016","4,60289119804439","-3,81022929688115","-25,3271700031409","5,7584125055806","-2,80480756861694","-0,470818180879647"
"1016","4,31256409366231","-3,10763387152006","-25,7019330512342","3,7562008317958","-2,29385530713496","-0,282931834816996"
"1016","4,23124228078698","-2,89387348290774","-25,7799110685761","-8,72394673299992","-7,03707676121407","2,70623340629289"
"1016","4,20846370741401","2,2584300468353","-27,5880633223292","-5,51922204879703","-5,73495771147287","2,37365206914266"
"1016","4,20208333557327","0,825987086080899","-26,9642907239296","2,23893074870501","-1,98477079367124","-2,13840621425353"
"1016","0,760504371359118","5,47744325047894","-32,2102820137357","0,598223830430983","-2,6423559413836","-1,65532635173218"
"1016","1,79650398593468","3,89262052238321","-30,3018303983837","-1,59661834903532","0,406336336707049","0,0563248234585376"
"1016","2,08669172770525","0,0189356843978992","-28,1128062772047","-1,26408083716297","-0,502355447498039","0,0111195181613443"
"1016","2,16797450454142","0,840390612169656","-28,6573297787836","-1,1629545160331","-0,827630260195572","-1,45627610412072"
"1016","2,1907421437597","-0,605442794729878","-25,1867760482131","-1,13220149581688","-0,944065453750194","-1,27481996135783"
"1016","2,19711945289886","-0,0453288226935388","-26,4646480252788","3,96483564173535","-2,62778508023051","0,268579217400381"
"1016","2,19890576334881","0,12508244958047","-26,7305384957916","2,51487013703419","-2,23048843428102","0,129519442281661"
"1016","2,19940611623339","0,176929043609305","-26,785863085092","-6,40554661122271","2,83784930056864","-1,39023015910468"
"1016","3,91944216507329","1,88845913161076","-30,3812289204606","-4,11828997547448","1,65210869638043","-1,23797815689324"
"1016","3,40123131803676","1,4091817602058","-29,1293269543711","-0,0309337953256601","1,22766164003054","0,289130343678867"
"1016","4,9759742319966","-3,82390369805001","-25,2849858480601","-0,787948330863044","1,07572680452963","0,140983288785712"
"1016","4,41706618187965","-2,41603814814749","-26,4850828187158","-4,40995023214851","1,02134029414314","1,50052293527444"
"1016","5,98040964231449","3,09956462054262","-28,5267175666645","-3,51141913212333","1,00187212871374","1,25890248159814"
"1017","5,41830855850399","1,77765324552973","-27,9515263374101","-1,54227633228031","-0,647137233560921","1,1241215573972"
"1017","5,26086173915881","1,37546974271431","-24,2479903660793","-1,94345015472732","-0,237415720473386","1,04893794917174"
"1017","5,21676023920462","1,25310785598397","-25,4773850631602","4,71813086567795","3,19332906454756","1,00699896574874"
"1017","5,20440722816065","1,21587999551879","-25,7331887276271","2,74395098356214","2,42139658618465","0,983604526826891"
"1017","5,2009470990945","1,20455364519968","-25,7864145263962","0,447698007341766","0,503035511145093","0,970554621278442"
"1017","3,48008200480497","1,20110767194341","-25,7974893703024","0,74939598853727","0,816340032858591","0,963275112015905"
"1017","3,99806063281028","1,20005925552079","-25,799793744692","-2,55064613940256","-0,713550200837231","-1,92514387185229"
"1017","-1,01653912254171","1,19974028119526","-27,5922003675124","-1,55420546145658","-0,261188869815092","-1,53636417295653"
"1017","0,578850915817483","1,19964323519507","-26,9651515307318","2,14060712764503","-1,74130240431719","-1,31949475511357"
"1017","1,02572620994044","-0,496142367291937","-28,6266068341399","1,26421812207508","-1,27112303335194","-1,19852047448851"
"1017","1,15089781293156","-0,0120748318457902","-27,9723105824713","2,69359883743128","2,1812632133165","-1,13103849976698"
"1017","2,9058547903347","0,135199774217009","-22,4603878582246","2,12828066452526","1,41707750069555","-1,09339564800718"
"1017","2,39742543863631","0,180007178148698","-24,3135063607949","1,95636457971437","-3,78259164323769","0,369781480097391"
"1017","2,25501229162015","0,193639558507886","-24,6990900181624","1,90408403818362","-2,64386235821567","0,185972173372888"
"1017","2,21512178495429","0,197787127390495","-24,7793195105682","1,88818526393131","-2,23624344789092","0,0834395116709488"
"1017","3,92384418834856","1,89480507685013","-30,1717945252903","1,88335036713559","-2,09033240631169","0,0262446562905231"
"1017","3,4024643428135","1,41111247548164","-28,2938221967835","-1,50990994266309","2,88801947547127","1,43651933502472"
"1017","3,25642370935005","-0,431804135997618","-29,6949942779595","-0,541817380214591","1,67006758467249","1,22319993960473"
"1017","3,21551712885014","0,00749968405293654","-28,9865401531488","-5,33510057860076","-0,407950354621041","-4,66451070834072"
"1017","-0,235732768037863","-1,55460087510301","-27,0472029357447","-3,79276198124122","-0,151796516471298","-3,94879840205096"
"1017","0,797557978625045","-1,02986047760483","-27,6436795042326","3,45985088991265","-1,70214437751103","-0,665200840935737"
"1017","7,9665705471592","2,52130075323754","-24,1839357966166","1,66540675069171","-1,25710604755282","-0,833541694297667"
"1018","5,97464037529334","1,60171997791405","-25,4640570460203","-0,576187686850846","-4,3818814679544","-0,927445730366116"
"1018","5,41669256314551","1,32194311515901","-25,7304155290501","-0,257867770572887","-3,50042436364275","-0,979827358555836"
"1018","5,26040909222999","1,23682270482254","-25,785837499051","4,92661989884181","-3,18489846202288","1,87531139956017"
"1018","-1,66295014083476","1,21092533724004","-25,7973693065753","3,50324853841721","-3,07195298333078","1,46796729721161"
"1018","0,397788537979702","1,20304622052699","-25,7997687626895","-0,321395807268613","-3,03152308172366","2,68292142920993"
"1018","4,41480169106907","1,20064904714711","-32,9679766046229","0,515510711542888","-3,01705081631836","2,36064816252637"
"1018","3,53998355326046","1,1999197217135","-30,4594860750805","0,770018171168986","0,272210764778669","0,738698257550374"
"1018","1,57504750636322","1,19969782888231","-28,1456101439521","0,847415163006635","-0,550366963663686","0,833940800662439"
"1018","2,0246608593505","1,19963031933683","-28,6641553729907","2,56684697220768","2,43926466071986","2,32924823692605"
"1018","5,59039119975011","-0,496146296863318","-23,3962691240241","2,08973478813904","1,50943155730588","2,16336188565771"
"1018","4,58916689491994","-0,0120760273940036","-25,3001649927148","-1,44714740764235","-5,39157318424046","-2,25571046084872"
"1018","4,3087198600593","0,13519941047873","-25,6963140416172","-0,522730979297907","-3,86185305663408","-1,72076110499183"
"1018","4,23016549518552","0,180007067483538","-25,7787419052032","1,45428367839786","1,6118463666262","-2,86453436741118"
"1018","5,92805799329447","0,193639524838683","-29,3797471962306","1,05550372730877","0,571208810098825","-2,50255492833489"
"1018","5,40364464686411","0,197787117146844","-28,1290186477803","2,63012774573181","3,48278385801705","0,583723067992363"
"1018","3,53685841941184","-1,49670707992879","-31,4526302780769","2,10897878797748","2,52500966530207","0,305313249439776"
"1018","4,01396393944167","-1,01224664223389","-30,1441836386967","3,64638977923045","-2,74395630479107","-1,29216871009625"
"1018","-1,01208454111801","-0,864852498049507","-26,2880771207826","3,11392415372749","-1,63003247365507","-1,18327743712908"
"1018","0,580098662347202","-0,82000872537074","-27,4857260286565","-5,52747629078069","0,410747638456289","0,319643545074257"
"1018","4,46586750475066","2,58514687362109","-29,5268514011932","-3,15536940107317","0,141264168111684","0,158004188390137"
"1018","3,55428729714748","1,62114477205865","-28,9515541847426","0,957790165832011","0,0448000128666763","2,95219670872489"
"1018","3,29894994164519","1,32785299073631","-28,831850450478","0,208622569308122","0,0102697567614183","2,51085552488035"
"1019","3,22742890096098","1,23862074855362","-28,8069433527429","-5,10688803530956","-1,64413122323069","-0,619692106501855"
"1019","-0,232396231806867","-2,18003977254354","-27,0098337167466","-3,72336140502115","-1,23633969066424","-0,365976812919982"
"1019","0,798492556110003","-1,22014646146452","-27,6359039841488","0,0891659588769742","-2,73240740577701","-3,10880745687828"
"1019","4,5270405302575","2,46340739898403","-29,5580993571412","-0,7514253947205","-2,26793898455301","-2,63881554805833"
"1019","3,57142211252709","1,58410627669056","-28,9580560361476","0,688841565705265","1,18240297367826","-0,934465106182754"
"1019","5,02364537166544","-2,0749279000651","-27,0412761641999","0,126833954391538","0,417485488689539","-0,983742912663468"
"1019","4,43041906365056","-1,18816681301006","-27,6424463039567","10,1312946084031","3,4277571421957","1,87312722188251"
"1019","2,54435804338386","0,777380935860198","-24,1836792011145","7,17370114814139","2,50531233228633","1,46674891738682"
"1019","3,01606461488011","0,375386894152135","-25,4640036554616","-5,59698279793929","-1,10896660285932","-3,08647485225322"
"1019","3,14819156052276","0,253082649812382","-25,7304044199242","-2,48061168091234","-0,40273190821483","-2,62635795580825"
"1019","3,18520085998933","0,215872326694257","-25,7858351875434","-1,53290763222955","1,49211202419715","-2,36969516257305"
"1019","4,91546321452858","1,9003073888376","-31,1731502608004","-1,24470608942147","1,17038931900678","-2,22652330789812"
"1019","4,40011679766731","1,41278652046721","-29,2941042885416","3,93062243193119","-2,22885546100268","3,62205758001176"
"1019","4,25576615232484","1,26446125884753","-30,695052973597","2,50446572875538","-1,44564725812219","2,88451787814719"
"1019","4,21533294443005","1,21933419934731","-29,9865523661176","3,76665933664246","2,11879061753642","-1,85343462003356"
"1019","2,48411153909499","1,2056045657239","-26,2552783318697","3,15049872787558","1,39471484457352","-1,49636325793949"
"1019","2,99918932189429","1,20142740812664","-27,4789014910089","1,26722620719537","-0,506515470448293","4,47153523267095"
"1019","4,8633606196785","2,89591261014273","-29,5254314001612","1,69451361116657","-0,187078831274294","3,80055337605802"
"1019","4,38552264712206","2,41144943575562","-28,9512587210738","-4,95912613844432","1,56930708134279","-0,900271769039207"
"1019","4,2516782708911","2,26405445894927","-28,8317889725089","-2,98253127614775","1,19802201932462","-0,522489995696442"
"1019","4,21418791207174","2,21921043295032","-28,8069305608463","1,01035110437479","-2,2189640747522","1,13042371103851"
"1019","2,48379081083444","-6,27321347360616","-27,0098310551001","0,224606613694685","-1,44210654292494","1,05245342180374"
"1020","2,99909948459286","-3,85698184014962","-27,6359034303325","-0,0143422172000561","-1,16402304690343","-0,433219191309778"
"1020","8,30312725177077","3,66116625862252","-25,9742449517823","-0,0870077521967358","-1,06448043118385","-0,261958334907765"
"1020","6,7888071867738","1,94851713115719","-26,628498928219","-0,109105704953323","-1,0288482110555","2,71793286161003"
"1020","1,20495223090975","1,42745404160548","-26,7646314209505","-0,115825802948262","-1,01609332108103","2,38017826912408"
"1020","2,64089155248907","1,2689237630218","-26,792956897363","-1,81376441511732","0,630512960793714","-0,692586602952345"
"1020","4,76299994471075","-2,1708202645379","-28,5907778051699","-1,33011604229533","0,219931242364206","-0,406638882091994"
"1020","4,35741121037853","-1,2173414821792","-27,9648555341239","-4,5748261457976","0,0729596356207617","-1,68931044546949"
"1020","4,24380414214456","-0,927251356776149","-27,8346181002183","-3,56155872238002","0,0203497598781858","-1,40481137317605"
"1020","4,21198233630972","-0,83899319895099","-27,8075192255258","-4,94931402603133","-1,64052299084344","0,196067298990871"
"1020","0,76327712207165","0,883614886068565","-26,0099535402406","-4,37133735716336","-1,23504808977785","0,0890707831134698"
"1020","1,79728064478323","0,40770792793725","-26,6359289161653","0,892113229842539","2,1941765803328","1,47156505780325"
"1020","3,80680517097909","1,95867220476321","-32,1419588349417","-0,50724511227108","1,4216999624703","1,2427491740901"
"1020","3,36968123394776","1,43054366103944","-30,2876141995137","-4,32458697894532","-3,78093698935601","-1,76924741605384"
"1020","4,96713692402308","-5,51316054636522","-29,9017754171818","-3,48545973973024","-2,64327005921969","-1,44940188117839"
"1020","4,41459081566514","-3,62574035574988","-29,8214928401964","0,161513045574294","5,97417131340766","-1,27098537654833"
"1020","4,25982038413926","7,12303222869803","-22,6370796349519","-0,729424283685026","4,05886590087483","-1,17146093223554"
"1020","4,21646855139195","4,39328096903997","-25,1421982682848","-1,00036278309815","-1,55285741950155","0,32623503774859"
"1020","4,2043255252078","3,56277073652656","-25,66344545428","-1,08275653634369","-0,56162682148596","0,161681060364313"
"1020","4,20092421376226","3,31009304515482","-25,7719028443982","-1,1078128889425","-1,84884700872061","0,0698894226310899"
"1020","4,19997149247399","-5,24556299112123","-25,7944698831992","-1,11543265113108","-1,30961964096082","0,0186861342531306"
"1020","4,19970463133303","-2,84856934888089","-25,79916547139","-4,50953985242911","0,525442440315512","1,43230303391986"
"1020","7,63942167832169","-0,423542522523785","-31,1759239310175","-3,54170483392278","0,182320256480278","1,22084799898474"
"1021","6,60290053309358","-0,685742847083256","-29,2946814140224","-1,55148636572457","-3,22458466916825","-0,339285186975501"
"1021","-0,567016883329955","4,32175252801016","-27,1113187676188","-1,94625097197785","-2,44411848781947","-0,209559989794857"
"1021","1,42465983693035","2,84525256617832","-27,6570202684173","-0,370405867100459","-3,80678379004938","1,3049825894939"
"1021","1,98253665624378","2,39603642523199","-27,7705659376322","-0,891183486354612","-3,29456271427505","1,14982600184705"
"1021","2,13880024177518","2,25936514415971","-27,7941917091916","2,3422354275406","5,09899440335377","-0,378902737009727"
"1021","0,462674415139966","3,91353981425295","-24,2152533008054","1,32553429687083","3,1035475056921","-0,231659484795985"
"1021","0,99318469553821","3,41681240548861","-25,4705733685264","-0,679544600525841","-0,894822668292044","-0,149524130301922"
"1021","4,58157459714931","-1,82158212059286","-25,7317713988777","-0,289299125142299","-0,326077062845432","-0,103707317942519"
"1021","3,58669732836526","-0,415331822313982","-25,7861196187569","-0,170623523581101","6,44567299596875","1,36402941572207"
"1021","5,02792402228149","1,70826736222289","-32,9651365882774","-0,134533679382214","4,86968493302193","1,18276355199679"
"1021","4,43161753123938","1,3543595093645","-30,4588951447714","-0,123558577194691","-0,620576534996935","-0,360529485149008"
"1021","4,26458963701613","1,24668519577061","-29,937414332458","-0,120220993708246","0,414132481072197","-0,221410502026994"
"1021","4,2178044386865","1,2139259401783","-29,8289083310448","1,5766889788752","-2,49956474393692","1,29837212681742"
"1021","-0,954987981114486","-2,18755301792555","-24,4305497423658","1,09272779160868","-1,54255020456948","1,14613854801036"
"1021","0,596091643017451","-1,22243232071527","-26,3072978588422","0,945552773180405","-2,84201835339185","-3,26531799750637"
"1021","1,03055540835157","-0,928800213464584","-26,6977981974363","0,90079611372243","-2,30717525924455","-2,72612038915139"
"1021","1,15225049121616","-0,839464429186306","-26,7790507177417","-2,50460460384054","-0,473682570145964","-0,983165565894258"
"1021","1,18633778312651","-0,812284559698119","-28,5878843066748","-1,5402040001347","-0,817366532744405","-1,01090904396177"
"1021","1,19588577341857","-0,804015249573816","-27,9642534756313","2,14486504208588","-0,940391455500967","1,85797338772799"
"1021","1,19856020466576","-0,801499362219699","-27,8344928281889","1,26551297515997","-0,984429389377276","1,45829579290395"
"1021","1,19930932382877","-0,800733918780831","-27,807493159817","-0,697797384760006","2,28388791287512","2,67752646256218"
"1021","1,19951915517925","2,59101111639633","-31,3857295518612","-0,294849888151217","1,45381298186453","2,35763873770428"
"1021","1,19957792980126","1,62292893228701","-30,1302634135956","-1,86820653513043","1,1566798148187","0,737019537671065"
"1022","4,6393861887029","1,32839581064374","-26,2851806998045","-1,34667216337905","1,05031818930713","0,833004375730836"
"1022","3,60289059230578","1,23878589821183","-27,4851233620745","2,20371904193213","1,01224504017357","-0,555632442318506"
"1022","3,31256392399244","1,21152262689874","-27,7347988575745","1,28341077097469","0,998616396591131","-0,330242997296077"
"1022","3,23124223326176","1,20322794227602","-27,7867495507312","-4,08414456899842","-2,29034320210087","4,12202141489421"
"1022","3,208463694102","-2,19080781877739","-22,4217776445853","-2,7164450031246","-1,46765737620244","3,60558728496685"
"1022","3,20208333184452","-1,22342257409557","-24,3054726234132","4,48305926479111","-1,17316920916996","-1,00902791755764"
"1022","4,92019206414806","2,46241066162442","-26,489345560552","2,67246453360963","-1,06775438641251","-0,583156441714651"
"1022","4,40144136784373","1,5838030254059","-25,9437502374035","2,12185361699281","2,25406094263639","1,09658270321855"
"1022","-0,903550523968665","6,40376022173022","-38,3737166763118","1,95441008240361","1,44313613595662","1,03357620242738"
"1022","0,610499485763301","4,87020290864574","-33,9600552800347","1,90348966577257","-2,13122315999666","0,998429863290554"
"1022","1,03459110420646","-15,9454455066654","-27,6659107173962","1,88800451230732","-1,41069885320099","0,978824502903775"
"1022","1,15338090617976","-10,2784800438426","-29,3562700888576","-1,5084945938305","-2,79482091597052","0,967888224322978"
"1022","1,18665441699484","-8,55434023897118","-29,7079879891482","-0,541386965553251","-2,29028049043088","0,961787740228973"
"1022","1,19597446386394","-8,02978118064556","-29,7811709367944","-3,63907469060234","1,17440562048752","0,958384763073055"
"1022","2,91848094516778","15,8703978008296","-26,2125440315192","-2,5810970263069","0,414622760527572","0,956486511500678"
"1022","2,40096207639824","9,14188201859072","-27,4700096431312","4,52421926172162","-1,49938924377197","-1,92893069468766"
"1022","3,97589881630921","7,094771979899","-33,1074355381123","2,6849814946101","-1,18452793108165","-1,53847654164788"
"1022","3,41704505763626","6,47195119056915","-31,2804308385805","-6,35381489627362","2,21226074863166","-2,76285223934111"
"1022","8,42019552121618","-10,6750990181194","-30,9002807547644","-4,10255810213158","1,42817336143621","-2,44583451833864"
"1022","6,821598489266","-5,89198484438364","-30,82118184152","-5,11383464417085","1,14750187035235","3,49972121659114"
"1022","-2,22565458663936","12,5208093451099","-27,2208692146941","-4,42136890027795","1,04703285733965","2,81627610525779"
"1022","0,240172714464944","8,12279008582154","-28,4717418877623","7,66047837424665","-3,91505262082055","0,99285701885864"
"1022","0,930861056464802","6,78471945220361","-28,7320145360111","4,33462857897498","-2,69127801710235","0,975715854146879"
"1023","1,1243256943009","6,37761959315469","-28,7861702089944","5,01911601290947","-2,25321633114064","2,40833331621685"
"1023","2,89841183090594","4,558005858085","-28,7974385344831","4,22727206623314","-2,0964080102909","2,2074771909439"
"1023","2,39534063516888","5,00439943667552","-28,7997831671379","-1,1012166299865","2,88584465560307","-0,78892286328735"
"1023","10,8539078193392","-3,33856841385261","-23,4244895863612","0,278363297713072","1,66928908734526","-0,460377255662836"
"1023","8,22318718513774","-0,87686568356866","-25,3060369048809","-0,997994540631744","-2,05026957355229","1,16507149179964"
"1023","2,32662385030237","4,95936064326186","-29,2813901172703","-0,386141345214301","-1,38172075179676","1,07178067593908"
"1023","3,67497227218469","3,73499703743796","-28,1085532095577","-1,89596872397762","2,14167371467986","1,01974111476025"
"1023","-1,10703749767934","10,1455161579417","-33,2402991209807","-1,35511478390875","1,40290606547664","0,990712363079766"
"1023","0,553501949712073","8,09587764471248","-31,3080761435852","8,98473158577423","1,13845720294864","0,974519520460838"
"1023","6,17831355438483","-2,70224887861734","-18,3625429768659","6,12913059966799","1,04379523315641","0,965486815404572"
"1023","4,75384635814327","0,0124867450514556","-22,6689289321765","-4,91464192798136","-2,27417101054252","-0,481730976660543"
"1023","4,35484725323246","2,53418463839379","-30,7326795326108","-2,27310840843374","-1,46186838738193","-0,289019219715857"
"1023","4,24308596723045","2,30139589851082","-28,4105271415484","1,92198514461555","0,470943562548192","-1,62369974671426"
"1023","0,771989376681367","-1,16094081464305","-29,7192774090021","1,1977340832146","0,162811868084868","-1,36821235814587"
"1023","1,79972098303757","-0,214335719584436","-28,9915928135516","-4,11019927840845","-3,2315678811788","-2,66787532964016"
"1023","3,80748871973453","-8,40511725592808","-25,2563271121574","-2,72436837061451","-2,44661819456079","-2,39285441887904"
"1023","3,36987269875812","-5,89711276436405","-26,4791197137176","-0,607035261144512","2,76048361011634","-0,797262862730706"
"1023","6,68708645204632","13,5192492066174","-32,1093310965079","-0,963143669000267","1,62441491625772","-0,907208642101744"
"1023","5,6162516317374","8,42655934633471","-30,2808252528276","2,32035197596302","1,2177483896866","-0,968538689000311"
"1023","1,87651461005605","-4,993153134058","-26,3165085315381","1,31887942975763","1,07217826287348","-1,00274986722014"
"1023","2,82899892967413","-2,07601910689032","-27,4916418334623","6,10201160807481","-2,26401103679181","-2,4640127363113"
"1023","4,81568959268719","-6,27576703654908","-27,736155174526","4,55658603472416","-1,45823152875042","-2,27913561601779"
"1023","4,37216979691259","-4,5535148229886","-27,7870317634715","-2,69696560127353","-1,16979513798569","0,708351016248674"
"1024","0,808146286884375","4,4492503313071","-27,7976178005829","-0,902806945138476","-1,06654660574192","0,374833316104972"
"1024","1,80984868190308","2,18828692121762","-27,7998204675471","1,33870067556932","2,25449327914282","-2,69556812913014"
"1024","5,5302214276756","-3,5868656873027","-29,5922059278132","1,02035435785754","1,44329089489535","-2,40830203952613"
"1024","4,57231309494212","-2,34392077381759","-28,9651526876795","4,31533364336692","2,79495388279306","2,07847845446214"
"1024","7,74379083743921","3,12150589343738","-34,210461364994","3,31735332970717","2,27879442461465","1,58129811424399"
"1024","6,63213476269049","1,78432874447455","-32,3018677165121","-2,07382246706464","-1,1900508288546","-0,138218601246551"
"1024","4,60085943813395","1,37750072270239","-19,3612511717202","-0,713306000282449","-0,431756773281055","-0,0974008582389675"
"1024","5,03189088732146","1,25372576930342","-23,6686601425918","-0,299566135725128","-0,160318249038088","-0,0746318705864218"
"1024","1,71283276846491","2,91182406872245","-28,1487693146699","-0,173745772867796","-0,0631542637718818","-0,0619308547897995"
"1024","2,78315097441245","2,41629040033725","-27,0809584205365","1,56041182573474","4,89774814846884","-0,0548459635013627"
"1024","4,80284739234754","3,96128336983668","-30,4426302493854","1,08777782789995","3,67355005512296","-0,0508938634982812"
"1024","4,36857264391804","3,43133809214544","-29,1421029041774","0,944047464450654","-3,33282541677347","-1,49086846071031"
"1024","0,807138709574878","-6,90443099919119","-27,0795713214732","0,900338341806272","-1,84082373801209","-1,29411629873529"
"1024","1,80956645536556","-4,04902593650653","-27,6504144866608","-4,20063881131703","0,335292913076563","0,257815318293927"
"1024","2,09035057897581","-3,18028629799922","-27,7691914537631","-2,75187148506393","0,114254435998276","0,123515115050668"
"1024","2,16899936379112","-2,91597754216749","-27,7939057164089","1,08049590089281","1,67717217242795","1,49077882394492"
"1024","3,91092510898403","3,94746109795933","-29,5909752286576","0,245937997268016","1,23663334817032","1,25346701324052"
"1024","3,39884565568871","2,03562059626001","-28,9648966125926","-1,70375023347553","-0,5631022362002","-0,321089621074413"
"1024","3,25541010024234","-0,241801335281216","-27,0426995024702","-1,29666017922922","-0,207334598907554","-0,199410123956954"
"1024","3,21523321278119","0,065306881555959","-27,6427424620141","0,523032939788287","3,20409688632513","1,31064439617183"
"1024","4,92387539973996","-3,23276946337847","-20,5998865334423","0,0764107216675868","2,42525102976248","1,15298427559866"
"1024","4,40247308525226","-2,23618914947162","-23,1344593934698","1,63648566731932","3,78849634256416","-0,377140986095659"
"1024","0,816634362254088","4,85003866230893","-32,6214709298149","1,11091226374254","3,27648288705598","-0,230676743422906"
"1025","1,8122262266327","3,00598041223307","-29,5954605050087","4,34287275563071","3,0932028313386","-0,148975936684624"
"1025","5,53088738770719","-4,33808741164655","-27,1739027317858","3,32572811153175","3,02759600311486","-0,103401524118957"
"1025","4,57249963307877","-2,57247541840161","-27,6700422925149","-3,76717065075707","-1,92201022649861","-2,96233748896595"
"1025","2,58415539370309","1,35621345487951","-31,357129757488","-1,92415665194008","-0,693768557814939","-2,55711154766211"
"1025","3,02721201595546","0,551493170596263","-30,1243125727298","-1,36368687383349","-1,89614839218314","3,43764857072712"
"1025","-0,288477802597694","2,00241799108357","-26,2839424913562","-1,19324521013886","-1,32655161824239","2,78165068985998"
"1025","0,782783878081775","1,44385305069165","-27,4848657245077","2,25037694604642","2,16142202746919","0,973542240589038"
"1025","7,96243226099284","1,27391306188226","-29,5266723952528","1,29759967305717","1,40997516069165","0,964941668326499"
"1025","5,97348122436266","1,22220985298362","-28,9515169384655","-0,688039659391579","-0,501052896060244","2,40232325084247"
"1025","-1,46321571156291","-2,18503268779447","-30,6237698456011","-0,291882515046304","-0,185123451142324","2,20412465123402"
"1025","0,45373497094047","-1,22166552558851","-29,9717202821666","-5,25909413561558","3,21204757659735","0,651386181150499"
"1025","7,87026431232567","-0,928566920706951","-26,2521921778173","-3,76964804164993","2,42809705449173","0,785236304946016"
"1025","5,94766460386294","-0,839393451282477","-27,4782593461245","0,075089961094384","-4,4206876382595","-0,58227846764341"
"1025","1,96934474302283","5,9707613422225","-29,5252977872418","-0,755705976071972","-2,87227485062677","-0,345106705500116"
"1025","2,85500103071249","4,04270955398543","-28,9512309198522","2,38343481624589","2,60811578696446","2,67155096776071"
"1025","4,8229728878501","0,0645993601971679","-25,2479288977047","1,33806323710709","1,56987341384916","2,3543054821804"
"1025","4,3742098777642","0,854283508041134","-26,47737227326","-4,06752448060741","-2,08585635351194","-2,14919814362553"
"1025","5,96840541573281","-3,99272811924811","-32,1089675015831","-2,71139075109038","-1,39445937603337","-1,66134631482943"
"1025","5,41494612539646","-2,4674019523795","-30,2807495985935","-5,69077369235622","0,495073255279716","0,052966762592595"
"1025","0,100232214019122","8,17120572572772","-26,3164927899457","-4,59681895140347","0,171449319660994","0,00924632183152911"
"1025","1,61155904619068","5,40793746276904","-27,4916385580643","-0,872351847853909","3,33968617007","-0,0151418511173679"
"1025","5,47467968731746","-0,520038344814937","-31,3200087831293","-1,73972276721119","2,47378649540718","-0,0287460822145753"
"1025","4,5567556256325","0,676411039035834","-30,1165887056169","1,3882953900285","-2,76229212259305","-1,47851396677158"
"1026","-0,860046363254317","1,04042349345151","-35,2419710895866","0,33954136191307","-1,63659595293909","-1,28722470456037"
"1026","0,622685179635873","1,15117207066525","-33,3084240348664","0,0206100147808428","-1,23364236944341","1,70383875409071"
"1026","6,19769206087993","-7,29391373187375","-20,362615363598","-0,0763786035764653","-1,08940132569719","1,37231628224201"
"1026","4,75927435730426","-4,86327976793556","-24,6689439938906","-1,80176832442401","0,604271667667451","-3,13915134402324"
"1026","2,63647176011895","16,2252987670145","-32,7326826665447","-1,32646797109602","0,210537923468897","-2,65574200064552"
"1026","3,04186604479318","10,6413706345416","-30,410527793635","3,90575823463853","3,35367830525074","1,94045128773646"
"1026","3,15541864688031","-4,62355418182418","-33,511204689746","2,4969044019568","2,47879511244242","1,50430368428961"
"1026","3,187225196524","-1,26781479483244","-32,156371383759","0,372569905838892","-1,11845869233115","1,26101146218601"
"1026","8,3558220353848","-17,2044122469137","-22,914831624506","0,726549156985305","-0,406129691356182","1,12529799071827"
"1026","6,80356721182101","-12,0530251776972","-25,9919180627783","-4,25348897193244","-0,15114479284756","1,04959418819398"
"1026","2,92898247241638","16,6463502633012","-30,2160305130043","-2,76794348332983","-0,0598705384251482","1,00736502955074"
"1026","3,84369539314734","9,37796083996559","-29,0949536501005","4,46739831930074","-1,66923860482689","0,983808724844069"
"1026","0,660118438558372","2,07932929619764","-27,0697608415692","2,66770196173033","-1,24532711521014","0,970668527187716"
"1026","1,76838547436851","2,85876500155794","-27,6483731920989","3,8163002918024","-7,66174618470316","-0,478840509845964"
"1026","3,79871151521633","-1,99136465207891","-27,7687667157758","3,165594790706","-5,95856403570198","-0,287406857092107"
"1026","3,36741416776799","-0,466987125778831","-27,7938173399633","-0,424078001314908","1,21926830605564","2,70373714561263"
"1026","6,68639780743095","-6,78622883411161","-29,5909568399183","0,484284542588357","-0,211358765606593","2,37225960291551"
"1026","5,61605873955578","-4,70881972290684","-28,9648927863951","5,84820712719679","-4,00754634445422","-2,1391829609327"
"1026","0,15656468222026","2,70624368243746","-25,25077156128","4,47940282224098","-3,36642756814058","-1,65575963721649"
"1026","1,62733800161273","0,962231663424996","-26,4779637543858","2,36724758788247","3,43122915122373","-1,38609603316562"
"1026","0,31941174362395","15,6934312961876","-32,1090905727495","2,72493061346585","1,8645146222788","-1,23567205529319"
"1026","0,953056233575138","11,1753092654425","-30,2807752063625","4,52959880787107","2,945734897225","3,17477505711185"
"1026","6,29023034828874","-3,76535052119631","-26,3164981182273","4,07840743500226","2,33276791384411","2,63501436593154"
"1027","4,78519471120466","-0,310955469413991","-27,491639666735","-2,84238210589774","-1,17073050825205","0,891745443340329"
"1027","2,64373215757318","0,740023233315236","-27,7361547236889","-0,947028831750344","-0,424840881914493","0,919313710253765"
"1027","3,04389971190267","1,05977711700046","-27,7870316696645","-5,45832740838842","-0,157842640357568","-0,507487296917229"
"1027","1,43609238743543","9,6358406771772","-31,3814720711889","-3,83023587671473","-0,0622680962463628","-0,303386631892237"
"1027","1,98573896053722","7,24505590007056","-30,1293775474373","1,75255989406132","-0,0280562848546491","1,25264413327406"
"1027","3,85959311828826","-1,96110622412454","-22,7011420849791","0,450316020097126","-0,015809843612509","1,12063052028401"
"1027","3,38446735452815","0,237974893882101","-25,1555279251563","3,4460871360612","-3,29550721113202","1,04699057592011"
"1027","3,25138267910668","-0,788724116240249","-31,0420004292276","2,35711612102837","-2,469505882043","1,00591268036758"
"1027","3,21410511560039","-0,101091050993421","-29,2668155686617","-3,06173040328054","-2,17383089930683","0,982998574204124"
"1027","4,9235594150921","1,80387320730905","-32,4813020768063","-1,70962874318604","-2,067991244651","0,970216608277986"
"1027","4,40238457665621","1,38344700675139","-31,1501494617146","7,18102712028834","1,25397615699125","-0,479092599631371"
"1027","5,97629726446664","-2,13597726357159","-21,913537011423","4,8847200505765","0,443105786133589","-0,287547478027719"
"1027","5,41715666459961","-1,20674071087023","-24,9916486889381","-2,59717840531515","-3,13123402400267","1,26147954337258"
"1027","0,100851395117678","2,46748601713786","-27,424047318558","-0,87246115958689","-2,41070274207463","1,1255590961585"
"1027","1,6117324813563","1,58534717147879","-26,9301634457694","-2,04386101270967","4,41538043424524","1,04973983824974"
"1027","5,47472826721879","-0,378794288535318","-28,619326763413","-1,40008956885479","2,85884142424149","1,00744627618705"
"1027","4,55676923306214","0,0236276080114477","-27,970795797371","0,49157954491969","2,30166357391209","2,42603320686266"
"1027","2,57974924413146","-3,24545012907648","-33,2116355429382","0,0668455869187364","2,10221649619514","2,217350558795"
"1027","3,02597783538618","-2,24004716495197","-31,3021120310692","-1,75821313150748","-2,89529911572158","0,658763868003338"
"1027","6,59076009014001","3,15310880771236","-23,7370834421346","-1,31322261901242","-1,68420706325103","0,789351732416502"
"1027","5,58927022263136","1,79394373909713","-26,16300634595","3,90978621247701","-1,25068521637813","2,30437552546472"
"1027","3,58885290463066","-0,315330050443562","-21,2919936152185","2,49812933017048","-1,09550197383871","2,14948736888094"
"1027","4,02852780803573","0,0429362167894039","-23,2784680898975","0,372942412637297","2,24412843145961","2,06308752741674"
"1027","0,71189075616144","-1,54381952535976","-36,2352895205411","0,726662438166446","1,43958069970332","2,01489189535754"
"1028","1,78288711290206","-1,02658031746189","-31,9312523465326","2,53012546442728","-3,77453641046286","-0,896350954459683"
"1028","8,96246117748948","-0,869213431634301","-27,4518447538541","2,078567593896","-2,64097891150953","-0,520302883617939"
"1028","6,97348932399199","-0,821335512913256","-28,5198016276161","-6,53822839752328","-0,593170742434466","-1,75271459417028"
"1028","1,25668245512095","-0,806768947088407","-25,1581601731654","-4,15863917052911","-0,860138453362915","-1,44017952860347"
"1028","2,65538140049088","-0,802337157954758","-26,458693838461","3,34858580607385","0,686338479707869","-1,26584095609699"
"1028","1,3272668146853","4,28627941745145","-33,897008171391","1,63157048200891","0,239914514496934","-1,16859126730295"
"1028","1,95525647120136","2,83446008785494","-31,4447194705674","1,10941753129772","-1,5619277117015","1,77001495760082"
"1028","9,01074254181779","-0,998759274376187","-18,3909747440193","0,950628206522841","-1,20691416676217","1,40923074760905"
"1028","6,98701313219319","-0,164992971508083","-22,6748448111391","5,99002456863487","-1,07983371292463","4,09233611877959"
"1028","-0,45942536867094","3,48018751314483","-36,1096919016231","4,52253021573092","-1,03434406336685","3,58902820818079"
"1028","1,45479666153271","2,58921152445406","-31,9051188913909","-4,40321714296571","2,26602048354976","4,75045172814271"
"1028","1,99097810443783","0,622381417374388","-27,4464070912334","-2,11758157252261","1,4474171666627","4,39831797053823"
"1028","2,14116472604162","1,02398530938991","-28,5186701976304","-1,42250835993656","-0,487650176138099","1,31753210051058"
"1028","5,62302441071562","1,14617085305658","-30,5337061884851","-1,21113311836161","-0,180325820869781","1,59900554156378"
"1028","4,59830759117462","1,18334506221624","-29,9529804799044","-1,14685284983474","-6,63847835703136","-1,12834102928164"
"1028","0,87148841068696","4,58616724311403","-28,040220078722","-1,12730489856524","-4,95023509686994","-0,649711781805988"
"1028","1,8275910706131","3,62145521327627","-28,6422265612362","-2,81725526552727","0,580209179976943","1,05945674756566"
"1028","3,81529524558908","-6,84658902039679","-25,1836334786193","-2,33117762737061","-0,440116019882572","1,01286657069462"
"1028","3,37205933867278","-4,03142786595427","-26,4639941418515","-7,27104397587681","2,47873002808807","-1,8974807227625"
"1028","3,24790714296722","1,91233603851933","-33,8981110206495","-5,77328204786145","1,52355855856403","-1,52093309192055"
"1028","3,21313160367089","0,720690087205625","-31,4449489435612","-0,230120161629954","-0,460394645253223","1,57347134536085"
"1028","1,48349493451833","2,05389512478087","-29,1425853614943","-1,54441689818252","-0,170569445982662","1,29959462491977"
"1029","1,99901660842302","1,45951465580121","-29,6635259978692","3,14358387871134","-3,35090487351777","1,14682048292755"
"1029","3,86331224192672","-0,417078066767268","-26,1880653132081","1,56922837022134","-2,48933599888748","1,06159988285657"
"1029","3,38550909631534","0,0119800011284338","-27,464916286327","-2,30133101030315","2,74519236830834","-0,428117104730967"
"1029","4,97157037319901","10,3170547719593","-27,7305943136338","-1,47838748331065","1,61894127172669","-0,259112284691476"
"1029","4,41583264296557","7,45231114878497","-27,7858746992698","0,467768757389344","-2,06829205001761","-4,49137535702911"
"1029","5,98006412300461","13,3637546173222","-26,0054499018687","0,0596046072993507","-1,38817206758777","-3,8522198951134"
"1029","5,41821177712796","11,1622753697807","-26,6349918312717","-10,2398901333704","-2,78675724014733","2,27303098474171"
"1029","0,101146936464998","-52,2504861560195","-30,3498367079502","-7,37201801499179","-2,28739402145577","1,68982356992349"
"1029","1,61181526370001","-34,5434335015981","-29,1227950870912","-20,067043729073","2,81747940779372","-2,96203916240482"
"1029","0,315063761059464","75,9807064292729","-34,2432624690988","-15,9276645651577","1,64481710073469","-2,55694513488947"
"1029","0,95183834582316","47,6070043667012","-32,3086927358883","26,0326212708671","-2,05902955245763","0,55338307733608"
"1029","18,3291604985448","15,2338928607246","-13,9868898377998","14,7929541315517","-1,38485646904126","0,288388970395172"
"1029","13,1966197162627","19,3845704109645","-20,1746200011894","19,8543901033134","-2,78557039031008","0,140569735318553"
"1029","-8,87977678615535","-38,7040738564329","-30,4217544071815","16,3935981059737","-2,28696917733896","0,0581130855806438"
"1029","-3,06346600508724","-21,3771908799042","-27,5539049179662","-30,448010967791","2,81763148476076","1,45429620899049"
"1029","-3,15418939442466","16,1137734329544","-34,124891867463","-17,6927786475703","1,6448715381224","1,23311625035597"
"1029","-2,17960138793045","8,52017149888088","-31,4921358818029","-0,246688707358079","1,22507103082975","1,10973746024981"
"1029","17,0122395878918","11,2971324859695","-23,776622247263","-2,94124546932795","1,07479947148095","1,04091420003203"
"1029","11,3879529712172","9,14200599116811","-26,1712332980139","18,28596129551","-0,621032201941335","-1,88183517063219"
"1029","-7,38639176069405","3,39905362097114","-39,2129768712453","11,7412610777951","-0,228071177672273","-1,51220567690385"
"1029","-2,64516273350721","4,65179526129071","-34,9266096898924","-8,90385996741757","-0,0874070649463446","-2,74819780352707"
"1029","10,7221462514038","-6,83735824515974","-17,9073887275961","-4,18214457004209","-0,0370550163029023","-2,43765996865707"
"1030","7,46638433152131","-3,33286338185108","-23,3661508331563","-7,83393228400016","-1,66107157304129","0,619922828849848"
"1030","1,39474436861261","2,82062611458046","-29,8777524840727","-5,94445919863469","-1,24240364899142","0,325506230414644"
"1030","2,69405310879753","1,69278790015295","-28,2326400297957","8,19729899410941","2,1915435883909","0,161274516445787"
"1030","-0,381796979128971","-24,0866911753718","-24,3064824946161","4,49787841532492","1,42075745811886","0,0696626439613477"
"1030","0,756644793934919","-16,9299410265581","-25,4895556873363","-1,71481888206195","2,78688782612313","-5,75015701142171"
"1030","16,5545900860216","5,59652963783015","-32,9034296843951","-0,604131213897164","2,27590710339295","-4,99657369469698"
"1030","11,9796593663841","0,45007144791107","-30,4460556131112","11,6048994402689","-1,19108437277556","4,0768657490417"
"1030","-28,8594031475288","10,754585355604","-76,5248485460703","8,31772674707683","-0,432126740096148","3,13821935260146"
"1030","-17,2985920817785","6,8896710932282","-60,1125945437123","2,23039609427933","4,76567096320859","4,05680199312131"
"1030","56,4553703365501","15,8883308763189","13,1875086599517","3,37920838630485","3,62627177832559","3,56920653239125"
"1030","36,1141577527741","12,6261184319879","-10,560729599237","-3,05501203487675","-8,27587076817074","1,85503646241894"
"1030","42,4557719528859","-1,93243849493488","16,7525952775561","-1,01169065699431","-5,53635518632539","1,89883667571559"
"1030","37,2320841039909","1,63820902994146","4,43575676251016","4,69737858751402","-1,27163859423902","-3,8454472963598"
"1030","-65,7049502690654","-12,5372478503177","-59,0525659232412","3,43353510869003","-1,74504298194078","-3,04972860139428"
"1030","-35,5380358503906","-7,85004446427824","-38,2627624796687","-8,82207099377482","14,5059029276281","1,72067735153302"
"1030","36,5479888485836","-13,2070156247441","0,109647032612656","-5,54906212743924","10,3230826125055","1,38170920279567"
"1030","19,7395800676433","-10,8368415469065","-10,90609616933","-4,55372375549333","-9,23664348641191","2,63480486660813"
"1030","52,8691855738537","71,2805612010243","-11,406246161556","-4,25103637665432","-5,23823231315147","2,33380774120372"
"1030","40,148923975625","48,2642819734892","-12,5103137983355","26,3671223111082","-12,0171659847944","-2,16063221069574"
"1030","-21,89053400737","37,8702067308924","-57,5382189301231","17,6782575584683","-9,44374936395594","-1,66772447571626"
"1030","-5,2680406777093","36,7078725013728","-41,9073037027561","8,25235032761123","9,53987547124091","-1,39277026941664"
"1031","-9,21149159940277","-56,9123448503643","-4,60831878992483","9,38588477850368","5,33524340558467","-1,23939508335874"
"1031","-5,31606837882381","-30,3957270653748","-15,8474125128354","-37,75446163252","2,18811506895874","4,61487743542427"
"1031","-4,22494435549724","-22,3282072413014","-37,8971614263591","-24,0900768312183","2,06157073563828","3,88051264386891"
"1031","-3,91931604071212","-19,8737133597831","-31,4851156334545","-8,06340406953543","-1,26780810142318","-2,29784798413101"
"1031","16,805042479297","18,1796851784098","-55,2379229902066","-10,1896126972001","-0,459590723923339","-1,74426629358458"
"1031","10,6100203132213","7,75720043957644","-46,1802374297102","14,6022215723627","-6,73844386856419","-2,87764605143397"
"1031","-3,16450209343275","4,58622279346657","-12,040890324888","7,14154241356989","-4,98601869655165","-2,50986889891782"
"1031","-0,0228023233925012","3,62147211413346","-22,93741890708","13,3521875374436","3,8514811991705","-2,30471513911849"
"1031","-31,820821391322","10,1109768898981","-57,4593793292086","10,2408757930459","2,0149478148725","-2,19027609669332"
"1031","-21,7275769694894","8,08536928229951","-46,6424621922857","-7,66423964257135","9,56774607415987","-0,684260453076081"
"1031","24,0969796447266","-43,4035918279722","-10,3451396057976","-3,10927483037511","7,27134159668467","-0,844173543133728"
"1031","11,9326259272449","-29,0687953560482","-21,7926520686339","-20,3789322055532","-5,04496192978267","-0,933376397204482"
"1031","18,8447159397905","-17,9244963322788","-11,6310786532743","-14,6307214178196","-2,4536991851791","-0,983135608107729"
"1031","14,7808207060816","-18,5339110763207","-16,5167310620818","-2,70729177703504","-4,81021329122165","-1,01089233288416"
"1031","-20,7554109780934","-18,7193218088849","-40,8283555928259","-5,08131716733066","-3,65374978817878","-1,02637561238817"
"1031","-10,7092552444269","-18,7757318975578","-32,8869447171102","0,980309820615208","0,044298350012224","-1,03501250835232"
"1031","12,7434649617954","71,0821777478103","-4,3556455080319","-1,17631908449364","-0,631950366653787","-1,03983034890582"
"1031","7,31266809591914","45,4209007060669","-13,4190566265185","26,998054219991","0,768020562075379","3,28401964208949"
"1031","24,7103344937459","-20,0420935068952","-67,2707936602236","18,5660221054183","0,269153387902264","2,69595327198525"
"1031","18,583492217971","-5,95881168862484","-49,4758783281786","-2,65304601242879","-4,83554247752346","0,925738435045889"
"1032","-19,2504752929545","-37,2849363905968","-49,3570937817908","1,89412920855581","-3,66281660981546","0,93827570940872"
"1032","-8,84792478980079","-25,8157194676005","-47,3323779421014","-35,7286369812403","9,89329608624169","2,38744842326493"
"1032","38,7831656245284","113,33420623122","8,63865196003288","-24,1699084157962","6,74583475200499","2,19582716243402"
"1032","26,1248294349604","75,6697255344798","-10,715296054429","43,78916864857","-12,4432748139622","4,97329515184135"
"1032","0,220530869786312","60,8190240095247","-36,2454530128613","26,455864000338","-8,31219794983339","4,52262467612219"
"1032","5,96463058080959","58,3007883157631","-29,5575856582087","27,9682993208782","3,01880334947033","7,15558961512576"
"1032","-1,02590301723903","-89,996148275483","-24,5821677141572","24,4282384689519","1,07484236002517","6,62431232658535"
"1032","2,01601984639047","-48,1145900579221","-25,5469182980303","-58,0512715917701","6,94714534423829","-0,882941021034301"
"1032","63,0644313466857","56,1984476714957","-4,24453096557143","-35,133703267138","5,04919169977349","-0,0706433823512584"
"1032","45,164341831893","33,9350555079513","-11,8120824163189","-4,4218261227619","-7,12448258504178","0,382473168015826"
"1032","-44,1244456676403","128,906918342939","-56,3929359330598","-9,08219062384847","-4,48216435532215","0,635231022328241"
"1032","-20,134601313825","97,8015304825072","-41,6690013998456","62,4240540744827","6,31592171972553","0,776224620696827"
"1032","5,50390737474163","-77,8461902812937","-18,8941517099188","41,1694608511186","4,18119868888567","0,854873788039222"
"1032","1,68535882899577","-33,2859419421347","-25,1553237141597","-43,3053371405619","-1,50906724179922","-1,9856123893469"
"1032","35,0136856763233","-2,7711964017401","-13,9146136329014","-22,9945458586657","-0,545951713492573","-1,57009477212138"
"1032","24,3490867409076","-3,48727050403206","-18,5757269947675","-4,9466676325772","-1,84323595566039","-2,78048954719306"
"1032","-45,7140511875134","36,9930141457553","-75,0953196560916","-6,4582175659127","-1,30761111148479","-2,45567297620316"
"1032","-26,3390235241473","25,3088947585973","-55,8555126610468","15,1287474943961","-1,1158791360298","0,609874797866705"
"1032","35,8445658339683","-46,0761706357716","12,657146131106","8,69345157429581","-1,04724686325229","0,319901229340844"
"1032","20,2624442937137","-27,7946429870175","-9,08722935464119","-11,9183990766348","-9,23288203480539","0,158147930043934"
"1032","38,2564748048384","26,9443269344629","-2,86008077042296","-7,18656598589789","-7,16300751136228","0,067918568911309"
"1033","30,296676563517","14,5983258935944","-7,56438018638368","2,73188311528815","0,146085831636317","0,017586750977521"
"1033","-75,1266494520792","61,7148124064094","-65,8848858383391","0,748133111474599","-1,23755512401244","-0,0104893859331282"
"1033","-44,6561555213863","46,0497171089993","-46,0197999507493","5,23254980034995","-8,30100467545158","-1,46833000113361"
"1033","36,1143825339266","-36,7210724753324","-49,0541233967861","3,59628335211071","-6,82943320290076","-1,28154387630336"
"1033","16,7385415684528","-15,9035822222507","-45,6854837390072","-10,4684734354263","1,90753245659768","-2,61952984437973"
"1033","54,3086864818593","-152,013497770943","35,6521602596485","-6,74563634406077","0,0350118922395462","-2,36588629972687"
"1033","39,8322381869256","-109,424112459655","7,57631606035155","-37,8355078964609","-13,7715989296246","-3,6665778057812"
"1033","-81,1755954239035","190,116226197269","-130,868113731594","-28,2900933860564","-10,7138057671148","-3,39213063303135"
"1033","-47,0703859991511","112,24955397757","-85,6746414886206","33,9690398108122","5,15912513236999","1,08749920200165"
"1033","8,91981230668577","56,3397266775553","-26,0971466327337","17,9023537142097","1,84099077156182","0,586330075205318"
"1033","-2,39710347294614","58,3295014761074","-41,7006871880357","40,1507140344716","7,22139540943405","6,07548413619772"
"1033","68,3885056061736","-115,72799754657","60,7763411401653","30,9165517220512","5,14736210269716","5,1374486601656"
"1033","45,215845075735","-65,6839339061828","23,0990289899412","-48,2068780916011","-21,867706497548","3,17201376291658"
"1033","-83,387520948438","-8,06442973214178","-111,967424214959","-27,2687089725147","-15,5380056371432","3,07565321943843"
"1033","-48,409851309959","-15,5340457311891","-69,0710867396067","-7,33414701045981","11,3583788381159","3,02190130022431"
"1033","4,384934884734","83,9387336025667","-22,5150532884316","-9,27194698013082","5,98619387342405","2,99191735954783"
"1033","-5,82702893498726","54,2027222355753","-33,8280064936725","34,2320282691951","4,06316948986447","5,85955001450521"
"1033","44,6293309453443","34,981185016902","10,4081808067578","21,4618048039341","3,37480473621775","5,45917526817569"
"1033","27,7623643226158","35,1331491241573","-6,38746941008474","12,4906309652429","-21,502210160285","2,35147956934092"
"1034","-11,3600601765336","-37,7381280234111","-49,304585492609","12,7624521158395","-15,4071727687148","2,61794214711028"
"1034","-2,31841176110349","-16,90877126911","-36,2344723615906","-27,8563656341885","1,5529684092128","4,2087596867683"
"1034","-56,5423735827647","21,647799406694","-24,5553008827498","-16,2087513382165","-1,37598875660986","4,096150861513"
"1034","-38,730727718715","14,3784017330366","-27,1251823298409","-2,49128357436514","-0,78239610883168","9,80205195593186"
"1034","-32,0217167498897","100,34604766095","-61,706520655573","-4,3197329954085","-1,56991401019184","8,9849224919469"
"1034","-31,1424952567861","74,5011815236467","-49,9019584485731","34,1298113126243","-5,13589458315454","5,64475232683227"
"1034","-61,8543478729526","19,1568679049875","-63,5730937944345","22,8225101095165","-4,41237103327252","5,7815358027641"
"1034","-52,456863772466","30,3186968045609","-57,417685956087","-11,1422067010795","-7,43746003708677","7,30001563702808"
"1034","6,93197470524913","-76,5095295753202","20,9159545638243","-3,47104701727208","-6,52031923776703","7,14705533225506"
"1034","-9,43296802082892","-44,0113682743025","-5,78494121553761","-29,9684239213587","-22,6124255048026","1,29301424289848"
"1034","-20,8964392000852","40,4892671962641","-43,5953614408645","-21,0264088109868","-18,3727470383551","2,02750813061068"
"1034","-20,1074045011904","22,198072042088","-33,4626835235407","13,9149076614286","-10,2869518659584","3,87940328828186"
"1034","-59,4439982980883","62,4185011433766","-56,4413283319922","5,54073682095617","-11,3925650607418","3,91242899896339"
"1034","-47,462339581492","47,6553222846862","-47,2225605598851","23,3448495312257","-10,1462892051124","3,93085142860592"
"1034","10,9304409086789","-73,8434544710759","-4,09006089410166","16,759169284909","-10,7001729833575","3,94112784376643"
"1034","-4,7135017455955","-41,8087189714621","-18,1153585480445","-20,8573639594993","-20,7506842075676","8,27339772514893"
"1034","-2,21585066360157","-37,1496135958776","-13,8659336920015","-11,2967399241778","-18,3483596931331","7,69002814536516"
"1034","-5,51624835003161","-32,7321090979528","-16,9817437303616","-25,3482562882746","-15,8463843790579","0,153716632136193"
"1034","-42,5585171372489","43,2251571816835","-40,925112106297","-19,6213927178958","-15,9507786678524","0,949805020497847"
"1035","-31,9342085739924","22,3346938677791","-32,9070771211019","17,7339700784822","-15,9881475902137","1,39387971325031"
"1035","-30,6781920618649","-19,6319802611122","-27,6548874006177","8,09392280321269","-16,0015241491669","1,64159383096158"
"1035","-29,3263766845685","-11,4000858404337","-28,5620492908023","-3,31713878852983","-14,3642718664185","6,10631141080264"
"1035","-18,6283522644993","-27,5488988319179","-48,4620036508694","-1,78729971101326","-14,7782019372449","5,59682391730304"
"1035","-21,6317917405475","-21,4620770509667","-41,6026439676977","-11,4974379738463","-11,6422910214661","9,63915865904976"
"1035","13,6447463987694","0,738874409273448","-2,54492736906667","-8,45033960185766","-12,5197620699598","8,89405721640479"
"1035","2,52584943791087","-4,50662102038245","-15,4180767690436","17,9147232096665","-34,1803882551398","9,92060326544427"
"1035","14,8904638703416","-1,01526289837157","-23,4724111519228","10,9324707217453","-28,9340141245088","9,49323204384114"
"1035","9,35384309320063","-2,95303840614365","-22,148299501591","0,329657822456681","-18,8458221758333","13,5813729532767"
"1035","66,2794734321091","4,9361855553072","-3,95351635962684","2,10528937122162","-20,2346585188044","12,8618231455255"
"1035","48,2245760021347","2,3364340040965","-10,1676758863068","4,34116280588235","-10,8795623236903","11,0182641070769"
"1035","81,005034924585","-27,2823779132381","26,1697962462481","4,0211031040044","-13,5308172205362","10,9898884574146"
"1035","68,1869759360264","-19,2937214505675","12,7306378140863","-6,25159863315517","-16,1218995177723","12,4162390896631"
"1035","-16,2385221704483","10,2688759617822","-31,280010585287","-3,37557862835693","-16,0494019157989","12,211887196121"
"1035","7,11354949184583","3,26311657757604","-17,437431845402","-0,805071558694023","5,32307641595635","12,0978954514043"
"1035","-80,9397138309959","24,8722419333848","-55,7714913037287","-1,02336749791088","-0,0264429622503995","12,0343084807218"
"1035","-50,6037940871005","17,446687007883","-40,7477684965726","17,5650925789942","14,4790514996468","13,4410175043349"
"1035","24,9693614926261","-30,597907028799","-42,9975210354827","12,2179362911601","9,6714303416171","13,2257091121835"
"1035","7,13771237578913","-18,2151828055727","-40,465633469157","-1,27942566637411","-13,3960302212621","8,77906812136425"
"1035","31,3812245768038","10,988526944087","17,4028522471446","1,61595903161548","-8,65324575288702","9,29863911291911"
"1036","21,1719317925416","4,87357816940709","-2,55628671894554","0,800565007871477","-26,6600078072508","8,14628747842162"
"1036","-50,4835689131946","47,1028001618326","-60,4670560975876","1,55259960562787","-21,1056984763328","8,50348172278761"
"1036","-30,5545685957151","33,9507843331754","-42,5167152138379","17,0443520601433","2,22904617538868","18,7979862425453"
"1036","91,9805472033004","-76,8832694004778","2,43258779738187","12,7554714907271","-2,41806142713769","17,5404753913425"
"1036","58,3031357844553","-47,6038567291088","-11,2146823976158","-17,3790134934788","-22,1439835488134","22,6077262770194"
"1036","143,46422908637","-96,3514799621524","30,743869757364","-9,54306114764513","-18,2050638127085","21,4343444177356"
"1036","112,318200655771","-77,1826480997294","14,4743054933013","-29,2067437917244","-36,4995768457521","13,5689117597071"
"1036","94,9945908398993","-22,1737212632381","-28,3333463830855","-22,186568066179","-31,0482706973438","14,1814095149282"
"1036","95,142176668064","-34,4375895531972","-15,2404567221827","8,77851744036796","0,459805733933834","21,7339693314196"
"1036","90,0238283701048","65,2723237317416","7,19501680463091","1,1951548690832","-6,26158050748699","20,9469445852168"
"1036","91,5901580160975","34,6084589283747","0,863229833233236","29,4151263111056","7,75284124446133","21,9501049418901"
"1036","38,712120538833","-0,157176751387727","-27,3331503346977","19,9969608182973","2,76943596850955","21,5096886937495"
"1036","54,9007653328046","4,2655898579433","-18,2000516551466","0,173899602999791","17,4059844336529","11,1687612060189"
"1036","33,6368326771492","9,0027018760886","-37,8028274792132","4,14560750762623","12,6452752947479","12,400376358276"
"1036","42,6807179144674","8,44393942097931","-29,8816330096296","-4,82194622759379","27,3615399469697","10,2030386339891"
"1036","-2,94313787448512","20,1442318773356","-40,7769374772634","-1,54902418541935","22,6293659706706","10,9773178609549"
"1036","12,2774329674389","16,7039747564801","-36,0439545832589","4,53397277310408","24,2195206664088","4,19833114423993"
"1036","-96,9723519684456","-77,6092867923931","-101,360453687439","3,38384258296724","22,788731569167","5,41687108602503"
"1036","-61,5736648776724","-51,3035234928698","-77,9510441305787","-17,3166577232036","23,9186076370967","7,53877721971716"
"1037","46,3757187666678","26,2258442854059","-51,5770557109298","-11,611783436162","23,3230574546867","7,72242067959492"
"1037","19,6127839398148","8,81368329906714","-58,0893446443607","24,0409973123887","-1,52073358880086","-0,828214137240864"
"1037","197,86513308977","25,5609681285416","31,9439092032609","14,8831863179252","4,58619659497291","0,402063574836646"
"1037","139,794347287709","17,6562277674866","-0,322614629337682","18,8818301626441","-30,9947026402838","-4,68037852335693"
"1037","176,845254811241","71,2112090838371","50,3052662798945","16,0978377620522","-20,7312218160155","-3,51547063898541"
"1037","156,223365993463","54,5049867047567","28,8395540001222","15,2512117440123","-2,27894691312269","-8,63437738931838"
"1037","-18,1027076550871","74,8585612192821","-81,3505795958786","14,9937485360418","-4,67378070912499","-7,48981024779885"
"1037","31,0678440207177","66,0510125800903","-45,2781552791603","16,6113476830906","65,07670948228","-1,08263020076236"
"1037","0,123423898888653","-6,15462972147591","-52,1078801275569","16,1032676769669","47,0445566961927","-1,50857165099128"
"1037","17,4557648870343","12,8772423897708","-45,5289604752015","-17,9691419298772","57,0101826592582","-0,30399150719165"
"1037","51,5488549610951","-55,9456935544279","-8,32152297948355","-8,33073216422321","50,5774726633001","-0,632051600676482"
"1037","44,0984693425886","-32,8846535900876","-20,5796652348351","-20,6626985017978","25,2862556428292","-3,69940867918594"
"1037","-56,0224804138849","99,6174773665233","-75,0961390969459","-15,4129111650087","30,233025469275","-3,41044437838067"
"1037","-27,0667691423698","65,930445516992","-57,4395374545695","-13,816424569874","32,003768483269","-3,24925406965048"
"1037","-55,0739694941162","69,2474194018268","-34,0544793466576","-13,3309250086663","32,6376226813856","-3,15933875638817"
"1037","-41,9189011997318","62,2565885495975","-40,1886835432613","24,1264077653961","31,2224762340479","-10,3200779256597"
"1037","-12,435674138487","31,3018174387756","-54,0085349386556","13,517370070522","31,715911187903","-9,31448745726833"
"1037","-19,1773012967974","38,8840164352262","-49,8840708733095","-13,451421326645","7,26193266653365","-10,1957272994031"
"1037","9,89246744463106","-97,8611438960034","-22,14697468421","-7,65276572222503","13,5083999269302","-9,68730124754548"
"1038","0,0350289149111148","-57,4650279495266","-31,3756378924636","-24,5442105049875","4,25009808237103","-16,614586405463"
"1038","-4,44597595096824","-46,8705112300189","-8,20889216259031","-18,6809833756068","7,93600143185425","-15,4787704245791"
"1038","-4,70112379523189","-42,6471938991982","-17,3885212389608","-18,5938416670965","5,97132427637333","-20,613905244925"
"1038","-47,7699892016522","51,9043089600322","-78,4321486552072","-17,5673414375465","7,26804951933432","-19,4783904590362"
"1038","-34,8337550728686","25,6710291314328","-58,1336704874563","21,7504073432687","7,73222457610924","-17,4027974874683"
"1038","32,4258853956996","-4,35511584001116","3,43156045779235","10,7071314641812","7,89838042485328","-17,2449884745456"
"1038","14,2655865937264","-0,490387983759133","-15,7583861745336","2,26113102680198","-11,7466291001189","-18,5991384794995"
"1038","19,4981877924062","-31,5339334785855","12,5033954546993","2,69266003631321","-6,77874593527491","-18,35451157146"
"1038","14,9638608525771","-21,9787435490014","0,383905043918383","-14,1350598003098","-19,7788101383422","-21,1024119062672"
"1038","6,8141936848922","-47,8994883843314","-100,693824904671","-9,252453595976","-15,4323059905225","-20,6352479766503"
"1038","8,5314384808363","-38,7857174844903","-66,7253567456918","-9,46352361706766","4,18601228337395","-14,6059375576513"
"1038","5,57265399652485","65,7324565388098","37,1066252353725","-8,52771106651847","0,208574732933839","-15,2426625608429"
"1038","6,74388632537093","37,5314758461005","4,71124216000791","15,4994041666612","-1,21518663117633","-12,7134827144628"
"1038","-151,158469305749","-105,013231226721","-95,2095692265241","8,80617012282093","-1,72483546820422","-13,3026534904511"
"1038","-103,387566842259","-69,3815921335064","-64,000377719407","-22,0594907825474","17,7972174950723","-3,53605110039334"
"1038","-47,0093436547288","29,6384335283698","26,7139836757051","-14,4458926925978","12,7853208668399","-5,0880367605207"
"1038","-56,2175720732988","7,76467460801667","-1,41082016496755","6,52428554352853","-2,14505928904233","5,58366658397023"
"1038","-81,1554812992826","41,8078622235876","-34,141735570593","1,90142166425345","0,51047001899921","3,53656509766814"
"1039","-75,1406919701694","28,1652951809212","-25,9521505837645","25,9340105804023","-14,9593636508821","0,952470068010448"
"1039","-228,246555621086","44,3636999837408","-47,5431731406109","18,2424411109393","-10,4969368268458","0,511008010386388"
"1039","-181,132136078464","37,2919662100274","-39,0356788450373","-18,0145035825256","7,5208365161958","11,8021845626086"
"1039","-207,492799551333","19,8786294916267","-83,8556059902124","-9,04042186649586","3,9704687801337","10,1006381408111"
"1039","-191,876529522989","23,5807276129608","-67,1814161894068","8,95169625367303","-8,79470274663503","14,9201967319315"
"1039","-161,703909760076","-122,823710214961","-38,624989882908","5,42318939314543","-6,36411654523546","13,6086469490724"
"1039","-168,252435194722","-80,366370749054","-46,683172734498","4,35015280284447","-5,49406524164954","12,8770371487444"
"1039","-125,369410684825","-65,7532271458048","-44,7760075559133","4,02383700705981","-5,18262215420188","12,4689299560696"
"1039","-139,357699611055","-62,3072670061228","-46,3791782523675","-46,9522471614722","-34,627868029621","6,47256261562303"
"1039","-50,4014982310292","67,6186072650268","-18,0419202351336","-32,4543294033973","-27,1680720937947","7,12766395453364"
"1039","-79,4845013212053","31,1477649744207","-28,1457060583828","34,7026748032101","-58,9806191495227","1,72437648925937"
"1039","31,0420471713102","3,09417206634351","9,1743675710667","18,1254557859598","-49,3682210458418","2,7103101417612"
"1039","-6,99901320989564","4,55903690100899","-5,06033816237017","4,60476555905177","-65,6318588740751","0,375926157142171"
"1039","35,6623025670643","5,00471312521967","-6,23026687846147","5,49305601360751","-59,4535817511967","1,07375812418119"
"1039","16,6119121152776","5,14030740813659","-7,47369728649214","-4,41218039529835","-52,3158874154329","1,46302333754959"
"1039","33,6344662772504","-42,2996090065424","-27,4436199970931","-1,42441234565595","-52,7608822657069","1,68016358548304"
"1039","25,4025535254816","-28,7329152913455","-20,5988188283723","-0,515817133198563","-52,9201723782513","1,80128894077643"
"1039","102,211972301393","-14,4307947100171","11,2881599583439","-0,23950878315804","-52,9771917795742","1,8688551880962"
"1039","77,7266055770276","-16,0794614347201","0,92297466983249","-8,63495701520218","-15,230669798735","14,8861574974332"
"1040","124,184926753477","-23,3640825743664","27,4370952958916","-6,18805482712306","-24,7189454927412","13,1474799937723"
"1040","106,198093089614","-21,5803842886909","16,9539640707171","1,33964035772964","-11,6949579717261","13,6197886107976"
"1040","78,8012605240975","58,6628306865578","12,9807818829466","-0,371149873588915","-17,0328985417742","12,8832521998364"
"1040","84,1272953391674","36,0763412183068","13,1540705219498","16,0675402250142","10,6130650515808","11,0302176801326"
"1040","-101,849513337387","-64,0620451738399","-10,104925702015","11,0666281309342","2,50919901689217","10,9965564095661"
"1040","-44,9423803348882","-39,5285407095822","-1,94449144931957","1,06635075856098","43,9434383840047","6,65124196852005"
"1040","-243,989446187726","-38,8473953696213","-170,479605377753","3,02521637569893","31,7752159830419","7,22733502108725"
"1040","-174,743345835225","-34,6401610391434","-110,547187690085","3,62091721057196","27,4194857661153","7,54869173104015"
"1040","-138,148270095695","110,779130969902","-130,331567049618","3,80207281489917","25,8603109665861","7,72795120061986"
"1040","-137,897839266019","70,0220668751664","-116,448159346126","-11,4058918301755","61,427081676493","4,94358754644466"
"1040","147,675026495434","-83,1257765788467","42,338262551427","-7,03070996804591","52,1585434130393","5,3904114766572"
"1040","61,6651576309735","-46,7200772961406","-11,6225933190138","9,56285969708987","-64,4600153037634","-4,45559495034707"
"1040","99,4896928707795","-32,2523523670032","-22,8503826548558","5,60904725409416","-37,2047306220025","-2,94790251673303"
"1040","74,0845003497935","-29,8506349752351","-25,1865808366031","-34,5989118169151","-30,7325249625255","-2,10688025838775"
"1040","259,596742280934","50,5806085574445","47,7963326855767","-23,8263533410234","-26,4157377743724","-1,63774051657934"
"1040","199,559482227366","28,0513256351741","21,9820958638047","23,5429055047442","-28,1545840969745","-10,0291195578834"
"1040","58,9102947581858","-7,63092509340788","18,4027810553242","11,9481341201551","-26,7770205729342","-8,71000565547552"
"1041","91,5138803972895","-1,48703304256529","16,658022804403","8,42210613052038","13,1250644735189","-3,64763894877888"
"1041","-24,9061220734239","27,5143060078076","-114,515695615593","7,34982337726036","3,40839295225056","-3,82374530487946"
"1041","15,484157673213","20,3377871776423","-68,8093857000302","-20,1105831208516","75,4640837725825","3,28891470455756"
"1041","64,635350468195","-93,7655261367997","41,0487768162576","-12,461430128304","55,2570993393271","2,25650467888663"
"1041","56,4028011909922","-62,4807658261471","7,9072783292267","-1,6558094488861","38,1715749834902","-12,7411867573925"
"1041","-19,8586932435385","-86,8776891504614","-27,6594021988794","-3,36976613701499","38,0556500557154","-11,1072115781644"
"1041","1,78014933646372","-74,3003048158997","-19,059862957018","-3,89098894123489","44,5823158259687","-13,0801044946069"
"1041","-110,831539051311","187,281211615588","-124,786160979556","-4,04949540380801","42,9185975255063","-12,1806252766092"
"1041","-73,3745349081273","114,865798403154","-86,7849336510951","53,5627318772544","42,3230538351473","-16,0054145073745"
"1041","-28,4847564380209","-61,4799540021251","-16,1604597125453","37,0828984420068","42,1098733423753","-15,1389616452627"
"1041","-35,9109453481797","-24,1320775480654","-36,4654237916811","32,0712986415627","42,0335633701025","-14,6556361827238"
"1041","-37,9910513245545","-12,7692130936578","-40,6903356370334","30,5472460679431","42,0062474942804","-14,3860271676769"
"1041","-38,5736975412473","-9,31213063361318","-41,5694251065558","-19,0971808505629","14,0817801946182","-17,119991962592"
"1041","-30,1374196468678","-15,0433586105758","-91,9262998239706","-5,19429946013626","21,0859531953438","-16,6450544984199"
"1041","-32,7743836025716","-12,7870498948618","-74,404198512161","0,729531327079727","-12,5317289447991","-13,4957661617565"
"1041","92,0393925264086","1,46546693533641","-11,6247290806486","1,53099790789958","-2,56549600589997","-13,739027499394"
"1041","54,0002432131779","-2,19829142921438","-31,5620256445624","-11,7924320689041","-28,554718601311","-13,874723742863"
"1041","91,5024065942837","33,993666042698","12,6715970563285","-7,84415378534855","-19,8578064676461","-13,9504179352506"
"1041","74,0069163932885","23,0048491711118","-5,12458678406193","10,3154873623825","-31,5230295062388","-12,5504625722075"
"1042","0,310521902738842","-39,6898942739745","-75,1287939300341","5,83792509269669","-26,6987063472839","-12,7695382969647"
"1042","19,6678594992325","-23,7643889817705","-52,6947691685436","-2,30730398287988","-11,8354698875887","-4,23866833585341"
"1042","105,925036368274","43,8238240695291","-24,7318047028678","-0,784308897409089","-14,515033916292","-5,4799712963348"
"1042","83,0860254410228","27,3871271682268","-31,9134708539743","-3,71294846547972","-10,5480875410216","-1,84585847240834"
"1042","147,204456609131","34,2566545568559","-2,94501916718438","-2,60356241085634","-12,1280815922212","-2,81867460776969"
"1042","124,164292196684","29,3466665198882","-13,9174707215904","12,9968624096123","-29,1140608807827","-3,36133172063663"
"1042","122,870335326557","-38,2816544996068","23,2218571491907","8,74102965039786","-25,1943527108715","-3,66403716665157"
"1042","119,507892699352","-19,8571602038986","8,94954312972989","-23,0793003261256","-2,44472899423891","-2,39071341158034"
"1042","92,767620257378","38,3168186047958","-31,6506080411753","-14,7560218771656","-7,30128616577721","-2,68042688614644"
"1042","100,277560256298","25,015898143893","-19,098397406206","-0,353606280139258","13,9488309710714","5,81103986609803"
"1042","71,4229990931868","-57,0356056131227","15,7680655075131","-2,97375963814644","7,55551124664541","4,54775697458533"
"1042","81,3407181483867","-35,9992770180586","5,02282998754853","-10,5541413705938","0,340840379172949","-1,92564519172059"
"1042","23,9223555107266","-24,5118336467343","-99,3528091126215","-8,85937338200293","0,758280752374568","-1,5366438196261"
"1042","42,8392366026053","-24,0168488082629","-64,0705463261365","-15,1275659443042","18,9701535124232","0,122528413098327"
"1042","204,648459307483","-5,21293583395431","90,2087607156202","-13,0337546638568","14,4892654972182","0,0480492600822174"
"1042","158,971886337538","-10,4919595797255","40,3100965896019","18,1290937638319","-5,17715675214398","-4,32003424640009"
"1042","24,0650821267606","-7,0108022441468","4,84055905645326","9,60587188632439","-1,21693847437871","-3,75664225301886"
"1042","57,2771328721182","-8,9516812792024","11,4603111186126","-4,85734750769093","18,2631051213334","-6,32672878046138"
"1042","-60,6923319243204","20,9814274517373","-116,181052615323","-2,25568488856491","14,2361708429278","-5,76037660362597"
"1043","-19,7360629310995","12,0883938846774","-70,7397555755791","1,92728372418195","62,0559081108709","0,324263086660177"
"1043","-8,26404398120821","9,38274246336306","-61,2846551684494","1,19934540777088","49,1734350363314","-0,281598095998141"
"1043","-5,05068441448476","8,55956446021508","-59,3173054330157","0,977975723690295","44,5620320400256","-0,619560089255366"
"1043","-4,15060921846611","-130,742880745085","-17,6936290204693","0,91065609519273","42,9113367526148","-0,80808233190053"
"1043","-3,89849446390284","-91,1248031813561","-32,0328718363096","-31,3318210788329","19,3318870944958","-0,913243967472112"
"1043","-108,741525861573","129,506753615274","-110,277419119264","-22,1369197047428","24,8914002271417","-0,971905319262338"
"1043","-77,1084890279982","73,6325640299263","-84,557985455733","62,0622556513701","25,2394399505061","-2,44680700468942"
"1043","-13,2112769162172","5,76049908166616","40,8526492531946","39,6676461469879","26,3640240589975","-2,26953790036803"
"1043","-27,3134056937944","15,1108357682382","-0,0528019433752179","-2,75646158087966","-9,35831249631987","6,48242146585238"
"1043","-65,6613877709984","-2,3934540372638","-90,9927646292263","5,34215500050779","-0,145460497568425","5,36444678283361"
"1043","-56,4028148563756","4,28097216002621","-63,9149022931953","-7,45807014837801","3,15236695107022","7,62517552902089"
"1043","-10,812053155198","-8,95017892029009","-20,6502641250193","-2,35068265892622","4,33285545587507","6,88625713507957"
"1043","-23,0418937868615","-3,97567623300494","-32,6480673435222","-4,18929056332218","-3,4547802686646","10,8006105394383"
"1043","19,9696669292245","-34,6815794794038","9,65369411438227","-2,74842042607053","-1,24243808145333","9,98411843978905"
"1043","5,01738152161108","-25,0236639475305","-6,54445761017979","-5,70203460178654","-15,2288742215839","5,20212464883118"
"1043","-49,0477959965559","88,1388431575462","-27,8341247348462","-4,60024345030242","-11,2354512313747","5,53462886003555"
"1043","-35,1916739977555","57,5678482748146","-22,2639265541479","7,60608172862949","6,61443775653753","7,1622857990684"
"1043","-41,6298927749763","75,3989060858172","11,1497690950007","4,31808628688258","3,00397422879036","7,07022675848241"
"1043","-37,4332642644068","64,8238970684867","0,102252142737034","18,5812453930904","-1,5725064123353","11,345411790076"
"1043","-101,613815525683","48,040466222859","-55,9542506013629","13,9187434394898","-1,21070091263911","10,7301990914861"
"1044","-81,5910512061517","50,9342093781525","-37,6180871651484","-1,06630670625118","5,48697297941798","3,17612482300672"
"1044","-143,058532805594","72,1636860703361","-92,9364250774291","2,3766645704235","3,88446865244623","3,9623047763308"
"1044","-121,275826544621","66,6226253459871","-71,4466695772434","-8,44757561550651","4,95287763091985","5,8430314984887"
"1044","-97,975442187607","-38,5043293940072","-32,928619042223","-4,73928121246607","4,33532472288005","5,89214005666328"
"1044","-101,448908949737","-9,48856653489453","-43,9140583007683","-20,5705202984287","-20,5163424042064","-9,94443693668061"
"1044","-50,8249642998289","-53,2291353906683","-28,2805585594147","-15,3848793121733","-14,412231538998","-7,77840960275986"
"1044","-66,6449897411571","-35,536937660985","-35,0276516355641","-32,4627449073871","-23,7214912007027","-15,2232293836613"
"1044","-7,44009553795117","2,06517144556479","8,36664007210997","-26,6562092797835","-20,0538286834968","-13,3761050004067"
"1044","-27,8565618098689","-5,49461536043634","-7,60418576427678","0,548012207337468","-31,8772786080253","-18,1144571709201"
"1044","11,1419955844443","-7,79463455661404","-16,3030625269529","-6,17904792881106","-28,1095942583796","-16,757608754382"
"1044","-3,93434851516012","-8,49440142022275","-15,1130626497138","1,95058940707724","-28,4029565834406","-23,2116262369662"
"1044","-8,15729434146017","-8,70730123611061","-14,8654559778812","-1,57714720444219","-27,5079684004235","-21,8118116843334"
"1044","-9,34015879016514","-8,77207471133825","-14,8139357507713","-2,649949558166","-27,1875989212913","-21,0309659560718"
"1044","-73,3076321983681","-46,0984153378447","-38,09826867584","-2,97619412143561","-27,0729196382494","-20,5953939367657"
"1044","-54,2251838981344","-35,4547276475888","-29,9431063028779","-16,6425666993817","-17,1796258142584","-26,1211394312974"
"1044","-52,3199036478651","-11,8673774257476","-44,3735826910166","-12,7985789766623","-19,6382277830487","-25,2035154194242"
"1044","-49,7862268341993","-16,6910694570975","-38,3761731112071","15,5047168702049","-27,0864697891843","-27,5760039450938"
"1044","136,672223412593","5,5819366307628","32,7568836797257","8,11189074580294","-25,7526384126752","-26,8994274851151"
"1045","80,9000001896386","-1,64163661630346","8,55774188665757","4,16780033644224","-38,4115052523262","-26,5220190365295"
"1045","-20,7168232130912","2,94365942703644","-73,530309870948","3,96838270967127","-34,9428662834293","-26,3114927390756"
"1045","0,81988771395075","0,338707884152662","-47,6106051564232","3,90773881163326","-10,7126665021457","-20,4253401393811"
"1045","6,85240878939958","-0,453832792918982","-42,217418197331","3,88929669882311","-16,0392374776108","-21,1419215574535"
"1045","8,54214268836929","-0,694958477782135","-41,0952423895401","3,88368836004697","-17,945933902604","-21,5416456053291"
"1045","36,5337784519644","-29,5961728082517","-28,3182580500347","3,88198283616521","-18,6284539091575","-21,7646200091027"
"1045","28,3743504525919","-21,3891916404968","-32,6597144410201","-4,5980108059126","-7,37848455718709","-24,7733581000056"
"1045","-77,1048926771267","42,154951273276","-126,743265210122","-2,17681930002685","-10,3514516980573","-24,4516949063494"
"1045","-46,6500613594746","25,4878706077627","-94,3194982213205","18,9102171117053","13,2149548415598","-25,7144436347249"
"1045","116,671092635011","30,5915490593027","-53,5263766999428","13,3228903883031","6,6507728013685","-25,4188311898945"
"1045","72,4180178213106","26,1443122139914","-64,038435443171","20,1032313606363","-23,6136275253146","-32,4648282126448"
"1045","230,292243933924","-12,5153662613729","66,3768992174666","17,165166974088","-17,4470556675934","-31,3952321838069"
"1045","175,513462276911","-2,27733850916311","19,5127902279554","-5,77494806344621","-34,9441595689501","-29,3564100686061"
"1045","160,169700829177","0,837519219680502","9,76164127639831","0,248848178427421","-29,2074132851062","-29,2191126056346"
"1045","155,871850306705","1,78519575521662","7,73269187512548","2,08071475416118","-27,1538907316884","-29,1425252196407"
"1045","106,510919602894","100,427373038491","-10,6087488699448","2,63779454513479","-26,4188129247316","-29,099803179725"
