Timer,AX,AY,AZ,GX,GY,GZ
"1004","8,03554969799155","4,06640888012384","-24,3112993149129","-1,91650717950787","-1,08669041974224","0,983115225878206"
"1004","10,118526533446","4,4394294267676","-27,7006083498967","-1,95340066896273","-2,88676297650275","2,4964815116296"
"1012","10,4836524286094","8,02420008000129","-22,8473166527223","-1,96259368509437","-2,26113467487676","2,32545874731278"
"1016","10,5468010284619","6,93074268518431","-24,9727579114927","3,22037765259059","-0,341264562311271","0,962351553494367"
"1024","1,42210973469139","4,90712602179567","-39,9140607770846","1,62782280016376","-0,931926554774334","0,972351589129971"
"1024","4,84464873796957","5,39466515933851","-34,6067347198381","-5,71828323989184","2,51568535847607","0,979206986256018"
"1032","16,3990617804687","2,02461377169531","-22,731566231751","-3,71354207047203","1,25079553857729","0,984220724441671"
"1036","12,3965685646079","3,17117612742571","-26,5914609792927","-4,89743040496297","-7,95279295372417","-0,196087868763615"
"1044","6,22325928510411","5,20829183188878","-32,7464284871479","-4,21898395811173","-4,91520996693797","-0,160443980153394"
"1045","8,15602833888268","4,72417454879003","-30,8556572368136","-4,03471246929975","1,09280359132048","-1,30446497755443"
"1053","17,625770800048","1,10805931924003","-23,2357757615281","-3,98466285701572","-0,626149561044817","-1,25205610444122"
"1057","14,2628833679953","2,19230802177228","-25,862544856467","-0,514285000488213","-4,56622390097278","-0,0419689691041578"
"1065","6,37302627805441","5,96040157366978","-35,4348486994801","-1,57170257859057","-3,40633848521429","-0,0341919081965587"
"1065","9,00904153884743","4,91464012528829","-32,1599389797547","-1,85890566221165","0,414529738640549","-1,19224462685499"
"1073","18,6003599783021","-4,08398164025933","-15,1916966170141","-1,93691232008232","-0,770773166232033","-1,15994661882098"
"1073","15,2584903894309","-1,36280823568578","-21,1337337218357","-3,68649154363479","-2,81028401284429","-1,13302428859295"
"1081","5,54514508426409","9,80685602600634","-31,3035046651569","-3,16169127404349","-2,24515469271807","-1,11054718230475"
"1086","8,86591888132222","6,63548119158238","-28,1362685738943","0,437632663534026","-0,337879136193327","0,0708294888520578"
"1094","16,7484954394625","7,57911498797416","-18,4665634806224","-0,584762126158611","-0,931204065379037","0,0601382420216275"
"1094","14,1112215330241","6,8180824485017","-21,7239198555247","0,865939250546967","0,729062367444422","1,21347104835702"
"1102","15,4824159609912","4,87859898299775","-29,5900829735812","0,259961363883604","0,0830694047753752","1,17965887946156"
"1106","14,7194656632751","5,38744082370031","-27,0076979762557","-3,36141106468452","-3,62822511378232","-1,17291505024773"
"1114","14,5875681458682","0,276026021975003","-21,0829592293277","-2,34500482174279","-2,41955857159543","-1,14407781654953"
"1114","14,5647659329977","1,98160246535614","-23,0152215777536","-0,340548754753669","1,41171091178209","1,20418738235861"
"1122","14,5608239261881","7,65380039705907","-17,9040982762555","-0,796122432226101","0,228625794967696","1,17191273602463"
"1126","14,560142438923","6,09023764690284","-19,9829878232964","-4,37664387291227","3,5499187456061","1,14487014988919"
"1134","12,7329028812782","9,1877948305353","-22,1774218803023","-3,34914217446495","2,25809488789199","1,12221040338897"
"1134","13,4170128920058","7,97222558835884","-21,5728958356352","2,11511148806642","-1,59090565016457","2,26522060881688"
"1143","15,3624023813559","2,42411793082778","-23,2837332338731","0,59924654886538","-0,411601202531695","2,22306674980053"
"1143","14,6987179248491","4,0191055174072","-22,5920549310563","-6,72604247188924","-3,73370027890367","-2,46021393496014"
"1155","10,92973782639","4,4230229423609","-29,7465355272534","-4,71564964198375","-2,44204830576002","-2,38485557806363"
"1155","12,2781631174859","4,52531169216309","-27,0358933599471","2,74395711481781","-0,379861388706759","1,16424890836883"
"1163","14,3383982743957","6,29797373694459","-24,7276068466641","0,770046057843424","-0,940155648413506","1,13845323836116"
"1163","13,6945681366846","5,746885750095","-25,3116147622653","-1,49447598579206","-2,84640025871144","1,11683615764611"
"1171","6,27477693161759","3,86056900751229","-32,6959954882707","-1,10953831058072","-2,25285550804877","1,09872073526288"
"1175","8,99205636311494","4,38287488141252","-30,0267851941969","-1,00498615482686","-2,12629809861654","-1,2404229905418"
"1184","18,597423610732","-2,47188852940743","-18,6270495654042","-0,976588951911409","-2,09931314446723","-1,20066911826708"
"1184","15,2579827553244","-0,207800713842048","-22,5726253167125","-4,42566002510921","-2,09355933081295","-0,00537384038575062"
"1192","7,37217906867918","7,35259387143101","-26,9232508164004","-3,36245535399755","-2,09233248523875","-0,00369347876685672"
"1196","10,0088950747676","5,2672013192961","-25,7073067642383","5,56827950283081","-0,305293922255029","-0,00228530419107662"
"1204","17,7732129145329","6,48585115386798","-21,8486068438209","2,99393862085538","-0,924256147370796","-0,00110522707864599"
"1204","15,1154946470239","5,79446415326828","-23,1532041658055","0,566335027594216","-2,84301011894357","-2,32407716459596"
"1212","11,0017894595467","9,11289263761314","-19,7487482285379","0,906978447722088","-2,2521326521796","-2,27077311552298"
"1212","12,2906192782174","7,95325722701041","-21,1352079624409","6,18467590045597","1,44740997341041","0,0978574524573508"
"1225","14,340551673748","4,16607261430728","-23,2048545116528","4,61814080044801","0,236237657011457","0,0828163698044286"
"1225","13,6949404126105","5,20699940931271","-22,57783965757","-0,992518651346667","-0,0220121726237204","0,0702116479959306"
"1233","15,410450006603","3,72384725345518","-20,645057859213","0,483581302850186","-0,0770769834715188","0,0596486438695051"
"1233","14,7070243145397","4,34825122709786","-21,2967380452039","2,61289386374272","1,69795890203681","-2,27316400405035"
"1245","12,7582955638735","6,25313463743559","-32,3328807880315","2,19123221005518","1,07643742967669","-2,22810691049444"
"1245","13,4214027347054","5,73553061870507","-28,3217794784206","0,348313537126884","-2,62963920359943","-1,02836786612756"
"1253","11,70891780308","3,85769341432923","-33,0582610066309","0,847762064663415","-1,41986008810915","-1,02296292877394"
"1253","12,4128663935004","4,38214666120348","-30,9118547058092","2,71180827556472","-2,94868429224596","-1,01843348490078"
"1261","14,361685541923","2,76820184753899","-23,2459034913964","2,21809815656312","-2,2746648194713","-1,01463772177627"
"1265","13,6985939988976","3,35948366149292","-25,8643700438664","2,08400253386063","-0,344171374798312","-2,17343710575309"
"1274","15,411081632231","8,74949568708281","-15,4175627887237","2,0475810886929","-0,932545715551981","-2,14453380846479"
"1274","14,7071335088772","7,11447168825327","-19,5348722733257","-1,41909524849063","-1,05800067452356","-2,12031227622042"
"1282","14,5854361845147","6,70041537276744","-27,5560134170868","-0,360672308087224","-1,08475056084661","-2,10001415524524"
"1286","14,5643973632356","6,59555903272813","-25,0015580686927","-0,0731961600127008","-1,09045425262701","-0,921023623327171"
"1294","10,9065167218613","3,07548850270618","-22,7214190492242","0,00488466435063647","-1,09167041106346","-0,933006339509088"
"1294","12,2741486934167","4,18405973165785","-23,3104996170093","-1,70229994884108","2,48162421846047","0,218932214963309"
"1302","7,0292172945032","6,21155449813203","-36,1551440222106","-1,16598496351527","1,24353292196727","0,184279409204432"
"1302","9,12248269782381","5,72500079205436","-31,4699651541339","5,89325044404073","4,55309728837484","-1,00674063094303"
"1315","5,83011928490109","5,60178508698293","-19,7069180541023","3,81059532182845","3,25877262640814","-1,0048388799448"
"1315","7,26094123769977","5,57058172795677","-23,5870189627786","4,97332150004411","-2,37753811196005","1,32071543772711"
"1323","22,1252731890427","0,322404942459019","-18,8269289572288","4,28912724292743","-0,579329358545184","1,26957575438067"
"1323","16,694992983586","1,99334754368256","-20,9690806130395","4,10329460262614","1,59086712942903","-1,09724092021362"
"1335","6,62060689178034","5,91001647684912","-26,8144819015087","4,05282096908985","1,05360299756754","-1,08067990463007"
"1335","9,87896458705197","4,90188051591259","-24,8679216076045","-4,60284802644235","-4,42128500162801","-2,22878175382728"
"1343","10,4422637850684","15,1271280006673","-35,4358176805403","-1,95379705339304","-2,58865720285838","-2,19091371371212"
"1343","10,5396459684139","11,7165874223634","-31,340330439157","3,95088237995349","-2,19789875304169","-2,15917955033802"
"1352","14,2107247171318","-3,12116990744981","-21,5033388636559","2,55464060770539","-2,11458005286391","-2,13258569647077"
"1356","12,8453744113655","1,12129067144482","-24,7305473985765","2,17541015913476","3,2635163265029","-0,948319216809375"
"1364","7,12796980079613","5,68917528083528","-19,8527951973314","2,07240813184866","1,41025032539621","-0,955880584373164"
"1364","9,13955485895506","4,84595430810498","-21,9737421449047","3,77282394671966","2,80186830682394","0,199763147088115"
"1372","16,7958011502421","4,63241556533483","-29,6351051553123","3,23467050155511","2,09859330768053","0,168215352849328"
"1376","14,1193996618349","4,57833864346201","-27,0158117312488","-2,09667225593946","1,94863888232225","-1,02020262640222"
"1385","10,0024645516996","4,56464410990195","-24,7239877991445","-0,544707650377719","1,91666514557358","-1,01612029725578"
"1385","11,2907359869719","4,56117608245267","-25,3109625489839","6,79038632890151","0,123070637329127","1,31126138774305"
"1393","11,5134501068395","13,294089154322","-25,4167452792776","4,78265660426433","0,740634983940113","1,2616530743213"
"1393","11,5519525356215","10,5056272189527","-25,435809107886","4,23734113009912","0,872313924369687","-1,10388028207086"
"1405","11,5586087683875","4,55919748562083","-21,7996783961064","4,08922907960001","0,900390906870067","-1,08624382062131"
"1405","11,5597594863042","6,05331329832976","-23,1443864359292","0,592216679420204","-0,880399405137762","-1,07146411860098"
"1413","15,2142019070405","8,17844404441055","-27,0262917943693","1,64240010213648","-0,260104909024552","-1,05907843724224"
"1413","13,845975541895","7,71661584328187","-25,7258764829267","3,65603032169141","3,44571010466","-1,04869899234483"
"1425","9,95519546650858","2,35938687530528","-30,9508692561838","3,20294841753642","2,23587520584802","-1,04000081311204"
"1426","11,282564189929","4,0027129125486","-28,892500904685","-2,10528822803764","-1,59564339806774","0,129268738772394"
"1434","16,9934026107562","4,41887165065275","-13,9632829414758","-0,547047817409395","-0,412611399489042","0,109139650391493"
"1434","14,9806824011616","4,52426041184524","-19,2727865653884","-0,123817241123192","-1,94713870490395","-1,06970922847493"
"1442","7,32423986687323","6,29770750889212","-31,1483474954959","-0,00886442672959412","-1,27433526465705","-1,05760780475649"
"1446","10,0006074291325","5,74681833004088","-27,2885234729113","-1,70603431210211","7,80300677889569","1,27649403941786"
"1454","12,29041493086","2,1137936697087","-30,2324845473543","-1,16699924648743","4,73850514238003","1,23251735173023"
"1454","11,6862728599042","3,19376019863845","-28,7630358877963","-1,02059300525371","2,29830585059232","0,0336837149994195"
"1462","13,4089515752014","6,96076932546001","-21,2190838353673","-0,980827897490739","2,77799916685494","0,029037518055445"
"1466","12,7067652683313","5,91473325538998","-23,8595366904026","4,21514859571362","2,88028082861738","1,18712421990478"
"1475","10,7582507804166","12,6368663222578","-24,3353907408431","2,62641742855169","2,90208963432348","1,15762368296379"
"1475","11,4213949926194","10,3391909681745","-24,4211476506432","-2,99027065286188","1,11996280267487","2,29488195842391"
"1483","13,3631599512706","-2,46998417634921","-29,8959519911958","-1,51580812275595","1,73997232202229","2,24792678998182"
"1483","12,6988488922153","1,28619807629605","-27,8826038891281","0,613059700638499","3,65894960084313","1,04659712772175"
"1495","12,5840039544289","9,22445324674491","-18,4208488345648","0,191277252684353","3,06811974832693","1,03985921222848"
"1495","12,5641497617952","7,2347507650782","-21,715681306804","8,71867771393866","2,94214121770022","-0,127767600037538"
"1503","16,2149608902137","11,9711498476553","-25,9490319138341","6,03478797960993","2,9152796938431","-0,106261863504954"
"1504","14,8461067535829","10,1706037726168","-24,7119529519615","-6,79292190225717","-0,664001744139618","1,07374067362374"
"1516","5,47385292021304","-4,25943575461253","-29,9483600015331","-3,27703064998625","0,572813026921486","1,0626060382488"
"1516","8,85359401628574","0,0862759883119058","-27,8920486947594","2,86308954617244","6,19686133216797","-0,108705311865365"
"1524","18,5734864815956","8,17382463016545","-14,7829846129306","1,53079537087189","4,3960379456231","-0,0902872906113812"
"1524","15,2538445461692","6,22192948633609","-19,4205106043807","-2,28785037913579","4,01206092890845","1,08712768030559"
"1536","11,0257071489236","7,47438643630779","-25,7156203520315","-1,32502515036189","3,93018818643592","1,07382461348669"
"1536","12,2947541266608","6,79156080829325","-23,8501050922814","-1,06351410645783","0,339177089805051","-3,58524484404809"
"1544","7,0327795258807","3,12512433256389","-19,8743415062164","-0,992485612355249","1,57349082752305","-3,48963680336479"
"1544","9,12309853017426","4,1966295953673","-21,1578419851531","2,48359027650488","8,98378282611971","-1,08555476962703"
"1552","25,9285649253834","6,21473771223617","-19,5693672089467","1,42772032962275","6,56382772994836","-1,07088668029788"
"1556","19,8338646585745","5,72580691471942","-20,2830973159475","-2,31584638592078","2,47428363240563","2,42734638659394"
"1565","4,16324955491195","3,85523096665381","-44,0689046700764","-1,3326290900393","3,60229865373966","2,35893458949126"
"1565","9,45414093460076","4,38152306667992","-35,3555075347611","0,662812593100684","5,62959440431341","2,30160415624388"
"1573","12,1959427559483","4,51480219161148","-15,5873750279834","0,204790536773928","5,06186054441344","2,25356012413931"
"1577","11,6699406750001","4,54855402855079","-22,0248247991255","0,0803880777382205","6,72758358253884","-0,11066233370237"
"1585","7,92476286560392","11,5441344592509","-30,4640942767575","0,0465993734599918","6,08275409377895","-0,091927313451619"
"1586","9,27730305493816","9,31570739022562","-27,9849926923576","1,7658140812255","0,584930683397431","-1,23820730391006"
"1593","9,51112784496738","1,76434359430516","-27,5382168568639","1,23276656594123","2,41266812432847","-1,19881251030672"
"1594","9,5515510670375","3,85202311921108","-27,4577003308622","-4,0971893801018","4,58916080848976","-1,16579889744137"
"1606","18,6941480797709","0,887194177361322","-12,8849245592032","-2,54484810544213","4,05323917064886","-1,13813283970295"
"1606","15,2747043129106","2,13637574987226","-18,2586650659194","4,79034818018104","0,365414393349038","-2,27692844486235"
"1614","7,37506986240377","9,4397537165125","-35,6051520654745","2,7826462427663","1,57908522485081","-2,23126158898384"
"1614","10,0093948301471","7,2892738297538","-29,7312810110872","3,96573030631208","-1,73568614706561","-1,03101155802356"
"1626","14,1190558247427","3,25116604203287","-21,3935779047685","3,28706541390798","-0,4424717385842","-1,02517839482136"
"1626","12,829526853057","4,22854861665238","-23,8909834589158","-5,5392253590439","5,19360226817318","0,141690217206903"
"1634","14,4337170758009","9,71633746905454","-26,1608411451587","-2,93651662734052","3,39534303812726","0,11954909394338"
"1635","13,7110466849008","8,10607464356482","-25,5699077080637","-5,68638407031681","1,22513578737289","1,26297470299865"
"1643","9,93186920093485","-2,78226069479714","-21,8238452211005","-4,43327009295069","1,7623976243618","1,22118788156638"
"1646","11,2785315858016","0,460358364492667","-23,1487417045862","2,82065366206017","1,8769542204739","-1,13779091050485"
"1655","9,68421848792687","29,2296570712144","-41,5853420254548","0,790877454377068","1,90138032485968","-1,11466159507174"
"1655","10,4085964189554","20,5152442125309","-34,9079277411238","5,42474995027127","7,26691944658104","1,22868183953851"
"1663","17,8423125861109","-16,6267741106417","-13,6869304478961","3,68334683525604","5,41097594896645","1,19244978663646"
"1667","15,1274404777838","-6,03268330072659","-20,8625495288761","-5,43159215098133","-0,345084858539052","-1,16187400001299"
"1676","7,34961114731422","-3,3498173551405","-22,1557168723455","-2,90728258594026","1,42759042244188","-1,13484369836256"
"1676","10,004993571865","-2,67040372624758","-22,3887673951427","13,3338680247452","0,0187886435801646","1,21176883952231"
"1684","3,1555644829969","9,72896001006208","-24,2505501895167","8,74509461444717","0,71839966138935","1,17827635954483"
"1684","5,97144712282218","5,86899640506319","-23,5860747879029","-1,1432129500617","4,44112678405947","-1,17375161104173"
"1696","13,7667389778841","10,1317673144284","-21,6465419683185","1,17104351480883","3,23489793634787","-1,14479737031771"
"1696","11,1143754441422","8,2112788186971","-22,2970055066463","3,52800609723265","-4,16940571693965","1,20342746640015"
"1704","-13,0967432027555","14,711964035444","-42,4318448255621","3,16817601276069","-1,74817376764431","1,1712861245967"
"1704","-4,28231918683779","12,358208843414","-35,0604817946348","-2,11473269168504","0,554865613134186","-0,0176292592024527"
"1716","0,895746557350099","6,52186500031529","-39,1913875983706","-0,549613009381661","0,0459266452237269","-0,0139637648634883"
"1716","-0,20907846379161","8,04385915495045","-36,9358463585213","-0,124513967808819","-1,84936783421529","-0,0108920084206157"
"1725","19,69826048907","10,176049860731","-9,23261235081105","-0,00905366327785754","-1,25348826348574","-0,0083178160275113"
"1725","12,1398065424887","9,71600953605111","-19,240023262265","0,022306280214506","-10,0603178729202","-3,49210151127329"
"1733","27,277209890796","-2,62779972391848","-8,30504498923417","0,0308238920451635","-6,93813675588859","-3,41158085617091"
"1737","20,8941377923972","1,24623259309844","-13,3343778391741","-5,1520386277961","-0,912084928059604","0,141837957713692"
"1745","-14,9246697072469","23,1883984322656","-43,357278952733","-3,55974560043211","-2,6271919059531","0,119672903397613"
"1745","-2,11696270434016","16,7450705958843","-32,7679111000244","5,51469389169878","4,15421567461643","1,26307845775956"
"1753","7,40569832771934","-25,0620890068601","-50,877143605513","2,97938433967683","1,60016793810253","1,22127483009932"
"1757","5,05195936594906","-12,6494066721865","-43,1407321303648","-13,2647539555773","-4,30474476960109","2,34822287324443"
"1766","66,7671883502372","-23,4800635660741","32,8646093012947","-8,676792024338","-2,56380814161491","2,29262752707666"
"1766","43,4364095479895","-18,2228379173893","5,56205120274613","4,66807911691659","-12,9132621884694","2,24603753211494"
"1774","6,51483380188076","33,7645006939372","-17,556161015463","1,29265300490938","-9,12000412620117","2,20699419881176"
"1777","18,1318961528105","17,9298645618252","-11,7224519992233","17,6597801421295","7,76979858793993","2,17427511659948"
"1786","42,06569455962","-40,2296323687185","-7,03155310280516","12,1052229654499","2,37109347756152","2,1468558813487"
"1786","34,2033279040523","-23,9580443227996","-8,18617416115481","-25,6996710531348","-9,50069660490423","5,60981894139112"
"1794","56,5966783263033","-21,5841573865823","-24,7723048169226","-14,9677830676818","-6,03203564291728","5,51185018395485"
"1795","47,4680017086503","-19,9829901383377","-18,7614047505311","-13,7813083240274","-1,71888330440228","5,42975043586464"
"1806","14,8287823727986","4,8771079341113","-8,57922354238502","-12,4590522805563","-2,79921989934377","5,36094923012451"
"1807","26,1861710344397","-2,82727767866046","-11,7442230950278","17,2827468896282","9,47786625860045","6,46527277115887"
"1815","44,5937122765945","12,6892329780563","-46,890489468528","8,36085776182065","5,09562375336564","6,39071764666415"
"1815","38,7759759164053","6,61866106982495","-34,2244382757551","0,75242524321173","-1,19910218006116","5,16625867768915"
"1827","52,3871897431155","12,0683719596086","29,9308250411227","1,68591403125615","0,458717291291306","5,14013794766921"
"1827","46,7402726608512","9,44846620477085","7,49268339742504","5,39624104384487","6,17253349384997","3,95626795511222"
"1835","-29,1479479958715","41,9734037442765","-83,9006394515565","4,40399557840676","4,39085069025411","3,96416158667409"
"1835","-1,26737128597295","31,2100753825247","-52,3712546257561","-1,05068220885376","7,58450882911698","6,29473721815462"
"1843","38,2678873339965","-37,8924626152639","7,9043662635362","0,467783614769013","6,26547029026274","6,2478054947857"
"1847","26,1026739218286","-17,3921092837939","-11,2329522504875","-11,2185328387026","0,623889984212547","0,398574254403531"
"1856","53,2335209279569","34,9619089119892","-7,40268651036424","-7,39262998926465","2,42097514444608","0,496803282477291"
"1856","41,9238544607784","21,2201313543157","-10,712408150262","10,9304357730808","-2,55617582853928","-1,74483947029017"
"1864","25,351685091722","7,25959016768115","-24,0473578724057","5,90712719311714","-0,617419033522371","-1,62338024315017"
"1868","30,4867173417021","9,724198485318","-19,4505402756066","-2,37081161341274","5,15629947607565","-7,33149655077995"
"1876","-6,99510384450112","10,3483401736645","-33,1803817061529","-0,619166095592451","3,38738922381557","-7,11501042999706"
"1876","7,52510425142911","10,5063988981864","-27,6547302423034","5,04177082832587","10,1573247072682","-1,12368926544361"
"1884","-55,741050245556","50,721866041275","-43,0369633425164","3,57932663825628","7,60083085546102","-1,10284413879811"
"1884","-30,6783927421925","37,9061007453094","-36,8091006717619","8,36729105419212","7,05572749340967","-2,24735581854214"
"1896","6,54258717455596","-31,7161999442538","-1,11085480810767","6,6677405388627","6,93949890357378","-2,20647914573569"
"1897","-5,02271470530924","-11,3474722190362","-13,677430005447","-14,5345748794325","5,12793932036757","-4,49618430169214"
"1905","-120,303652017839","-32,3906342179985","-92,3730314118602","-8,29329356743584","5,74167309928357","-4,4150023149468"
"1905","-78,2332194895037","-22,7196410886616","-64,5553034451138","-8,32650356390151","-1,27457261055096","-0,861029292121384"
"1917","51,4570003460705","-16,7770254735244","16,8888124084971","-7,33552366493776","1,22940222877614","-0,882729908430684"
"1917","6,87761946040835","-17,2721071801454","-10,4335869899323","18,8595142700776","-16,1044623846261","-0,900915452261378"
"1925","19,2691529852337","40,2455401887809","-9,89819376952345","10,9742963829389","-9,80044149735865","-0,91615529613053"
"1925","10,4113796986659","21,8114090457761","-12,8017068990898","5,37582406701472","-13,8166099842649","-0,928926585420439"
"1937","-71,5132934110681","71,2926238689416","-89,7558618654202","5,85523414492712","-11,6729495929949","-0,939629177358189"
"1938","-41,6762880778113","52,8233325986664","-61,6242959369173","-7,84169016189726","-7,64231788925761","-5,59651938572983"
"1946","113,305864340705","-28,7112264072324","58,0918253133456","-3,56188450943609","-8,78289438962947","-5,49908509133052"
"1946","58,0989086681904","-5,3591796549598","16,6666855087573","-16,2265909388642","-21,5335303643367","-24,0091181360113"
"1954","54,0361916445538","-62,3287643140343","29,2187928590744","-11,6664266433312","-17,252259585294","-23,5208903568482"
"1958","50,3338362081008","-40,755840819077","20,4808938895176","-6,97106551497434","-0,258401321615951","-14,97788371822"
"1966","-54,4521599143079","197,026172915239","-141,234741309258","-7,6957678249182","-5,63491939256433","-14,8186759123982"
"1966","-15,5673802490071","124,242502807713","-82,3786208836062","66,4282528137718","9,29967588153496","-12,3612960229653"
"1974","47,7957267138796","-21,7027134348179","24,6767505914419","43,5609305171533","3,48407551896527","-12,3019632809364"
"1978","27,7498301838026","14,337866676896","-9,03006943730211","-50,7980088893304","-3,11627531807851","1,69152240202516"
"1987","13,3216000780974","-65,6198257333651","-20,563955285315","-25,4266526020551","-1,52362211433527","1,41833898661358"
"1987","16,8272728103654","-34,8684505473387","-19,6425556616211","-16,8071970315367","-6,54436268825584","13,9711892748073"
"1995","-39,2074466419185","201,744413696422","-94,0876137988919","-15,466083860872","-4,61490019997214","13,4907250272669"
"1995","-17,8946312546924","130,664666142536","-66,5038663869066","57,4906368180653","-4,20349436436964","22,3839289768622"
"2007","106,379926173267","-42,7971780226109","38,55526340705","35,3062665028642","-4,11577316605894","21,8366090259241"
"2007","61,8642950117785","2,27504347149942","2,48868702522661","-58,8671776753482","-18,3912847565067","19,0539835155541"
"2015","-18,9163594312544","-225,616671122207","-54,965045821076","-33,4454393983463","-13,4351525747121","18,7220885379191"
"2016","7,11842185471744","-146,32836449305","-37,3191755816974","-49,0097875425862","-7,01806014628354","21,9298949296167"
"2027","-6,65194797651921","182,926956672894","-85,0930214211078","-40,2371891615378","-8,64978826295477","21,6180998591511"
"2028","0,967454493141516","89,3081457157878","-65,702672604408","91,774918108979","12,4436133809746","9,73700638584234"
"2036","175,861249123956","-95,1018047808698","83,3744480280023","52,6304637974205","4,94121236603666","9,78041607357384"
"2036","111,096583444849","-49,8021007375234","30,2406545371086","-30,5939471220451","-18,0997959562861","5,16887302123122"
"2044","-124,835793480255","-26,103017206188","-90,3417226404193","-11,1983637154539","-11,01266953612","5,30430912543211"
"2048","-42,623371498742","-27,1014201566032","-51,0726967353544","25,1806879157311","15,5133466218537","-0,39209428396546"
"2056","-66,7801879182862","159,548876820068","-60,3738057690035","17,0615297175455","7,16930412760654","-0,165792523794722"
"2057","-49,9563762279695","99,8165220080421","-53,0500221796886","45,9673571489675","3,60338514374817","-5,78604872401666"
"2065","132,010025852676","-126,667953178141","48,3579211034349","35,8184114011788","3,84304909774914","-5,49593410294321"
"2068","65,4680602197168","-63,0232747987812","11,6333394530151","-56,8145070570152","-5,03973388437063","-4,09083203069032"
"2077","-125,093529640155","38,6853689737711","-107,811604706738","-29,974349655583","-1,93374777550638","-3,91332882260846"
"2077","-60,0374850863541","15,4422424653354","-67,3375942257957","34,3525877572562","11,235958788649","-3,76457763855669"
"2085","119,304490867894","86,4134763898759","27,3060957801111","18,8242991865509","7,04404350994645","-3,63992121687333"
"2085","58,3088190214039","60,3863548585191","-3,63751817154094","12,8782996461124","-9,93076210331398","-3,53545668056756"
"2097","49,5911153505342","-47,5167779005843","-25,5921267760019","12,26331854632","-4,55018156853793","-3,44791334185936"
"2097","47,0840139376131","-16,8423545352981","-20,5487168019687","-24,199947046143","-8,76324880426816","-4,5365306063662"
"2105","-22,7800356299362","29,3543714945129","-41,4772074379611","-13,1036620343539","-6,66157176057861","-4,4488133128281"
"2106","3,14198927583407","19,0533105810982","-33,2488737336692","12,3792737270024","-4,42666884462383","-4,3753044933729"
"2118","97,1523091737114","68,8473999620956","-9,9285914875007","6,30064318590053","-4,95013607593201","-4,31370265501532"
"2118","64,404649388106","51,4573415879234","-17,7258840833171","20,2051663583266","-15,7824131719681","-12,3959412460305"
"2126","-45,402648315085","99,456200947104","-57,3465339718085","14,9817462205303","-12,0921041025944","-12,1690163537658"
"2126","-7,38594251336225","81,6115154061041","-43,4868420044134","-12,3628563831717","22,6435172280214","-8,49290790591103"
"2134","-0,813680689433546","77,0924962654682","-40,989092215787","-4,78986946751083","11,0499516134889","-8,41225663075816"
"2134","0,322520477168144","75,9480920143251","-40,5389556599919","-2,73298556521825","8,57793643919962","-8,3446692738652"
"2142","15,13591890061","-23,906939965882","-75,033713654233","-2,17431942270041","8,05084587663306","-8,28802973774978"
"2146","9,69683339564292","7,8055984102871","-62,2502496848696","-38,3188130237995","-0,995426825813464","-14,0504662229919"
"2155","-310,989771304451","-64,5143434803991","-58,1266711300212","-27,135946985945","2,07569950971398","-13,8795014808087"
"2158","-191,429512467406","-36,8287710954331","-58,3835328634575","29,4815607041821","2,73053436863492","-3,27840690244696"
"2167","-145,180438944384","169,312813433519","-247,687273070214","13,8593292719476","2,87016024058212","-3,39448087194469"
"2167","-151,184979740403","107,516466113585","-177,802993549425","63,1963577932026","-52,4901544170024","-1,16779253152185"
"2175","450,727141008358","128,54897540304","-101,516259183004","45,5966899055503","-33,2942483805914","-1,30178385071303"
"2179","224,784659121297","112,875284563056","-122,768105538104","-23,1340245053651","-170,356619885108","-20,0057561171887"
"2183","185,724116741458","108,906051888849","-126,598045977347","-4,80183703948249","-120,58147386433","-19,6800532252533"
"2187","178,971398269641","107,900876516766","-127,288265712754","0,177331908295008","-109,968266473534","-19,4071077875454"
"2196","-311,864627135932","441,277152629112","-336,687719166302","1,52971407527052","-107,705286248966","-19,1783741354648"
"2196","-128,719503526505","334,701939455654","-259,425025437791","-15,3868880010335","-3,58970241872611","-1,55698623459796"
"2208","546,089159810242","-301,905986735219","163,95022515364","-9,98157261884032","-39,3898622948459","-1,78991614490907"
"2208","310,748905124195","-114,121682967425","15,2495718607776","-126,044101019608","-14,8612953306194","-31,0346236567004"
"2216","72,7345438881788","-541,685107802414","252,319770361043","-89,5676133385364","-27,6312399917224","-30,5422644854815"
"2216","139,587036051575","-377,962011658513","150,04381066343","-10,5246275060038","51,8376544084371","-16,1858941270045"
"2228","-190,527387647938","624,216554721903","-470,736267229856","-29,0559194574188","22,7822527634882","-16,1549730378245"
"2228","-60,5969937238605","328,009994421506","-251,611286673948","237,268375726976","59,469619333448","-27,7488636200316"
"2232","-38,134853731801","252,998130945182","-212,121276711688","152,604187429141","43,2922107501879","-27,4647722534947"
"2236","-34,2516381285473","234,00199643525","-205,004512192813","129,60871576784","39,8428146948132","-27,2266980935519"
"2245","118,070790110378","-343,745328309042","205,729261209331","123,362961481913","39,1073240205438","-27,0271872589799"
"2245","61,4040259584307","-162,05506366257","54,7504009367062","-206,727913598622","10,3620689312886","-22,2120720249646"
"2257","-257,176000060313","322,392818650885","-238,146873492105","-106,38323914035","20,2329185790982","-22,1769106318524"
"2258","-143,251559573266","194,075241257048","-144,931892597499","85,0684172507994","41,9921577210953","-27,9573462239135"
"2265","-251,455022940002","-413,103593704052","-108,115369139797","42,0682205627324","35,6317285941475","-27,8014650877119"
"2269","-200,161049054181","-237,866615791157","-112,480411891053","-132,079824373742","-42,5558711323682","-38,1286563832115"
"2277","270,968364788233","134,90125434186","-102,348367066533","-85,3798282209425","-16,2272679563896","-37,7830460685305"
"2278","99,4163965265872","41,3016368128636","-106,522402039436","132,982911645746","-132,114237489884","-47,9512405760117"
"2286","69,7587913225417","17,5983072026051","-107,274633401851","73,291980774528","-88,8240081259421","-47,4723878217504"
"2286","64,6316362373984","11,5956348686237","-107,410198155446","57,0794458541302","-79,5935343058791","-47,0710997833394"
"2294","679,485290101497","347,199852704307","303,836366602777","52,6759915151084","-77,6253847212101","-46,7348125043404"
"2294","448,780117898254","239,188847360058","151,949919964183","106,788521742392","-61,1247371644516","-44,1290365290508"
"2306","-594,19362716022","-200,398997474126","-397,700343393549","89,4859183675785","-66,606419116139","-43,9453449446191"
"2307","-225,501109974713","-75,7209863224229","-209,756572951173","-146,818134018751","132,343780836017","-32,1716047154268"
"2318","53,8381753604262","22,2295036745473","-263,235533945647","-77,0002073291902","62,7645450393208","-32,3049785359011"
"2319","-15,8701359670517","9,03465578070037","-224,873342912409","19,7405403394038","-103,947392911682","-55,6563545518462"
"2327","492,808509538784","-24,0017208950764","555,448015751725","1,01610225326139","-54,4942172496115","-55,225267526129"
"2327","295,747986986992","-15,3679102679336","271,075059501987","59,880898542998","-31,442222555084","-65,3218308664167"
"2335","261,680507386698","-13,1814690784243","219,826266019793","38,8690486941231","-33,5270064276937","-64,7829497833709"
"2335","255,790980903729","-12,6277709164384","210,590370778495","33,1620619803123","-33,9715303592912","-64,3313568232639"
"2343","-616,76426172835","209,350748124666","-486,231262915896","31,6119986786103","-34,0663130983362","-63,9529130291981"
"2347","-290,610090936408","138,564973589832","-229,810250700399","41,5613410134761","176,753159647014","-46,2060650810143"
"2355","821,85124115658","-153,601986305481","267,707357449245","38,2636620810938","103,704726144287","-46,3338570009124"
"2359","436,171616878884","-70,590854363412","109,368405004781","-73,2491013204149","-165,593212010424","-80,138378031746"
"2368","-681,099006611194","-39,0884216369486","-368,653381820481","-39,536861024105","-81,0137340186648","-79,4672323886793"
"2368","-299,250804246119","-37,1106908923862","-207,800954205961","9,37266924028834","162,154456826522","-55,6651929947324"
"2376","185,173326516273","28,0202088508346","-300,7381113772","-0,343110597983899","88,0035149730744","-55,7186152344948"
"2380","39,9197257388809","7,51407095393551","-250,486951483178","7,38835772206989","-83,2567699323918","-65,0592265746027"
"2384","14,8085364591887","2,32106099902805","-241,430846607341","3,48828644315576","-32,7734065837369","-64,8868428279815"
"2384","10,467357833215","1,00597414418709","-239,798784069976","2,42899584609917","-22,0091909492818","-64,7423818534544"
"2396","649,209472600459","-20,2881599044032","610,334080198199","2,14128403552813","-19,7140122896345","-64,6213207118425"
"2396","409,634095873052","-13,6807233725434","296,542332374766","85,0259547463266","-19,2246273443127","-77,3016524613172"
"2409","362,735357169694","-211,137886798693","28,8969300469045","59,538095177905","-19,1202792040488","-76,9280201889006"
"2409","357,627584981907","-147,142281604546","96,6627233514078","-127,137378636227","-69,1277849726663","-69,6430271481141"
"2417","-341,21594371559","45,4866612237782","-62,1843577392948","-73,8399325053061","-51,7905368126545","-69,5380595121143"
"2417","-80,0307946527808","-6,73165093523365","3,18872442215544","104,833319846363","116,289645105556","-63,6401930340108"
"2429","167,932952097255","-49,650397437199","-143,351081321258","58,3624062722759","60,1282105662366","-63,6976647750706"
"2429","99,8004923566145","-43,5192152983409","-82,7600209774951","9,44430213573195","-44,7591031101629","-61,4218666131273"
"2433","88,0218714929552","-41,9665440911871","-71,840491992124","17,1577532416555","-15,1234938092145","-61,5147029347345"
"2437","85,9856040518859","-41,5733429396106","-69,8726090637535","19,2527883430743","-8,80449943535072","-61,5925016005239"
"2446","12,5487079539497","-132,305197737546","39,6690266024503","19,8218166568477","-7,45714431633028","-61,657698414592"
"2446","39,8530653801418","-103,282290136021","-0,589726768496597","-76,8135821623011","30,3524592192893","-62,8743149351306"
"2458","26,3021776587559","318,049229985021","-269,893807880174","-47,0605304848554","17,4143374008172","-62,8938635389147"
"2458","33,9595238129413","187,747955474218","-174,426936412564","12,872396372801","39,6705094779698","-54,7763835091469"
"2466","-81,6524791052112","-224,296308794029","70,2506967034684","-0,849340658612516","30,4160378965393","-54,9737753817057"
"2470","-37,6392806216244","-111,643113490544","-10,6542752226828","-71,9835619695618","5,21467081019868","-51,6532527391024"
"2478","322,604140863064","157,938017691939","-63,4501595264765","-52,3041862286678","12,8411589915243","-51,8705893715189"
"2478","191,88239555177","88,2072112828761","-51,9648665755489","106,867776997551","-39,1360072374002","-53,2147020560159"
"2486","169,283448111463","70,5484608313468","-49,8950234572473","61,1001571010025","-20,218736046335","-53,341094956057"
"2487","165,376581475054","66,0765282155086","-49,5220028862714","48,669304960379","-16,1851381873778","-53,447014695424"
"2495","31,3212819198932","33,5023994814594","-0,320632783462816","45,2929859538122","-15,32508223515","-53,5357775229558"
"2495","81,1460354333397","43,2532705797204","-18,453717698804","-54,1423927883627","31,314502752494","-46,6382806821553"
"2507","95,2410171904742","61,443422479982","-19,9018216621164","-24,1498380845095","15,2591363229883","-46,8580424929434"
"2507","94,6777330646621","57,0499281210868","-21,1627943718117","63,502411561085","4,68865458025336","-33,0984435416221"
"2515","-26,0096815717817","-15,679776849961","-37,7680913853379","41,3094646173784","6,43478444776937","-33,5676286442225"
"2519","19,1260885819856","6,9020264212807","-31,760645419236","-42,4959570989578","15,7409844029769","-28,1509134682068"
"2528","293,68885636424","-172,535694530138","25,7352756515743","-20,2581808784149","12,7252805435366","-28,6115994760229"
"2528","195,154789009191","-111,976814446119","5,09700844039394","-31,5021426477641","-21,8664994210097","-27,8356831167551"
"2536","178,120391220715","-96,6407785374793","1,37764529108219","-24,5560927230692","-10,242263514745","-28,1854499270936"
"2536","175,175514227356","-92,7570541841759","0,707353444634727","-22,6694899289881","-7,76370872796008","-28,4785614023288"
"2544","41,2865217646345","-65,5721591242202","15,1448209094428","-22,1570734993307","-7,23522376941037","-28,7241945909993"
"2544","91,1400261582965","-73,6878091125678","9,74669556822732","21,1919026691451","50,0543244742449","-20,7961778957883"
"2556","128,992560980569","95,4392794922398","-54,9185483386456","7,9658318010458","30,2697754662133","-21,152343773923"
"2560","119,536441211772","40,2693169758996","-31,5723137816178","51,0401087617035","-0,750400564460051","-17,9648768748258"
"2568","-0,861229604307653","-137,897296931804","-16,4462303303978","35,7394273885517","7,63538355006405","-18,2937168406484"
"2569","43,3246309560096","-89,0165194936876","-19,7202554795923","-25,4532959093289","32,6515264636777","-16,2453305952767"
"2576","32,6921880666827","63,1027945689922","-67,6246522718539","-9,0737296814466","24,9855442232464","-16,5287425815329"
"2577","40,8540698756674","21,6257537060537","-50,2578309343835","45,4984594224146","5,48321055908721","-10,9563458754771"
"2585","42,265081774078","11,1220358834054","-47,1280373987965","31,3207030801278","11,3248639076116","-11,2865676951881"
"2585","42,5090150512378","8,46205614998127","-46,5639959207935","27,469910900523","12,5704389274648","-11,563300083366"
"2593","135,734394719979","175,477231631459","15,4102815359272","26,4240049015408","12,8360242057275","-11,7952072745192"
"2597","100,851035835958","121,772444569976","-7,4209104716616","58,9793762741086","5,74554521813049","-3,85568792307412"
"2609","82,0306093615508","-117,159665010458","-47,9311389280481","48,8216758918345","8,23369181313938","-4,20221434875579"
"2610","85,7769668425771","-48,6672471713024","-35,231763992601","-54,183972338079","6,97744499483516","21,0709564227194"
"2618","51,7093174698429","68,2431126704558","32,569071158226","-24,1611314232447","7,70958424338455","20,2503712492151"
"2618","64,8197616369106","40,8496951260372","8,78792292384015","39,3018563331268","25,7334629039696","23,0486456326995"
"2626","23,2353505293391","-9,75641808732885","-26,4341541330618","24,5389121159018","19,5765689017192","22,3936546741872"
"2630","40,0463100317676","2,42800196204942","-15,7817653015368","20,5291782223891","18,263777314895","21,8447593518166"
"2638","42,9525594037585","5,51360564467967","-13,8620255255807","19,4401023808625","17,9838599166408","21,3847742619389"
"2638","43,4549867286818","6,2950092771609","-13,5160561035407","-6,78157919785443","16,1373981099319","16,3513764722988"
"2646","-27,7159025005385","65,8826742732758","-124,460479795103","1,09640206225208","16,7436899310427","16,1332899988012"
"2650","-1,0198017572454","46,9727579872505","-83,4545324390418","22,2484367666218","20,4465192519527","12,4645883199336"
"2659","127,83965214494","-48,647451776316","-6,91281012725548","16,9934988099986","19,2360477346845","12,3901440630581"
"2659","82,1166498930001","-20,8624796713362","-31,1187033624643","-12,0880562762183","29,69860915909","7,67983708416499"
"2667","-51,8592633154422","-15,5729233714394","-17,2831811011481","-3,98683956696619","25,9294681944367","7,73250707289822"
"2671","-6,02078562877028","-13,2333869526113","-24,7897871003986","-22,5271881076124","0,110922944620608","3,12872433516382"
"2679","23,8291514025939","15,307213538698","-37,0613028617173","-15,5628952705662","8,60581452865445","3,27066373583502"
"2679","16,9895564787492","6,53488474697654","-33,2728365647078","0,155798368457121","33,6452216673757","9,19951328084075"
"2687","143,705661263892","79,4239703390125","-3,47356049112715","-3,57487853997454","25,9841998954833","9,16800596001348"
"2687","95,6121205531293","54,8825288928776","-14,1032293402541","21,337719587942","-2,45096093882303","5,65566128550096"
"2699","54,4096016975575","-36,9235432845597","-14,1990914256481","13,1041807774665","6,48600794522336","5,71224727750898"
"2699","65,2865820667533","-11,1726723568108","-15,2163673870542","21,2382376327108","-5,90264025155352","8,08362806597178"
"2708","92,7466798773852","-22,1190597478521","-0,84143230044287","17,4475126244958","-0,544185342131633","8,07089186775492"
"2708","83,4939337153015","-14,8911418911477","-6,25082702879842","-45,8041903068652","23,8264612693607","5,73625807004989"
"2716","-14,9431173064199","161,615094996078","-21,7839563519546","-26,9838594388771","16,0228443523471","5,77978897020272"
"2720","21,0392569196798","106,313840799267","-16,583287720566","29,9796528810718","1,85149471935043","0,00636718986751372"
"2728","51,0124097103825","-52,671680734939","-48,4021367031863","15,4513990776283","5,82983662919275","0,168126038422662"
"2728","43,1941161122083","-9,93345017023257","-36,1364288871427","59,9003847136635","20,9723265106308","-0,858297167261028"
"2736","41,8425031447003","0,889653521624147","-33,9259418736542","43,9730852275025","16,2010540658978","-0,718460027603521"
"2737","41,608838651164","3,63051508694635","-33,5275749053485","-58,8712403402742","13,3969319330077","-4,08721466983861"
"2749","-44,3062787949077","95,1560453673153","-60,7525299814961","-29,8045828982861","13,7990285188608","-3,91029740297583"
"2749","-12,1591345219176","66,3341295225971","-50,6589251558466","14,3863858730214","8,52443385698086","-11,8958993939264"
"2757","68,3103992133083","97,4638993390285","-5,16509164850771","5,38900693980889","10,3997688077704","-11,587991127684"
"2761","41,2218319217521","83,347256281398","-20,9663370662211","80,7228863283981","10,7996334058899","-11,3299579367471"
"2769","1,82349450930418","-70,4488776336899","-3,79637262794219","56,1841713586415","10,884893746589","-11,1137210411367"
"2769","14,0123786211317","-23,3964775407454","-11,7020560192236","14,9514200199219","-3,39114255537198","-3,9606284257971"
"2777","27,0823021172132","-14,9743625976247","-38,6037575825008","23,7522745017305","1,56487774584449","-3,96619594391755"
"2778","23,3418077062291","-10,8415315905916","-29,4518970326011","-48,1781985209691","-2,73871550877017","-1,64690102096947"
"2786","22,6951575533162","-9,79492629273503","-27,8025777109433","-24,7150911225815","-0,656340697007421","-1,70328620024645"
"2786","22,5833658021952","-9,5298821504419","-27,5053426066755","-28,7126751677967","-9,14621528893317","0,573422521869191"
"2798","71,8963265086401","14,9918537874564","-67,4870055181128","-23,7984510132112","-5,95645206309227","0,481349267618537"
"2798","53,4214651875726","7,20178076041282","-52,6923741742782","20,7460913897271","-15,9969829146253","7,37607190563429"
"2810","22,8207372201625","-48,9204970459085","30,0443267885352","7,84474588682101","-12,1378553130009","7,1539852582786"
"2810","32,5305367158483","-32,1330000928319","0,954872984487608","-28,4988107044659","-2,38111558119457","6,96787227410644"
"2818","70,7515847917179","33,2548340228863","4,81137959128968","-19,3700117691457","-5,30075398489816","6,81190592813342"
"2819","57,3591729517682","14,8137626324569","0,506386997272217","-11,7053808895679","4,7973736993503","3,19526213950111"
"2827","58,6981596266919","64,2932198953179","-54,8629401516983","-12,6236057526512","0,950527068843613","3,16444341985053"
"2830","56,9296413087779","45,8234835374205","-34,841424919475","35,5219727534009","-5,23004013459587","-1,50930449970365"
"2835","56,6239029450605","41,1461754429703","-31,2332108583752","20,5986974986754","-3,54787939307777","-1,42599729926453"
"2835","56,5710474297391","39,9616858224103","-30,5829499485633","2,71828048737214","2,17112692882911","-2,5181645310657"
"2847","94,9314664699979","-19,7280573689895","35,0464320356662","5,86181601352343","0,390550778200238","-2,43342218003194"
"2847","80,5631488394045","-0,843991542322157","10,8739513892295","-39,9509583022877","7,15799882346967","-3,52438672737151"
"2859","52,4994747295209","145,425661468776","90,2276891840984","-25,3940747448481","4,60097459255922","-3,43863650307372"
"2859","61,6478756732133","101,467242287481","58,5285684727672","30,4114511373842","9,41608905523287","-3,36677612638059"
"2868","-22,6452866559607","-79,1004157181149","-216,51205542106","15,56867894254","7,44278234471996","-3,30655571552143"
"2868","9,78225839006083","-27,8276828550038","-118,079005524324","61,6606308548079","15,9559127675337","1,39183140029103"
"2880","82,9917803488439","-158,077464654212","37,9638076759717","45,1795741686449","12,7711082203907","1,32917233155109"
"2880","58,6481148778597","-109,06214548044","-9,91465076274318","-66,4571162423764","10,3052575776322","0,114682491574897"
"2884","54,4396244299001","-96,6494209736538","-18,543154897351","-34,7785355144461","10,7794814351494","0,0969160879841101"
"2888","53,7120679379792","-93,5060010739461","-20,0981565834692","-93,5816668871509","-8,77394980144797","1,24400779827917"
"2900","-145,569980781261","55,7644964974284","-82,2510217502328","-70,5530683529037","-1,94319163208033","1,2052932418846"
"2900","-71,0215139525652","8,56601640134751","-59,4520142541079","23,8496749714653","12,0207221122018","4,65879060036287"
"2908","119,097104132862","159,061909949789","-31,6860681595069","-1,50978382086394","7,99815009389729","4,55288939860199"
"2909","54,964479390934","104,173751257943","-39,682177297289","29,6270078445512","5,35366813355328","2,14018149317171"
"2917","58,4943169753976","60,5788881857693","-141,211284961304","16,0840098516702","5,78980368050614","2,11828475348967"
"2921","51,1045491433827","66,5388493908062","-104,508539171845","36,603110990578","-19,1320797747933","-0,224025758367327"
"2929","51,6541407065876","-132,829040075207","44,0490004749316","28,1762632080805","-10,4459992471724","-0,186928095856065"
"2929","50,7491531379235","-68,3173104599717","-7,17843025552666","-17,3223359066321","0,339958007126455","-0,155839524084684"
"2937","50,5927004647308","-51,9802480748174","-16,4104755693682","-4,68011984818133","-2,36022751919344","-0,129786688694022"
"2937","50,5656531993355","-47,8430220390517","-18,0742455352148","-82,4808162611134","-1,14919228403529","-4,75587512511735"
"2949","140,089942737655","313,036898695314","21,6611447916883","-56,6121085531914","-1,89097168327746","-4,63262833922724"
"2950","106,56674584405","198,426756225882","6,82213098268685","48,9323831135352","10,4583026653373","-2,20538449269949"
"2958","-65,4967646350583","-117,065670523746","-166,911726812193","20,5991124110596","6,09145234475693","-2,17130634811257"
"2958","-4,24280436587987","-32,9615202954616","-104,221492397551","61,2985448857424","-3,77354556294803","4,82913364650567"
"2970","112,31973461278","-315,598777282742","-18,3125470507221","44,3528367288326","-0,876990295395999","4,69564022593938"
"2970","74,4708631462501","-213,17432683489","-43,8303090193172","-148,644480295784","31,9026074742626","4,5837701105373"
"2978","-112,95743635853","286,13530838849","-10,2135927458076","-92,064097415768","20,8919725917654","4,4900207507038"
"2978","-46,3597140304513","141,581347098116","-25,1552946130639","-93,9803321485689","0,67648196116359","6,73541755367744"
"2986","-34,8464158951456","104,974251028809","-27,8480407987984","-84,5007968501203","6,36607382133224","6,61710429454103"
"2986","-32,8560169848131","95,7038064787947","-28,333318987669","151,406839578118","37,9544343414107","5,3559751469806"
"2994","-158,583320579784","348,382849587489","-217,678223684561","80,4812431392377","27,6898002446037","5,29912408513784"
"2995","-111,318837643056","266,371729056517","-147,801362697805","94,0567308854686","21,9275899310099","5,25148177571089"
"3011","50,3303902086041","-463,580764737236","-53,3181336031367","78,7439420905015","22,6989539956774","5,21155658216199"
"3011","-5,72397308583806","-242,435201293703","-81,2906653119851","-198,501068489971","-43,2473213586087","-2,95576366102469"
"3019","15,646515944547","72,0883081564613","-33,5580745277206","-115,803033963412","-20,3085859241282","-2,8001388688447"
"3019","2,34100883263736","3,73878762944523","-53,9558581997919","-124,452641242958","16,7444662033839","-9,6416040665164"
"3027","100,532471841109","157,612146307019","124,346434562164","-108,801943859296","6,6450302022736","-9,37488663532107"
"3031","62,5076407874158","98,5793027469707","56,4795090277064","104,584341752637","-6,22906395803111","-10,3133524817388"
"3035","55,9339742840913","83,6297229765068","44,2487466624821","41,5417660468115","-2,97411730724486","-10,0998053428183"
"3036","54,7975302789645","79,8438654464332","42,0445574074578","95,2829691538957","-20,1478574365054","-11,0828289412774"
"3048","233,658994665355","-230,291084454927","48,9264580704169","68,8795103590842","-13,8096943217529","-10,9066220760707"
"3052","166,580252816696","-131,830197490251","46,1666924108836","-71,3780637955181","-10,6714750144884","-8,43499664010044"
"3060","16,1225443733416","67,7800348531404","-130,849631042931","-32,4731443319189","-11,0023343889261","-8,36372584952694"
"3060","66,1116780327539","18,3296765688228","-65,7509521928041","-85,8567602435453","-9,28610425557792","-10,6279601362247"
"3068","-22,0837400826533","150,787717933817","-97,6938704922629","-63,3561779023453","-9,92016446852129","-10,5254330594271"
"3068","15,6691897859032","101,331622245509","-79,4505220555357","63,7425998139328","54,2686102576333","-5,79159212438725"
"3080","-167,824810818354","116,75540695681","-1,55165372323275","28,263645842026","31,9551352162007","-5,82454019440089"
"3081","-95,5469337550723","104,661352969211","-28,5129664011063","37,6395896690899","32,5577193997951","-5,85215132593881"
"3085","-83,0516603714408","101,59863374492","-33,3718487774732","29,1861711093411","29,6862042244952","-5,87528999793047"
"3089","-80,8914992920694","100,823025412391","-34,2475011698266","-23,2332128032075","23,7136001479656","-1,24675943518837"
"3093","-153,602924143086","-33,8737773338837","-178,168178686857","-8,47073732802136","25,4401034172707","-1,36795967112907"
"3097","-126,173148512451","9,01537053625789","-125,105107349688","-75,3252023582324","2,58013304718115","-7,27942938766161"
"3109","174,562585696791","128,175705170888","111,930647212194","-52,4834105326914","10,7058609278403","-7,23335742830221"
"3109","64,5532551499298","96,3520751484505","29,6484801371004","-58,3781408544108","-57,2458486416135","-13,0046497509797"
"3117","-117,078801289142","131,961960448933","-156,23976912701","-52,9791968237571","-32,7347179644409","-12,8411063749706"
"3121","-59,4790345645372","115,979869612925","-95,7399606464064","53,919111037133","-7,85383375967911","-12,7040538051154"
"3130","122,228156563866","-26,0613656859197","0,692932080087864","21,9535476564116","-13,548656271676","-12,5892010525167"
"3130","59,6413789933692","16,9678653363784","-28,9282374241933","-4,01247529143739","26,3329467630041","-9,00701126480714"
"3138","48,8214859954165","27,8646624892249","-34,2664707732633","-1,06505509948395","11,8366229532806","-9,00506567645356"
"3138","46,9509617564064","30,6241863145229","-35,2285102796711","-102,239639606175","-35,9237513964676","-10,1654155414864"
"3146","161,73625861569","-57,7616585579006","21,0113921937022","-70,7194671181702","-21,1073630693354","-10,137811579863"
"3146","118,580140629854","-29,1446433307091","0,146769289073602","-50,0595918755871","-9,01428301888319","-12,4386395291785"
"3158","-656,271746004928","100,375457774167","-356,651321421668","-51,4482042839932","-11,4357598636651","-12,366778662316"
"3162","-370,226789355847","63,1753529948045","-226,952343244635","-3,43038680282983","41,6512346470914","-5,33467600235255"
"3171","-275,097792333802","95,676932231299","-230,875151701967","-18,3883629752197","22,9706044036657","-5,44163548580735"
"3171","-283,652057168388","79,9076885723481","-216,582107817454","-13,8091091574737","-14,9612986095478","-0,883348413805833"
"3179","1626,03843994671","-821,919489878871","1443,81620468716","-17,5653471429434","-4,04925385610226","-1,06341407833514"
"3183","910,182403896904","-536,299769912562","832,047929594934","-60,0669792369564","-155,385374151862","-19,8059975535744"
"3187","786,426460346796","-463,968936258741","721,796988708609","-47,6107629314127","-101,653720079903","-19,5126516149771"
"3187","765,03174857138","-445,651750394705","701,927913339364","-151,387858224186","-218,84483598951","-15,7808810222253"
"3195","-1261,29070175176","483,022047326647","-1423,5200015588","-117,574548510545","-171,832680665811","-15,6535837734601"
"3195","-504,597794446382","189,201011823808","-640,561492860506","211,361935474681","286,67241326506","3,04477873016811"
"3207","121,3679486531","76,3645809748297","-97,2871103114554","115,703719148804","133,436258088199","2,71437474649016"
"3212","-41,4161849349957","69,7896873687752","-220,379921798875","169,228212980212","-85,0620240423908","-46,3656831670083"
"3220","286,73071778055","-480,357445069378","681,886530572171","137,765894210389","-27,6508895339438","-45,4957382620992"
"3220","148,460182258771","-305,677659815771","336,490132874168","-199,174001756579","-15,4095135503427","-38,9568057674848"
"3228","188,505474142797","356,910977743572","95,9051376584865","-100,689576228441","-12,799370287108","-38,4770515618036"
"3232","160,428434392171","170,706074419215","150,547671824446","-302,08816018511","-110,515561054064","-12,5114413487967"
"3236","155,574524707192","123,551221492854","160,395176262792","-224,789628693966","-76,3509032068587","-12,7517486336643"
"3240","154,735389262744","111,6096446879","162,169862322717","233,488445174396","-20,823233160753","0,990632805763701"
"3245","-371,620741084581","454,443675367955","-523,568563446855","104,960440624982","-35,9834551743467","0,507019089121704"
"3245","-174,616271294771","343,263560377691","-270,15017060294","-104,516385896775","-7,05397814595527","21,0173867854732"
"3261","223,038744921328","-600,193215382921","41,2084319296178","-60,4119697891622","-18,8855474339409","20,2054788382232"
"3261","92,7846508870252","-315,115846898563","-48,6795068866097","-349,173063462395","-58,9306268686828","-3,71452213874737"
"3269","210,954924419435","316,040285278831","182,611684233742","-253,60288934214","-46,4691599921089","-3,75995402864834"
"3269","154,383995299771","155,875359732014","88,2942501299437","211,366301001875","47,3135372519089","-16,5798102173799"
"3281","-39,9351843802786","-85,5622844092914","-39,7101123180896","83,6556572798876","16,310168002192","-16,3231021728006"
"3281","27,4712545960712","-31,704372491358","-1,77865309085585","290,943302210925","16,8466435944735","-41,6715425164879"
"3285","39,1243622556824","-18,0653013924237","5,05723435094288","207,244286848977","12,9610325451078","-40,9140347268271"
"3289","41,1389311928449","-14,6113193530673","6,28917633442954","-78,204618665145","51,4416241562364","-58,8709131832478"
"3293","-11,4993241974451","-94,0875071007841","-57,1812178385668","-3,73482771183496","37,6465724474764","-57,9191309655115"
"3297","8,40066597571358","-68,2141948382346","-33,6196512469417","-78,5697954978832","23,9844879129075","-67,5793414805185"
"3310","-189,142450179683","-12,752760932303","34,3189505130976","-43,8955721408333","27,0714168694709","-66,6747881365245"
"3310","-113,293359720856","-26,7076111417859","11,5626301406764","57,1270001422452","29,5163981823659","-56,6209121692254"
"3318","-268,275901576081","237,012452796288","-165,41784273391","31,5655399167617","29,0377245031273","-56,1955661115043"
"3322","-203,069013228705","150,797379544798","-102,312703005944","-16,8585651870284","28,9356602514593","-45,381294981035"
"3330","1,87874474401062","230,27610407069","0,0490637679821333","-6,01093998711319","28,913897802592","-45,3187228016505"
"3331","-68,6902441460573","192,403434226249","-31,5036228339658","74,7130014730145","11,0414878347857","-27,8365814872224"
"3339","-80,8900879214331","182,812493576677","-37,1899480766923","51,638270533704","17,2306784504704","-28,1862027792374"
"3339","-82,999175645156","180,383667118932","-38,2147196016651","29,8154608787317","-45,7736145461359","-12,2114680178087"
"3347","-1,14331260487911","62,7357831873453","-83,8939798625247","32,8882109861851","-23,2075807228355","-12,8243256875158"
"3347","-31,9922137029861","99,9424288510851","-67,1261514670295","-82,0794688354545","-36,2637523568059","-2,88008972661203"
"3359","46,722282246974","-187,584200538377","74,1992141721866","-46,3056115110783","-29,047628816421","-3,54662415345775"
"3359","14,3303070826838","-90,3979432444695","23,6684239485168","-86,7125130541956","-38,2296469268666","-1,78123251684677"
"3371","78,1610651316298","-144,390448645013","45,498238824363","-68,6873511532399","-34,187464638371","-2,30179955843023"
"3371","51,1960153060477","-113,063604431107","32,4323389198174","-8,48302911270213","-31,5388013168224","-7,38596621667722"
"3379","231,073640575523","-5,56511896501815","-82,748912549726","-24,1310530386996","-31,9740453012749","-7,64659800188974"
"3383","161,170570848844","-35,342015913161","-41,5065128765283","-5,91208579395487","-32,0668493418831","-27,6186777792881"
"3388","149,085850017529","-42,8827689820919","-34,0739382342841","-13,9636683650782","-32,0866373005014","-27,3556739551224"
"3388","146,99666454768","-44,7924023782653","-32,7344631734178","42,6147849955635","-21,3701947214431","-49,2128973923632"
"3396","18,7369677737467","57,7827363354988","-107,10417707957","23,9819460946343","-25,08520237736","-48,5296810804318"
"3396","66,5636549924538","24,7590425100097","-79,5068513688895","62,1309175709946","20,5788736910523","-57,2529748071471"
"3408","-93,2633510830625","53,0779885130471","89,2471363183876","47,492483778969","4,31550629521996","-56,5632667432897"
"3412","-28,8939652646662","39,2495275539748","29,659445485673","21,0474720379848","24,0758824677909","-57,1472581093235"
"3420","-17,7658980604632","35,7475840977002","18,9207405756156","26,8647950372518","15,2892497244551","-56,6366543749588"
"3421","-15,8420972019212","34,860745858272","16,9854451893749","31,9016105387821","9,84218333593831","-51,5608371643745"
"3429","-117,828331488896","-38,7276856945727","-205,376874025511","31,2696499714782","10,6807433428014","-51,3072023807342"
"3433","-79,4595338783511","-15,3633478334554","-123,450306907284","13,8140845149087","10,8595436472496","-48,7706908242812"
"3437","-72,8264030363199","-9,44652235843739","-108,68576046687","19,0730131261832","10,8976679897046","-48,6450441869012"
"3441","-71,6796789399825","-7,94813520490787","-106,024940671057","-38,2639474177744","-3,38841879256495","-43,8918286047856"
"3445","-40,4203656409625","-37,2635715332407","-116,46411515883","-19,8371251431132","1,56545851479979","-43,908540338993"
"3445","-52,016310052641","-27,6874635138222","-112,345430121068","11,0936272338904","-27,7534692730188","-35,7886829566517"
"3462","-1,03446615103484","149,413433126123","170,463217182121","4,49466732000084","-17,0049398555054","-35,9840825609353"
"3462","-21,2208138547111","94,2627715972808","66,4300958605957","54,5540966672439","-23,646990714817","-30,3379297455048"
"3469","4,52335343846075","-43,7235144175095","-119,738475151521","38,1506386300147","-20,0632289161205","-30,6063424930357"
"3470","-7,02603980007493","-7,66740100006649","-61,2891853684803","-49,2674874997247","-30,0197501986279","-26,1833564359277"
"3482","40,3096083005619","-43,952203123221","-101,709568174212","-25,0109507338947","-26,1427098222522","-26,4768070155034"
"3482","21,4929126232799","-27,1410293948849","-80,9940015401714","-68,546048788936","-48,5441361569428","-29,046684993067"
"3486","18,2399150780092","-22,8837385796247","-77,2607077337019","-51,3705301159752","-40,3206361282427","-29,2002933484431"
"3490","17,6775425333804","-21,8056148638993","-76,587905348344","-17,3228578385785","-34,9936426027262","-30,4910004817403"
"3494","149,133086066899","-156,032975288625","27,2609855024147","-25,0752373424854","-35,8578049091083","-30,5726384781278"
"3498","99,8588912646228","-113,024945030132","-11,0236963085677","-37,5511976514672","-23,5346254146206","-41,0988754843465"
"3511","58,4522629879615","-53,2242853970128","124,019846643386","-34,939768397855","-27,9070397590326","-40,920069395177"
"3511","69,2939572762663","-66,080262551454","70,356966231405","-16,9465633914878","-14,5451234184413","-60,5238915797246"
"3519","71,168250484346","-69,3359325210377","60,6860118897479","-22,0594647948019","-19,6960551464577","-59,952280640428"
"3519","71,4922750266763","-70,1604040352227","58,9431431290628","109,638013499035","9,58085610096192","-68,7691018673241"
"3531","-50,8688649773914","-175,17469048649","-152,465798565065","68,4081034373829","-1,17663221055276","-68,1577716905125"
"3531","-5,02244554734934","-141,76869066784","-74,5652484426288","24,3702818137027","-10,6174843350456","-69,9694255758231"
"3539","2,90340351899018","-133,308897288702","-60,5262580336113","31,4092567388462","-8,63049141896751","-69,4876272097206"
"3539","4,27361048833163","-131,166524529131","-57,9961956477268","-72,1108127118742","23,955166711277","-79,5416934480761"
"3543","-64,9201367654599","35,3180487692105","-130,33156250981","-39,2276927208786","12,9031794314702","-78,9671989566896"
"3547","-38,8822311642349","-17,5211089101325","-103,367613218226","95,8762413516757","3,39953334499565","-76,1618006462591"
"3560","-38,0350869227816","157,747703619697","145,342688737886","59,5715519636029","5,37313714231311","-75,8108216136946"
"3560","-35,8886341031579","94,133081930737","56,1644716174407","101,562667256988","-8,50026084851615","-72,0307533531947"
"3572","-35,5175590816436","78,0232047140038","40,0930557817439","82,9677904993991","-3,45838878711124","-71,862981707701"
"3572","-35,4534082788247","73,9435114446299","37,1967161227549","-74,1812221261575","6,55053930064133","-63,5885236200263"
"3580","-37,2694397431828","43,2154723477479","-218,09489645837","-28,8641526436037","3,68467326200693","-63,6543647885942"
"3580","-36,5833920968271","52,4338503901083","-124,10274229381","-75,3210012803941","-14,7941650872752","-56,7376591461719"
"3588","-36,464789375722","54,7683284465208","-107,163773971184","-53,9390534672595","-8,73427896780596","-56,9413236029101"
"3589","-36,4442855440591","55,3595157216388","-104,111086750795","29,6460943894986","-9,22894866681506","-55,9500181221566"
"3597","42,1254940851361","1,35972282215979","0,166699407134978","7,34849002440619","-8,33442363826636","-56,1192846069004"
"3597","12,708500615598","18,6847215371864","-38,0406882500271","-36,7323417048214","-34,9453448712095","-59,7470741737503"
"3609","153,792681532812","-202,259681801979","147,970713093783","-26,7050486688349","-25,6194060942031","-59,7872332750479"
"3613","98,1830687756863","-129,212026011801","75,4930986909237","-49,9074354236274","-16,4837932972572","-67,9547495375346"
"3617","88,5693758672767","-110,713310865717","62,4314125812493","-41,2093895062371","-18,5358702672471","-67,7992890133882"
"3617","86,9073773969608","-106,028664132646","60,0774768807811","-26,7481866345392","-20,7601973052616","-81,6127737092398"
"3630","187,111749881094","248,002853312372","-369,815569437244","-29,8204081072754","-20,2344750532274","-81,1887459217607"
"3630","149,434907108419","135,658409306707","-211,289532646444","64,4067114100417","-0,467832278569306","-92,4532053491025"
"3638","-187,787635327454","107,208107302828","-182,72047239478","34,9995517850544","-7,25312883802816","-91,8930441870996"
"3638","-65,0860805788318","100,003303440243","-177,571846842877","20,0987637317248","53,8372836725389","-99,5574802464664"
"3646","244,8115857424","-293,095104783766","145,457642758142","20,0515903482629","31,8631664553484","-98,9804286046398"
"3646","140,386154046931","-168,644028010029","26,6729942442464","-95,7634856826025","-6,77098382554479","-103,144769190114"
"3658","51,0755194725192","337,990426561462","87,156243643423","-60,2197879558899","3,99132563855789","-102,634568611645"
"3662","74,635652663816","194,29141523699","53,0563432818298","115,359796120652","31,3009754563535","-102,207010479197"
"3670","-144,200165267158","-2,80093212830587","-62,2760227946009","67,0486174642378","23,1240217044804","-101,848708344041"
"3670","-60,0321199714183","39,2870597183287","-23,0608565172318","-39,4062530941092","7,08629108955814","-98,0625031793516"
"3679","199,353018572077","-278,44505784707","42,2394378967133","-14,3202485902966","11,6666775936415","-97,8895886872892"
"3679","110,195069133612","-170,908090808555","22,0076501306775","-104,296640306991","-7,01122520693381","-93,096761712075"
"3687","-104,374671756243","25,7603090140085","-165,436558477298","-72,7349489650599","0,00621578731517816","-93,0802783187745"
"3687","-32,4691144987486","-21,4350440442223","-98,2171600614627","67,1952504738341","42,5983661490067","-86,0945830722384"
"3695","18,3313494955328","1,54828811177178","-62,4459118078077","29,2014134153338","28,6799934499065","-86,2404328820748"
"3695","6,11364514968047","-12,6313729593132","-68,9993307456412","-8,77228888985867","-4,66293264353116","-92,1725594269712"
"3707","-25,2324781713612","-259,021653669812","73,5825030663259","-3,08625058712181","5,22758766759176","-92,1437982965882"
"3708","-14,6515413249527","-182,417956033289","20,2781495571435","-70,6775566608071","34,1381289330162","-87,4717746773616"
"3716","-43,8833970451917","-164,765460941805","41,6081216423686","-49,0358967644176","25,3025221042992","-87,5565268754329"
"3719","-31,9369493017898","-159,295112444203","28,4521416532471","44,990142917195","18,0582363417127","-98,0853736439926"
"3728","15,806375340536","-2,44830637876142","-99,4838259348957","19,5283683982772","19,5135877903168","-97,9087545870604"
"3728","-0,939841926927121","-51,7281489610914","-53,5400408026392","57,5509382547662","-5,1909753634871","-115,190448934916"
"3736","23,5719273755136","-32,7662130788345","-16,1436666869145","41,8781727703672","3,54144285702661","-114,672849137389"
"3736","12,8094793207976","-45,9642595224913","-25,4042105891394","27,2509721905844","-3,53048933799682","-120,048991845595"
"3744","-25,5935488028597","128,862787239041","-28,8928996476163","29,2781073562425","-0,0383881397018865","-119,554305310737"
"3744","-12,2325973563231","71,1362920201146","-28,5216201400265","93,7791971513337","15,0004240245208","-124,949649784305"
"3756","-37,3296055123027","89,705941191483","104,389461889438","74,2982097625253","10,2070451029096","-124,471054706972"
"3756","-26,6683325303312","75,4085513802421","55,3422761241398","13,6984738590215","-1,53567549620827","-122,908002300512"
"3765","-158,205117505115","132,924394815615","-99,0795057311859","29,2391002127617","1,96050605193672","-122,598133601753"
"3768","-107,944967581576","112,489806841346","-46,9089101577656","-9,749740958557","-0,867581471833181","-102,58479232115"
"3777","-119,3544196585","142,25008159768","-181,269760879537","4,6605774973637","0,529405140791499","-102,813218193042"
"3777","-110,326865843296","129,786625233905","-126,483847836121","3,38935943830618","-24,1876027401122","-91,3848405083296"
"3785","-317,058076815437","130,123874439139","-420,514293048922","6,04408643161819","-15,4578380220026","-91,807634942514"
"3785","-238,797408170791","128,209280013259","-306,503528603919","-41,6298441873132","-36,8245517748821","-78,2181813280443"
"3793","487,309639684181","298,906734692299","427,398131838365","-26,5784655887719","-28,3804271956073","-78,8299515737026"
"3797","222,837760284429","244,134454406388","167,659564599978","-5,20647070228425","-140,933671538005","-79,3426270875296"
"3806","1017,59232475611","-407,302939369885","968,869258640644","-9,40166571166851","-100,932615191813","-79,7722592645488"
"3806","694,988108354842","-207,274075713932","647,260732032937","-131,528553611238","-140,646447028536","-91,7521025537878"
"3814","63,6735046799321","-1082,400299121","137,995236507639","-94,6991945426563","-122,114350535848","-91,7914471565463"
"3818","269,532936576494","-774,018782952651","294,21702189829","-292,103084491556","164,147880665551","-60,4509504359982"
"3826","632,176348338335","1176,60114673734","-452,856812006943","-225,719562112315","67,1855806177315","-61,186996976621"
"3826","515,869509162217","598,579523555571","-161,492092149886","417,988634819448","26,8564386436138","-94,3392670519632"
"3834","-553,005295097658","1229,50775197288","-744,087590561428","230,824936900552","29,2573368451889","-94,1215222630178"
"3838","-163,790507873197","944,285111682276","-500,08110603316","440,976968016479","179,858529216824","-96,263008454478"
"3846","71,5914664033295","-558,540183231289","350,056912879755","347,055942884709","127,970171586974","-96,0576160565181"
"3847","20,2838917714549","-120,118269471168","60,2660940100713","-582,402770823943","79,3840624201657","-94,7235128757209"
"3855","-536,722595280006","-1106,05573296959","262,810553907827","-311,851201986466","90,0243850686639","-94,6055081369034"
"3855","-333,016905723997","-727,736247584565","159,31247495248","-288,490596625572","117,308024488169","-88,6967163098911"
"3863","122,437379725698","428,352301958031","-312,465629684407","-253,14566910229","109,125524720394","-88,7450323934057"
"3867","-28,8244774058027","114,122172945639","-148,487985441483","378,675412881355","-62,362984931986","-98,0813646740193"
"3875","171,588732601281","-435,331983434467","-208,105828959119","190,28307933245","-3,92828435510266","-97,9053949912717"
"3875","82,2358189640572","-305,476707721074","-169,849967890551","-89,033530135022","17,4652243420044","-89,6240667869293"
"3883","172,76170413692","-1152,95809747375","-59,2279772405498","-32,8981584586869","17,0268130618929","-89,6841506624322"
"3887","130,411661350519","-863,575755645742","-96,29203245812","-142,095565208421","36,5878803647118","-101,35430519726"
"3896","196,175129515627","912,797238525631","745,047356862998","-99,7544555005908","29,7587503805117","-101,134124524932"
"3896","167,544203245606","387,649018940884","430,670876836138","596,188957257684","33,6629535153482","-123,027234606755"
"3904","-350,826671246612","1395,29271882133","135,623348413165","389,212762336335","31,4954195325953","-122,374092009722"
"3908","-159,441724345383","997,470158414689","213,450817343433","580,156424653951","143,600200560923","-124,150706263449"
"3916","-51,4434368933522","554,36026290018","-558,669690980111","489,018252706724","104,503521508624","-123,639543996022"
"3916","-73,7728812336217","638,146343824135","-265,818803456507","-270,302200720761","42,5639000495683","-127,859101174843"
"3924","148,929939527069","-1300,49829607786","67,2044637112308","-51,5397176649193","59,3569463627242","-127,395173189014"
"3928","63,430414939129","-669,444029723856","-26,7791378628355","-578,046959856532","-8,53346829070641","-116,548569642972"
"3937","-506,795603786674","405,666578508996","-178,380519244546","-382,050543906681","16,9907318741074","-116,458902262596"
"3937","-301,375283820724","153,92945508041","-131,701640030812","201,799993579741","43,8744027946082","-90,8201924914129"
"3945","-335,293203263175","895,434668797105","149,67815482959","53,3784759242989","37,6066205320722","-91,3344487843793"
"3945","-303,156874046786","622,214736199699","50,3875302464236","474,546664401637","-3,03890835306343","-42,9622328171198"
"3953","-197,109505593289","671,803608190113","143,500461571791","321,939317747607","10,2945288730889","-44,4253632129413"
"3957","-233,77622140896","616,361580207739","99,2809791390966","-137,780921611277","-83,348431705712","-36,3556528478506"
"3965","86,9396927357321","-662,331638497023","-489,198946295971","-20,6446207601434","-49,3152673810108","-37,593076640166"
"3966","-36,6154991356257","-262,150128716512","-276,252934568165","-455,495300672575","-83,1544833447635","-32,8201606155255"
"3973","216,092756186377","-553,828078009673","135,179070498055","-303,604228282522","-67,3697834629248","-33,8203629909242"
"3977","109,780518816488","-402,693108173907","4,32604332442429","-215,682812703694","-90,8057765151007","-38,1444931982713"
"3986","-126,026042898779","51,3090408097678","49,8958855745955","-218,802652024044","-80,802869935342","-38,7681994697674"
"3986","-47,7918702031241","-71,7186669392311","20,1083382117732","205,53440428592","-12,5592719617286","-35,8049366891436"
"3994","153,926656747126","323,334599275484","76,6127484600457","74,7877475163457","-35,0081653093107","-36,3216641216358"
"3998","85,7994040274589","179,378574132493","52,7957943088352","122,238723862596","-79,1038797084659","-56,5083570949026"
"4006","212,882935836407","-400,318919725142","-180,789100812179","87,1267890978379","-66,5061014873462","-56,4252033553834"
"4006","158,852915268979","-236,122519289975","-96,8850307785428","-247,347587824074","-74,5406268871037","-87,728987156566"
"4014","255,485360616838","-535,158999362177","-67,2058396876867","-150,193507575671","-70,2537727273719","-86,9621744665049"
"4018","214,191009307836","-415,887516633596","-69,8571498720557","-165,287088994033","-24,6702924182793","-96,7773930884217"
"4027","-45,0906867348209","520,884539816644","177,155550156163","-145,38662659962","-39,9508446860178","-96,0027395906875"
"4027","48,0851456628558","239,114321411006","85,6713965930799","233,351168323302","28,2620685287361","-93,029604091084"
"4035","-41,7798399792492","377,369333922098","103,760292373884","120,219386932758","2,80663248393361","-92,5380579906415"
"4035","0,684457965873059","292,381273269025","88,0202158786251","179,368272480586","36,6880406800268","-85,1542508398203"
"4043","-8,41848392382924","-165,830816788325","-104,073860252593","143,433583549627","21,9123371537573","-84,9664750336048"
"4047","-0,992184648430702","-31,869241824304","-34,6924462342928","-213,733355869916","9,82793203976894","-91,7809970483451"
"4055","-36,250773842364","-528,959092380754","-287,87708997646","-109,74275735243","12,2512585807778","-91,4917006992447"
"4056","-22,3462172754027","-350,842988968296","-187,505224561135","-218,041045128006","9,19441366298171","-90,08728435502"
"4064","-78,4103175621839","158,901140513825","103,550950210973","-168,455727505282","10,5426239312042","-89,9103558005302"
"4067","-56,1025814824056","21,9896286613949","6,00417216754167","156,122600201889","3,68298552296191","-86,2761452683392"
"4076","-220,341259343263","378,591770941254","-22,4940982157637","64,2806737241469","6,22035264545815","-86,2306052716339"
"4076","-156,734555652186","244,898316430772","-21,6299662418046","206,989693959382","29,9894783746655","-60,6288751169946"
"4084","31,4924694969444","251,216994027062","9,46207872960162","148,750606886192","22,0576033532775","-61,1741210568868"
"4088","-32,9671705341696","229,817146909305","-1,93461140334011","-46,8203626398847","-56,4650648263603","-65,1169888115442"
"4096","175,14376846841","-472,558734948556","-9,4478363043015","4,06099560701027","-30,2079059607934","-65,4211896392519"
"4097","91,1216248003658","-251,429622431779","-7,80184589935068","-210,266962701021","-31,7563829062462","-55,2182931661847"
"4105","-139,004342631054","-94,1185228237468","-178,564828447668","-136,480152841804","-28,0865538504981","-55,6680649898779"
"4108","-60,7881186986703","-112,280786903445","-115,339192305731","-31,7478567535616","3,07114672707444","-51,3970614102091"
"4117","31,3000007018077","131,159443336489","-32,9733248899745","-52,3017262804513","-7,28531398703298","-51,8178762989627"
"4117","4,22003424521171","50,8086697981965","-57,1296091413334","114,954877177274","-20,2142117351053","-44,0366653183815"
"4125","1,36561859640709","137,012754555218","89,5590247064844","60,3831103217002","-16,970950471289","-44,5158572765106"
"4125","-0,127847804814159","97,8432266093733","32,9947856923145","7,53635755946983","-14,4926355103509","-51,8893114127756"
"4133","-40,5827140255939","-121,687124344691","-90,0255986794795","15,1827562320625","-14,9642016881946","-52,0684111889048"
"4137","-25,5764807722889","-57,2813714740428","-50,1959427090764","-79,5303721112831","-16,8515274281429","-65,000283698699"
"4146","183,482527666494","-54,9452129374955","31,5931415967348","-49,2552163761432","-16,2539487386438","-64,8374475371761"
"4146","106,624284589797","-46,3536000946711","5,33291132014404","0,449166182513519","-33,994300913101","-78,6447513036532"
"4154","-30,9071130305992","-51,1648782022364","-70,3711677309162","-10,0507254062505","-27,776952534749","-78,2155437756334"
"4158","13,3166987092615","-48,3832946214585","-45,0143170803229","-5,98901209894757","14,6445996561042","-82,5037806400617"
"4166","205,501330261599","18,6979324735395","170,65026163755","-8,88581823230533","0,689851498319303","-82,0974075833223"
"4166","137,725874326119","-2,31430113947974","93,5166489406738","7,61130592463282","-27,3004997668273","-81,7568589588217"
"4174","-166,330507272389","416,826782556388","-84,1646114912055","2,09205697972256","-19,2686872392297","-81,4714725048579"
"4178","-58,8952444572504","279,970798123185","-26,185765477214","138,864343998049","32,4736353493485","-77,7463721169801"
"4186","-20,2236843387579","203,390952733522","-170,418570704802","96,0127926327564","15,5062900860071","-77,6246646312596"
"4187","-24,538212442163","207,997739762203","-111,411750035029","-45,2554312243769","-7,76608534461208","-65,9028682974782"
"4194","35,0109169902769","-323,596900085119","81,2005890235823","-8,62501231480526","-1,72829172002894","-66,0797721252696"
"4195","12,3056666736984","-153,218849404988","15,912574708565","-161,144744251859","-18,3086647890015","-51,1222770337798"
"4206","-108,555368990766","-38,4549272804792","-54,0864857983154","-108,570325055986","-11,8439821524967","-51,5876015800183"
"4206","-65,449614137647","-50,3919124381318","-34,7014947751686","-14,7846601444367","-3,31845505584487","-42,6817102625765"
"4215","15,0873033470528","-98,8305701493254","-25,7486435890825","-35,3117223761906","-5,50061634664573","-43,2183979493992"
"4215","-10,9896147593655","-85,0972599063772","-27,1351891046497","-6,3191970806982","-22,0468961275726","-37,8582512683313"
"4223","30,1802966815271","-55,4180386191325","-0,0883204364362733","-18,4445949941971","-16,5749440169307","-38,3663427889516"
"4227","12,2976791993265","-62,9020211041098","-10,2140194304714","11,1014976329628","-22,5553056997682","-42,2780744085547"
"4236","-21,8549061723166","-78,7713439329188","-135,784096208179","0,126453040554116","-19,8304565307758","-42,5561825419037"
"4236","-10,7591455926701","-74,7901187915482","-90,4139377275411","4,05911098631908","-15,6759019955797","-52,0850850857139"
"4244","42,3184789657443","-168,106852694796","-0,347228938561706","1,12725238309596","-16,7900552944972","-52,0704930759289"
"4248","23,4944461684123","-137,738544364649","-29,1156919484772","-35,9652956963782","-25,961503291652","-57,8681662163036"
"4256","109,769145617027","97,0305530993808","89,445002142176","-25,0399288483129","-22,9170672115864","-57,7267304850584"
"4256","75,684165253772","26,4838868458446","42,8116349144618","83,3593997137869","-24,0547003010276","-66,9040470080049"
"4264","137,395117772047","183,294353054363","10,7503359994898","51,8015255779711","-23,2972698739592","-66,5948189887377"
"4264","111,06359966181","123,005307703589","17,9723502566356","39,7733702182647","-10,6283294654536","-62,849738899609"
"4276","-3,11585188383904","-220,652948464461","-95,3724607477988","38,5064268828033","-14,927019620557","-62,7112880307679"
"4277","37,1450035836386","-119,681561767441","-52,7991035905284","-124,306532179727","10,9580552137527","-59,1093225569152"
"4285","62,3764475226691","-170,968756163603","-61,5047165116979","-74,5278359149537","1,47734926922575","-59,0908045541189"
"4285","56,7384155645075","-139,956814295154","-54,073614499104","-28,1680954868217","8,38972928936207","-48,6174633455903"
"4293","-30,1109995073367","423,365831718941","67,3712842106022","-34,5764186672182","4,86360789309479","-48,8405971549333"
"4297","1,87462502088444","248,02263639294","23,257699204206","127,880268524874","18,4059733792954","-38,5697649239743"
"4305","-115,012912773748","-37,4342192105382","-2,89014303784852","77,0048059665228","13,2935175646404","-38,9626052446538"
"4305","-68,2202265359484","28,2761911895786","2,3975756512268","-38,7885045906706","40,7918557915861","-23,0240888803848"
"4313","-94,8461016364992","-208,363138736321","-91,2782131337514","-11,2388951869777","30,655134753801","-23,6672982801827"
"4317","-80,4491365066092","-123,290093397718","-56,1601670896926","-133,385599899666","8,83920570877673","-18,3964188923852"
"4326","-43,2449011504166","-155,895553920299","-97,1456664105337","-91,5616232362509","15,1875472429017","-18,9793181627616"
"4326","-55,8130978007196","-133,152617338551","-78,5319432849554","-14,5230005462452","-20,9811565440283","-29,9256219882275"
"4334","49,8143171282484","-205,997278492571","-7,84545986849496","-31,5986935811595","-7,69315711127305","-30,0988401662199"
"4337","9,07500047936808","-179,444586924643","-32,1065657121487","-1,66874876799091","-19,1540653962904","-31,4059807170577"
"4346","-23,5476459678529","43,8776875421055","30,853151824722","-13,5395360322074","-13,5977949729952","-31,5013902409776"
"4346","-15,187392214117","-23,5677920362907","5,19955270719804","85,2113905057598","-1,6924083372841","-35,0672862201468"
"4354","68,4783923294285","212,632145959224","22,4137403343062","53,0329331011093","-5,15390574043267","-35,0555772760598"
"4355","37,9423873055442","127,447828245488","13,5160267060477","94,4163740598559","-16,6126385282539","-39,6936861758785"
"4367","38,1447412208178","-271,424181306671","-37,221636579324","76,6564480857983","-13,0559042388575","-39,5805127750401"
"4367","35,1797238129238","-156,435221354907","-19,3654175554501","-83,7225692003528","-5,15041869621137","-32,5137893980119"
"4375","-45,7262199334317","-183,211481997998","-108,956367850948","-37,2827948544072","-7,46478712510532","-32,5917360387595"
"4375","-15,7130984437996","-157,992348720629","-74,1021651522049","-69,6075719341415","8,12272897014448","-23,3612144076465"
"4383","11,4009785967928","19,5764982598371","-5,94822344734961","-52,3872402949839","2,44634636259145","-23,6258554984695"
"4387","4,08841296720766","-33,4556587125179","-27,6657359369613","87,1045149621702","-4,12432004307254","-12,2278268804301"
"4395","-13,6198663205638","42,19905728012","-46,137862590426","46,9915929521814","-2,52533743496393","-12,6760544301689"
"4395","-7,68124277273425","10,3579888771262","-41,466850749233","39,5533860299276","1,38915642215741","-2,59385518656999"
"4404","179,711833931402","169,983294812324","-173,469227002246","35,5331094533677","0,223816658378116","-3,14477366552199"
"4407","110,108022346951","114,407084359842","-124,258277160055","20,614034210853","-16,1056533568637","-3,60645420045811"
"4416","130,963228121224","334,398475764547","-33,499393116817","24,5618938803369","-10,5874724113209","-3,99335158089153"
"4416","116,568639738298","256,109477577879","-62,1431144947335","70,5723559394837","15,6040084406172","6,14024355239768"
"4424","-4,68278492248846","192,614479179753","158,347917506283","57,0691659565183","7,18863531519486","5,63239584117686"
"4428","39,3554801615173","201,534895572828","74,0841129332921","-67,5858479304587","42,916600365716","27,2844352792052"
"4436","-179,594357514298","-435,51960740495","108,032502478475","-31,4431481291355","29,5346252846982","26,4292707351198"
"4436","-93,4460237532738","-230,848395517825","87,1505737177329","-161,626252606161","30,2548339698372","38,4944093761748"
"4444","0,0133849662176786","-456,751666570699","-309,685865480082","-115,985026486454","28,4083990470113","37,6052331635286"
"4448","-26,8295153834957","-354,959803047785","-165,202471654115","-157,168655612817","8,36014991658456","29,8882041479077"
"4456","167,686200820939","-330,92861310642","-248,351122078096","-137,354459144687","15,0854015159525","29,4211818566482"
"4456","92,3137387362999","-323,8429128531","-203,335908501174","51,2367863090378","-24,576490307811","12,7620836897744"
"4465","-773,982375238844","90,1864325369478","-247,997121138381","-3,54032090015561","-10,0333190082466","12,8014313481316"
"4465","-456,746137196321","-40,9640573776122","-227,045823424609","206,272736805674","59,1783679602297","25,616188831009"
"4477","-871,473177437869","-135,313374338513","-268,764626091963","133,259643780706","36,9358934802273","25,3552079705119"
"4477","-686,17046515518","-124,206559134211","-251,283056572905","63,3053351913246","-17,8364694903198","14,6786781122608"
"4486","-303,32828058027","60,2690095071139","225,01104001331","73,3051846779322","-1,51519861444271","14,7315358316182"
"4486","-429,143191125278","2,98592271662098","50,8472535360137","124,416199625908","-217,808695269629","-10,7877350991541"
"4494","952,335645340164","280,188084514405","827,443733844344","110,298360660535","-140,927449724382","-10,1733867057417"
"4498","423,163298236271","183,387241126701","523,399491815113","192,88344204435","-333,587503332293","-28,2502355555441"
"4506","384,667435938876","-97,9002373187141","-810,701965094101","165,314211615153","-257,667063480824","-27,3989908901118"
"4506","349,012338375296","-22,1339666100184","-348,129504164977","-87,6054748337442","24,7506913649237","9,33575840165404"
"4514","1331,32121039968","-582,870528428128","479,525155063865","-14,3004874388501","-64,0313395753876","9,12020174802468"
"4518","960,141055721987","-392,872428651494","219,682456323357","-200,068912591527","-72,2410512831218","31,0171868485812"
"4526","503,14090285243","-12,872909867357","487,676916096997","-131,52510477913","-79,9915508785715","30,3672915935589"
"4526","639,135513119318","-106,64117213948","362,974028819804","255,239436397786","193,519517696604","36,7945484093985"
"4535","-592,58661339615","732,511372893421","-172,678383731701","147,28778358022","97,8383761335957","36,180716196969"
"4535","-118,524587349145","451,019819971638","12,7880350476472","295,991625053238","273,982420173718","77,4976037443762"
"4547","-306,983588735867","-193,202300162403","-574,333854434564","233,380779443878","201,540386739417","76,1219691878237"
"4547","-191,5640523523","-28,34622808525","-339,143101768634","-201,895689402393","148,571760565733","83,103022482942"
"4555","-54,6747325427304","-660,846480234122","-271,280804899616","-78,1202646971362","158,277629664497","81,9532826264006"
"4555","-95,0095455751834","-435,021941961963","-273,050876697817","-326,229762413351","78,1554037926308","72,8559158393677"
"4563","-48,9960271798514","-94,8589051053335","219,791364906083","-230,618289231351","107,071500122408","72,2321433118295"
"4567","-70,0412903356986","-170,715427207667","37,609832711012","282,757094002027","86,4354231925179","71,7094096494189"
"4576","-479,300585757381","905,29196713932","61,1909321876858","140,193959979217","97,0353363681035","71,2713485458052"
"4576","-328,052619282232","550,781947382891","34,4406432470659","295,052573849809","92,1483740748219","88,3339493098036"
"4584","70,8277011253751","-35,0741324092596","-74,1078496355809","225,113413720409","95,1063611732838","87,6327447742601"
"4588","-64,2145644563902","100,562657033975","-36,6701152177579","-232,894187931541","-34,6976467601775","76,5872988067262"
"4596","-74,7705837058295","-406,583508885368","-131,831062665877","-103,292720961796","10,6251495249568","76,330997561214"
"4596","-83,5954899112116","-225,014084230838","-92,9806672121533","-266,857003392183","2,42124370753839","81,9261136019217"
"4604","-103,392341744556","-35,79895030191","-107,816570001703","-196,282372571861","10,6719820616064","81,6149310320748"
"4608","-96,8147869773665","-69,8817813521848","-98,4902494127499","30,2933012853976","-9,01009417220845","73,220291765513"
"4616","-26,2470445300114","436,780711301216","65,1512124338632","-28,1669309323125","-1,20676607878047","73,1854187393723"
"4617","-52,0474162374788","270,088800389274","5,64215838702332","244,596264168852","-6,69002471342399","83,6140172141895"
"4625","290,645391709644","411,285069275825","271,524666578339","151,680932660917","-3,85918172689709","83,3533881128502"
"4625","159,889526926213","342,041857492613","167,441170076154","78,049408682639","-47,9250050927719","79,6490348740334"
"4637","66,02693298178","-403,891609834284","-339,018316835445","86,050497016888","-32,3208534150039","79,5447139078124"
"4637","88,8001313726841","-175,793095867546","-162,29084145989","-224,61529358331","22,8228432331156","87,5911530283841"
"4645","125,625313589318","-451,659860732845","7,86194511863148","-127,994610594553","5,58074924864574","87,334227474867"
"4645","113,991586893057","-330,520839108019","-37,4736586083123","-234,83784247627","5,47789168987326","85,9569384948389"
"4653","239,878890535064","-60,5375008027262","170,910299387407","-186,857320018472","3,45596008966243","85,8027432057816"
"4657","191,642068127536","-129,166451581871","89,46459628386","111,359252611082","29,8264922787683","93,807386661611"
"4666","-169,331526098018","277,916092007277","62,048227462066","27,3572623092231","20,4492970217577","93,5154355179322"
"4666","-38,7360117772441","138,006381946621","64,1073363087389","165,282104042048","88,1341649268499","104,890577773845"
"4674","-292,054270171002","-238,042457405181","-235,785800220447","109,743595768625","63,5661374618066","104,423171001929"
"4678","-184,847489068731","-138,27371821615","-124,831591435609","-105,834578810839","29,7392366953362","97,0595930838032"
"4686","-31,106758641632","-161,917340927039","-135,772089197173","-48,3873377045762","38,526562460839","96,8887697729733"
"4686","-78,5283291838343","-139,904892982187","-120,743751051974","-77,7223986476703","-13,2030864625057","85,1258134104821"
"4694","79,5415910131559","-38,2587179233676","-83,4595113720204","-59,6900361596065","5,76696111812212","85,2682243236251"
"4694","15,8684432512333","-67,5176641173003","-95,7402637870971","47,1828253609912","-31,2840582201475","81,9016265542578"
"4707","96,2168276341948","29,8782454157309","175,014013003726","17,2103505504335","-16,1841887815581","82,0803513230604"
"4707","60,1073162538205","-5,45704539742689","73,8084912082137","43,6374261362906","-5,81744100118343","83,3921065054418"
"4715","-99,6134595618002","132,322278418677","30,0925882758677","30,815231533631","-7,60701164121221","83,491383181474"
"4715","-43,2257088412658","83,2137535348004","36,2142467105751","65,3572445704434","4,51884948554914","90,546460829438"
"4727","125,482098870077","16,6279192610105","-100,986048109866","52,7391319762267","0,104362321143405","90,4587548383881"
"4727","67,6480105564526","30,7656070119595","-49,7118506885546","-23,2805120695131","-16,9179007437002","98,519117635362"
"4735","191,029641453752","-82,686944105793","19,5814672909342","-1,92805627328504","-11,5474392304873","98,2738603968774"
"4735","139,359642710295","-44,4178650781537","-0,93071041520411","-39,3383580180531","-1,46844830460643","105,040211839359"
"4743","-39,4952987236628","43,8775848114889","-104,715424314523","-24,4992956105362","-4,31937533269262","104,710547602054"
"4747","22,5845708016411","21,2376778019532","-68,419176736619","22,7409123551005","25,4479498829747","107,920223398079"
"4756","113,710187126278","34,7186493597863","69,1464060861988","10,5717312100136","14,7950291231089","107,609994925255"
"4756","85,4638248158757","27,1325939969302","21,9380397117002","24,5504040464821","33,9649047487606","103,864076436343"
"4764","75,099277712002","14,7309385838164","97,1403231421108","18,3471235513431","26,0523636903348","103,724922971973"
"4768","76,3074728773492","17,5903218406036","64,6930404740989","13,2054789025992","40,4462204620762","98,9603884028415"
"4776","-113,504317753434","27,0482283409385","-179,546100953891","13,8089670338887","34,5153221982745","98,9676146030177"
"4776","-42,3186492160436","24,4433649998142","-92,5621054445531","5,33091929160375","40,3978259923042","94,3257490755203"
"4784","-262,056656339242","-196,30783640737","-87,8048242816342","8,02821361969622","37,6521112678736","94,4357743483824"
"4788","-173,044579938255","-126,211253824583","-80,9474821381673","-77,6587791606988","29,9195537732412","93,365997387447"
"4797","72,5610123115304","38,2678206155752","65,8709797273263","-50,9320527116376","32,2707944442877","93,4695032264115"
"4797","-10,9791210681083","-4,07921307569473","12,3301379072982","79,0429715842052","-31,5518378636877","87,7463416259237"
"4805","-83,8892894761203","615,776483995478","-102,866246728978","43,345229220666","-9,16029282689874","87,9502194949954"
"4805","-64,4938722851461","411,749816647429","-65,6265743071577","168,464011730253","6,33476205166216","93,9309746963128"
"4817","-15,4627827906203","-120,276773398556","-184,480397035715","124,447275201396","3,63866458344524","93,9429653376846"
"4817","-31,9863735154142","19,9918894635003","-136,899856522699","-155,408781517043","-29,0981909671034","98,6009349568483"
"4825","146,04210951403","-534,8905241899","35,4554428435128","-76,4199280347841","-18,0784424591924","98,5044052299502"
"4826","77,8193633005309","-337,409909770592","-23,4832310048419","-288,298841480749","-40,7436559038872","104,233412949735"
"4838","148,245612317992","-275,172268344903","53,244619900569","-210,846851421317","-31,5764013617261","104,034434243765"
"4838","115,420779473033","-266,411100000158","19,072270170979","93,6460158707056","-9,96718489916595","93,4098634120535"
"4846","142,634270974462","427,523866114715","89,3447305630392","12,3487174692887","-16,3596023162037","93,5062638189123"
"4846","129,338891943556","207,257161443713","60,0090108012612","197,674758928489","10,865818621204","94,7490295647208"
"4854","35,6843228289962","-143,725707834274","-56,284552904333","128,010796161662","0,670905332346778","94,7904917342538"
"4858","69,4934841898361","-63,6092188750437","-16,242610619295","-94,8607489772944","30,6591005256825","84,3674150913633"
"4866","100,918057472301","-272,145712761775","12,8110194022019","-37,3944457313961","19,053274331414","84,6326715966019"
"4867","92,3506829184599","-193,955856444611","6,04697258324968","-78,8230731780382","25,5125297754522","76,7210996271289"
"4875","-0,486517024503328","115,806950351115","-153,493158065421","-57,0754202160151","21,8897917846703","77,091046509288"
"4875","33,4639496937907","28,2518212204139","-95,2449751002151","83,6459917741053","42,5586642729799","63,457305605462"
"4887","-6,34479638915194","93,417121555572","37,1778001533635","43,8670543817518","34,9657438656899","64,031962230463"
"4887","11,7731369871918","59,9196953242866","-5,95738671247307","60,7170482234081","56,5748590057344","58,7036342673342"
"4895","-14,3286141689927","241,833399763012","111,833965075819","49,2936415111846","48,1824199844029","59,2383905002128"
"4895","-2,84103940531347","178,901542035051","64,0619494151071","91,1291445045759","39,2458508326951","57,3625661418689"
"4907","-157,987557431668","-62,3672469370149","-150,182869843556","76,4920021999284","41,3403684915752","57,790588387821"
"4907","-98,8090169988949","5,53342615707016","-75,7933925937386","-50,1993942105115","47,1472988043261","66,2831416039541"
"4916","-17,3205861064186","-200,856347350476","-111,521302134193","-13,6097922130098","45,3854700733244","66,4000684481149"
"4916","-42,2330082336876","-125,122851838279","-90,9600728307334","-140,214730493123","-1,44639363744986","71,1459766717886"
"4928","-81,2551374638388","-11,6190237104654","-156,406353566371","-95,6016457749363","14,5679745403467","71,1231412272986"
"4928","-69,001215137305","-36,8751172590719","-130,200874992849","21,9475367831782","3,6883908566238","73,4279652878812"
"4936","-86,981117584393","157,606186158648","-81,8034106297312","-7,12516372137059","9,36861307209128","73,3594532409584"
"4936","-79,0894517748216","91,8569690105633","-97,0813728912725","93,8671533633492","-1,92767154196193","77,9499600219426"
"4944","156,146428796933","92,6741057769196","240,464733423996","58,2974755836618","2,66370043905949","77,7968951080632"
"4948","68,8135977400652","82,8810389099915","114,29622359593","-10,1288614736688","-35,6664066886513","69,5347615511098"
"4956","170,651441727667","54,1996516946382","109,756366040601","5,28599731936437","-21,8392682225578","69,6109309191368"
"4957","124,256990660857","61,9363274119898","98,9382072910486","-59,6628831859627","-33,1852196499719","54,5690183665393"
"4965","-29,9333406246122","-4,22799570532479","-194,176713781743","-37,3035193406435","-27,6044377773235","54,9635994178847"
"4969","23,4105037049906","18,0164362625356","-87,0009564759639","-65,7983768420329","23,6152686314587","49,484364577694"
"4977","200,727694902528","-409,546394704302","-34,9299839402752","-53,537808369575","6,53648956338982","49,8926578756936"
"4977","139,381981797134","-269,823148168199","-43,5459181940411","-119,343419390325","-7,82576126430506","47,9108550874091"
"4985","11,8408502882164","78,2303386092744","45,8905037887195","-97,2167504149963","-4,88812388538741","48,2500653219731"
"4986","53,7917618172542","-12,6279922591143","12,0084524868918","93,7309730839606","22,53990262272","41,5624483404795"
"4997","-6,55934223387184","313,714539169209","67,7749642037798","38,5939041861128","13,388189507288","41,958093606659"
"4997","20,0072641087222","196,358088283021","43,8250283163858","23,6182346519363","11,4368335186065","42,2896521314016"
"5006","-43,0034518033545","308,125956359835","-24,1835641280568","19,5507228585116","11,0207594845394","42,5675047047205"
"5006","-16,8966345227418","255,430245274689","-1,43985725509753","163,630881276817","43,0940284013959","42,8003506330823"
"5018","31,4675883758854","-430,416439797382","-248,471135525243","118,764206316309","31,932787941614","42,9954801066267"
"5018","15,8287109165508","-219,101444795721","-154,990330074077","-256,384259964101","8,11163079116843","30,3772190779843"
"5026","142,850732820189","-163,840910403475","-61,7126223705824","-148,277588165446","15,0324115153301","30,802867836855"
"5026","93,8100785275622","-150,846636754518","-86,9024093263058","-46,322486622144","-3,14646534118184","21,8637274282395"
"5038","-101,034402111341","231,490598997744","-98,7211656171531","-60,6306644314379","3,97737947628288","22,372551721864"
"5039","-32,7187762489927","111,314344228363","-96,8511044423982","177,45799854094","51,9525484971944","30,9328186452305"
"5047","180,074901819062","653,81741154059","624,120046308427","102,124786380426","36,181959340406","31,1064909095804"
"5047","106,862301917171","463,201829966171","358,051183568189","81,6636825746722","32,8193065552961","31,2520316873397"
"5055","46,7002699525401","-371,111209680577","235,489985984699","76,1062828973851","32,1023115438358","31,3739977253254"
"5059","62,2995627478353","-132,394092014547","254,40239514371","-177,748381976984","-64,5365247518511","12,8845227648888"
"5067","-283,98391168125","-1612,58174383196","-402,77056010704","-100,697342211178","-31,1421501212491","13,3899786235113"
"5067","-152,84879505956","-1105,42703404047","-158,204188641504","-591,373691850581","61,743594200767","14,9755408936769"
"5075","297,368103227837","1374,14232862636","-285,188829515669","-428,645318495257","33,5489739323789","15,3042733015226"
"5079","141,200815734131","656,072777985119","-214,073599296152","453,823126466629","-56,4412860445392","-19,2796516584378"
"5088","-483,26592274292","1489,09415009745","-199,437654581631","208,508624267978","-28,6292818344045","-18,2616618572573"
"5088","-264,222643848934","1119,04992830297","-197,80001098154","914,470460363156","-3,04457537743896","-24,3804481943054"
"5096","-226,354823655058","1025,33928726484","-197,504880038832","659,215349462885","-8,58932677712257","-23,5081116457509"
"5096","-219,80830091546","1001,60784186842","-197,451692475104","589,886016871154","-9,77159546420345","-22,7770764386054"
"5104","186,944477538925","-2646,3929314799","444,941350874419","571,055614844482","-10,0236823744537","-22,1644545382943"
"5108","35,2631887801171","-1485,21897940542","207,711390498389","-707,883770151356","-22,5848719077465","-41,4047305297053"
"5116","281,281931761534","1837,71755792483","52,1320020444547","-318,253950808318","-18,2632067846803","-40,5284607210229"
"5116","174,813223160128","945,223774485058","86,0939774231557","833,249783113228","-112,04090773441","-82,787400700815"
"5128","8,41023721708554","759,38253968201","-446,441320461116","541,007420239865","-79,0364731596926","-81,2012246350153"
"5128","60,6427790999847","689,319782803229","-246,413145149262","190,27451125689","33,4206736463792","-56,6323717265647"
"5137","47,7471889631809","-617,530630364701","-241,301014786884","252,012643974451","-1,60087290756309","-56,0431891398459"
"5137","57,5178218213991","-210,479697384398","-223,379722844602","-564,303724097369","-25,1492658764343","-48,57756069071"
"5145","59,2069517966422","-107,397412570506","-220,150004372788","-304,021787968915","-21,1703255473441","-48,32121702515"
"5149","59,4989656420776","-81,292675837311","-219,56795473927","-233,327129382747","-20,3219238391783","-48,1063959850782"
"5157","19,3527701336862","564,631657713702","259,139913400829","-214,125893880378","-20,1410250573704","-47,9263717228959"
"5157","34,4123658416389","362,206657116911","82,4111291878463","103,928265751434","-0,447906587416419","-25,6978820244726"
"5165","-193,201497163604","-29,6736629222983","3,24726509955561","9,31432296896216","-7,24888022181069","-26,0699698979597"
"5169","-106,55098499741","66,0858846176762","14,9806042489002","-158,111724922399","71,7059592879027","25,9073269237993"
"5178","-208,506787085336","-477,360237222367","-274,070157299807","-121,585980532169","43,5409493022714","24,4653252811092"
"5178","-162,132728409272","-289,983476413496","-166,16197003699","-267,220574945154","-5,34712674161973","6,98917521687224"
"5186","196,691712726456","-32,9208685558358","97,1358461119914","-216,776097251088","8,22880961476595","6,34381729453669"
"5190","66,724656566162","-87,8218875409285","10,5865445964197","140,875033032017","16,4838427964932","-5,81680841769632"
"5194","44,2561784706194","-101,725116884142","-5,01109639551892","39,0159446312118","15,2440059738949","-6,00765225118255"
"5198","40,3718671470848","-105,245994815797","-7,82205385275076","11,3502003790271","14,9796442114304","-6,16758314204827"
"5206","-336,686724945732","119,194188031299","-93,8584445654408","3,83596265076918","14,9232761957533","-6,30160837821053"
"5207","-195,87195701504","47,0318095115717","-62,363650397024","133,152826774718","13,1244802654716","-25,0056090677759"
"5218","86,0960203877358","63,692448802734","-74,8855900182594","92,2763228369451","13,7409355491221","-24,6799299949495"
"5219","-6,15784723772592","47,9116180158315","-67,1422543161176","-70,9245581959143","-59,3854778096501","-56,9424530970098"
"5227","38,1884824840635","-139,49436470887","-82,1248233869665","-27,2512246453521","-33,9777131472962","-55,9790828221232"
"5227","12,8549986567683","-81,9533810673702","-75,8249345306939","-96,6236210030339","-53,5750702099029","-59,8196807850838"
"5235","183,879077495123","-135,505174797252","98,1898123784305","-68,4657194934582","-43,7536780381971","-59,0381775132878"
"5239","117,445422095947","-110,066723994895","34,5501989102992","-21,064792131136","-39,8727540815949","-47,9254396234022"
"5247","105,96048756529","-103,624646558458","23,0812693365226","-31,1903206007977","-40,0452517212376","-47,6127464217385"
"5247","103,974992105483","-101,993243686503","21,0143751742235","-33,9404952337925","-40,0820321904136","-47,3507033606859"
"5256","-111,968622599373","364,804352158487","-92,1846703175517","-34,6874646916959","-40,08987463345","-47,1311061149497"
"5256","-31,300578251921","216,016985582574","-50,5850437612723","80,9119157827508","13,5117623147307","-36,489256540861"
"5268","48,4215553844186","-102,890265930813","-63,1057056618507","45,3096334152968","-5,05913430946638","-36,5711770213265"
"5268","26,2037788667202","-22,6508918530458","-54,3621396929391","-133,742646699863","12,4224465208595","-8,75230064393588"
"5276","4,09159096176707","-327,227970631822","85,517118786967","-84,3746801021699","4,14992213275929","-9,43953438554663"
"5280","10,2688744652558","-218,359598736888","34,7257157112947","-121,089312684348","-2,97430148640547","-8,85346948874177"
"5288","-271,867077745351","-19,6072733732436","-196,441296489659","-102,061300960295","-1,49335002394336","-9,36233556348508"
"5289","-165,642249311834","-67,2748895102398","-116,101483254318","65,5757065342296","23,837300529872","-13,274716274697"
"5296","-147,278286155528","-79,3463193606926","-101,62289657296","17,1072604619046","15,2383785610481","-13,5533683595972"
"5296","-144,103556219228","-82,4033092092222","-99,0136115392054","3,94284229961574","13,40489037491","-13,7868842944094"
"5304","-1,03921846386469","-256,106534783663","-153,136869473658","0,367280886052001","13,0139484706928","-13,982575246554"
"5308","-54,3065051588469","-201,095441136624","-132,890791594264","-17,887790137195","-40,6727184838257","-32,7382530205333"
"5316","2,26112193827668","445,16215535705","143,725367530151","-12,8460136414869","-22,1199522151142","-32,4558803621541"
"5316","-23,9595653043352","246,821550846326","43,5762556024869","173,461316218197","-23,5244061134576","-50,8109314157155"
"5324","103,060213514707","163,405024866358","12,7892176816296","117,063879240591","-20,8238680273957","-50,1928256758394"
"5328","53,0191714415252","161,280479035459","14,2408752191738","34,3385960123338","-9,52738928991569","-43,8649393611451"
"5336","-85,357480450141","-141,446724350622","-187,493443227019","50,8697464976309","-13,1187198793521","-43,5620460104984"
"5337","-38,2797947951534","-45,1098868002878","-112,849363145229","-157,232475452857","-4,9505894085848","-36,3363335792598"
"5345","-30,1410865703295","-20,713378840647","-99,397243452734","-90,7547057337642","-8,20895589042014","-36,2810442615106"
"5345","-28,7340808807497","-14,5351648182712","-96,9729450485884","-72,6988110229539","-8,90371466043959","-36,2347107243903"
"5353","262,021516997011","-170,178826956184","107,279669068414","-67,7946854004268","-9,05185322963057","-36,1958823078089"
"5357","153,286837879679","-119,594298117268","32,0894282562308","-69,919469582608","-53,7528640653923","-24,5435402661541"
"5365","-29,9519807856881","258,288292993403","36,7367128797104","-68,4965779849923","-38,2841489837747","-24,7786481585535"
"5365","28,3700116863263","144,983936282756","27,574231795231","144,482105598495","31,1248852331475","6,39779506998953"
"5377","-12,70679274149","-5,98253417696226","-23,2111470425041","79,3288219170476","8,92448973117329","5,52426847226072"
"5377","8,19192091881648","25,7864548010591","-5,36352716434792","-67,9967310633507","22,0586238754423","4,79223598047078"
"5385","-6,46636332976421","-104,162214160887","-118,61320834549","-33,0115312599638","14,8591237376319","4,17877833598751"
"5386","0,999538043340121","-58,0706406495436","-75,0227071927702","-44,2499746644109","13,3240245127949","-0,983232476840938"
"5394","2,29023005730854","-46,3983305692553","-67,1669651390174","-35,3024259076092","12,9967060066505","-1,30909919662524"
"5394","2,51336264260134","-43,4424145041015","-65,7512281875451","-32,8721999996806","12,9269141634059","-1,58218192529697"
"5406","-23,027766991446","-275,012702331842","-23,6410757104154","-32,2121311781413","12,9120329352076","-1,81103062990898"
"5406","-13,4432729563594","-200,65596397362","-39,052117406276","-63,1439070279948","3,97497505838674","-3,16479065762003"
"5414","21,1018690432997","333,467953462716","41,880579166201","-53,5452250975288","7,06938850981799","-3,29926822126557"
"5418","9,073972969155","173,730421429466","10,4660134047417","185,85155649123","-28,0063507069691","-5,73592368072694"
"5427","-14,9308496555115","-57,1184392512156","-89,8241448369381","113,87363982433","-15,4853060582566","-5,77788894230087"
"5427","-7,08076154290934","-6,57900543004297","-55,8981195067047","-47,4042820703117","6,83901568859889","-0,00315512600346501"
"5435","61,8798525074604","-98,5858073383638","-35,2258133370687","-9,20865741582752","0,599075186150408","-0,163814462583565"
"5439","36,8016432444523","-61,885769556084","-39,5003157944755","-66,241707459679","-13,2388626257549","6,67343168773248"
"5447","-164,862982131694","143,04513730864","-100,323497609483","-42,7323406590113","-9,18942963760002","6,40317861176482"
"5447","-91,7264110018635","82,9421958755611","-78,2848587912049","41,4306312343683","2,3946645563635","14,3105633565664"
"5455","-38,8860097320625","20,5591495280236","38,5134312660575","19,2899685057161","-1,1353397943275","13,937107497671"
"5459","-51,7510532779752","31,7611585884814","-2,43755083450023","9,81960319154945","-17,9690107547576","28,7298881162763"
"5467","119,601426036498","-17,8047731199219","97,5495997456152","9,24737611913023","-12,5583370618442","28,126529597938"
"5467","54,2245439391285","-0,356935700713145","56,5689673343294","-28,9326691275377","-45,3534192833253","34,592785115595"
"5476","141,586876673581","49,4772998027576","-16,3286264636988","-17,3026752204138","-33,3460860425442","34,0116345833138"
"5476","102,689924456694","36,0974081023249","6,53400007022831","-17,6006597055141","-27,2122921392802","34,6865992986983"
"5488","66,731539274027","-215,330612417232","-83,9744944878741","-15,6815946783803","-27,9044260255262","34,2522330226832"
"5488","76,5151163304205","-137,002680754302","-48,285648710004","-54,9133770272317","4,10998057353377","32,7262452227532"
"5496","78,2064840760784","-117,166779380869","-41,8539179610305","-42,5690433409714","-7,06381068792768","32,4474373942014"
"5496","78,4988847833619","-112,143501286539","-40,6948118166412","-39,216223439581","-9,44632030326546","32,2137909431421"
"5504","36,525634411658","-177,248211663504","99,6373825032089","-38,3055706998813","-9,95432621946284","32,0179906158119"
"5505","52,2693720599723","-155,735441526036","47,9276060900298","-62,25571798859","13,1654558467747","34,1778666982713"
"5517","-65,5989130804274","66,3105144895284","-90,5959709129882","-54,7607698214152","5,09512580287159","33,9878853911321"
"5517","-19,9757767340132","-1,45818218883816","-44,5602512153948","92,4598453319565","5,1611225591901","18,7229333312773"
"5525","-116,234467826843","-79,7565838145209","-152,729962327115","48,4461435742474","4,17519458745971","18,9306028830879"
"5529","-75,8755025338031","-64,5850069500641","-108,223965058249","-13,6316980757087","18,2591878092393","12,1327522189358"
"5537","-107,267871581914","-8,34018256361059","-122,040633201635","-1,49253708162418","13,2622195008169","12,4360194881483"
"5537","-91,6949296161804","-24,0966456080221","-112,530629372967","20,8168681685033","-3,88424195774105","13,8521437385649"
"5545","-89,0027065576794","-28,0868396589523","-110,816766603956","15,8762813220917","1,45973759779881","14,0388837490144"
"5546","-88,5372797287171","-29,0973233264607","-110,507899684034","14,5343783628714","2,59919710418456","14,1953755553562"
"5553","12,0348783323841","113,880957702643","78,8052127327152","14,169906771147","2,84215611126888","14,3265187709594"
"5557","-25,5783823109106","68,0890257675698","8,92262224192649","78,021417015308","-32,8415788584715","15,5983996747072"
"5565","117,743085712604","-78,0077889057041","-29,1483612196561","58,3639986176458","-20,4501729056679","15,6642609199759"
"5570","60,520251250121","-38,0055998437311","-22,0093932770547","-102,530392808762","-17,8080397979973","40,1210403747212"
"5578","-60,8267589565405","-164,12252066126","-115,351555785016","-56,2305982072102","-17,2446761744312","39,6163032001041"
"5578","-20,8050185350699","-118,060588598799","-80,1733846700056","-69,5810830114256","-4,61711527754735","48,4891659587875"
"5586","71,9885921142948","89,2411406235138","93,5863652998542","-58,2071816152413","-8,92462849744668","47,9247996892737"
"5586","41,0305897549133","29,738590359468","32,9007970909793","52,0423645131534","-25,9240822538458","49,7758102537889"
"5594","35,6786242765567","14,6700612479819","21,9642361974921","19,9870242877001","-20,5487572708028","49,326993559935"
"5594","34,7533858148172","10,8540807803194","19,993283832586","11,2805371345405","-19,4026141974275","48,9508763316639"
"5603","-14,7388548669572","116,439969381188","23,2776513745614","8,91578548894915","-19,1582300999468","48,6356826872663"
"5607","3,70501284451667","82,1787230830719","21,8695496904143","82,5943555920674","4,12197884380492","51,8574851251264"
"5615","50,7444783805621","-452,271891932886","-65,7338059654042","59,6060453621421","-3,91414449538239","51,5574190169778"
"5619","34,8765791778529","-286,61709336177","-33,5214052559974","-128,118922821939","-12,7747389381539","36,2002137259098"
"5627","2,89941653339532","129,139883912328","-149,641660635121","-74,1065277678446","-10,6640217217264","36,3305732531644"
"5627","13,3712604016717","20,4269024948533","-103,568485272405","99,5757344663211","-22,7214070027968","23,658033733977"
"5635","113,846188652884","488,975585422089","-113,463155208842","54,7492280008785","-18,2923192111769","24,0381960488316"
"5640","77,2161190895572","323,631667178365","-105,246341285445","227,511932787245","-8,41405084139549","32,49064170017"
"5644","70,8835765211795","281,759686323651","-103,765533105247","167,435667153765","-11,3077765408307","32,57395761517"
"5647","69,7888176015714","271,155953211962","-103,498666545168","151,11847222559","-11,9247854988227","32,6437779927314"
"5656","36,7113662083983","593,367682580301","-167,142983554292","146,686591390179","-12,0563460176088","32,7022888441431"
"5656","48,992994075946","488,965140210329","-143,612760785329","60,7916495245763","12,9304798476766","45,5331054601927"
"5668","-394,701484877781","-552,340492356856","-441,456224336094","86,4618953365224","4,25824653740683","45,2855824695563"
"5668","-227,406612900299","-235,042538213103","-329,132629979005","-430,268633409658","2,40912668500429","85,7474640523888"
"5676","1261,38530582786","-34,1631333181102","1985,85654639344","-267,616783781235","2,01485174956176","84,6553176593675"
"5677","719,765057305092","-52,2920841424713","1142,05656350489","92,8564955989035","-203,54856844061","105,817703295096"
"5689","-1401,97444212417","601,644774498602","-1968,97782686974","7,76392549691494","-132,379423492823","104,552199221632"
"5689","-658,777067926336","390,248879663502","-903,638591138386","226,626980573507","202,628555000737","137,189110770998"
"5697","-530,294401501747","336,714616321244","-711,646528318858","146,071939320585","95,0599708290103","135,539485388015"
"5697","-508,082542115956","323,157506549393","-677,046326853085","124,192544908982","72,1238715140594","134,157066829993"
"5705","312,48082467397","-1720,48937208427","-537,966616921421","118,249926143318","67,23336695052","132,998572853558"
"5705","7,33838902462594","-1070,0260549262","-585,902112104051","-630,029476597818","239,507964967084","127,37981086082"
"5717","866,319646622707","-835,43126486643","835,808674274127","-401,268155742035","179,240876532074","126,671177657191"
"5717","515,818828961812","-816,022073029579","306,024889217281","628,76476593918","-42,6623602344936","52,8725697745108"
"5726","-1890,79945977803","3084,16407363853","357,951370006961","348,529957538299","27,0227595337294","54,0278830077321"
"5730","-1022,8514340429","1841,85398323884","286,309395908377","1136,6119342694","376,008525453805","57,3200188622388"
"5738","554,179989068437","1432,92427331546","-658,330675407585","850,661311308848","263,42032745232","58,078893542359"
"5738","45,8144322342341","1383,36620376739","-316,570717106069","107,563915450845","-218,00097376772","-16,813874445988"
"5746","-42,0709189902343","1370,81603221372","-254,979819875687","290,732710881481","-64,6510817164127","-14,5754889292788"
"5746","-57,2643852981163","1367,63780498529","-243,880103453388","340,482822814788","-31,9533532754514","-12,6996777843824"
"5754","-290,108344924056","-1209,63549453699","-1391,98270944648","353,99535169045","-24,9814445841748","-11,1277111034637"
"5758","-204,362002743946","-387,308658456384","-966,890124718548","-1388,01044762164","-21,7080961256298","-31,8879978885401"
"5767","201,465728478609","973,799271274387","1247,96393607937","-851,153175347152","-22,0101428531597","-30,2855270594508"
"5770","57,6245191670099","658,488605966916","472,117919819465","1322,06536460395","-32,7952079987538","52,3959965009781"
"5779","-528,168873535859","2101,81199218866","392,350252623308","739,328926494592","-29,0948322543139","51,6847415423976"
"5779","-322,439814044236","1595,32171178992","344,974776288976","651,917114073879","16,3635973507764","97,5679081354797"
"5787","-637,681107606147","-2237,81704440405","-1543,39909381994","587,17536569365","1,05638139318369","96,018905345727"
"5791","-500,179472872423","-1087,52775646197","-850,715851653245","-1010,15929101447","-112,987641772739","80,7770468257901"
"5795","-476,408429968246","-796,226500548251","-725,882671682356","-530,008177662155","-75,3044538024885","80,004069218847"
"5796","-472,298933511375","-722,45686486928","-703,385631371548","-399,595289495155","-67,2695303306892","79,3562987615082"
"5804","1370,15022633293","-1019,93856010897","690,98305379212","-364,174104524208","-65,5562996122945","78,8134543613188"
"5807","680,669625118537","-914,27334097066","178,271761854904","-644,92328137981","15,2139643368779","106,246067416724"
"5816","-538,453868713209","1891,57790092743","287,868488299835","-553,177006480269","-12,5639553513135","105,23513740437"
"5820","-147,21381301122","1011,13653973234","196,619663214542","821,616161190137","56,5577852732164","128,789544579319"
"5828","375,376399849393","-1426,71743786485","5,47590490929653","414,020996964413","29,2961321613333","127,528601663264"
"5828","216,720884809659","-776,083810700338","67,0285821962565","-591,992165349423","-35,4803201351907","64,8869504284848"
"5836","-46,4059089315223","-763,284190596396","-455,075057276123","-347,233397917592","-16,292151485238","65,3920130534142"
"5840","37,1051896792479","-673,042792584103","-256,166921525421","-296,310484196884","28,8950782892382","28,6318956751711"
"5844","51,5424428209717","-650,189904313345","-220,320327301237","-273,479412962184","15,5300362823667","29,8261933727433"
