Timer,AX,AY,AZ,GX,GY,GZ
"1005","6,03431928461769","-2,62651525076124","-24,2482469768538","1,85002026450661","-0,00896339779729992","-0,0458873649941104"
"1006","6,15402630496896","-2,76095334553133","-24,6776677685058","-1,63887247907354","-0,0089754690502283","1,48542046085581"
"1017","2,77825356020302","0,737577390983959","-24,7718493804607","-0,511006887031465","-0,00897939644636566","1,27312778283137"
"1017","3,77622925292319","-0,437206377402025","-24,7937419181545","5,0026744828077","-4,77863529889192","1,16211565721047"
"1025","0,669476387138836","-4,24226714500841","-28,332423099488","3,43080792545729","-3,73718569291222","1,09445295210781"
"1025","1,74356296723391","-3,14093760728462","-27,1576877524311","1,28266927871817","-1,72053341392856","2,36504170061515"
"1037","22,487191287754","-2,88082712708372","-12,749431899288","1,72617224468001","-1,89020797139581","2,2377264445243"
"1037","16,6696431736564","-2,81939456664239","-17,3892317755443","-1,64081306396804","1,21637568681121","0,843092330449711"
"1045","-3,78577316373067","4,250399588762","-43,2063064875802","-0,513065416221702","0,495591341295016","0,877090936913167"
"1046","1,11767236089714","1,92013457347229","-35,2271975438424","-1,96185038975237","-1,38943395428818","-3,01660510377889"
"1054","-0,82481724204155","-0,394045724597119","-22,7656425662974","-1,33717311591388","-1,16564323869685","-2,72007506863289"
"1058","0,596241048180342","0,0593941182290068","-25,8594393751401","0,565595651467765","0,51473192391397","0,096492212433555"
"1066","14,635446119737","-5,12497685543259","-21,2805952231893","0,0585275731014707","0,206671128613125","0,0530184711361864"
"1066","10,819706038434","-3,34941499302131","-23,2127468278493","-3,55471297739804","-1,50840448382576","0,0228198694348673"
"1074","11,3844176372492","-4,69388632525453","-32,4972830825469","-2,49076029876204","-1,21463252386509","0,00184075609621167"
"1074","10,5527248951389","-4,0114218531796","-29,6625625312548","3,00768662613307","3,67100603873273","-2,62321669917951"
"1086","-8,41670177230193","4,96886810144687","-30,7682538255239","1,4321161496528","2,68279777641542","-2,44700025444235"
"1087","-3,0703702870566","2,08982155229211","-30,0261159922945","6,24676731157739","-2,48879342011721","0,285900194862526"
"1095","15,5426452973768","1,40985200293162","-24,5526799922196","4,49405247303683","-1,61833376710945","0,184620493091667"
"1095","11,0900886660775","1,24925766026868","-26,276200676542","-8,14658405498559","3,50477130497965","-1,19098010019804"
"1107","8,06108494002989","-2,31631385288458","-26,6781490145969","-4,42127163723239","2,61434619949366","-1,14669907973043"
"1107","8,15831738161846","-1,1584259943931","-26,7718888042813","0,0256883823352672","-2,51698017914939","0,189300687551813"
"1115","-3,72641575763998","2,64268503191502","-30,3273231368041","-0,822280648136929","-1,62994041549463","0,117506748023588"
"1115","-0,268554523015321","1,54042659583198","-29,1564985183475","5,92180285208788","0,323545200099995","0,0676268226730425"
"1127","19,4835782525681","-4,0113672171586","-25,3498734337744","3,66892740889821","0,127944905642673","0,0329719878979538"
"1127","14,3705253453996","-2,32258281326275","-26,4621169709363","1,34435707204691","-3,12904548106257","-1,29633977875694"
"1136","2,63487201970373","3,3677359562413","-26,7215072093832","1,74215309289831","-2,47019797643099","-1,21989934304197"
"1136","5,13716516378462","1,71166820025212","-26,782000521822","-1,6366730574434","-0,610676598146342","-1,16679118797513"
"1144","4,18099241408931","-2,20710232013448","-35,6300407444104","-0,511992904870879","-0,844969168717856","-1,12989348955123"
"1148","4,89601364987091","-1,13263255359901","-32,6935234138456","-0,220632883446002","-2,52966875091743","-3,71472783150649"
"1156","17,0228317568118","-4,40650819750365","-19,6411825400467","-0,145153057567924","-2,22338865191434","-3,51058080711285"
"1156","13,6371217887318","-3,17972797990059","-23,5972000861823","-3,60747855059672","4,25562384912492","-2,0635117673711"
"1164","-0,987630201469969","0,637653956092276","-17,4526510008676","-2,50442976603458","2,92352972283001","-2,05813854119686"
"1168","2,6535928406045","-0,46076163725199","-20,019659035407","1,26320574816092","-5,56611239113634","3,16653374677408"
"1177","-4,77096766412582","-6,01164785253592","-41,8197577067537","0,239250681136955","-4,06194853250386","2,7964542895687"
"1177","-1,98379173611175","-4,32264909336896","-34,9038356119899","5,19680351795094","1,32210111595498","-2,6816031997938"
"1185","5,65473686098641","-2,15992224342683","-19,1566572440685","3,48110883572966","0,539126886338828","-2,48756696545936"
"1185","3,93133221547813","-2,64913216885276","-23,4842022328722","1,29570072883928","-1,37150697530913","-1,04752255090752"
"1197","-5,09210774841508","-2,76467314634485","-29,7938036822755","1,72954816413967","-1,15826133041692","-1,0470297898525"
"1197","-2,78146358994956","-2,79196146734161","-28,2652880917438","1,8419408277384","-1,07045175936598","4,17425172069033"
"1205","21,7346281065654","2,49305743031506","-27,9088175794408","1,8710573092547","-1,034293830926","3,80181646935016"
"1205","15,0414306873376","0,741266466482359","-27,825683833911","3,61953989597107","-2,60762822055285","-0,372642954487655"
"1217","-5,67496519657338","-4,96393311214913","-31,3398688654118","3,07250238736158","-2,25549053887905","-0,27291213554027"
"1217","-0,849302312891823","-3,31137988671852","-30,1594243519678","6,41266598731399","-3,69871185348264","-0,203622632103604"
"1226","14,204614807305","-2,92108196940274","-19,2834098866968","5,27796990133676","-3,29299664945575","-0,155482695650932"
"1226","10,6913006064213","-2,82890190408512","-22,746976190982","1,50213582651294","-3,12593261374025","-6,64821068918954"
"1234","-2,26952377330865","-20,4453436621756","-27,088299651148","2,52396697164243","-3,05713954965853","-6,15913222146939"
"1238","0,867618059938464","-14,6059724533637","-26,1007550081654","1,04774323319999","3,32408134266044","0,706836429822283"
"1246","-1,60130261185448","27,3410520817857","-40,004738020785","1,66531221129861","1,95171891818552","0,477072586318064"
"1246","-0,337142408821094","14,2480469438704","-35,2473349417865","17,4937567903664","-6,55450473953019","-0,987794128145408"
"1254","-3,36428855875295","-25,8844890740881","-18,2367659343736","12,5942790065102","-5,05716877295022","-1,00553255962896"
"1258","-2,26650248316248","-14,3629403477697","-23,2696711358646","11,3250186316296","0,324069309192141","0,287378184610335"
"1267","21,8881076738084","7,76023836655442","-36,8109180194968","10,9962036088223","-0,460062657700919","0,185647590214436"
"1267","15,0871739041565","1,98526255562732","-32,9689199684013","-4,75743627274299","-0,782949869278048","-1,19026607695902"
"1275","-0,555455094997103","9,44044248362216","-26,7725546329795","0,161420441395852","-0,915907274156137","-1,14620302580202"
"1275","2,78239877845186","6,2011973896268","-28,3274784170633","13,6222787565624","-4,14710278347421","1,49488002786999"
"1287","12,2870109426807","-13,9658773950159","-23,3897482590404","10,10945327292","-3,47763355139855","1,32981265206198"
"1287","10,1197758691024","-7,72891144782017","-25,2382027923486","-6,46903743753565","1,56270836434887","-2,70057478604467"
"1295","-2,43986162639354","7,85469741368141","-36,2700062305811","-1,76386685863099","0,63820332601897","-2,5007477635787"
"1296","0,816850381307992","3,53521431886178","-32,8427720221847","2,93693554819088","1,84573714465077","0,24855467843522"
"1308","13,7011967648473","0,75122302675957","-24,9763487527247","2,1547270125756","1,34297133997121","0,158674368767579"
"1308","10,5412613466007","1,09370350701786","-27,1417924353231","3,69302746543526","-0,452279243340729","0,096228656485895"
"1316","9,59947076452358","-5,88069498051794","-29,4135896673367","3,09154010200834","-0,191521462000157","0,0528435480368227"
"1316","9,31877847715356","-3,52789953788172","-28,9434035129795","-0,546160740473081","1,50407587525827","0,0227010840250883"
"1328","-6,08250958760564","-2,97221930501559","-21,766603850408","0,511455246633677","1,20228321700748","0,00175914866574207"
"1328","-1,67272620010082","-2,84097945491957","-24,0928770868341","4,26732092492542","-0,510211323199394","-2,6232601581181"
"1336","13,2572417436298","-9,86526848560768","-24,6353954736156","3,240316760224","-0,215376538079434","-2,44703224981912"
"1336","9,70698559564859","-7,52425612794956","-24,7619181001872","4,71520037446326","3,08247629185625","0,285874348668858"
"1344","-6,66876683114876","3,61156882805567","-33,6253572520255","4,09728422333445","2,44045498601513","0,184602777319736"
"1349","-2,54941385986003","0,241613791835488","-30,6924311600668","3,93720665584128","-5,76503127384883","2,72471239136806"
"1357","2,08224040020218","2,97334464657394","-24,7080737027466","3,89573690696399","-4,14385867783763","2,48949218250742"
"1357","1,46266366340436","1,61852136273922","-26,3124405918843","9,10781272321357","-1,88807432532757","-1,58963500343441"
"1365","9,78779891287324","-7,52056544023105","-24,9198141803165","7,45805485029035","-1,95919506743013","-1,42367066214135"
"1365","7,26903125933015","-4,67902332859221","-25,5950348627529","7,0306680167081","-1,98848092628088","1,30210516705348"
"1377","-0,289500644294883","4,81119483474613","-23,9857189870025","6,91994903877966","-2,00054015827524","1,19587938527414"
"1377","1,45774630257034","2,05258248085849","-24,6104047551819","5,15032648169163","-3,59372924728962","-2,79362696036078"
"1386","1,97849767920253","-5,65422816499352","-37,1235952359416","5,69188746241334","-3,24976726663633","-2,5653971770711"
"1386","2,13370298475528","-3,47441289365138","-33,0418405249347","5,83218443358779","-3,10813176456422","-3,71206585292776"
"1398","15,7956318587135","4,09569819397182","-17,9556283293563","5,86852981448007","-3,04980957613771","-3,5087313570826"
"1398","11,8674479699558","1,88359739496639","-22,4373195705958","9,35982478346692","-3,02579386247062","-2,06222683391345"
"1406","-4,62094245093275","4,88878878966561","-35,8500159022961","8,26428084116282","-3,01590475305104","-2,05724581413293"
"1406","-0,535160229668406","3,59855106808225","-31,9780381235564","13,2032878396887","-4,60005602820614","0,55668440377624"
"1418","10,8943242257265","-9,05292454472078","-24,007894637341","11,4827886663163","-4,25237248710258","0,372752182309056"
"1418","8,30078017920323","-5,04093395141427","-26,1491493623443","2,33237726172584","-2,52098115422974","-2,36550710494032"
"1426","7,52779749635675","1,19807669879202","-23,1149459839448","4,96186858262297","-2,80803468192202","-2,26795439552618"
"1427","7,29741689850975","-0,328401707220018","-24,407328711717","7,38400515636999","-2,92623661353971","-3,50541295614424"
"1435","0,420918356945557","-4,21656597987793","-38,8430216283121","7,01148467790925","-2,97490940551156","-3,36515611371241"
"1439","2,37143926736784","-3,13486766871131","-34,209620491486","5,17403973538152","0,181495035115027","-0,65724096037979"
"1447","4,65473355127439","-1,11557226557037","-17,2279704143912","5,69803062594951","-0,518771410491342","-0,775875718387322"
"1447","4,335249058103","-1,63865764753387","-22,2676199016256","11,0565948670609","0,781098618101858","-0,858299021027684"
"1455","5,9419884674941","-1,76219928723234","-28,7432937528685","9,4447863351202","0,316354705936345","-0,915563864251063"
"1455","5,42086282514043","-1,79137719444529","-27,2535084929464","7,28629100952346","0,124984028254187","0,349885304208626"
"1467","3,56358705849828","1,72937415028551","-32,206429835948","7,72711047906522","0,0461820572807926","0,229075362330768"
"1468","4,01004257298652","0,560900721465738","-30,3615180924716","0,877550675622577","-4,75093688968131","0,145140817610484"
"1476","0,739186830084731","-3,24271039136858","-24,6309002990442","3,10310139195983","-3,72627831916756","0,0868260159650686"
"1476","1,76433743404639","-2,14104242253904","-26,294442710198","7,16153263696234","1,46032226210095","-1,25892386881151"
"1488","5,47379226187893","-0,117030611069818","-24,9156168308457","6,21291121049777","0,59604312281992","-1,19390407102284"
"1488","4,57936220527727","-0,639002077717664","-25,5940559840778","2,48528170001896","0,240153179431358","-2,4539653668402"
"1496","9,41866204391106","-6,05374445289025","-23,9854906992539","3,51960073592186","0,0936060211712648","-2,32941211849091"
"1496","7,86097222074427","-4,33259141485762","-24,6103515153909","7,26943109814053","-3,14318543087175","-0,937642065335392"
"1508","-2,81503683214692","4,89301468317316","-38,8903692924662","6,24086342241214","-2,47602047718149","-0,970688651145024"
"1508","0,00307384121537452","2,07190658851489","-34,2206626072498","9,45628165410356","0,975149211384574","-2,2988830586231"
"1517","12,7566990069785","1,40562086958993","-1,32946733028003","8,2892689907545","0,396260203499727","-2,22166632595065"
"1517","9,55780329509167","1,24825835658168","-11,6587956647321","2,7641233112976","-1,43033613519146","1,74768554157007"
"1525","-1,60735254235746","-4,08037114001591","-21,134880650644","4,33277719937418","-1,18248580307692","1,50545312804736"
"1529","1,0649722923798","-2,33888007193096","-19,344831854596","4,73915320715986","-4,25687358928718","1,33715847423418"
"1537","-21,9659899165253","8,65535070900865","-48,9627382979343","4,84442911343789","-3,52283460287712","1,22023320362236"
"1537","-14,8301628927431","5,25195414075082","-38,8700347289291","3,13076226424256","-3,22057450952836","-2,77670677462536"
"1545","-12,7033932608311","-22,0091748215756","-20,6152014753781","3,68681914961162","-3,09611086969089","-2,55364162066399"
"1549","-12,0695285311862","-13,447673560338","-25,3579274232137","0,348992112458764","-3,04485965266795","1,51704065599999"
"1558","-42,5158712606155","11,5040474571219","-22,9304223246937","1,4842935091866","-3,0237555997111","1,34520908553338"
"1558","-33,5901322963617","4,39711316701533","-24,3642952982846","3,51934473486998","-3,01506544409965","-1,38464309037428"
"1566","-66,6710325718894","36,2312106568113","-97,1369392553908","3,04654579497546","-3,01148704118786","-1,28124941247767"
"1570","-55,5304999984146","24,7497472816496","-73,1085042389121","18,5925192917353","-7,77468367617248","-1,20941508207146"
"1578","29,4838643198464","-13,2383555811879","-18,0347269173659","13,6198644535807","-6,73605669066341","-1,15950708837317"
"1578","6,8216377420137","-2,21033736185307","-33,1907770500018","5,36788816162287","-14,2494912763862","0,180402038708933"
"1586","98,7809801761293","-4,89721787449286","28,6457265318721","7,23012838723461","-12,3433479805882","0,111324285670156"
"1586","68,1886424145286","-2,53180189394941","6,0668356441382","-4,47401665693595","-27,4406765276563","0,0633314660272821"
"1598","-46,4505838397858","15,6650717700805","-66,3367531059001","-0,506096438044649","-23,6574034596568","0,0299877245772616"
"1599","-18,6177832703469","9,96278623000573","-45,2222494228363","16,1902912687341","-7,80552964727681","1,31205644235007"
"1607","-30,7459721512225","5,0883851436365","-59,7327127434777","11,5156631256464","-10,2780986156965","1,20279318515205"
"1607","-22,3606707300939","5,93715529948069","-52,1167490763121","-8,84568389774077","10,9388825988312","1,12688087524594"
"1615","63,5344804193216","39,6502209388352","-32,672738598551","-3,1205013570903","5,67553942661935","1,07413964326127"
"1619","40,1347645047162","28,6125298695757","-38,1381323314199","3,58548535532252","-7,60934589336996","-1,57297270854175"
"1627","99,5370854403528","-58,6577590549513","25,9583634106751","2,32274054537313","-6,07975107795834","-1,41209427931994"
"1627","78,2414176515945","-31,2691448104166","3,90653326615196","-18,8956624867585","-22,9203568650564","-1,30032154354875"
"1635","-11,5015531038768","72,2096332472447","-80,741643098243","-12,3925091661479","-18,8549246080487","-1,22266573523307"
"1639","10,7513544786375","41,6491193350605","-55,4827428822728","-12,4487397244566","12,9953695538495","-2,47394797053455"
"1648","8,87384063681127","39,7228398770664","-46,0584527232778","-11,4633068319458","7,11057605486075","-2,34329533635643"
"1648","13,3142643734038","36,2678936465585","-45,8605807736037","13,1651350031838","20,5695894659713","2,96841672585742"
"1656","14,6376930838156","35,4519088434949","-45,8144343582791","5,54538749037432","16,1116965275055","2,65880947580108"
"1656","15,0321292132121","35,2591905913405","-45,803672389992","3,57141311774383","14,2760404374804","2,44370512948949"
"1664","90,0358796245779","-120,002597371699","17,8031504660987","3,06003464788621","13,5201601758055","2,29425811300743"
"1668","68,3900788116884","-68,672128826522","-3,36287801936131","-45,8187537439574","-2,67332743621029","-3,03051163218731"
"1676","138,526891995232","109,250235546754","-17,133014543852","-30,481309227394","0,658572956181664","-2,72997640599811"
"1677","114,430543928036","57,2717130944395","-15,3443966532488","43,1296007921256","14,7363586742706","1,39452938171818"
"1689","234,89576078373","7,95524509292762","29,2423950529978","22,1992680849419","12,5332617054079","1,26009251424704"
"1689","195,799344777079","17,3077444532163","14,6406380149453","-2,37328727108823","-2,66793253262346","-5,35948349093387"
"1697","-120,503639188053","-241,528942535338","-17,0332728119661","2,26093821193396","0,0725710721356336","-4,95853460874598"
"1697","-35,7749238672055","-154,660661805816","-8,42005727726643","-31,3573109870926","53,6124178998317","-5,9852040634692"
"1705","-10,5222855822913","-134,144221834148","-6,41133890157581","-20,0664660161831","42,6588751039148","-5,69849828347254"
"1705","-2,9959618568116","-129,298675156164","-5,94287860395737","-17,1414558921007","38,1484622657825","-5,49930508183171"
"1717","-67,1292058306256","191,097390277936","-46,4697161991534","-16,3837017782122","36,2911797089488","-5,36091257512889"
"1718","-47,2435474794525","85,7681251933052","-32,9211229424468","-35,3377340133368","57,7615214828546","6,48235082788015"
"1725","-90,6736128004321","-20,2441851166233","-66,8639236480107","-29,2479720267685","52,6025062656237","5,71063822113947"
"1729","-74,6175566108376","0,71796237304853","-53,7798439248215","75,045083784764","18,7136768286017","5,17447914933749"
"1738","-112,381165058872","-114,271070869067","-15,3927300866591","43,063278163147","24,7590491606479","4,80197447886221"
"1738","-98,6362719120815","-73,4290343754207","-26,440335868054","-27,8957670396183","-29,927649500793","-9,81441148958352"
"1746","26,2993538925451","42,0462621890254","-6,04856283391227","-10,2784413344182","-16,4463534775173","-8,96936796624332"
"1750","-7,4646965784605","9,31907074790301","-14,2929255180255","-24,8648272402083","-17,2479644741014","-8,38226112472116"
"1754","-17,5277708307866","1,58960433042267","-16,2156224193999","-17,6435813155795","-13,5780491414593","-7,97435971628286"
"1758","-20,52698040414","-0,235931209540767","-16,664021345575","-15,7728428994159","-12,066863807215","-7,690964008315"
"1767","104,524091594095","131,619511594667","34,4682136694009","-15,2882087714222","-11,4445930168993","-7,49407052956461"
"1767","67,7944488319459","87,760962242843","17,3929425527","94,5165393623569","-30,2470370042232","-23,0200932622322"
"1779","-53,7798232101902","26,2516889697601","-96,1300029643079","59,9625946213858","-25,9894438518326","-21,8070337170234"
"1779","-25,013951215155","40,724507100725","-60,6050895105417","-77,8184969368594","13,881094570286","-7,91189425327632"
"1787","61,8495705670737","171,137810510859","7,7505409347406","-39,5121132032534","6,2988501506452","-8,2580347564014"
"1787","41,7384688870115","129,938658512582","-10,3080013826793","33,0853793482959","-7,9409044889457","-5,88805155732592"
"1799","-34,03578118339","-186,69660624306","1,3815805216125","15,8925103684619","-6,80450253525139","-6,24146968072639"
"1799","-15,6196209252356","-87,4791200411577","-4,8922508505743","-28,6030923016995","4,78100487559627","3,95486601692123"
"1807","-10,1308485316601","-64,0460604398136","-6,35539319416542","-17,1301382068285","2,55164596732073","3,03892533600026"
"1808","-8,49496884956748","-58,5116702501373","-6,69661778096255","-14,1579508313847","1,63364808955293","2,40256161585531"
"1816","-128,846492424868","-170,08912648258","-91,5819466631044","-13,3879749627724","1,25563802555743","1,96043824176352"
"1816","-93,7161911495175","-132,441348073244","-63,3783536222908","-100,235487810773","12,2175459732838","-3,56767285468525"
"1828","146,518535436778","14,0283155941418","19,170924120339","-72,7342339175764","9,7314033853605","-3,40841212523879"
"1828","83,1183541167425","-29,3786656760522","-4,57746764652369","70,1835438044245","-11,9392359380737","-21,5710503615567"
"1836","-15,7695737258265","-57,2686839900864","2,25159145269399","29,2078717289743","-7,86269856893933","-20,1898195422079"
"1840","1,75776091984999","-53,855713015448","-3,15577958707483","-19,7079723088247","-23,6545329579305","-23,1458927889916"
"1848","37,6168872245822","49,2519919509062","-23,8515028607375","-10,3801274404589","-19,1572411586339","-22,1996696410611"
"1848","30,3043801525393","15,6038384683406","-17,6780254840871","-0,999894143512405","3,34154239095511","-17,6265623483665"
"1857","-84,2043357515539","12,9483242267421","-152,280845452601","-2,56984772710031","-0,393984547210248","-17,4493264967227"
"1857","-52,3326377356696","9,32114825325528","-106,672043873361","12,6918965158919","7,59715306862561","-13,4104848249385"
"1869","-20,7080963743066","15,519771540153","52,3746093281194","7,64560915094478","4,88771671230656","-13,6044381399623"
"1869","-24,2826837393967","12,9837544980821","5,4664403163065","-26,7395373255834","-32,7571035566649","-15,0444249450618"
"1877","-45,7715646121345","54,7165117696808","-166,250748256648","-16,6473650232477","-25,2583604371003","-15,0448776810745"
"1877","-40,1761339930342","40,5729012621919","-115,297519490784","39,9362460487489","36,5937116957484","-3,29807912237183"
"1889","85,7345349828774","-5,09922921325598","-18,6087865935624","23,5948155064958","25,0629489471951","-4,13681214698965"
"1889","50,2610874370242","8,11398514521243","-44,0596661506285","-6,75269594432588","-17,8025106736312","-11,2457086201675"
"1898","-72,6407457338093","111,772477846778","-67,6630202710294","0,385467455927672","-11,4535047847133","-11,1847225760145"
"1898","-43,2705414986021","79,2544087104397","-63,1676417400469","16,1621997743628","-42,1918235579313","-9,83711680487447"
"1906","45,4750550350009","-103,043973480272","-49,7517533472273","12,2493253947444","-33,8491445909952","-9,90084719738283"
"1910","24,9248889567787","-47,0989733460278","-53,6229866941342","-9,65562110170577","36,2915574893163","-7,33465527830825"
"1918","-11,8351653093098","-18,0115629686648","32,0467264877196","-3,33032396359782","23,173858771471","-7,55175440902247"
"1918","-4,79117178480203","-20,1417354098968","3,02606247615031","-50,4380008558248","-13,9921704633355","-10,3130569109623"
"1926","14,3278168365786","16,3954099043697","-118,583069670381","-34,6417315940271","-9,29627238966003","-10,2315138254571"
"1930","10,0260609584308","4,024706378077","-81,9439643223742","21,6786451079802","-2,59794121168527","-12,7853301051291"
"1938","136,390879556634","149,263996285507","46,7422508185601","6,26902098064045","-2,83972503431652","-12,5596328106982"
"1939","99,0527872571756","99,5664269067782","8,75361695821927","2,27699853263918","0,237160798668739","-15,0132957610363"
"1947","-124,820362617167","250,100475331866","-35,4415757945065","1,2428238445576","-0,495849550481749","-14,7180154176509"
"1951","-66,5437592138588","193,65341528036","-25,7484925832416","54,9440396950384","-11,9152497295571","-6,68145617171493"
"1959","-23,6455533599749","67,4372590235712","-187,799076424809","37,8558948699959","-9,61749174669433","-7,09793439411809"
"1959","-25,8601255224615","101,627687894151","-132,591464673144","-4,87163826399069","31,0342557512338","6,97029370853877"
"1967","-26,5201590136261","-297,739974165088","88,7645009798944","6,05935252403456","22,773694964957","5,74440917009115"
"1967","-26,716876111781","-161,062120251714","22,3877065045551","-130,384034190327","-29,8627355970584","8,80841160845256"
"1980","-36,9872593764112","-114,671148503155","-122,06767237343","-85,7311041865809","-20,5371871040968","7,93717390804639"
"1980","-34,04825555282","-111,714587844723","-82,7566208097681","-89,8317579594403","-19,8735910171225","8,63710305290255"
"1988","-11,0468457741713","-21,0614261959137","-82,4226841790733","-81,8940747153495","-17,6003376628617","8,12338947268542"
"1988","-17,1914806363456","-50,6510778663458","-77,3448056395556","12,4320662364357","-35,7229456290286","3,85077478092179"
"2000","263,502345531068","-59,4033454072872","-19,6234085460289","-16,1317717260504","-31,1854118971576","3,88231073446978"
"2000","181,160638167428","-60,4704448147086","-38,1619979328617","13,0282036166124","-64,257875933066","-6,5376574967276"
"2004","156,619426325111","-60,7224709944868","-42,4854477537435","-0,4176032902191","-55,876343414823","-5,7770889200919"
"2008","149,305136908817","-60,7819942168331","-43,4937347362989","-3,90087858363329","-52,4250242774569","-5,24867233271357"
"2016","359,870042467665","22,1035474886274","131,182979903676","-4,80325706145786","-51,00385174582","-4,88154687106002"
"2017","297,627035482834","-5,32065077294353","72,9199526508488","7,14955009234494","-66,3008799153341","-15,0683591869585"
"2029","-103,864693650688","67,5742942673953","-43,1413888625422","3,24604836383447","-62,5998384830375","-14,1458019917102"
"2029","1,47427559013423","39,7905296020718","-12,2084636926141","21,3851421559742","43,7469068794964","-13,5048413475947"
"2037","259,230151957381","-63,7815745790009","5,60623173057434","15,0842619402231","21,5380103164189","-13,0595241906521"
"2041","203,051993136786","-33,243102311853","3,76085968684993","-30,0715377522465","33,0398098680879","-10,1396637436401"
"2049","116,528278206422","23,356430837086","-100,90990792961","-16,7696145216834","24,7759820204266","-10,1110462850331"
"2049","131,740656289465","8,72403653300526","-66,3205468439367","-4,61891547645545","-43,7440276332303","-8,78592908104907"
"2057","204,352926547053","-100,561100100275","40,6862025344782","-6,47115126451738","-30,9589656646045","-8,86528374765535"
"2058","185,994366393246","-66,3719245658079","9,64162399506962","-8,69193175655399","23,5405487050186","-11,53088618797"
"2070","-447,500078263361","294,467085965641","-255,549216691213","-8,26724790333556","14,982174566594","-11,3828540289884"
"2070","-267,307450189602","179,689584175955","-171,395308038323","28,4025037237046","51,1636206648172","-9,97477164554099"
"2078","181,251824446024","22,0588057072569","-125,267681079231","16,9021820058021","41,0622942742771","-9,99648499175881"
"2078","82,9409175571747","58,8297690901967","-129,510094493078","55,7054566322288","52,7850380198737","-19,1482141946002"
"2090","434,879025008403","-103,576375049529","191,055655353747","41,7578461054946","47,61218982577","-18,5065172622438"
"2090","315,771040572297","-44,9332514524076","83,8159245865557","-66,3118062726447","-78,3992917021638","-37,6392103977362"
"2098","-478,801708276753","-43,4297420756476","-186,777150999698","-34,308367037278","-52,2878737459135","-35,9319399747777"
"2099","-269,617032830576","-36,0746451447992","-110,883116602787","-50,3907004806343","14,0520159765364","-39,9667270369974"
"2107","-207,271405096389","-34,337527713669","-93,1836011449187","-40,5569952319913","6,3692315897309","-38,7699567203053"
"2107","-188,689846532029","-33,9272575298894","-89,0558347146222","-38,0094722181131","3,20564059670838","-37,9384823391003"
"2115","21,0832910955656","350,682677043054","-134,029632037673","-37,3495100429061","1,90294778805406","-37,3608028654723"
"2118","-36,3956952629381","223,519361836465","-118,518129944575","35,9409257500736","69,6601346516074","-31,7385121069712"
"2127","360,049221481103","-146,931413749811","162,484838395243","12,9275708811693","54,5609600922145","-31,8323400836706"
"2131","235,206094797544","-41,4240063963574","71,0185318055383","-34,816828496843","-85,0672908385193","-35,8132328656473"
"2139","138,429151798534","-127,626141413705","-36,8851853429292","-23,1855087779672","-58,5629401729696","-35,5790186779879"
"2139","144,585646658401","-84,9852519389818","-13,0497918209915","-202,97095957091","39,7032176370012","-28,890120861926"
"2147","137,910740496504","440,121430736023","179,788310488307","-144,54623937388","25,1669240375678","-29,2429073615728"
"2151","140,921344218585","272,140458663699","118,760764513342","119,543659981911","-63,406397538706","-36,0141850949528"
"2156","141,818627819842","232,466926495666","104,528315257968","44,9588787962525","-47,8788205891334","-35,7186332959168"
"2156","142,086055198337","223,096882167013","101,209115565915","25,6369201091388","-41,4849274238512","-35,5132941879945"
"2168","-283,323969087371","127,401349562711","-443,735200313202","20,6313669443825","-38,8520717025876","-35,3706317194192"
"2168","-160,113634496358","157,8001004791","-262,823586366542","127,272885636596","51,1725859653409","-27,4401060634283"
"2180","269,760616622433","11,5271880385342","86,7882955008514","92,8994736046277","32,2426352872139","-27,9302527352881"
"2180","166,880805042546","63,9806377630419","-5,67748436526199","-138,845590790874","-12,0814135565949","-45,2388418522619"
"2188","-163,326374630771","132,811307484629","-136,782516347832","-70,881545700311","-7,33302060903081","-44,264247416586"
"2189","-85,7416808914125","117,06764744777","-105,357983294866","153,897062527246","16,8573839020816","-54,0290114227699"
"2196","148,424650848128","-218,249069437683","73,3489307582724","93,1282849412215","12,8184269271023","-52,8132297447082"
"2201","94,2158385408898","-109,443744820954","18,0258005260534","-84,5218836586193","6,3906087348038","-54,579016509668"
"2205","78,0593852786666","-83,746241746758","5,12369818686476","-37,5439965331014","6,74378348055542","-53,8058237234307"
"2209","73,2440984110082","-77,6770381799797","2,11475339158362","-25,3738891758422","6,8892125839078","-53,2686362744089"
"2217","83,7226574878025","174,218999339092","-88,6930833483496","-22,2210970400128","6,94909688865012","-52,8954171232179"
"2217","79,8456986092378","91,711484852333","-58,870699255134","1,22788195395508","-8,90847794684979","-57,857056598317"
"2229","94,0078358074859","-202,931153464685","54,0914724956736","-5,69741760214837","-5,43825652646546","-57,3042310935228"
"2229","89,2287345506619","-116,51947674401","20,4357790139106","-61,4606175474067","0,755369661041368","-56,9201471652184"
"2237","29,9377629305595","179,045241639968","-95,1871588131509","-44,9066510206634","0,305760122941641","-56,6532990138535"
"2241","46,2666173901862","92,8513406158303","-61,1519919731807","42,9469288922224","-7,8204954694024","-59,0783717804045"
"2250","112,403807820846","-49,2094930426474","15,6901417734308","17,7063070737627","-6,16669753685727","-58,7632279719571"
"2250","96,1154078469002","-13,7612399127663","-5,38923317518672","19,8721613383956","-21,3679360048765","-57,2390422281626"
"2258","91,2607954380555","-5,38911660916151","-10,3052285588825","15,4332482780942","-17,6274506129924","-57,1800909987688"
"2258","89,8139214861752","-3,41179918384447","-11,4517051821898","14,2833019565606","-16,0872061782247","-57,1391337354596"
"2266","174,480639329391","-105,246432696972","27,1502233614047","13,9853964728432","-15,4529695296924","-57,1106780537879"
"2266","149,714799818775","-71,2976068190227","14,1527152751657","-53,9884258075099","-10,427135568138","-57,0909080361164"
"2279","9,58076679524743","53,1325876734408","7,58794762356827","-32,5977472404827","-11,35761464282","-57,0771725156239"
"2279","45,8150674812789","16,5203526266396","8,05695500405489","42,5813156432969","26,3765969292433","-53,1519251858571"
"2287","-30,1855268518236","34,3306406483584","-66,038697986533","22,0572291484991","17,9146630583934","-53,4247998978442"
"2291","-1,83682648341506","23,5370518033514","-41,3188065733176","-18,0785408764306","3,31267286924297","-57,5300881225835"
"2299","-3,59950254104561","5,11344427292241","-95,6245335779308","-8,47612705915058","4,29991469241126","-57,382299560922"
"2299","1,87514757340183","9,76218009703124","-74,2893637217882","-2,50664315955748","-3,23467910181875","-57,279621209744"
"2307","3,50681823609378","10,8601126067863","-69,3137135054595","-2,96018663776095","-1,33724867339835","-57,2082838634562"
"2307","3,99312313153609","11,1194209094276","-68,1533245682172","-3,07768176490818","-0,555931183407772","-57,1587211570336"
"2315","77,3222952951277","-64,6636507186331","-32,546976715916","-3,10812009236033","-0,234202907618827","-57,1242867128644"
"2316","56,1774013635628","-39,5620001146213","-44,2430947412913","-25,748221050716","-11,2192863799047","-54,4898932803547"
"2328","208,157533275058","252,105521977263","78,471051885292","-18,6133732766174","-8,74268693116939","-54,6596083722189"
"2332","160,453856760211","158,991186093438","36,0896508618248","56,3544485736351","-47,4284656594919","-49,5565813564685"
"2340","231,334146957074","-240,45819162595","20,9053754216493","33,7756379051125","-38,3583648966969","-50,0111757167955"
"2340","202,459385585951","-120,799637213177","20,364196987724","-31,265584916589","-34,623509454409","-51,6322468526453"
"2348","1,53216302253321","-205,423393603321","-61,0341908908629","-14,1151861400881","-33,0855833012613","-51,7585106818616"
"2352","54,6475955087616","-161,409724673478","-34,0173960393466","-115,869517351676","0,900389696603611","-49,2357648191155"
"2356","70,4781766622973","-151,0146323688","-27,7167140174149","-81,2300288749472","-6,10498118822761","-49,4830487583078"
"2357","75,1963402529573","-148,559532699763","-26,2473097390882","-72,2563112525268","-8,98962913853269","-49,654853036417"
"2365","22,1398615860736","-123,286192564905","-27,6714112571682","-69,9315769245058","-10,1774597236652","-49,7742166718922"
"2368","38,3268510928482","-131,31716726124","-27,0035309953416","-37,9924165610744","30,6272272714997","-47,246676794588"
"2381","128,249184742355","141,9422059232","-25,0809858109457","-47,7182468546948","21,4296433945796","-47,4906300192458"
"2381","105,049734671472","50,4802568613845","-25,6326222672223","99,4829871126088","-9,35750406029608","-55,4915289687257"
"2389","76,0098795011242","-11,6889991256611","2,5073122132826","51,6169886635219","-5,03493160289035","-55,0502752129426"
"2389","80,35480954419","-3,37205487201529","-6,93007441033085","2,65707400172042","-19,137231115424","-61,2698814009752"
"2397","39,1008043473394","56,7983324398482","-99,2371107436804","10,9735019192988","-14,9442283540005","-60,591047404513"
"2401","51,8054158583827","38,0092979267749","-69,7643602756762","13,1279585536598","-13,2176478459571","-60,1194171599483"
"2405","55,5919120636402","33,5717276712596","-62,8909161816885","13,686092819398","-12,5066823588409","-59,7917448737231"
"2409","56,7204435027925","32,5236679767111","-61,2879360402706","-0,0968340177841238","16,3740974327996","-54,3431504114478"
"2418","-82,5038387533493","28,7484960263673","-94,4830423699187","4,33255628541149","10,2665273410521","-54,5576565319878"
"2418","-41,9983949610967","29,8568807203948","-83,2245902040277","21,1484925885999","-0,189544128610804","-56,0119227113417"
"2430","274,724537174717","-167,429324953539","142,016128705069","16,5048347454073","0,504890094919507","-56,0222962598166"
"2430","190,120983662501","-102,024129892184","68,5453112390169","-56,0766789360529","0,790841872842636","-50,8085642831042"
"2438","-52,9450923206311","237,966300031813","-195,939183438118","-33,8796704647191","0,908590129663434","-51,1862446879059"
"2442","2,61123055181991","134,264807011552","-117,620545340986","-66,4299784739174","-38,7485083714015","-46,2277047366113"
"2450","71,9300236759379","-123,051687629968","-19,850188227656","-52,8624722964976","-30,0783743823286","-46,7826836827147"
"2451","61,5898720222923","-51,8243698069141","-42,0488183861397","69,0362274092983","-20,1553223896925","-34,1159158538639"
"2459","58,5080819994897","-35,0019925457623","-47,2258392252056","32,6153458606262","-20,0692415722858","-35,3154862346937"
"2459","57,5895819558953","-31,0289048967295","-48,4331905156581","28,4029589288065","43,4951396643996","-15,2651493738333"
"2467","144,115735846799","-81,2413630258559","39,6245624694861","24,3116965428761","29,6694657723644","-17,3348728606128"
"2467","118,904084674203","-64,1004774734387","10,1608216436219","-86,4273859295151","3,32947256723139","-16,1623751562901"
"2479","-63,9117914041652","75,7620730685141","-86,8166313909107","-52,1154901589053","5,48327917370811","-17,3477645417316"
"2479","-15,3984335521646","31,7946322302756","-58,4330852754509","-1,44408694637087","4,78194300073414","-18,1713318478385"
"2487","21,1860061708183","116,656806751791","-50,0468718976368","-12,317136060056","5,49314916139227","-18,7435177607702"
"2491","19,0896722972586","82,6994471127416","-49,0910934956436","-20,356730831241","35,962251435985","-15,2253482591348"
"2500","30,3785910757628","-131,68764778834","-32,9671147883822","-19,4394709768921","29,5087154089853","-15,7810464841443"
"2500","26,7431526823189","-65,3213189776405","-38,2067848409847","62,6223187457748","4,61617284266698","-21,3880654358181"
"2508","25,6596426773685","-49,6470039140756","-39,4287467755046","36,8812737980808","8,36600578194869","-21,283627139031"
"2508","25,3367121793728","-45,945064133548","-39,7137248284021","-16,7925808794702","6,7336525597674","-17,2953626757832"
"2516","98,4246989479014","18,4268211146776","27,3577003997315","-3,69734785969703","8,06148766600922","-17,5244552757512"
"2516","77,2079218593919","-2,36990896369805","4,99966405392558","-61,2377804964578","-8,8621980523414","-17,6836208442319"
"2528","-109,523194354212","10,356558526271","-148,624596176531","-41,1442244729929","-4,83097616868","-17,7942035439494"
"2529","-59,1767389220026","3,36227941905949","-100,451851773886","52,8491416777543","11,122997169141","-7,42915424200755"
"2541","177,083232193283","178,092506768096","64,4931069953636","26,19909496255","8,69247039829129","-8,22787858009747"
"2541","117,498410438179","119,360069456536","15,9605026297256","3,62666787976628","21,9856467107923","-2,25663051649101"
"2549","101,441644399131","86,0866831689305","-48,3615514032528","6,77904727100192","18,4594659322602","-3,10801509759271"
"2549","95,6560684196756","89,2282171478365","-33,3623245033439","-23,7412101563913","-17,9334472157212","1,52141167185754"
"2561","15,6416190064093","-63,4822700944436","-68,7336042930136","-13,6477983873636","-10,9191980123379","0,737776336634522"
"2561","37,7940256497966","-12,5492385924829","-54,9826652156115","-14,5148750366098","3,0866694764801","9,32997729314867"
"2569","75,0316134331149","-123,987429142987","20,6624851727627","-12,7395002071737","1,85395826219539","8,29953960085462"
"2569","68,1299445164318","-80,306759142157","-2,69604248687209","-12,2795710022717","1,34635660397282","7,5836273404815"
"2577","79,6886349371521","55,2409962722806","2,45715172317083","-12,1604215866022","1,1373381084448","7,08623640807927"
"2582","75,1335995767839","16,2544926129493","-2,34105367857328","-83,5080808056977","15,3452795916049","6,74066649214149"
"2590","-2,81213926012419","15,8658161672836","-49,3965083765823","-60,9914295792504","12,195777723859","6,50057653669239"
"2590","18,9568281289693","10,7740190590765","-34,3704769423956","-11,6347667540132","10,8988864876009","3,72330080956209"
"2598","25,4448747992297","0,752338534904809","-36,1665625695631","-23,8484129579332","10,3648569968082","3,7937462539026"
"2602","27,3785792714303","3,38543078488723","-33,5854340338926","23,4747658911778","13,3214028961187","1,23221971922887"
"2610","27,9549026513079","4,00731116093422","-32,9834799438396","6,73432463935365","12,5388393757341","1,45256019671922"
"2610","28,1266706970298","4,15418607658327","-32,8430961072642","-13,2709166942032","20,1577149098325","-4,92052885164715"
"2618","-113,084725273958","106,490508633004","-96,414669717076","-9,45348129287841","18,294989731449","-4,34832940697962"
"2622","-72,1715230102353","72,6601710347204","-75,2404206305589","19,3904993941098","11,1750695351842","-6,56125471790962"
"2631","-24,2365705923223","-104,656677232426","-22,5990645498902","10,8628308047041","12,2432528565037","-6,09871823776374"
"2631","-30,9499853416159","-50,5351447569019","-37,3223882198348","10,3945897514688","11,0948823957217","-1,86165961471279"
"2639","2,79027844435564","-103,01417720165","-17,787842319606","9,27328706555355","11,6220102879709","-1,91789868783069"
"2639","-8,15373671274561","-78,4086082860681","-26,2321219672614","-64,1366637564561","3,89795233409069","0,653497939338436"
"2651","99,2118265746935","-3,80826669751194","-38,8021610454421","-41,1542704914701","5,71736585109037","0,440014858740021"
"2652","66,211175599246","-25,189252976806","-35,7336641963581","-75,2420561110447","-23,7096864041431","5,5126333985767"
"2655","56,3756257612252","-30,2389871012794","-35,0180492228709","-61,0728494043454","-16,8270585414821","5,0369122870752"
"2659","53,4442278112828","-31,4316268792005","-34,8511581307611","-5,17398007919431","-18,7576234357147","4,70639780882079"
"2668","212,554688749917","67,060688256188","30,5588626217646","-20,6928000504108","-16,552584924069","4,47676784770556"
"2668","165,976143238094","34,3224778780831","8,8133642780366","30,9969583460274","-31,5268354091863","-2,2089450072357"
"2680","10,8312330682371","5,42455374778977","-43,9612148568372","12,3877246713554","-27,6928816727439","-1,85394570740488"
"2680","47,5916756356825","10,5994788096656","-29,2689606052729","40,6446638516536","-21,3494790212602","-14,6596524373287"
"2688","34,7203730375474","-238,640934722076","5,95962834153479","28,9649160906049","-21,7374141131503","-13,5566119713738"
"2692","44,8841960397545","-155,506218342222","-3,82458817063545","12,01163938874","20,984874524418","-11,4850230403367"
"2701","32,5958026491347","-155,273600847803","-25,5410510150835","15,6197177817134","11,5769141718195","-11,0457551202348"
"2701","37,9333565442816","-144,21866154406","-19,6056239141252","-77,4563139092252","17,2322763246292","-8,13009747253081"
"2709","39,524166900959","-141,607720050675","-18,221402024259","-47,5686222180229","13,5610222412316","-8,1043999726705"
"2709","39,998293746444","-140,991071212127","-17,8985827548462","-72,9037602428375","18,4021791575829","-13,3074854010702"
"2717","-5,81328766611903","270,124924701686","-24,8904428254229","-60,4670896843929","16,3956543932906","-12,9224081448872"
"2717","7,5329788824698","134,221777324119","-22,5210391744222","80,2889916354008","18,7458611647567","-11,3496350745435"
"2729","-22,5284636389341","-120,11713541821","-46,7034728102236","37,753309757501","17,7136213672583","-11,2569270609837"
"2733","-11,4880085988819","-54,1865760922446","-38,3431434555777","77,2212517702467","20,4650159100331","-16,4134559157156"
"2741","-25,2170885399099","118,364912773496","-75,2627039587361","58,4458302018358","19,5979758573046","-15,9960327718201"
"2742","-19,3089184280723","70,117903780176","-61,872844887678","-57,8382751852652","17,6527256550918","-18,3164912719633"
"2750","-5,6343285930915","37,5571313334474","8,38773734051004","-23,9628749298789","17,8517171002423","-17,9286651106755"
"2750","-8,55873899528289","41,8669695422352","-13,226544452404","7,44511333393993","3,63964671216132","-21,5749213540015"
"2758","-9,43033344591902","42,8848616445725","-18,2672873480009","2,58167741620548","6,78744839339135","-21,1082133410673"
"2758","-9,69010440207841","43,1252661056699","-19,4428567785725","43,1043059269417","-1,44570074269564","-11,6473173248559"
"2766","54,9069119322194","-120,85333385055","-9,11629663540242","29,6021118000822","1,16408092762323","-12,0742159109879"
"2766","36,159476798777","-66,5815908666544","-12,7080031201997","-62,6836939042382","-2,52594213282831","-7,14987103981438"
"2778","-68,1416461608152","297,236673609875","-73,6163777322938","-35,5912860011734","-1,04540735928169","-7,72860753796204"
"2782","-41,2276660636907","184,162808224769","-53,8210346137877","-54,6868125467343","-5,20042789091865","-1,60451957639236"
"2791","65,5074228214372","-3,05056920497745","-68,6391440226802","-44,6337061241732","-3,91136820473057","-2,34971631358626"
"2791","39,3188645707623","43,7336136098045","-61,0949275848959","51,9813967341894","-4,96878694237568","3,65872086493361"
"2799","60,4468997897398","-236,247467664298","-59,3355142592089","23,0105380188391","-4,40420725691847","2,8331739870895"
"2803","49,7439223403046","-137,373043063316","-58,9251952716596","29,4328548324134","-8,93639667952019","2,25961273658287"
"2807","46,5539953234875","-114,021007314208","-58,8295033332813","23,096622402349","-7,80264632471901","1,86112233354018"
"2807","45,6032660128173","-108,505753234821","-58,8071866788041","-116,079077348765","-26,3944749853783","-1,02620451393333"
"2815","123,610019685341","-144,243414276518","64,8730709603875","-73,133981286168","-22,050155365488","-1,03221875940297"
"2819","100,859237224084","-131,68388957236","23,7169800938721","-77,6770670985235","-21,8494894920119","-7,56257119455371"
"2831","10,682582512134","28,262496270177","-0,0154688064630424","-69,8540004485032","-20,7668599767248","-7,09963287993672"
"2832","32,8062344575075","-22,9615699106501","2,44980307554331","66,2249997571507","0,325845476430924","-11,9989386015567"
"2840","71,7372110739449","-50,9339961159761","-46,4452834106524","24,4776716609864","-3,98867154884426","-11,4028057733945"
"2840","64,3402416032116","-48,5404881322094","-29,848278994604","3,2169567313621","5,35227486466768","-16,2095725807506"
"2852","155,743381091961","17,2861946325643","-24,2108465804229","3,70914871747072","2,19865821376226","-15,5491469343241"
"2852","127,98527200078","-4,16694322010447","-23,8961210825576","-34,4640164050974","5,66474274364291","-16,3955409602762"
"2856","119,712215036581","-9,23371801133881","-23,8227228390893","-22,3531694967801","4,09199531871414","-15,98358608403"
"2860","117,246504158796","-10,4303824322452","-23,8056053758372","10,3802448465922","-4,49674219734456","-19,6130785356246"
"2868","-65,5979828421252","102,171552350954","-0,833389205921918","1,86017425814938","-3,03338350852104","-19,1347236233964"
"2872","-13,0931522205385","64,7657339817196","-8,47595764450968","24,02611714055","18,2160973171481","-20,1076140613512"
"2881","-53,6091996889403","17,1272074087008","-34,9933186059117","15,7684338146254","13,9661367249888","-19,7835444914397"
"2881","-32,6846464554772","27,8760008397889","-27,1775258887087","25,8157732021241","42,3923465189529","-16,947922649775"
"2889","-80,9109551616299","-183,007736825229","-118,99446035748","21,4186403484045","35,0975951296518","-16,9778312435591"
"2893","-63,2843765567425","-111,813989561794","-87,4074115049331","-31,9486722131129","30,5055636738804","-11,7776715367164"
"2901","-23,9917536456255","-262,56256187424","-71,2069520632365","-15,7740262888879","29,614672478482","-12,1647814824534"
"2902","-32,2809376621353","-203,166167801392","-72,4287857739958","-6,36099805151098","27,6596009333388","-15,0442015841094"
"2909","-34,7514550640971","-189,138003052472","-72,7137339233777","-6,92245576671837","27,8545481790858","-15,0447224976554"
"2910","-35,4877707522564","-185,82484895794","-72,7801876863745","-76,7054936386149","16,8172592426696","-12,4346148316129"
"2922","142,998462946184","456,988590879425","146,285837019903","-54,7835110757882","19,2723617017988","-12,621202829133"
"2922","91,1946937795616","244,80745088966","73,3749973392083","43,1654071961082","1,22463494552742","-15,3613072571914"
"2930","96,178549159906","14,7850094918789","-72,6042092682372","15,5400871537532","5,79300300896957","-15,2650364874201"
"2930","85,6639428273017","62,4586020685716","-33,6485349442623","138,953936968848","-5,03163686107755","-15,1981509057782"
"2942","-336,151734831153","-314,322589547274","-420,323714628465","95,9255707209015","-1,48897048798578","-15,1516811305577"
"2942","-215,870137269789","-183,31029179396","-286,501597177206","4,69540316765072","-19,0888638508773","-15,1193955473867"
"2950","-351,919129737516","-489,257837186674","384,284233996376","27,061285047836","-14,3360884660343","-15,0969646473931"
"2951","-291,467319130034","-370,51613902959","178,720563704253","-116,865412872353","27,3265778016509","-11,1656760704555"
"2959","-273,450195877803","-342,471875900231","130,780335083863","-68,1511120053194","19,4822897302733","-11,4343535340791"
"2959","-268,080352906617","-335,848417530717","119,600025270805","-170,433186351605","17,8404186749877","-2,484377763415"
"2967","759,801306381427","491,184258134049","910,279752054778","-130,930415190177","16,1643345600766","-3,26624596158229"
"2967","463,152271852889","218,511782776979","645,676960052011","102,143462719493","-81,4074638249969","15,7690610548886"
"2979","-423,480059315767","-242,747441772538","-1287,05886504458","34,5236605081807","-60,5852492479687","13,9941301444314"
"2983","-218,732921712268","-126,687058308916","-678,799004030602","448,759087599108","-148,892774224252","8,84526552851784"
"2991","763,04991018585","-593,146021071306","304,045784668201","308,071057705536","-124,255748448919","8,2680135189107"
"2992","514,661531103011","-423,313705160269","57,2584845661029","-132,273632377505","98,7111355857933","10,477428483496"
"3000","423,611999837136","1391,20127553475","807,12576588544","-14,3494770018295","56,5236856406844","10,0124531368324"
"3003","406,475498706894","813,751114054472","525,004959520741","-607,056404042643","-75,2002032407133","-26,8571696589784"
"3008","401,368117308837","677,369669928409","459,210571161784","-402,603261401405","-57,4410210810227","-24,472900908181"
"3011","399,845907813038","645,159274048997","443,866429780261","640,957106204023","37,2240807934055","-29,3425678738598"
"3015","-1052,37872724938","1450,67347053724","-411,303111426012","342,302208647771","21,2049565495746","-27,7258430691818"
"3015","-632,20133383326","1179,91878815824","-128,74021651546","738,46815751964","206,783684585459","0,807331656187973"
"3031","313,372989393742","-1787,27752321873","-432,101099935065","569,099042475771","162,20066610575","-0,368811194542226"
"3031","113,192987083223","-842,066171218681","-293,848961582759","-486,263720985794","94,6074966561084","9,25592398459543"
"3040","524,973741228836","-564,148897765005","745,461596725811","-178,666356099292","97,7742097519518","7,94285514901052"
"3040","370,701324171071","-529,510749870081","417,842877922498","-612,557278560836","-16,8621185131015","0,504406656195937"
"3052","-742,406433876044","1605,83849887764","-299,905728691496","-429,961207958269","8,93332161465515","0,336431421997865"
"3052","-447,158278332245","904,162566449423","-104,294412908621","0,348917417658924","-47,1501011448701","18,4930151235861"
"3056","-359,162197570223","738,441637862705","-58,6752079876347","-108,174795691267","-28,2439434508732","17,1075778241403"
"3060","-332,935750142586","699,301879888387","-48,0361922983128","345,951300555487","81,1874665461256","37,0287808161312"
"3064","52,7156877419432","912,299382049558","35,7171478240595","186,597360930432","62,2487627624848","34,8693396097413"
"3068","-54,344339096929","836,604860994302","9,24955969178864","460,425154001758","106,861618830477","50,3370872462836"
"3081","305,19792463463","-2110,97970885809","-39,3259152403038","350,363074861745","92,2321499457456","48,0835401916383"
"3081","182,356291190417","-1146,13648070774","-26,6543730863776","-146,46241350393","-26,555783239724","-0,470598318281851"
"3089","-106,145481932582","1157,75660296236","110,576573884928","-6,17019286995189","-4,46987695693294","1,79567541077855"
"3093","-44,1308635548957","524,88713893366","66,5806870740326","-775,881105766103","-62,0807990278276","-9,68214433766576"
"3101","-323,490769420764","1435,4734194606","-93,8565990579548","-512,282675678596","-43,8036298385187","-7,65653419327195"
"3101","-231,751499002518","1049,53452814796","-46,2727444569559","-12,2417410945771","-66,4537630772949","-16,6910890491667"
"3109","-204,40942726661","958,383972043345","-35,1755458859753","-130,700967141673","-56,7805584026999","-14,9679834569683"
"3109","-196,260366527374","936,856149724317","-32,5875290647994","843,133130101238","37,7313737455968","21,4705096746108"
"3117","119,328828653993","30,4590656201848","-0,181812023633782","518,414921318028","19,6491777895328","19,7867070318157"
"3117","29,3873749492339","327,387356011708","-10,624360449854","11,2449744603209","-25,9140088587843","23,8377986912647"
"3130","448,494362064305","-618,44555147782","-53,6957928752384","122,857356172119","-20,6758638890483","22,6523562415014"
"3130","311,405463433181","-265,831163657237","-40,7406335542664","-769,185383149223","-56,6362793553732","11,3868737535418"
"3142","-292,801061429675","697,5956687864","-64,2211122445801","-471,278277467736","-47,4439377181399","11,5600084394503"
"3142","-141,879429949355","426,136591766901","-54,6970775011363","-150,370809162847","-104,011234751804","2,54365287069844"
"3150","17,1326641916608","340,857877211128","240,810610713735","-207,23641168384","-89,3043251712972","3,27940269446283"
"3150","-2,47519866729873","332,716858955083","143,727001007661","523,154141029686","75,5739742794101","23,3690979156638"
"3158","-8,31914739757854","330,794123625734","121,085789951311","284,36936510951","43,4670032680855","22,326719248398"
"3159","-10,0608842205967","330,340014443019","115,805553259967","151,131174039982","41,363666895885","11,1606324994251"
"3166","215,780542278224","-724,532357655124","-176,945637369534","157,614443113563","33,497562152165","11,4028238868707"
"3167","150,090566176586","-375,670771793993","-80,219175138758","-286,386552257413","8,02335681304829","-14,5336057493271"
"3179","-51,5973494598527","-56,9250359337083","-195,470600580463","-145,409600568575","11,5336746213103","-12,5533347496516"
"3183","-4,70863476281862","-115,644073756447","-144,348792026692","-159,375313867137","-45,785123604656","-24,2298592446304"
"3191","-75,8318170644812","690,66463051081","291,602258728189","-133,993276286564","-32,3876646456315","-22,3423022453245"
"3191","-47,0294475199258","416,097593967759","153,271940976946","97,1634192579679","31,893360762564","-19,7256585197166"
"3199","-65,6765006691273","333,612488033424","-205,844057810842","28,0469511335031","21,362784185779","-18,9077054904358"
"3203","-55,2340886305783","324,131260705721","-104,594766574996","194,68121956272","53,5556766700003","-11,8132462350961"
"3207","-52,1218208116583","321,891996503725","-80,9820622357463","131,849549606247","43,8119571504645","-11,8842627559418"
"3208","-51,1942371326263","321,363129934764","-75,4752601692107","150,391149119696","6,44703028932412","-8,0178981960306"
"3215","172,038838717044","-349,013860784552","-47,6892023440228","135,194542172497","12,0610269705456","-8,33168260802135"
"3216","107,57146695664","-127,342645157587","-56,2091177906292","-152,515460739858","-14,2152812728205","-2,02351515449436"
"3232","-229,908775517035","138,433754408977","-86,4646608879092","-64,0497115852689","-7,03525068799259","-2,64081986467777"
"3232","-143,491753309404","80,2044861628578","-77,5206628120647","-286,604236854492","0,685988181008","3,45647224493156"
"3240","67,7775914761568","551,502821742197","94,176699912145","-203,259287583648","0,865413830762881","2,69265868200525"
"3240","21,744536323105","387,813462743231","38,2188474901651","65,545515099111","8,88041401457359","11,298631116325"
"3252","-157,065220111494","320,932377922512","-192,146016799693","-6,81782163301109","7,18080370585849","10,2777613677099"
"3253","-113,357874012332","321,136488439712","-122,870219351957","303,473303789834","33,4807413629297","17,3999053176986"
"3257","-100,331289137817","321,184695001861","-106,714166277089","194,857427884457","27,3104408182283","16,3481231595631"
"3261","-96,4488316418166","321,196080366349","-102,946356153288","84,8951981937846","-3,81836551516045","6,48073798160091"
"3265","139,57863040939","-700,053747637832","7,47310944701097","103,408345709264","1,36351980378978","6,62522203963247"
"3269","71,9245114004459","-362,251232109331","-28,7755775048367","-264,356719507971","-26,6789451753499","-2,41103898863215"
"3281","-6,10579875959974","523,596857729722","5,17361369978949","-145,630061920854","-19,2261766429563","-1,68911878563974"
"3281","4,63796290054599","275,815332028635","-10,9089756725726","-121,836452420236","-16,1573008011907","-5,10325811169587"
"3289","-31,3050097463395","-80,791188433713","-120,666841433032","-111,672471880508","-14,8936094774581","-4,47528333983367"
"3289","-19,0174923291249","3,98593747313197","-86,2638604489171","202,588811707793","4,68542961611827","7,70812478877107"
"3302","79,9543919132048","-289,951695408289","-23,4702392504947","105,001446322053","0,747620172298746","7,17273290396855"
"3302","53,4520797240454","-181,373511401207","-39,8259173628937","86,6841890222022","27,714143132086","14,6321699842865"
"3310","45,5533018316578","-155,729654107079","-43,6402827458218","77,9389141392748","20,8183268308024","13,8147273589032"
"3310","43,1991414947046","-149,673120532354","-44,5298443509411","-185,467588907536","10,0376740006298","10,6363270824128"
"3314","129,297409633406","-111,202449411757","34,7680891238185","-103,705766842503","10,5984532083594","10,4280851447106"
"3318","103,958230926766","-123,116495274216","8,26143989198741","-103,415797447012","-11,4057583334776","11,5886406803178"
"3330","-152,079886920961","119,240817466216","-22,6552798892705","-91,3406778771594","-6,46657820522503","11,3949542915128"
"3330","-82,3897654866277","37,4804591026842","-15,8654771600225","84,1405331439896","13,0377178687971","12,565622516116"
"3342","-48,0035747314101","-309,900355017929","-56,6848786626361","30,6007551331816","10,0691309969582","12,3789620718118"
"3342","-45,7550771134612","-205,944313530312","-42,2045152667203","75,9226705787258","48,5523208067261","18,7754508355303"
"3351","147,236424898884","-281,929920526033","-22,9264203886241","53,6637813514427","39,3987986636402","18,2195086990291"
"3351","91,755821645608","-242,876104467356","-27,4305078837143","-103,564364554162","2,27690128377072","6,0861463395063"
"3359","75,2203224293336","-233,6524239006","-28,4809220154236","-57,2959413094439","7,99097182354119","6,6563082836084"
"3359","70,2920642940858","-231,473986764783","-28,7258928001379","-94,0559384177086","-10,3030114484503","3,13673259884281"
"3367","53,5056106592203","257,619006326917","-76,4862580655408","-75,5789957247519","-4,83604606089774","3,69145385673354"
"3367","57,5025577966515","96,1323668891393","-60,6246213111618","87,6331564747463","-12,1142178029468","-8,97549300492259"
"3379","-111,502079192684","306,691457409416","-0,388305927487846","38,9149519282138","-9,11119876838448","-7,77604700985756"
"3383","-61,8724046508684","215,421035396566","-18,3403823491652","148,15977363056","41,3602990174711","-0,416539713774142"
"3392","24,4015518313761","-310,587980737628","-80,8310030138879","106,46077415853","31,1432818217146","-0,303410076753859"
"3392","8,11473546934977","-148,820120633152","-62,4046610782704","69,5441223083125","33,2890465231963","3,69089282732199"
"3400","118,993801229792","-232,317661168511","-31,6055917899487","74,9804819707362","30,1726222609733","3,46599552596805"
"3404","84,0403183452085","-183,038004011597","-39,4228322056353","-83,7776216786699","20,9482347132687","9,83591865164283"
"3408","73,6227443652435","-171,399197310308","-41,2459184162289","-32,9055498054899","22,1498475800589","9,26151963402949"
"3408","70,5178793082649","-168,650358758151","-41,6710867818566","-110,255476007679","-4,35515378080801","14,0833863368504"
"3416","66,1885841273824","10,1448069909233","-6,43451234079241","-78,2937740997483","1,73070632489859","13,4334515724777"
"3417","66,8982762923414","-48,6275783434075","-18,2168665276804","-14,3036956164572","-2,11617228305805","19,508073455614"
"3433","-55,4312481304444","293,783531614679","-79,2686245079618","-29,7264042014484","0,299773043185452","18,728509408016"
"3433","-19,8904723747437","172,653751723686","-60,5067203304977","136,890270479081","37,8237405675616","32,5444781108387"
"3441","145,580400232024","-243,995205538769","-17,2618880787992","82,0540426801112","30,2752331132148","31,1433325173208"
"3441","103,897518717823","-122,398825929847","-29,1766082146544","90,4803665201098","22,4022640840462","23,6436913572254"
"3449","-29,364775465744","-238,313692143195","-95,5595951430727","79,6632928293714","22,160359501666","23,4332015866523"
"3453","1,91758572323275","-183,69031770224","-75,0410056731058","-114,642344672678","1,41384492039279","11,5398475129214"
"3457","11,2410146081376","-170,789438654602","-70,2557930489088","-54,9792289646957","5,87091525303855","12,2767588642651"
"3461","14,0197794733201","-167,742525462125","-69,1398167342459","-130,051744372183","14,0591261300767","6,26256528789961"
"3470","-36,2108018658138","233,364519556266","53,0287106591291","-97,5000556520734","13,4308399353028","7,08411282078176"
"3470","-21,1815788520429","101,097470896196","12,5200638497576","25,8348134937513","21,1132432652049","6,34966067621734"
"3482","-101,800198637587","98,0799480666341","-154,171096632213","-8,21401351313896","19,2766773479035","6,83938887726907"
"3482","-75,8278595877633","81,3672733656279","-104,045730127264","136,167976006041","35,9908796119865","9,79010457269776"
"3490","98,7049381586023","-257,705946715502","43,6867418021827","85,571623134918","31,8733973394163","9,84015918447137"
"3490","52,7228826494779","-147,787828242031","1,13995266813209","56,7956578651428","20,6485741277862","9,87493538736547"
"3502","40,7202998278102","266,213173097693","68,9560707032358","58,3409465515789","22,0264543567863","9,89909668329563"
"3502","36,143037015167","143,991402629413","40,7717067936506","-169,321826048157","-4,40596422531503","7,30541353250072"
"3506","34,778824637994","115,125220451235","34,1987318733951","-97,3002210616927","1,70978377175887","7,50341271181707"
"3510","34,3722333002864","108,307642286958","32,665825207809","6,6637637270037","-13,2423513557895","12,8619148106521"
"3515","35,9530112911798","450,64262356134","-45,4302741642148","-15,4032911452954","-8,39929103213983","12,5848156502462"
"3519","35,4241480794767","336,494863694731","-19,6433409621323","186,051829818719","11,0654251535523","15,0027663723413"
"3531","31,8626072847392","120,806714867522","-80,7673652785119","119,240861719005","8,08054020904588","14,682674415177"
"3531","32,8011218003211","176,865762418007","-57,0223145881896","4,44016865978125","11,6161045108069","10,5445812911448"
"3539","124,986619069763","-187,352035478475","8,58609251167477","30,6998622154838","10,0719672315559","10,6695781500378"
"3543","98,4616847407677","-59,3725313879448","-10,1131394522349","-234,083879813024","15,7890211175349","10,7564216190403"
"3551","56,5169862307173","193,094985368528","100,367067434523","-146,67884574527","14,1431702475521","10,8167574400774"
"3551","64,0157427569659","126,722442120646","61,1325461723396","-52,6571418952672","-2,41678645415111","12,1639114588174"
"3560","66,250680291743","111,046659339217","51,9825250793726","-69,2998474364999","0,764210534866994","12,0998672044577"
"3560","66,9167835005711","107,344372914953","49,8486163859986","133,560507303268","32,2503149308089","18,581545431215"
"3564","-28,1943895895742","-82,258904576103","-56,6562283530267","67,1135795416669","26,21555660067","18,0847899699491"
"3568","-0,54142685792203","-20,0391653157964","-21,49459886233","23,7857210028832","47,5539348964453","8,60301803196731"
"3580","55,3551417779202","-139,394603231468","-59,2308795173075","27,5611912881206","41,3405802041228","9,0154127539125"
"3584","44,0146157683336","-91,5838186358068","-42,0314906336198","-96,808389703162","30,8409491091039","0,165286734503649"
"3592","-189,129780374608","59,0499521694545","-172,296132415822","-57,0276154975697","31,5174464973025","1,01652706613755"
"3592","-123,616389272876","15,6264444227649","-126,675608999974","-58,9085722801384","30,2077889265706","-6,22346950147657"
"3600","-90,4750357597123","-1105,83666626572","634,847965104914","-52,3958535815954","30,6685025577085","-5,25356724205408"
"3600","-88,5975507846219","-740,702396284275","387,445563895228","52,0067735390606","35,6228837975317","-8,4954172624312"
"3609","-88,0379831246877","-654,465449164317","329,747977262479","20,0533534979136","34,6629821625493","-7,74774187481204"
"3609","-87,8712089719256","-634,098116760956","316,292119570854","-30,0070621929734","45,3852807655111","-0,70210907998708"
"3617","329,158430636835","-996,162610873232","489,832678813013","-18,9757304448963","42,800472651292","-0,807048526958827"
"3617","208,450397100027","-873,674542235799","430,304684752373","-188,470976357969","-63,0866339275157","-0,879956803942166"
"3629","-598,512944521499","292,919254898746","-970,505429831583","-133,38047219791","-40,6884688592935","-0,930610938360375"
"3633","-386,021174794878","-76,5561070028534","-512,193297641476","218,633586740118","6,65193296544286","5,56037027789902"
"3641","283,20747648021","788,645159656676","-691,52811730618","115,826468129059","2,14560365546152","5,07007821009449"
"3641","126,665110135521","452,987293537533","-571,351423156406","602,770421184181","-2,88644415837831","-7,01767276561946"
"3649","459,545891287356","433,681969239673","1818,86892166338","433,918286664278","-2,95852380279244","-6,41582161883628"
"3653","335,758040634776","395,12246231995","1039,30063914988","69,8424978284275","-50,6349058916311","-37,3233113238709"
"3658","298,864175257976","386,015527056447","857,494770263654","159,524900605023","-40,2669253994524","-34,796759920194"
"3658","287,868287573799","383,864662677752","815,095182308503","-27,8956447416459","-45,5269737032997","-46,0937477951996"
"3666","-31,9732968294457","305,748538260764","-1039,31805271756","44,5511252731328","-41,6929386190266","-43,9425019561596"
"3666","58,7007701757736","331,299171426733","-427,792304210977","338,38767652333","75,8261340746055","1,93009164949638"
"3678","160,611559769424","-1225,4119603071","-292,243373297221","256,509073057131","51,2177407062373","-0,199226189906949"
"3678","146,985162121274","-707,074013926999","-256,631529005764","-358,362850153175","12,4965588161892","34,8679719539359"
"3691","-398,298999044612","-829,824774449141","-283,662094642458","-176,651778930246","14,5520813846837","31,23144126009"
"3691","-242,816082329444","-719,815892824911","-269,965988197774","-653,600485251915","32,868954693246","53,5043672436515"
"3703","38,3945451455703","2197,06893102645","206,72690379636","-476,15897872634","29,4114148876023","49,9788213569472"
"3703","-15,7931341953794","1246,97507594201","49,8981345466088","253,998364911879","-13,3061270293736","77,5497948807281"
"3707","-31,9432889653908","1022,58311858321","13,3235440978043","50,1531737696302","-4,89621208820973","73,7051481094651"
"3711","-36,7566986235935","969,586511713418","4,79385485202904","690,238954616237","84,3308567449382","114,106769333219"
"3715","-378,583075368452","-803,223789752695","-498,9627423282","458,059793896318","67,072477631649","109,176410214312"
"3719","-280,461379736614","-223,923870216293","-332,445595224972","-47,7691714080591","12,319179223709","83,5619768038244"
"3728","242,35100215088","-1422,3182561409","31,4771669848254","77,1906054393384","19,7730510284262","82,7659595790915"
"3728","108,170571947081","-948,353516822091","-67,6511219987847","-903,664155216268","0,607253862938396","65,2448622430119"
"3736","63,0734141363939","816,287404688596","103,577332082532","-575,764721875714","6,71522667147311","66,0718133610708"
"3740","52,632608270773","296,058051392785","33,5101238219921","15,7944578289151","-60,6514816110157","15,7421934451123"
"3748","-159,820127329509","584,161301485769","177,947072061507","-121,956020626151","-44,3915171010229","19,7749244610588"
"3748","-100,139771259415","419,205160378058","120,631722223638","554,402615158118","3,59776399857088","30,4081344109003"
"3756","23,1688795458063","9,84356163677981","117,865726159772","320,620312529457","-2,64137199631191","31,795718761843"
"3756","-2,08007632005858","123,161060305457","111,220658461397","47,6619513328875","18,6128483553111","9,26553788788572"
"3765","118,041616056196","-224,00586694212","-75,8416408554901","98,9492657889827","12,3648393891333","11,6123520264673"
"3768","78,8428156408066","-93,9993099250763","-14,4670994920448","-220,283700428627","-50,5604330397472","-18,0827980979521"
"3776","366,704731572628","-165,596160594536","-182,132732912887","-111,984300829497","-38,47158908252","-14,7139553301407"
"3780","276,499409463136","-124,505813652989","-118,234626679209","-80,4463423496461","-8,08211170117781","-5,84722662820457"
"3789","-187,788923687344","209,741966391433","-32,6612650301934","-74,2761081391749","-11,5684353976507","-4,68693199361467"
"3789","-69,1659224717217","104,684181632195","-52,7043995225905","37,0015534785444","12,4075520790829","6,56107866723805"
"3797","-115,505422324735","321,515282133068","98,0984799888114","2,82918220382164","6,28030318224819","6,37580516368886"
"3797","-81,3164971611792","235,726175454054","45,2677514370006","112,360373080141","60,933286988519","32,3517793654831"
"3805","88,8573451712913","-232,545989870061","9,97868673905589","72,7355605033576","47,438107976111","30,3989825542552"
"3806","45,5761418590835","-89,141913832103","14,7487994879912","25,9106102461723","35,5282152486281","36,8736560022549"
"3813","73,5235789920184","-252,820904246708","-219,121346570138","34,7801227658462","34,6239998673871","35,3720338643998"
"3817","57,8530634912922","-179,478399862635","-140,663028247536","-184,021475281233","-73,7475246733472","25,1921155181582"
"3826","158,704058742249","-111,005643618938","-5,75757988809443","-113,704291412536","-50,3723848381059","25,1194624036874"
"3830","126,761798837824","-123,833835205432","-40,2958044328442","-79,8194409820985","-12,1590279205006","30,28992470461"
"3834","-178,899158104324","426,976298511713","101,826264581554","-80,0412201476604","-14,4236609400981","29,8821820343925"
"3838","-95,9986814979182","243,065934789665","49,9710535944702","69,622136525339","6,87894343677546","36,125070558848"
"3846","-11,722371455496","81,4541938961429","13,142706315912","22,3939764186834","1,6508578810153","35,4624123197557"
"3846","-21,6045685308372","110,28493864079","18,5538375448096","97,2060163155555","24,9096285451185","33,6967856393419"
"3854","75,8657066830988","-385,594915527552","-59,6896047293457","66,5868487214033","18,4870465328083","33,4700896467525"
"3858","45,9158533091616","-217,711188300142","-32,9370338851825","-96,2889930531113","-14,3338667900138","22,8707108430942"
"3867","212,291334696186","-366,789499491662","-95,6026449137847","-49,4836638139232","-8,84875156917996","23,506631195557"
"3867","158,878063764782","-294,998625273279","-71,2171130981599","-173,151552930759","-27,237013288714","8,28562906129578"
"3875","3,39808352649338","515,676424806321","35,1767517376379","-127,188998190404","-21,8088695617035","9,71060630681627"
"3875","39,0586614470343","257,140626259489","2,9892402322572","111,040232764427","21,7201209789195","6,784926555028"
"3887","-137,528501798979","294,853961718265","-0,98374991333161","42,7559780598932","13,6443416099421","7,75226604591215"
"3887","-80,1587316133268","247,761049283178","-3,91030495885797","162,600469128661","27,7893816425345","11,0348094497415"
"3895","95,2219960171711","-52,6279835819208","60,7782823085953","114,647423594409","22,6139784280313","11,3154064092497"
"3896","54,492658451118","40,4265169887351","38,8645359171474","-31,8276625390928","26,8357618980185","10,2051206256108"
"3904","-3,59924821988657","-299,179350447693","-155,292198759511","7,22645201387483","24,574193628978","10,4337326892326"
"3907","6,08697685872125","-174,387031948612","-93,5721756900656","-153,268262629056","-0,180417998740387","4,06639045114743"
"3916","-132,288720010504","-32,029179545519","-75,644658463429","-96,8460777883109","4,62621167633975","4,64258257967069"
"3916","-90,5303629084186","-62,4072831663595","-73,4637189364222","-38,7058359360165","24,0759265726709","8,95860519321085"
"3924","-118,931670778826","75,0513993618953","-9,35078131713416","-48,644005180859","21,084864447924","8,95722755358085"
"3928","-103,39642740536","25,5162160359654","-30,3987769934828","65,4243666239661","34,1472254065664","20,703383521427"
"3936","100,362906392466","100,244301859393","-30,0070948881185","27,974957675951","30,526000261597","19,8642040470374"
"3937","44,0915594127199","68,893486050891","-32,9157493227712","56,573973649363","-9,08249669284963","11,4497626067638"
"3944","59,6576054539006","52,669983914099","-83,064108120381","41,9828444182516","-1,39234972314526","11,6037014268081"
"3948","45,2969267125287","53,8383378296541","-66,7593837606646","5,1250079735919","-22,0490776788336","10,405417974221"
"3957","-32,1673788923547","-30,5491429269275","-101,826203882935","14,5766043749091","-15,5550353129127","10,5728923188372"
"3957","-12,2549246202061","-2,47967071869444","-88,0042606925977","-14,311775759354","-9,70449373380683","15,910186824461"
"3965","-42,0613323395917","-36,418147776766","-14,1093376573617","-3,79560930580406","-9,29537749259743","15,6183533660898"
"3965","-29,9448664503127","-21,4336940894621","-36,8760420114866","-44,5947791896449","6,75532080286104","18,0260672105549"
"3973","94,5054211268722","140,849229666581","107,991304747496","-30,1642259646083","3,36462310821285","17,6988630269474"
"3977","60,5967199237387","89,1770040360841","56,7763296664693","24,0614082169923","-10,7373739643105","22,6924721006939"
"3985","130,482602792988","-92,3537186363113","13,0301481707694","9,10911938250954","-8,54424666516143","22,161857960839"
"3985","104,311467182542","-39,2274136541535","20,827946881054","5,23557437044451","-18,7587317714667","21,7932057161761"
"3994","-36,2414018159895","-116,63499548152","-134,597497053047","4,23209248706281","-15,9648179316051","21,5370789617474"
"3998","-0,131931458583082","-83,917019628609","-81,844813055129","-74,3701546213645","-2,10856249814521","22,6643657925735"
"4006","-79,5736481873839","304,795665200415","-127,846127150026","-49,7328793917548","-4,40288045901406","22,4475654650825"
"4006","-50,250543673033","180,601332327087","-105,574255867585","5,39597198976395","18,475723732269","27,5178792971829"
"4014","-187,87952042352","168,907485599462","-82,7122894800219","-8,32232909085163","12,896598054445","27,0405569549255"
"4018","-142,898610046701","156,145647763944","-87,380569659229","64,7251482732773","2,65812763982054","33,2351039438776"
"4027","-117,578738290761","-261,366425973783","40,5061367658296","39,6488525114681","3,44216489047393","32,538859687687"
"4027","-117,032376228597","-124,973896115366","-2,66895334219647","-36,4850076116682","-4,17610379595444","38,5813073469841"
"4035","-40,2813867327902","-385,555213316308","-30,4058331226591","-16,2082712132326","-2,31312873188806","37,7793897679823"
"4039","-62,4064385123731","-281,098977129681","-26,8744486907797","-164,158063192131","-39,6633602565466","26,7803670176559"
"4047","305,43034823516","371,491736912495","12,8184203294144","-114,485986435177","-31,0433123793274","27,1386286593173"
"4047","195,060823434103","169,619781099336","0,0753343197277034","39,3981911539684","-79,9051497075144","13,0299537016766"
"4055","165,57008828837","308,906974452822","-38,2322551717436","-1,73652165591925","-67,0253119678871","14,2277371724003"
"4055","154,780637574154","235,803646486159","-27,1661032369557","187,815166737086","-28,3690049436935","13,7546806684535"
"4063","57,9571976726237","-77,7837783030431","35,4854131626633","121,920491362032","-33,4512414652234","14,4260174668282"
"4067","84,0998345451922","16,1535428626636","16,0965942888982","-4,82940422149429","8,9262669719136","14,8924389189842"
"4076","-39,1594220028137","-254,45479148785","-18,4605105865803","25,3347248792585","-1,6236658065322","15,2164923174543"
"4080","1,1042553810878","-152,366723448634","-9,51969490565265","-161,836187663387","32,1494796255925","20,6625725024159"
"4084","-83,9071726343691","106,332535807383","-25,1024404719779","-98,3247476898096","22,0564713249307","20,4463195494683"
"4088","-52,2440709176615","34,4317975709172","-18,7365475295206","10,3983495115615","11,5475129564661","12,4646657850988"
"4096","-122,799234695382","40,3800492808554","-94,9905399840229","-14,4358080864782","11,220169591524","12,9192904259697"
"4096","-96,8275722933822","28,7848997984258","-68,7740025301595","111,442060878379","20,6147175221585","14,5403825996879"
"4104","2,81883154492065","214,77524834851","-32,6245813216419","68,052024266306","18,4831727228428","14,6666610452833"
"4108","-21,4824460916825","151,702212129672","-41,1940472940661","-4,12150146139318","1,72321861618279","8,22822096951094"
"4116","-91,697705094382","353,755719280154","-32,5918438434391","12,1812005074892","4,82186134962192","8,75501679385501"
"4116","-75,6247371042779","278,476459413429","-36,5856936347172","52,9643168878619","-25,6666576008705","13,0367205737156"
"4125","-23,1794826709723","126,646682900706","4,88576191454594","42,5296048367771","-18,2211169070596","13,0114994023741"
"4125","-35,5486421117895","166,787719541754","-9,44253365720225","50,272022763898","-13,5669939410265","19,5201505565836"
"4137","-42,6390776469679","-160,621684634198","-139,992712045782","46,277776175627","-12,6505349133532","19,0421349469415"
"4137","-42,7523187503451","-46,9488209666298","-98,4387796290622","-123,628121830401","-36,0965092000666","30,457139435137"
"4145","91,6686849959584","-34,2122788979628","31,3936396683211","-70,6440013406934","-30,7510132628737","29,3878874332229"
"4145","52,7316668628069","-23,2041786040009","-6,32768387776175","-123,073624256534","-41,2556500431495","32,5607127088274"
"4153","81,9738496620013","74,6420492460322","18,4441361885658","-98,6560601349619","-37,5812138791108","31,7650813298646"
"4158","66,6892215650579","43,7512467952498","5,22125972228786","36,4990972252949","-42,4210604890487","25,9913651699367"
"4166","169,357186031235","-101,122562890919","120,512199736575","-2,48756191144344","-40,4139961712092","25,9799880457125"
"4166","136,956457603985","-57,3386748587373","80,3996065156528","1,34005825109816","-33,2346404918522","19,445909668974"
"4174","43,9037225215798","-159,882413376935","-89,7327618575087","-5,66835717259939","-34,2783496707892","19,9062593289988"
"4178","65,1701843514366","-120,101063016494","-38,4099315828166","-61,4530891426806","-12,472997400572","7,17374636426971"
"4186","49,3829978305084","-54,2632735929224","-47,6421909798934","-44,904700709584","-17,4940631277041","8,32763931192018"
"4186","57,6777676232545","-70,7137882890536","-37,7952787582427","18,574278884391","7,43817684108164","-6,53349348312211"
"4194","-72,6028455171177","-74,5990499108083","-171,541404029482","1,01916484794698","0,704690364041928","-4,85849154032405"
"4198","-33,4318208734944","-75,516666055246","-125,732809658127","39,994822585806","13,8142318485663","-8,91569761996056"
"4207","-450,650892630575","-264,462263664104","-256,392543608188","25,0918696863318","9,21243454111135","-7,73450325662708"
"4207","-322,999317656875","-202,087194406353","-206,864161030391","9,04452803026738","42,2584363390262","-10,8295548739167"
"4215","1706,33802630776","137,18758426227","1258,7517948537","11,8872982631832","33,8660072898438","-9,97988906284989"
"4215","1141,16393109281","33,317069639438","777,553261498686","17,8465662664449","-61,7067547786505","-8,08433602729555"
"4227","-140,362299826972","739,007070671706","-917,709425362399","16,3903762546761","-43,0613837823538","-7,76737172320488"
"4227","131,690231248239","491,676036871988","-417,067616156734","291,081601638275","-98,9125910887855","-36,262321316869"
"4236","-408,441940887114","138,70355555921","-842,714621088672","204,243203565655","-81,9108125002195","-34,0596209744563"
"4236","-204,423519768943","222,338964206783","-634,98126046626","108,627352967408","315,793073721086","18,3748953767055"
"4247","-422,738910065016","679,519544234035","694,385162043017","125,857078311862","233,558236062564","15,8045731760101"
"4247","-323,805865964205","539,495871698682","279,411394425417","-237,017651704443","23,4030574078849","-6,86495389847204"
"4256","-284,108000624138","236,560604202253","631,397662451006","-120,024102223075","47,8660681008837","-6,61495265225471"
"4256","-278,276405747244","318,013738318678","459,485621555865","180,129933827029","232,643935691879","27,4948440387181"
"4264","-913,070984913391","-310,07117128309","-580,607735460081","102,887940113783","198,731141604454","25,1931441227693"
"4268","-728,265850340115","-91,4114657696171","-257,17157590443","-185,227104768013","97,4143599969426","56,2248728289067"
"4276","26,3187864398021","-13,3113757514332","-644,639944163","-105,866285923276","110,694478037737","52,7846383610048"
"4276","-159,783989333454","-9,8657959013023","-473,002809016931","-332,520477184936","-6,13028003130692","55,6154222934489"
"4284","7,7063551687479","47,3902574934381","61,7255050490926","-249,237588775271","22,7640158669362","53,5821524886461"
"4288","-73,3746407496562","28,9129193053534","-93,568618714647","35,2195933500994","-65,3960614986205","43,0328638390732"
"4297","-250,716411091844","-121,848200556127","135,232661838008","-42,0888326597893","-38,6983202443995","42,7035850879918"
"4297","-213,571544824241","-74,4547699474382","38,5922155117909","4,03932742566791","-64,2339522900632","42,4748136671262"
"4305","-381,206534587504","93,7186434529977","215,701227572739","-22,0106957920021","-51,7489285634491","42,3158712427124"
"4305","-326,168648899715","44,4376261689532","144,005444980744","-63,5780168568305","-18,0198668570163","29,1530956824695"
"4317","299,536193693636","-429,322675254359","-358,581261375595","-54,3464611370297","-22,131027805275","30,0080571473027"
"4317","128,021944165546","-279,214780214688","-200,791279906846","45,5376898401893","-184,234469068717","-17,6916325755261"
"4326","498,989461865021","-559,486496472001","-135,723938201802","15,4137118382315","-149,984876329881","-13,8317175548919"
"4326","361,553023515204","-446,680713671416","-136,549353934903","-168,225121886517","-45,3529621533776","-24,2023307756572"
"4334","-72,5611910099042","40,3189647406959","-145,575784413276","-114,798660377525","-59,2679861074564","-21,4074720548009"
"4338","29,0549372739996","-105,662071093614","-142,680870103487","-20,8747587425387","-61,8214208909876","-33,8232841293869"
"4346","176,775883551644","426,046942263822","458,701663813528","-42,5428009587341","-64,8728656375462","-31,4493584210756"
"4346","151,802794727255","230,625300248241","258,952205766397","223,430455821674","-20,070901246578","-28,4948026368902"
"4354","144,359788226433","-0,730368069042427","249,470446019806","136,333577848616","-30,6224997451119","-27,4420800650426"
"4358","142,14146648975","49,6283446708115","226,259171384899","105,065532822274","38,0908741251423","-17,5740415203496"
"4367","-295,923125562151","-194,232083218289","-371,027480220312","101,965222482529","20,3854350202077","-17,7180716419068"
"4367","-169,484372084359","-106,826728677317","-175,322807012102","-60,74533345145","48,0356634787724","-16,5129039703279"
"4375","36,6935037861741","-315,480208768085","-129,68182987666","-9,89718520640539","37,4213811173879","-16,6755953990859"
"4379","-0,85701828896203","-234,759722109566","-119,037736612409","-104,662705683292","67,9915821372721","-14,1781581652098"
"4387","-354,142358468325","332,85315554268","-104,187884768677","-67,2126935294627","58,5796762099741","-14,4430256592707"
"4387","-258,435904736897","155,911242495709","-107,724698441269","81,7642922009856","-4,06019163885556","-12,0165768009307"
"4395","-93,7547362178591","348,709555984476","121,132710226299","40,3583206053749","7,14617525190173","-12,3307645486764"
"4395","-124,672981995569","261,244416259279","44,505353735737","125,383356936518","30,8193756920343","10,9451749424378"
"4407","-350,036671673057","342,888644715523","-54,6373601013392","92,4099716593161","28,5674461724504","9,11648794661712"
"4407","-290,204310370619","304,171274670768","-31,7587820950263","62,9765993625433","-21,5947705110199","22,2035625232949"
"4415","197,368851947937","-366,405921826608","-176,600038404978","67,3515799618021","-11,2503985880504","20,2960066486669"
"4416","66,685686492609","-149,781990545471","-125,378978678305","-63,8264503289796","-68,9315398628261","21,5811727682105"
"4424","-13,1102799413372","-273,238332200097","-125,801039980034","-21,8094753059681","-53,6832853000054","20,4740614780063"
"4428","-12,892756393636","-203,396093829632","-118,89947038492","-190,241328617302","-79,1688781475393","27,536287805184"
"4437","94,3954861758704","202,903658431147","94,7244457355094","-130,875341609505","-69,6632494490125","26,4428769672131"
"4438","63,3717904497208","77,8630167580027","24,5444327159074","-18,0033478746958","-60,9843836474478","23,072743577365"
"4444","232,831140525521","103,009536625297","207,824375760482","-44,7626909309235","-60,4106296154285","22,7312921427677"
"4448","178,336989165573","77,9486096795932","137,567737749508","178,109059861105","-47,4685840852456","13,3574200395928"
"4457","46,3622869544815","-254,277183626253","-135,001099163559","103,846291141692","-50,1393523107746","13,8447798129993"
"4457","75,0284034525804","-147,741848612801","-53,5678390346509","-44,2217818117989","-56,0037823632277","-6,70037620057176"
"4465","131,226933536725","-230,1735664381","-213,021934954838","-8,5803469642033","-55,4186175530599","-4,97443584667081"
"4469","119,976404444961","-188,642184630166","-149,208787096601","-162,995392923404","-2,76628885084858","-14,21719084769"
"4477","113,219366713257","172,167077560502","-44,2205876895865","-108,998207053348","-14,0852908613635","-12,6387354731813"
"4477","113,205491853122","58,382549845556","-70,7359193877272","65,1567710408416","-21,9226380183468","-33,7310710109132"
"4485","-82,5239185959188","294,318434577361","173,964025713616","18,2734186785797","-23,1498743465724","-31,3852919543923"
"4485","-25,8593245450393","201,041471520321","89,0313630251396","164,553310693646","28,7561499393634","-19,3136479593859"
"4497","-70,2414683492485","0,865488555176441","46,2556930360874","111,448629086214","17,1298372182373","-18,9266896760137"
"4498","-47,4691706642507","54,5881796941708","49,2798281580604","-29,3972829894504","9,16594669530727","-8,21596620813662"
"4506","54,6276088700296","-186,71392678563","-117,859617535893","7,11512730239409","7,88660276746932","-8,77452816150597"
"4506","29,056643865671","-99,7043511505915","-61,838797206438","-120,960188545859","-5,3459881856741","-1,33118883875715"
"4514","4,41585655391794","-230,843169793818","-110,611510645498","-75,1394232680073","-2,79485977259656","-2,15981562606945"
"4518","7,07188955662656","-175,815369059814","-86,9859671794884","-99,8288131728174","1,4320820229594","-0,125047111874614"
"4526","-204,881367800135","174,070889990913","-42,6068684541049","-85,2248548875917","1,17263783179051","-0,711360736437206"
"4526","-143,052146692173","65,7065812978131","-54,2570623048067","12,5691931963752","1,06580477946856","1,49175853332451"
"4535","33,6576805318219","241,188861908978","162,107477517033","-16,0962475693428","1,02181342619522","1,02240915692047"
"4538","-6,6755307486844","168,63404357961","88,5666150176638","148,830700086278","4,1801455738295","5,91726069584738"
"4547","-37,4180328791201","-252,416932546","-218,337090455094","92,5567310316689","3,48067291290062","5,31803325650792"
"4547","-35,5805615842152","-122,860216149031","-125,911186130173","46,6414636391942","-15,8660341263223","-2,92969785758236"
"4555","-26,5231250723196","-390,34747089085","-120,257293229464","52,7466389100473","-11,8325557742609","-2,65993450264586"
"4559","-28,8236368627161","-284,522270242346","-109,938728923476","-145,879813347628","-27,6421208597968","-7,69345146582525"
"4567","181,533621507544","-21,4127372177911","127,450300731956","-82,3360493743517","-23,1521301468076","-7,19056393917976"
"4567","120,228727129232","-94,2718626092583","49,8126336650138","-90,2475356036222","-49,8912777695151","-22,5039926526965"
"4575","64,5142537443382","532,315126488496","77,6429277738292","-78,2970879069951","-42,9018336202788","-21,1432301789843"
"4576","69,9090516201769","315,301644017026","58,1333288269594","201,608205245347","-49,553084202624","-24,1135241202364"
"4588","156,614868761373","18,8765190270391","-70,0916266518833","115,120565335692","-46,2919136914199","-23,1771810160941"
"4588","132,456764618913","87,8672103141452","-29,9954207987745","184,984850075115","-11,5963489550068","-9,47429450882162"
"4596","-24,5157274410848","-521,995207897823","-216,757741679805","150,083915353321","-18,3095265516013","-9,95400567775444"
"4596","16,7000206360332","-311,03173756256","-149,313241287238","-231,518620107739","1,16127117194266","-14,2029966770787"
"4604","137,909377461259","-174,779411295359","13,0590057813947","-116,376702250833","-4,821109537458","-14,1550478038762"
"4608","110,034745738871","-191,599510307503","-32,0735897545052","-238,009748514752","19,7152833964186","-7,59556064825409"
"4616","-160,374712594054","608,730440540893","36,906269721638","-182,52004669541","12,8187963649961","-8,03825717266487"
"4616","-86,967841077624","341,751349625482","7,99330605830827","279,276627175863","43,3316752034098","3,40128578722218"
"4625","-111,042468101971","-86,4144357220232","-51,7531823633832","141,909829989402","34,8961653419299","2,34908226176244"
"4628","-91,217696072653","19,4619140890641","-35,6868716681667","106,323540963347","31,4226195965667","1,61804785772448"
"4637","-17,2307429166897","-348,864488225612","-31,9399906812668","97,1045448697929","29,9922946673971","1,11015058599309"
"4637","-35,1795910872849","-212,855349096899","-31,0661673501787","-176,870318521255","5,57996961322123","-7,07412750495807"
"4645","25,8473123875435","-265,396304835077","-62,6645364387078","-91,8463394681046","10,527544896895","-6,76027919703242"
"4645","5,03583694220559","-229,805360884117","-52,0337035487465","-118,566309156263","-19,1996268560015","-11,7631674685607"
"4657","27,7664637571611","304,219202267819","-72,5226736589557","-97,4883935577757","-11,44058118592","-11,2390001925076"
"4657","17,5411244465602","132,344443855336","-64,3009786477892","90,7707228200529","-1,89269406251538","-25,2324096871181"
"4666","41,7248958515447","123,500065097177","45,3904066842312","34,5411933007574","-1,96109736719824","-23,9545437826888"
"4666","32,9326533319046","103,411210979718","9,97192156490736","37,3837489415202","-21,0479447994249","-32,2033705336668"
"4674","57,5435464600541","36,9329064344776","10,5457840846968","28,1201423690202","-16,9074623365159","-30,9343683891234"
"4678","48,8786037624149","56,2321450844581","5,67961658708545","25,7203093113623","-15,2025084595176","-30,0527098468239"
"4686","95,6529033565518","-25,6370276664563","-44,9252607365473","25,0986077462587","-14,500448313452","-29,4401641639407"
"4686","80,5935663798033","4,0272153211055","-28,7270026725333","-20,3268816617252","-11,034909600488","-22,4884147868949"
"4694","64,1915528390647","-200,625274271497","15,6867390992269","-6,09482434024799","-11,6078817800623","-22,6585811663988"
"4698","66,3030789194487","-128,959838769816","3,04462447556491","-38,9675956321143","-15,0202650864004","-12,3349285322965"
"4707","-59,0125592305867","-39,7173152457889","-81,1758654146874","-26,4836269019696","-14,4254047531093","-13,1624138350392"
"4707","-22,3617680514998","-59,6401296329893","-54,8172229275313","-56,3273792943516","11,2311188922043","-7,21114788909888"
"4715","7,2832215947432","224,92121417276","-23,9350203212537","-45,0587119017192","5,79587549997541","-8,07641535039061"
"4715","5,11864648772988","128,128550146476","-30,7328729226291","83,2082084941194","1,96954596356207","-7,37233829109833"
"4727","120,20672036112","-72,8777665985957","4,78429182261968","44,4370803552902","1,39395291704595","-7,88317004466839"
"4727","86,5076948232825","-19,351182634847","-7,93262490972119","34,3930187619942","1,1569371574039","-8,23807817555647"
"4735","124,118850279391","83,2455427497273","31,5044934299016","31,7910007621907","1,05933960882559","-8,48465599788285"
"4736","107,328519877404","56,4767067599417","16,7017629019059","-61,1528809434119","-8,51018905521182","-13,8769088478629"
"4747","-20,2167302670274","166,566681157476","-96,2911954086233","-32,2309544322292","-6,45069723099932","-13,6232585351869"
"4747","13,7695449330673","126,567591181725","-60,6426817690443","34,4535181290454","11,8678105242696","-21,2784398582189"
"4756","30,70668694298","-251,517989002993","92,5475246042137","17,7288201868958","8,41094374556756","-20,596993522863"
"4756","31,754651132416","-131,813760081574","46,2735529705215","-47,5367738693859","37,163731030003","-17,5130787374644"
"4764","-22,3956977479089","116,935491445855","-19,2885438290734","-29,4445007809438","30,0034566161528","-17,3704820318863"
"4768","-6,53472650691441","50,6847730490022","-3,57851167669053","64,0304123345188","3,23167232590328","-22,4923499589979"
"4776","-136,262259669275","170,852000715929","-100,621548612995","37,2460550003153","7,20767745846545","-22,050845608422"
"4776","-95,9263944686517","122,232943590426","-66,2532975505978","30,3072903133997","8,84490341617778","-21,7441037452806"
"4784","11,4050497927547","45,4887694679402","-40,5702917677653","28,5097315823972","9,51907478850691","-21,5309901701127"
"4788","-12,6057700542467","64,3634281081663","-44,5806673991301","-5,03379815338506","-2,9091042356809","-20,0776914828377"
"4797","-45,291364582444","31,7809742310165","-70,2509518643587","5,27640366699135","-0,0267377967784465","-20,0679901142008"
"4797","-40,0330146549413","45,0856917471648","-62,2376094496444","-37,3170631456594","-19,4867506144898","-20,0612499407759"
"4805","-258,018510308804","41,1726979036718","-265,316020440791","-22,3513410910004","-14,4999289330099","-20,0565671027664"
"4809","-193,987144050738","44,2485319984031","-196,676652973505","-39,3655919981478","-10,8582489733357","-16,1376092618522"
"4817","-280,424618847605","150,804254951305","-79,9621950316641","-31,7733096034561","-10,3586903055587","-16,4148536918869"
"4817","-244,186537661563","115,970449967964","-109,742804615618","22,4217394808263","-156,269534613189","-13,9970038980762"
"4826","1289,8671278927","183,587760978419","909,814895055996","6,46152726066853","-124,352209018148","-14,3171659767012"
"4826","852,078147547523","156,557531425599","566,589542416966","2,32686927477428","-111,20940054011","-14,5396034507069"
"4838","-658,689635044261","-460,108594193571","-430,41743207333","1,25574337591389","-105,797499277393","-14,6941452691963"
"4838","-297,960504864768","-259,752014813585","-143,932945273037","-47,7680533745583","39,3710992658969","-27,8538634415369"
"4846","-478,079459899679","-762,744290053049","-382,774947396148","-32,4681747725176","9,14813421822272","-26,9967778099537"
"4846","-362,762308772453","-569,54036538111","-265,476133163371","-338,391842721939","225,407190407657","1,00862604528472"
"4858","216,233792771906","1305,17295158092","-473,103063833174","-239,644531803578","170,457613779609","-0,534193645219924"
"4858","68,7984193605213","710,940356536222","-388,524472683849","85,3786017411565","11,2434521896711","-17,2689085644373"
"4867","-814,209124230116","-32,6316167050308","-446,538205914888","-2,42079514820232","31,6827827489665","-16,8956063008568"
"4867","-584,381651002257","133,75250111676","-416,067793269823","-25,1661366573077","40,0992212177914","-16,6362488750552"
"4874","13,4256010080297","-1275,04837473636","598,106608614986","-31,0585525359473","43,5649138095333","-16,4560563584783"
"4878","-119,403276699504","-786,777172391175","264,625798110933","-231,052165161062","17,9922075469961","-37,2146214959528"
"4887","229,054892918726","564,98081095237","-42,8286794315431","-168,862578215839","24,4619649778678","-35,6369503769803"
"4887","104,909744033497","183,237290861803","15,4687773962956","-276,358438690332","-114,225820920034","-52,814126420197"
"4895","701,038105307838","495,228842404038","200,442820790115","-233,206352729976","-82,3342087412985","-50,748230752647"
"4899","506,708849182973","340,914609926184","146,58126989708","477,830385062797","-142,260263890802","-63,670500996537"
"4907","295,614444440982","-185,873442934917","-161,033313320682","260,031803291183","-120,936412377272","-61,6484448049197"
"4908","322,699638914512","-32,2895747329986","-65,7731953021072","186,19943228459","-139,155546305544","-73,2959384022159"
"4915","141,854700163081","-257,061880614661","-107,161560193591","177,07239323342","-129,657759708167","-71,3882117451656"
"4916","198,955478315401","-162,148317714451","-80,8138867564614","-82,9511304458797","75,957575922082","-46,5685634245037"
"4928","398,083460071686","756,289453371905","296,355906380726","-2,31291259957276","33,6251640095866","-47,3247352301443"
"4928","350,431779902273","465,204917105753","174,317004205097","18,5772514400641","16,1936664825586","-47,8500970939959"
"4936","-94,3659839554683","75,441470179593","-78,5260006723196","23,9890644148337","9,01578333564776","-48,2151002400149"
"4936","26,0660076886386","165,387635398291","-10,4924096767136","189,039378665847","47,3539067285959","-28,8901698877656"
"4948","-121,851873565111","-471,274328565321","-113,000749625294","137,797369003243","37,1406496266025","-30,4638805803245"
"4948","-57,9374794547683","-248,640340833651","-69,9070811558027","-234,11097357999","132,993142020442","-21,1153617065723"
"4956","-159,72744698826","251,95167431331","-169,397816041869","-124,457674831263","109,462957432247","-22,6203360217598"
"4957","-119,06503940215","116,180859267915","-130,600401251943","-170,911259530634","72,7739800894146","-19,7502354509321"
"4965","-132,475355025174","221,692740270494","78,0945521211904","-139,945540923716","74,6663169791065","-20,7561894231854"
"4969","-121,472180049989","168,612402023988","13,7650383136772","164,036191026633","34,1517292093551","-16,2341520893423"
"4977","-347,957235297956","-15,0147081665867","-66,6085739990161","72,7858015103238","43,4687691650085","-17,0923978684192"
"4977","-280,459087007355","38,6164746799322","-48,3527876231526","49,146444681907","47,3053083936711","-17,6886771779295"
"4985","-54,404836965612","-262,677167389098","-72,3638748541969","43,0224248917083","48,8851055527609","-18,102951298022"
"4989","-108,031382907504","-155,836316268787","-61,9635852001183","-104,802997286756","13,0064913665245","-28,8326528589529"
"4997","291,26367827455","-31,8287887644015","-45,4038051835028","-59,0987012471595","21,2325168584485","-28,2872762244022"
"4998","166,27001173305","-58,5408487624518","-49,5418404755768","98,9804007083057","-54,7913671227153","-57,9287676664998"
"5006","-160,316251789843","226,180840929535","-170,648366429825","55,9324264262127","-36,0962251674695","-55,5226447129604"
"5009","-87,6523762706068","128,426047190564","-130,892046518905","44,7804036218275","-28,3980027880328","-53,8509541922371"
"5018","185,894363413856","45,3685211561252","109,828693009534","41,891356815245","-25,2280547905728","-52,689521775425"
"5018","119,422530636872","59,7521003777899","34,968025753803","-11,0852704638839","-6,45228714475369","-36,2197814657631"
"5026","251,085536835623","-86,7756123828714","169,453142149568","5,19058652198089","-9,72086499090416","-36,7771788697746"
"5026","201,326522119669","-36,3823410736391","114,81689050496","9,40701554783587","-11,0667889311664","-37,1644391946018"
"5038","120,119893695112","-38,5910925821966","-39,2679402771549","10,4993250800167","-11,6210089431219","-37,433494195766"
"5038","134,916982011896","-31,1127527020595","4,79739284259652","-15,331795759675","-15,0256705452457","-33,7047198823548"
"5047","-32,5707280916167","23,5681102777179","-149,237117358778","-7,02361467731684","-14,4276305946864","-34,1140972109419"
"5047","18,5110529858323","6,48256689528021","-92,1600487989","36,9112573966841","55,7004569606867","-21,3461704436229"
"5059","-207,942643396885","281,131086118339","-96,5167690434044","24,2930402435675","40,5775638763894","-22,4754591132562"
"5059","-133,435148876046","187,997223799738","-87,5328151388055","57,5838935163013","59,7618841330684","-11,5129364897918"
"5067","7,90826968370673","28,4229274605957","54,1384957881725","45,2082332457878","51,6615387004309","-12,8965571497821"
"5067","-19,9655844243537","68,7348732667173","8,17816191759139","-55,490430521723","8,62042135062204","-4,72120512383112"
"5075","-191,661193953663","-11,6991875999797","-92,6465197682754","-25,5774604792171","15,8970954934847","-6,04125495118714"
"5079","-146,833539788638","20,3039982857023","-65,1601994166764","-17,8281963239539","18,89345978259","-6,95837964759034"
"5087","45,2326289432807","-30,3436320116753","-26,94786118699","-15,8206693260424","20,1272925442002","-7,59556598050124"
"5088","-2,52376164531773","-9,30552486804303","-36,0362270045124","-41,4146936189392","7,92956899567474","-5,42779129867269"
"5096","-35,4786761943941","-237,161179518716","-46,9896892174476","-33,0450902248279","10,9068316115869","-5,9216968651583"
"5100","-34,3005946982536","-158,975838006104","-44,5441847755717","-27,3949786112004","-13,2787753166733","-14,0962540060667"
"5108","110,71702972447","102,897212087941","95,6022712895507","-27,9312587820259","-7,23784280923926","-13,7756519202366"
"5108","68,9382399200594","26,7460557318139","49,2863206381134","-15,883610076759","-25,3972319647229","-22,6895522698143"
"5116","124,564800638127","306,846567666358","107,389486857205","-19,76254212081","-19,8748438666971","-21,8826201241158"
"5116","101,143801175641","204,00035004674","81,9399311947351","-20,7674195705233","-17,6008535570259","-21,3219917419099"
"5128","-53,9070444909034","-266,53652075518","-197,847152726327","-21,0277434631502","-16,6644775116105","-20,9324866458368"
"5128","-13,1185668367861","-124,66731997432","-108,097285442614","95,5477742379713","-14,6906763686303","-18,051402477053"
"5137","58,6066373264802","-283,417351454892","-81,8660429061302","58,7478673554006","-14,8779112038714","-18,0497254275584"
"5137","44,9836950310353","-211,910731823646","-78,7485623104156","-105,729158833524","19,9859042110983","-12,8276211146089"
"5145","-1,62547434121602","150,686580063319","-2,04970533574447","-59,3386329712963","12,3420083103646","-13,199484711461"
"5149","9,48307822610752","40,3243516497107","-27,1624943657172","166,814890699345","18,7237709620111","-3,01596428706197"
"5157","-45,0727198026349","169,475413030034","-4,75055290990385","102,402299173899","15,3516316213613","-3,94080857400133"
"5157","-27,3325890659387","111,978146315812","-15,5237849907884","-13,5180092984507","17,1395102372796","-0,66765384187942"
"5165","-22,0453012447501","98,3985150491319","-18,0362484441028","13,4516363089443","15,8757168521172","-1,39357980484812"
"5165","-20,4694722433176","95,1912950215166","-18,6221889081016","20,4384018386981","15,3553162826039","-1,8979279094438"
"5178","66,8000941836919","-170,139373051044","-11,6916922594048","22,2483956843114","15,1410274946348","-2,24833142658626"
"5178","41,8100104903105","-82,804832508024","-14,0754066904654","-97,4075433159789","7,1116714855803","-2,49177959999465"
"5186","44,5736923074521","20,7213279372635","-19,9316805591484","-59,4056514189759","8,80537040108791","-2,66091892148093"
"5186","39,3973830361335","-1,82799526292223","-18,2974428445236","27,0404766633944","22,2085830508596","2,44250811949737"
"5198","-94,8981651309781","-141,204082451491","-40,8845406486869","5,43523989680434","19,7277126634523","1,98819168278208"
"5198","-56,9237560808257","-98,1217493176488","-33,1521573976187","-0,161820060913102","18,7061482387189","1,67254842791491"
"5206","-30,2881917565947","37,2846916571416","-36,6492204439893","-1,61179631013095","18,2854918919874","1,4532504754493"
"5206","-31,3496992532288","-1,73518746667231","-34,4647828519998","1,4944516737174","13,3476053053749","-2,61481448067383"
"5218","7,47898293437015","114,280457521604","-62,2239260203703","0,299157328969622","14,3142990529175","-2,44116448695026"
"5218","-3,94847447897192","70,6808848834349","-52,6977337117132","71,3680300780849","-9,11098975060213","-3,62575330180336"
"5227","9,66526285464028","70,9665209509899","-36,3418050201709","48,7791563342574","-3,75697601504034","-3,44876439931684"
"5227","3,72271590688728","65,0339821138508","-40,5273811987969","42,9272750479101","-1,55231833137144","-3,32579866719384"
"5235","10,4613873367454","-24,5582210003475","-76,8392436382104","41,4112846989508","-0,644491840401431","-3,24036635440971"
"5239","7,46978828434271","4,28200650633885","-65,3076611582119","-4,2458794644098","-6,62356363254814","3,34516299101008"
"5247","72,9545665220394","-61,2232174578595","32,7881293958203","9,92616011643625","-5,08560561055234","2,92055967408052"
"5247","53,4717209099272","-35,6941578748425","1,66539471792331","-14,2574610859121","-7,62875721177388","15,677907954401"
"5255","-23,8172419545553","17,9584372897735","-33,8614315777622","-4,5224781892462","-6,67596758427017","14,5412697200195"
"5259","-4,85252834172786","3,63003892359047","-26,1467680496772","25,8545043570543","-4,69540771192272","18,9725121749534"
"5268","94,4074757881276","60,2158993126782","118,762100137035","17,7239757487818","-4,87985946042409","18,051185272703"
"5268","68,9910351629925","39,5802757935794","71,5568084146253","12,1357989301845","7,74997465559587","17,4110793933615"
"5276","40,9923846359002","133,480571777144","-47,2260790107673","12,6881239499972","4,95064506897226","16,9663560972471"
"5276","44,647636441041","99,6578241607516","-13,9278551625116","40,6862440351637","24,4448505211157","23,1835517693605"
"5288","-211,258744436935","190,44360196036","-230,544140969205","31,939446511629","19,472108567098","22,5030430302978"
"5288","-136,529359973141","155,885271403623","-154,061989038931","-36,4822089423295","17,4244496892342","23,3354840221635"
"5296","54,2369994273629","-252,664100058283","79,3226330605394","-16,2075461890054","16,581271635986","22,9138350632507"
"5297","12,0932122547223","-122,154770584614","11,7510839829818","-98,0021682434617","-21,8832904746486","23,9261228248072"
"5309","-102,584902691784","-140,718238909471","-62,3114689194056","-69,1919107491109","-13,7220978805605","23,6294251447277"
"5309","-76,7636925503784","-117,102535229767","-46,5838581178691","-6,01824652347313","2,34427746112876","27,3389942864988"
"5317","-62,2600753935108","-0,404268204058404","-62,3506177282536","-21,6524556626952","0,960035207601382","26,9162738727911"
"5317","-61,9374015928007","-35,8426200383081","-55,0276393500724","-25,7026591799756","0,390036610095345","26,6225824355053"
"5325","173,029098661814","169,209969149365","-9,15015991352257","-26,7519062755794","0,155324513761823","26,4185358422063"
"5329","105,058769447369","96,6390286607781","-23,4509111134309","84,3964137298054","-41,2351322997003","10,6139538959137"
"5337","6,5107086801085","44,2228908515522","-55,0546233071101","49,1905351731636","-32,2787547391168","11,6334801903831"
"5337","23,1393376778262","51,843314142096","-46,4250365015472","-22,6037394566308","-0,00270702687986457","18,8679855377778"
"5345","70,6443251774131","-43,3670739920817","91,6300582788001","-5,20278856981546","-4,71218516762267","18,8942681695827"
"5349","59,8027632171466","-10,8537422722595","46,8263738854157","-18,1042889482266","-16,1807784373679","21,5229980064577"
"5358","163,794943937525","42,6845681227784","108,815793998196","-11,4465560079492","-14,9032770191472","21,3493480453792"
"5358","131,788886360077","29,3291781251848","82,2725653140073","26,8379314276618","17,3872357821861","23,8391716722389"
"5366","122,249766218","26,1749191150749","76,0823253283377","15,7559237154832","10,6837140269507","23,5690145088953"
"5366","119,406716496403","25,4299502369925","74,6386776268428","12,8850150424124","7,92336049121761","23,3813187103897"
"5378","-102,695288017252","-77,0476293901863","-158,913814950566","12,1412764687553","6,78671144010009","23,2509141993984"
"5378","-38,890810528115","-43,2506537070746","-81,3814155392871","-48,9842848383544","17,4362295893132","30,9917224178026"
"5386","75,4352444142929","155,224170459713","10,9052206585732","-29,8194934630559","14,8214521857903","30,3697666704493"
"5387","53,5091059271145","94,0997018010574","-9,57228739698462","74,3789045701157","2,62718432795988","29,9376534546095"
"5399","-126,625593469631","143,160968418962","17,4542372301298","44,3725768723617","4,60586991650899","29,6374362251715"
"5399","-78,313134809096","118,748195920728","5,75718836734789","-24,3337606889057","34,0086672076194","35,955029685143"
"5407","-48,5964069573182","47,7210312903357","-2,27108107448472","-7,1328477787659","28,1160517177945","35,3442738363128"
"5407","-48,739601131684","67,9459259554602","-1,14338210861494","-53,1640236250213","1,86625973558879","36,2251767096559"
"5415","-48,7822788788454","72,7226158340401","-0,88038745512414","-36,0888756374804","6,05720909683326","35,8371973800375"
"5419","-48,7949986009348","73,8507683695128","-0,819053544339358","-31,6653820138903","7,78294406268975","35,567642839358"
"5428","-139,002612070672","60,0066438164941","-276,423439397861","-30,5194302568561","8,49356137530155","35,3803657221147"
"5428","-112,888187107074","64,7369561011739","-184,698110344453","-58,0775941847491","7,19795359174605","39,1659564642767"
"5436","1157,74849903499","346,301737620054","1174,15083706337","-49,2168214700314","7,66445259677015","38,7960532137804"
"5440","794,45043621392","253,801349327056","734,052793069179","306,489404525095","-166,848025732934","25,4867094107605"
"5448","451,302357015883","1805,28330074971","-333,249438229521","195,638779962944","-128,708184344446","26,2398403595225"
"5448","487,030131013903","1279,71033321971","-36,1587562174711","314,901650799615","163,347778643121","35,8997330670863"
"5456","-336,281392560696","474,746167405117","-922,704672121874","260,797930530954","109,609596162402","35,6110904591451"
"5460","-91,6620527288708","670,630755328511","-588,459172226549","-1064,14576241987","98,5990326278375","26,2739080915474"
"5468","-18,7554391578322","716,894527970894","-510,508600233223","-654,386124474724","87,0651399826302","26,7867586168217"
"5468","2,97372708900283","727,821046906336","-492,329472388601","-548,233653821031","82,3157526446838","27,1430693200583"
"5477","-375,192803299598","-2760,20064074638","918,272178458315","-520,733758803573","80,3600659758627","27,3906216008578"
"5477","-261,901966505978","-1604,99716317814","451,243564977152","-473,568014475554","97,0252170994195","36,6992558386622"
"5489","-929,343715319261","1578,1424239599","-758,381797824911","-484,349240767759","92,8875367139577","36,1665710659777"
"5489","-716,268778625221","679,932279963861","-417,482795318024","959,578629510239","-42,2270271870744","7,08131485248889"
"5497","-138,772101018639","-444,101446618548","-585,330642699151","502,643072861431","-13,8640457291509","8,87389069181685"
"5501","-268,654364368022","-192,574301426894","-484,475031225863","-395,671775471836","-16,478843481935","-27,7324988679771"
"5509","524,893294083662","-676,425892474414","381,803009175821","-180,389524476291","-8,55555606461402","-24,1653448225021"
"5509","272,403099582747","-482,701345373405","106,830766544928","-110,690914295505","-114,880344712196","-20,3817755012651"
"5517","197,150647942537","-436,947728423026","42,703519949003","-100,6347687246","-89,6624068872323","-18,7530831646961"
"5518","174,722325571223","-426,141697409566","27,748178578439","-98,0296202454619","-79,2782496664893","-17,6215243903567"
"5526","-49,8129770331725","460,084914942756","45,4618283395612","-97,3547295976983","-75,0022964964262","-16,8353567201127"
"5526","11,2662776517217","168,392788207047","37,5928910805744","498,221471915022","33,1694074579496","9,81554101344937"
"5538","-307,517460058591","-630,72069396601","-287,564176049017","310,511644490734","10,7119861768943","8,33165759195899"
"5538","-204,528111276747","-405,454299027251","-180,395202579999","-643,405150804814","-20,7705821787782","22,9635244859235"
"5546","152,943057615581","-726,181278448864","-70,5961975743604","-370,527159030115","-19,7343677899262","21,1292365710628"
"5550","67,4841528173669","-589,930168208597","-92,9895843299997","27,4613622800645","-97,1306245119849","17,2443675628058"
"5559","254,758752383958","255,371052367335","110,268778744119","-57,4355965303549","-80,0005935664429","16,5452957278432"
"5559","185,574277320209","-5,98678130588855","39,6713785368363","486,376358426062","-49,123496621519","49,995709459625"
"5567","164,954461274365","-67,7139417912892","23,2071098208091","302,25646774851","-51,4090299818713","47,235893203119"
"5567","158,808908917819","-82,29258398479","19,3674196401842","254,558306480302","-52,3501591856898","45,3184688802461"
"5575","17,4166508313893","1060,74807821653","59,1080408232411","242,201604659572","-52,7376941889607","43,9863091666139"
"5579","57,2759487539049","680,709966886204","45,3760912638888","94,5024814234734","24,9256735384658","58,7235884144326"
"5587","-53,3853846730791","-855,380394257022","-164,54040244207","139,239496509876","7,90563266008872","56,9625373358051"
"5588","-14,3670086074894","-398,17226052615","-96,4957683642355","-449,79510029891","-5,45571577529872","46,6023767868728"
"5599","-28,2673131694404","-351,923170012901","-131,863646951623","-257,390602543388","-6,95760668316048","46,4044976604774"
"5600","-17,4101750294824","-306,000118684031","-111,11191466784","121,491367798776","-18,6936139004896","34,5199050236053"
"5608","162,829425317737","253,394344984271","125,176697946409","30,6446594203011","-16,5262272939559","35,2629035164741"
"5608","112,548231450349","74,5114173834495","49,2823987398632","130,716596305791","6,60137914782102","24,0319999169686"
"5616","97,5623698512601","32,2630752353433","31,5828215248054","85,6412661848608","2,12478677527339","25,2291588115988"
"5616","93,0959673935274","22,2849155629652","27,455040691897","73,9640358898942","0,281430695471483","26,0609031632367"
"5628","-195,866260598283","194,54659252532","-31,8115672370167","70,9389286528344","-0,477620241973791","26,6387702029294"
"5628","-112,988876689509","136,231136125549","-12,6333419194277","40,5592691074137","30,9742879122905","28,345486907829"
"5636","224,872429044846","-92,7279294283622","-32,8957309656842","49,6891042113869","23,92544836931","28,5312542988695"
"5640","141,568979345062","-24,8031900983911","-23,6211941853884","-33,2517610092021","-55,2118211604528","11,6922667582041"
"5649","87,8078272259686","77,666430748046","84,5489416164678","-5,7384496578757","-39,7986985856116","12,9931240319768"
"5649","88,7847950921429","52,8675753702292","49,7756805284085","34,4670116655463","1,48897928672814","24,3387927244542"
"5657","-18,1474399597846","75,2317536382665","98,2032527850164","25,8826520996687","-3,50972023891868","24,2213686238208"
"5660","12,9823606333406","64,513696795177","77,4972177264528","9,73126771252137","16,667059471091","30,6659603904359"
"5665","22,2603201926575","61,982319772546","72,6682902553744","13,5470846002679","10,9753856384126","30,1434385468763"
"5665","25,0255333306861","61,3844623694257","71,5421190470777","14,5356114162023","8,63168742097897","29,7804085481538"
"5677","-113,71095053535","-65,7518704768676","-250,275657355741","14,791699508102","7,66660728886308","29,5281879346104"
"5678","-73,0601227814183","-23,7787677419427","-143,327916117867","-30,4063894138984","-0,671907042799234","31,9634234055576"
"5689","93,9337552697226","30,2299180576337","-30,0469325156632","-16,1154216454673","0,894487703337218","31,655340290571"
"5689","52,7047919513435","17,9856207243626","-53,6282747610375","64,1881463976755","-30,2249751455721","37,9674688069122"
"5698","59,1384150308315","265,556398911356","9,77690967475973","40,9916159459081","-23,0392423981565","37,3529161053694"
"5698","50,0558990369629","182,02735018099","-14,4361436179232","54,1326511795312","3,74302503865928","51,2835289507977"
"5710","-97,3175716235101","165,827208318229","64,7227955112139","46,5369722200117","-0,228663379234603","49,9620341191697"
"5710","-56,2409207890041","160,001079433571","35,1837309177744","-80,7784225477474","-16,1581222276982","56,875314220025"
"5714","-43,9983911867139","158,62507172943","28,2948214726883","-41,7607918572822","-13,7175009632606","55,6784207257442"
"5718","-40,3496143751183","158,300087981329","26,6882346021909","-31,6528712294317","-12,7125101863732","54,8468607650358"
"5726","62,8554058981076","-152,209210289736","-104,42864217323","-29,0343098864977","-12,2986784803459","54,2691218337462"
"5726","33,6147421665491","-49,5449011209953","-61,0068714861847","-144,998901794651","-26,4222826717944","55,1729637127602"
"5739","35,1115764952248","20,56157783566","-10,2442383118555","-108,04072826914","-23,2380526790613","54,8009216062493"
"5739","29,5576946233158","11,1192368000149","-21,4057055774865","138,301462603917","5,07293623379644","32,3534482751978"
"5747","0,671067009185769","414,568049470436","-36,3762160369812","66,1189540448865","-0,269260420570668","33,7577247372507"
"5751","8,06166515943115","279,854076513684","-32,8675415857624","136,207251637019","2,29561803116576","21,6810192759934"
"5759","-59,5159484412071","193,359042393971","-76,2189330601727","103,364349760754","0,351775012747393","23,2905444619551"
"5759","-38,6568537523812","203,930755331517","-61,3290639765057","-119,279521849452","-5,21332423435789","23,1035517775389"
"5767","-32,4399865293503","206,427569036812","-57,8565450874224","-53,9577186719789","-4,50490199666695","23,973635765756"
"5768","-30,5871046739598","207,017263319638","-57,0467067089059","-37,0354302064385","-4,21319028154126","24,5781398511337"
"5776","72,0826651171242","-182,647964736971","-78,0592791173299","-32,6515364224145","-4,09307021724325","24,9981282593645"
"5776","42,6824747508685","-53,6786023106818","-70,9596952449988","-113,340007487221","-16,7493946167939","23,9846868049635"
"5788","-29,0524697365062","20,8767493688721","10,2014150261579","-87,243190142671","-13,9609731096062","24,2805829393909"
"5788","-13,4324304578314","13,4851374301357","-15,8707161731213","43,1241761431021","17,3634778810243","24,486161279564"
"5800","-87,0671270643583","-12,954101889098","-21,9510898526631","5,89719022825839","11,2621544579078","24,6289899583843"
"5800","-63,0132919694043","-5,19848777810403","-23,3691152453816","13,6625512542289","-10,3089084341564","29,9491615128192"
"5808","264,124015083246","144,794210210946","43,438068016107","5,67424831292027","-7,19136781860256","29,645431623658"
"5809","173,624373175761","96,219294702518","21,0184068692161","10,5685544906917","-18,613424512484","21,603001927271"
"5817","146,651761666784","84,7469329867319","15,7898386137152","7,83647510754761","-15,3167604203112","22,0154015649298"
"5817","138,612815254621","82,0374051993907","14,5704657684561","7,1287016967814","-13,9592712205712","22,3019224860697"
"5825","-52,7005605726701","-72,0549783632679","-95,2546697851748","6,9453456771583","-13,4002889051495","22,5009872542079"
"5829","1,28019323035965","-21,4483213752957","-58,8673770268013","-71,4444393471029","40,829481837066","25,2497601084333"
"5837","-74,5371056960488","205,690089745747","-87,4838840641","-46,7521236179761","29,160033579269","25,1595118595941"
"5841","-43,133775765667","137,335350569257","-73,1576406074403","90,2151506479826","-8,99786335426215","13,3496974120425"
"5849","1,96684397931231","-60,4821758279613","-30,9472644380625","50,6979391308737","-3,71039320983382","14,1446491893684"
"5850","-5,5913183564125","-4,20246741873558","-43,1032337256464","-65,7367224052756","-14,2389236549726","4,2550757138099"
