Timer,AX,AY,AZ,GX,GY,GZ,A
"0","1.34279038718291","-0.227636849132176","-1.09045393858478","-1.01869158878505","0.0186915887850467","0","359.9375"
"0","1.34279038718291","-0.227636849132176","2.90954606141522","-1.01869158878505","0.0186915887850467","0","359.9375"
"10","1.34279038718291","-0.227636849132176","2.90954606141522","-2.01869158878505","2.01869158878505","0","359.9375"
"10","-0.657209612817089","1.77236315086782","2.90954606141522","-2.01869158878505","2.01869158878505","0","359.9375"
"15","-0.657209612817089","1.77236315086782","2.90954606141522","-2.01869158878505","-1.98130841121495","0","359.9375"
"16","-0.657209612817089","-0.227636849132176","-0.0904539385847798","-2.01869158878505","-1.98130841121495","0","359.9375"
"21","-0.657209612817089","-0.227636849132176","-0.0904539385847798","-2.01869158878505","-0.981308411214953","0","359.9375"
"21","-0.657209612817089","-0.227636849132176","-2.09045393858478","-2.01869158878505","-0.981308411214953","0","359.9375"
"28","-0.657209612817089","-0.227636849132176","-2.09045393858478","-0.0186915887850467","-0.981308411214953","0","359.9375"
"28","1.34279038718291","0.772363150867824","-1.09045393858478","-0.0186915887850467","-0.981308411214953","0","359.9375"
"34","1.34279038718291","0.772363150867824","-1.09045393858478","-1.01869158878505","2.01869158878505","0","359.9375"
"34","1.34279038718291","0.772363150867824","-0.0904539385847798","-1.01869158878505","2.01869158878505","0","359.9375"
"40","1.34279038718291","0.772363150867824","-0.0904539385847798","-1.01869158878505","-0.981308411214953","0","359.9375"
"40","-0.657209612817089","0.772363150867824","-0.0904539385847798","-1.01869158878505","-0.981308411214953","0","359.9375"
"46","-0.657209612817089","0.772363150867824","-0.0904539385847798","-1.01869158878505","3.01869158878505","0","359.9375"
"46","0.342790387182911","-1.22763684913218","2.90954606141522","-1.01869158878505","3.01869158878505","0","359.9375"
"51","0.342790387182911","-1.22763684913218","2.90954606141522","-2.01869158878505","1.01869158878505","0","359.9375"
"52","0.342790387182911","-0.227636849132176","-3.09045393858478","-2.01869158878505","1.01869158878505","0","359.9375"
"57","0.342790387182911","-0.227636849132176","-3.09045393858478","-1.01869158878505","-0.981308411214953","0","359.9375"
"57","0.342790387182911","1.77236315086782","-1.09045393858478","-1.01869158878505","-0.981308411214953","0","359.9375"
"63","0.342790387182911","1.77236315086782","-1.09045393858478","0.981308411214953","-2.98130841121495","0","359.9375"
"63","0.342790387182911","-0.227636849132176","-0.0904539385847798","0.981308411214953","-2.98130841121495","0","359.9375"
"68","0.342790387182911","-0.227636849132176","-0.0904539385847798","-1.01869158878505","0.0186915887850467","0","359.9375"
"68","-0.657209612817089","-1.22763684913218","1.90954606141522","-1.01869158878505","0.0186915887850467","0","359.9375"
"74","-0.657209612817089","-1.22763684913218","1.90954606141522","-2.01869158878505","3.01869158878505","0","359.9375"
"74","-0.657209612817089","-0.227636849132176","0.90954606141522","-2.01869158878505","3.01869158878505","0","359.9375"
"79","-0.657209612817089","-0.227636849132176","0.90954606141522","-1.01869158878505","1.01869158878505","0","359.9375"
"80","1.34279038718291","0.772363150867824","0.90954606141522","-1.01869158878505","1.01869158878505","0","359.9375"
"85","1.34279038718291","0.772363150867824","0.90954606141522","-0.0186915887850467","-2.98130841121495","0","359.9375"
"85","1.34279038718291","0.772363150867824","-1.09045393858478","-0.0186915887850467","-2.98130841121495","0","359.9375"
"91","1.34279038718291","0.772363150867824","-1.09045393858478","1.98130841121495","2.01869158878505","0","359.9375"
"91","0.342790387182911","-0.227636849132176","-0.0904539385847798","1.98130841121495","2.01869158878505","0","359.9375"
"96","0.342790387182911","-0.227636849132176","-0.0904539385847798","-0.0186915887850467","1.01869158878505","0","359.9375"
"96","0.342790387182911","0.772363150867824","-1.09045393858478","-0.0186915887850467","1.01869158878505","0","359.9375"
"102","0.342790387182911","0.772363150867824","-1.09045393858478","-0.0186915887850467","-0.981308411214953","0","359.9375"
"102","-0.657209612817089","-0.227636849132176","-0.0904539385847798","-0.0186915887850467","-0.981308411214953","0","359.9375"
"108","-0.657209612817089","-0.227636849132176","-0.0904539385847798","-2.01869158878505","2.01869158878505","0","359.9375"
"108","0.342790387182911","-0.227636849132176","-2.09045393858478","-2.01869158878505","2.01869158878505","0","359.9375"
"114","0.342790387182911","-0.227636849132176","-2.09045393858478","-1.01869158878505","-1.98130841121495","0","359.9375"
"115","0.342790387182911","-0.227636849132176","-2.09045393858478","-1.01869158878505","-1.98130841121495","0","359.9375"
"121","0.342790387182911","-0.227636849132176","-2.09045393858478","-0.0186915887850467","0.0186915887850467","0","359.9375"
"121","-0.657209612817089","-0.227636849132176","0.90954606141522","-0.0186915887850467","0.0186915887850467","0","359.9375"
"127","-0.657209612817089","-0.227636849132176","0.90954606141522","-0.0186915887850467","-0.981308411214953","0","359.9375"
"128","0.342790387182911","-1.22763684913218","0.90954606141522","-0.0186915887850467","-0.981308411214953","0","359.9375"
"134","0.342790387182911","-1.22763684913218","0.90954606141522","0.981308411214953","-0.981308411214953","0","359.9375"
"134","-0.657209612817089","-1.22763684913218","-2.09045393858478","0.981308411214953","-0.981308411214953","0","359.9375"
"140","-0.657209612817089","-1.22763684913218","-2.09045393858478","0.981308411214953","0.0186915887850467","0","359.9375"
"141","-0.657209612817089","-0.227636849132176","-2.09045393858478","0.981308411214953","0.0186915887850467","0","359.9375"
"147","-0.657209612817089","-0.227636849132176","-2.09045393858478","-0.0186915887850467","1.01869158878505","0","359.9375"
"147","0.342790387182911","-1.22763684913218","-0.0904539385847798","-0.0186915887850467","1.01869158878505","0","359.9375"
"153","0.342790387182911","-1.22763684913218","-0.0904539385847798","-3.01869158878505","1.01869158878505","0","359.9375"
"153","1.34279038718291","0.772363150867824","0.90954606141522","-3.01869158878505","1.01869158878505","0","359.9375"
"159","1.34279038718291","0.772363150867824","0.90954606141522","4.98130841121495","-1.98130841121495","0","359.9375"
"159","-0.657209612817089","0.772363150867824","-0.0904539385847798","4.98130841121495","-1.98130841121495","0","359.9375"
"167","-0.657209612817089","0.772363150867824","-0.0904539385847798","-1.01869158878505","-0.981308411214953","0","359.9375"
"167","-0.657209612817089","-0.227636849132176","0.90954606141522","-1.01869158878505","-0.981308411214953","0","359.9375"
"175","-0.657209612817089","-0.227636849132176","0.90954606141522","0.981308411214953","-3.98130841121495","0","359.9375"
"175","1.34279038718291","1.77236315086782","-4.09045393858478","0.981308411214953","-3.98130841121495","0","359.9375"
"181","1.34279038718291","1.77236315086782","-4.09045393858478","0.981308411214953","0.0186915887850467","0","359.9375"
"181","1.34279038718291","0.772363150867824","-0.0904539385847798","0.981308411214953","0.0186915887850467","0","359.9375"
"190","1.34279038718291","0.772363150867824","-0.0904539385847798","2.98130841121495","-2.98130841121495","0","359.9375"
"191","0.342790387182911","-0.227636849132176","0.90954606141522","2.98130841121495","-2.98130841121495","0","359.9375"
"197","0.342790387182911","-0.227636849132176","0.90954606141522","1.98130841121495","0.0186915887850467","0","359.9375"
"198","0.342790387182911","-0.227636849132176","2.90954606141522","1.98130841121495","0.0186915887850467","0","359.9375"
"203","0.342790387182911","-0.227636849132176","2.90954606141522","0.981308411214953","-0.981308411214953","0","359.9375"
"204","0.342790387182911","-0.227636849132176","-0.0904539385847798","0.981308411214953","-0.981308411214953","0","359.9375"
"212","0.342790387182911","-0.227636849132176","-0.0904539385847798","1.98130841121495","1.01869158878505","0","359.9375"
"213","0.342790387182911","-0.227636849132176","-1.09045393858478","1.98130841121495","1.01869158878505","0","359.9375"
"218","0.342790387182911","-0.227636849132176","-1.09045393858478","-0.0186915887850467","1.01869158878505","0","359.9375"
"218","1.34279038718291","-0.227636849132176","-1.09045393858478","-0.0186915887850467","1.01869158878505","0","359.9375"
"225","1.34279038718291","-0.227636849132176","-1.09045393858478","-0.0186915887850467","0.0186915887850467","0","359.9375"
"225","-1.65720961281709","-0.227636849132176","-0.0904539385847798","-0.0186915887850467","0.0186915887850467","0","359.9375"
"231","-1.65720961281709","-0.227636849132176","-0.0904539385847798","-2.01869158878505","-2.98130841121495","0","359.9375"
"231","0.342790387182911","-0.227636849132176","-0.0904539385847798","-2.01869158878505","-2.98130841121495","0","359.9375"
"237","0.342790387182911","-0.227636849132176","-0.0904539385847798","-0.0186915887850467","-1.98130841121495","0","359.9375"
"237","0.342790387182911","-0.227636849132176","0.90954606141522","-0.0186915887850467","-1.98130841121495","0","359.9375"
"242","0.342790387182911","-0.227636849132176","0.90954606141522","-3.01869158878505","-0.981308411214953","0","359.9375"
"243","-1.65720961281709","0.772363150867824","-0.0904539385847798","-3.01869158878505","-0.981308411214953","0","359.9375"
"249","-1.65720961281709","0.772363150867824","-0.0904539385847798","-3.01869158878505","1.01869158878505","0","359.9375"
"249","1.34279038718291","-0.227636849132176","1.90954606141522","-3.01869158878505","1.01869158878505","0","359.9375"
"254","1.34279038718291","-0.227636849132176","1.90954606141522","-2.01869158878505","3.01869158878505","0","359.9375"
"254","0.342790387182911","0.772363150867824","-1.09045393858478","-2.01869158878505","3.01869158878505","0","359.9375"
"260","0.342790387182911","0.772363150867824","-1.09045393858478","1.98130841121495","2.01869158878505","0","359.9375"
"260","0.342790387182911","-0.227636849132176","-1.09045393858478","1.98130841121495","2.01869158878505","0","359.9375"
"266","0.342790387182911","-0.227636849132176","-1.09045393858478","0.981308411214953","0.0186915887850467","0","359.9375"
"266","-0.657209612817089","-0.227636849132176","-0.0904539385847798","0.981308411214953","0.0186915887850467","0","359.9375"
"272","-0.657209612817089","-0.227636849132176","-0.0904539385847798","-0.0186915887850467","0.0186915887850467","0","359.9375"
"272","1.34279038718291","-0.227636849132176","-1.09045393858478","-0.0186915887850467","0.0186915887850467","0","359.9375"
"277","1.34279038718291","-0.227636849132176","-1.09045393858478","-0.0186915887850467","0.0186915887850467","0","359.9375"
"277","1.34279038718291","0.772363150867824","-1.09045393858478","-0.0186915887850467","0.0186915887850467","0","359.9375"
"283","1.34279038718291","0.772363150867824","-1.09045393858478","-2.01869158878505","-0.981308411214953","0","359.9375"
"283","0.342790387182911","0.772363150867824","-1.09045393858478","-2.01869158878505","-0.981308411214953","0","359.9375"
"289","0.342790387182911","0.772363150867824","-1.09045393858478","0.981308411214953","-2.98130841121495","0","359.9375"
"290","-0.657209612817089","0.772363150867824","0.90954606141522","0.981308411214953","-2.98130841121495","0","359.9375"
"296","-0.657209612817089","0.772363150867824","0.90954606141522","0.981308411214953","0.0186915887850467","0","359.9375"
"296","-0.657209612817089","-0.227636849132176","2.90954606141522","0.981308411214953","0.0186915887850467","0","359.9375"
"302","-0.657209612817089","-0.227636849132176","2.90954606141522","2.98130841121495","-0.981308411214953","0","359.9375"
"302","-0.657209612817089","-1.22763684913218","-1.09045393858478","2.98130841121495","-0.981308411214953","0","359.9375"
"308","-0.657209612817089","-1.22763684913218","-1.09045393858478","-0.0186915887850467","-0.981308411214953","0","359.9375"
"308","0.342790387182911","-0.227636849132176","-0.0904539385847798","-0.0186915887850467","-0.981308411214953","0","359.9375"
"313","0.342790387182911","-0.227636849132176","-0.0904539385847798","-2.01869158878505","-1.98130841121495","0","359.9375"
"314","0.342790387182911","-0.227636849132176","-0.0904539385847798","-2.01869158878505","-1.98130841121495","0","359.9375"
"319","0.342790387182911","-0.227636849132176","-0.0904539385847798","0.981308411214953","-0.981308411214953","0","359.9375"
"319","0.342790387182911","-0.227636849132176","-1.09045393858478","0.981308411214953","-0.981308411214953","0","359.9375"
"325","0.342790387182911","-0.227636849132176","-1.09045393858478","-0.0186915887850467","2.01869158878505","0","359.9375"
"325","-0.657209612817089","0.772363150867824","-1.09045393858478","-0.0186915887850467","2.01869158878505","0","359.9375"
"331","-0.657209612817089","0.772363150867824","-1.09045393858478","-0.0186915887850467","1.01869158878505","0","359.9375"
"331","-0.657209612817089","0.772363150867824","-0.0904539385847798","-0.0186915887850467","1.01869158878505","0","359.9375"
"336","-0.657209612817089","0.772363150867824","-0.0904539385847798","1.98130841121495","-0.981308411214953","0","359.9375"
"336","0.342790387182911","-0.227636849132176","-1.09045393858478","1.98130841121495","-0.981308411214953","0","359.9375"
"342","0.342790387182911","-0.227636849132176","-1.09045393858478","0.981308411214953","1.01869158878505","0","359.9375"
"342","0.342790387182911","-0.227636849132176","0.90954606141522","0.981308411214953","1.01869158878505","0","359.9375"
"347","0.342790387182911","-0.227636849132176","0.90954606141522","0.981308411214953","0.0186915887850467","0","359.9375"
"348","1.34279038718291","-0.227636849132176","3.90954606141522","0.981308411214953","0.0186915887850467","0","359.9375"
"353","1.34279038718291","-0.227636849132176","3.90954606141522","-0.0186915887850467","1.01869158878505","0","359.9375"
"353","0.342790387182911","-0.227636849132176","-1.09045393858478","-0.0186915887850467","1.01869158878505","0","359.9375"
"359","0.342790387182911","-0.227636849132176","-1.09045393858478","-0.0186915887850467","0.0186915887850467","0","359.9375"
"359","-0.657209612817089","-1.22763684913218","-2.09045393858478","-0.0186915887850467","0.0186915887850467","0","359.9375"
"365","-0.657209612817089","-1.22763684913218","-2.09045393858478","0.981308411214953","0.0186915887850467","0","359.9375"
"365","0.342790387182911","-0.227636849132176","-0.0904539385847798","0.981308411214953","0.0186915887850467","0","359.9375"
"373","0.342790387182911","-0.227636849132176","-0.0904539385847798","-2.01869158878505","2.01869158878505","0","359.9375"
"373","0.342790387182911","-0.227636849132176","-1.09045393858478","-2.01869158878505","2.01869158878505","0","359.9375"
"379","0.342790387182911","-0.227636849132176","-1.09045393858478","3.98130841121495","1.01869158878505","0","359.9375"
"380","-0.657209612817089","-1.22763684913218","1.90954606141522","3.98130841121495","1.01869158878505","0","359.9375"
"385","-0.657209612817089","-1.22763684913218","1.90954606141522","2.98130841121495","-0.981308411214953","0","359.9375"
"385","-0.657209612817089","-0.227636849132176","-2.09045393858478","2.98130841121495","-0.981308411214953","0","359.9375"
"393","-0.657209612817089","-0.227636849132176","-2.09045393858478","1.98130841121495","-1.98130841121495","0","359.9375"
"393","1.34279038718291","-0.227636849132176","-1.09045393858478","1.98130841121495","-1.98130841121495","0","359.9375"
"401","1.34279038718291","-0.227636849132176","-1.09045393858478","-1.01869158878505","0.0186915887850467","0","359.9375"
"401","-1.65720961281709","-0.227636849132176","-1.09045393858478","-1.01869158878505","0.0186915887850467","0","359.9375"
"407","-1.65720961281709","-0.227636849132176","-1.09045393858478","-0.0186915887850467","-0.981308411214953","0","359.9375"
"408","1.34279038718291","-0.227636849132176","0.90954606141522","-0.0186915887850467","-0.981308411214953","0","359.9375"
"414","1.34279038718291","-0.227636849132176","0.90954606141522","-0.0186915887850467","-1.98130841121495","0","359.9375"
"414","0.342790387182911","2.77236315086782","0.90954606141522","-0.0186915887850467","-1.98130841121495","0","359.9375"
"420","0.342790387182911","2.77236315086782","0.90954606141522","-1.01869158878505","1.01869158878505","0","359.9375"
"420","0.342790387182911","0.772363150867824","-0.0904539385847798","-1.01869158878505","1.01869158878505","0","359.9375"
"426","0.342790387182911","0.772363150867824","-0.0904539385847798","-0.0186915887850467","-0.981308411214953","0","359.9375"
"426","-1.65720961281709","1.77236315086782","0.90954606141522","-0.0186915887850467","-0.981308411214953","0","359.9375"
"431","-1.65720961281709","1.77236315086782","0.90954606141522","2.98130841121495","0.0186915887850467","0","359.9375"
"431","-0.657209612817089","-0.227636849132176","-1.09045393858478","2.98130841121495","0.0186915887850467","0","359.9375"
"437","-0.657209612817089","-0.227636849132176","-1.09045393858478","0.981308411214953","-0.981308411214953","0","359.9375"
"437","-0.657209612817089","-1.22763684913218","1.90954606141522","0.981308411214953","-0.981308411214953","0","359.9375"
"443","-0.657209612817089","-1.22763684913218","1.90954606141522","-1.01869158878505","-1.98130841121495","0","359.9375"
"443","1.34279038718291","0.772363150867824","0.90954606141522","-1.01869158878505","-1.98130841121495","0","359.9375"
"449","1.34279038718291","0.772363150867824","0.90954606141522","0.981308411214953","0.0186915887850467","0","359.9375"
"449","-0.657209612817089","1.77236315086782","-0.0904539385847798","0.981308411214953","0.0186915887850467","0","359.9375"
"455","-0.657209612817089","1.77236315086782","-0.0904539385847798","1.98130841121495","2.01869158878505","0","359.9375"
"455","1.34279038718291","1.77236315086782","-1.09045393858478","1.98130841121495","2.01869158878505","0","359.9375"
"461","1.34279038718291","1.77236315086782","-1.09045393858478","0.981308411214953","-1.98130841121495","0","359.9375"
"461","1.34279038718291","-0.227636849132176","-0.0904539385847798","0.981308411214953","-1.98130841121495","0","359.9375"
"467","1.34279038718291","-0.227636849132176","-0.0904539385847798","-3.01869158878505","0.0186915887850467","0","359.9375"
"468","0.342790387182911","0.772363150867824","-0.0904539385847798","-3.01869158878505","0.0186915887850467","0","359.9375"
"474","0.342790387182911","0.772363150867824","-0.0904539385847798","0.981308411214953","0.0186915887850467","0","359.9375"
"474","-0.657209612817089","-0.227636849132176","-0.0904539385847798","0.981308411214953","0.0186915887850467","0","359.9375"
"481","-0.657209612817089","-0.227636849132176","-0.0904539385847798","-0.0186915887850467","0.0186915887850467","0","359.9375"
"481","-0.657209612817089","-0.227636849132176","-0.0904539385847798","-0.0186915887850467","0.0186915887850467","0","359.9375"
"487","-0.657209612817089","-0.227636849132176","-0.0904539385847798","0.981308411214953","-1.98130841121495","0","359.9375"
"488","-1.65720961281709","-0.227636849132176","-2.09045393858478","0.981308411214953","-1.98130841121495","0","359.9375"
"495","-1.65720961281709","-0.227636849132176","-2.09045393858478","-1.01869158878505","0.0186915887850467","0","359.9375"
"495","-0.657209612817089","-0.227636849132176","-0.0904539385847798","-1.01869158878505","0.0186915887850467","0","359.9375"
"502","-0.657209612817089","-0.227636849132176","-0.0904539385847798","-3.01869158878505","2.01869158878505","0","359.9375"
"502","1.34279038718291","-2.22763684913218","0.90954606141522","-3.01869158878505","2.01869158878505","0","359.9375"
"508","1.34279038718291","-2.22763684913218","0.90954606141522","-1.01869158878505","-0.981308411214953","0","359.9375"
"508","0.342790387182911","-0.227636849132176","-1.09045393858478","-1.01869158878505","-0.981308411214953","0","359.9375"
"515","0.342790387182911","-0.227636849132176","-1.09045393858478","-0.0186915887850467","-1.98130841121495","0","359.9375"
"515","0.342790387182911","-0.227636849132176","2.90954606141522","-0.0186915887850467","-1.98130841121495","0","359.9375"
"522","0.342790387182911","-0.227636849132176","2.90954606141522","-1.01869158878505","1.01869158878505","0","359.9375"
"522","1.34279038718291","0.772363150867824","-1.09045393858478","-1.01869158878505","1.01869158878505","0","359.9375"
"528","1.34279038718291","0.772363150867824","-1.09045393858478","-3.01869158878505","1.01869158878505","0","359.9375"
"529","0.342790387182911","-0.227636849132176","-0.0904539385847798","-3.01869158878505","1.01869158878505","0","359.9375"
"534","0.342790387182911","-0.227636849132176","-0.0904539385847798","-0.0186915887850467","1.01869158878505","0","359.9375"
"534","0.342790387182911","-0.227636849132176","-0.0904539385847798","-0.0186915887850467","1.01869158878505","0","359.9375"
"540","0.342790387182911","-0.227636849132176","-0.0904539385847798","-0.0186915887850467","0.0186915887850467","0","359.9375"
"540","0.342790387182911","-0.227636849132176","2.90954606141522","-0.0186915887850467","0.0186915887850467","0","359.9375"
"547","0.342790387182911","-0.227636849132176","2.90954606141522","2.98130841121495","1.01869158878505","0","359.9375"
"547","0.342790387182911","2.77236315086782","-1.09045393858478","2.98130841121495","1.01869158878505","0","359.9375"
"552","0.342790387182911","2.77236315086782","-1.09045393858478","-0.0186915887850467","-0.981308411214953","0","359.9375"
"553","-0.657209612817089","-0.227636849132176","-1.09045393858478","-0.0186915887850467","-0.981308411214953","0","359.9375"
"559","-0.657209612817089","-0.227636849132176","-1.09045393858478","-1.01869158878505","-0.981308411214953","0","359.9375"
"559","0.342790387182911","-0.227636849132176","0.90954606141522","-1.01869158878505","-0.981308411214953","0","359.9375"
"565","0.342790387182911","-0.227636849132176","0.90954606141522","2.98130841121495","0.0186915887850467","0","359.9375"
"566","0.342790387182911","-0.227636849132176","-1.09045393858478","2.98130841121495","0.0186915887850467","0","359.9375"
"572","0.342790387182911","-0.227636849132176","-1.09045393858478","2.98130841121495","1.01869158878505","0","359.9375"
"572","0.342790387182911","-0.227636849132176","-1.09045393858478","2.98130841121495","1.01869158878505","0","359.9375"
"580","0.342790387182911","-0.227636849132176","-1.09045393858478","-3.01869158878505","2.01869158878505","0","359.9375"
"580","0.342790387182911","-0.227636849132176","0.90954606141522","-3.01869158878505","2.01869158878505","0","359.9375"
"586","0.342790387182911","-0.227636849132176","0.90954606141522","-1.01869158878505","1.01869158878505","0","359.9375"
"586","-2.65720961281709","-0.227636849132176","0.90954606141522","-1.01869158878505","1.01869158878505","0","359.9375"
"594","-2.65720961281709","-0.227636849132176","0.90954606141522","0.981308411214953","-2.98130841121495","0","359.9375"
"595","0.342790387182911","-0.227636849132176","0.90954606141522","0.981308411214953","-2.98130841121495","0","359.9375"
"601","0.342790387182911","-0.227636849132176","0.90954606141522","-1.01869158878505","-1.98130841121495","0","359.9375"
"602","-0.657209612817089","-1.22763684913218","0.90954606141522","-1.01869158878505","-1.98130841121495","0","359.9375"
"610","-0.657209612817089","-1.22763684913218","0.90954606141522","-2.01869158878505","-0.981308411214953","0","359.9375"
"610","-0.657209612817089","-0.227636849132176","-1.09045393858478","-2.01869158878505","-0.981308411214953","0","359.9375"
"616","-0.657209612817089","-0.227636849132176","-1.09045393858478","0.981308411214953","0.0186915887850467","0","359.9375"
"616","1.34279038718291","1.77236315086782","-0.0904539385847798","0.981308411214953","0.0186915887850467","0","359.9375"
"622","1.34279038718291","1.77236315086782","-0.0904539385847798","-1.01869158878505","-2.98130841121495","0","359.9375"
"622","0.342790387182911","1.77236315086782","-1.09045393858478","-1.01869158878505","-2.98130841121495","0","359.9375"
"628","0.342790387182911","1.77236315086782","-1.09045393858478","0.981308411214953","2.01869158878505","0","359.9375"
"628","1.34279038718291","-0.227636849132176","-2.09045393858478","0.981308411214953","2.01869158878505","0","359.9375"
"634","1.34279038718291","-0.227636849132176","-2.09045393858478","1.98130841121495","0.0186915887850467","0","359.9375"
"634","0.342790387182911","-0.227636849132176","-2.09045393858478","1.98130841121495","0.0186915887850467","0","359.9375"
"640","0.342790387182911","-0.227636849132176","-2.09045393858478","-4.01869158878505","1.01869158878505","0","359.9375"
"640","0.342790387182911","0.772363150867824","0.90954606141522","-4.01869158878505","1.01869158878505","0","359.9375"
"646","0.342790387182911","0.772363150867824","0.90954606141522","-2.01869158878505","1.01869158878505","0","359.9375"
"646","-0.657209612817089","0.772363150867824","2.90954606141522","-2.01869158878505","1.01869158878505","0","359.9375"
"652","-0.657209612817089","0.772363150867824","2.90954606141522","-2.01869158878505","0.0186915887850467","0","359.9375"
"652","-0.657209612817089","-0.227636849132176","-1.09045393858478","-2.01869158878505","0.0186915887850467","0","359.9375"
"658","-0.657209612817089","-0.227636849132176","-1.09045393858478","-4.01869158878505","2.01869158878505","0","359.9375"
"658","0.342790387182911","0.772363150867824","0.90954606141522","-4.01869158878505","2.01869158878505","0","359.9375"
"664","0.342790387182911","0.772363150867824","0.90954606141522","-0.0186915887850467","2.01869158878505","0","359.9375"
"664","-2.65720961281709","-0.227636849132176","2.90954606141522","-0.0186915887850467","2.01869158878505","0","359.9375"
"671","-2.65720961281709","-0.227636849132176","2.90954606141522","0.981308411214953","1.01869158878505","0","359.9375"
"671","0.342790387182911","-0.227636849132176","-1.09045393858478","0.981308411214953","1.01869158878505","0","359.9375"
"677","0.342790387182911","-0.227636849132176","-1.09045393858478","1.98130841121495","-0.981308411214953","0","359.9375"
"677","0.342790387182911","-0.227636849132176","1.90954606141522","1.98130841121495","-0.981308411214953","0","359.9375"
"683","0.342790387182911","-0.227636849132176","1.90954606141522","0.981308411214953","-0.981308411214953","0","359.9375"
"683","0.342790387182911","0.772363150867824","-3.09045393858478","0.981308411214953","-0.981308411214953","0","359.9375"
"689","0.342790387182911","0.772363150867824","-3.09045393858478","0.981308411214953","1.01869158878505","0","359.9375"
"689","-2.65720961281709","-0.227636849132176","-4.09045393858478","0.981308411214953","1.01869158878505","0","359.9375"
"695","-2.65720961281709","-0.227636849132176","-4.09045393858478","0.981308411214953","0.0186915887850467","0","359.9375"
"695","-1.65720961281709","0.772363150867824","-1.09045393858478","0.981308411214953","0.0186915887850467","0","359.9375"
"701","-1.65720961281709","0.772363150867824","-1.09045393858478","-0.0186915887850467","1.01869158878505","0","359.9375"
"701","2.34279038718291","-1.22763684913218","1.90954606141522","-0.0186915887850467","1.01869158878505","0","359.9375"
"708","2.34279038718291","-1.22763684913218","1.90954606141522","-1.01869158878505","2.01869158878505","0","359.9375"
"708","1.34279038718291","-0.227636849132176","2.90954606141522","-1.01869158878505","2.01869158878505","0","359.9375"
"715","1.34279038718291","-0.227636849132176","2.90954606141522","2.98130841121495","3.01869158878505","0","359.9375"
"715","-0.657209612817089","-0.227636849132176","-1.09045393858478","2.98130841121495","3.01869158878505","0","359.9375"
"721","-0.657209612817089","-0.227636849132176","-1.09045393858478","-0.0186915887850467","2.01869158878505","0","359.9375"
"721","1.34279038718291","-0.227636849132176","-1.09045393858478","-0.0186915887850467","2.01869158878505","0","359.9375"
"728","1.34279038718291","-0.227636849132176","-1.09045393858478","-0.0186915887850467","1.01869158878505","0","359.9375"
"728","-0.657209612817089","-0.227636849132176","0.90954606141522","-0.0186915887850467","1.01869158878505","0","359.9375"
"734","-0.657209612817089","-0.227636849132176","0.90954606141522","-2.01869158878505","2.01869158878505","0","359.9375"
"734","0.342790387182911","0.772363150867824","0.90954606141522","-2.01869158878505","2.01869158878505","0","359.9375"
"740","0.342790387182911","0.772363150867824","0.90954606141522","0.981308411214953","0.0186915887850467","0","359.9375"
"740","1.34279038718291","-0.227636849132176","-1.09045393858478","0.981308411214953","0.0186915887850467","0","359.9375"
"746","1.34279038718291","-0.227636849132176","-1.09045393858478","1.98130841121495","1.01869158878505","0","359.9375"
"746","0.342790387182911","0.772363150867824","-2.09045393858478","1.98130841121495","1.01869158878505","0","359.9375"
"752","0.342790387182911","0.772363150867824","-2.09045393858478","1.98130841121495","2.01869158878505","0","359.9375"
"752","-1.65720961281709","-0.227636849132176","1.90954606141522","1.98130841121495","2.01869158878505","0","359.9375"
"758","-1.65720961281709","-0.227636849132176","1.90954606141522","-0.0186915887850467","-1.98130841121495","0","359.9375"
"758","-0.657209612817089","-0.227636849132176","0.90954606141522","-0.0186915887850467","-1.98130841121495","0","359.9375"
"764","-0.657209612817089","-0.227636849132176","0.90954606141522","-0.0186915887850467","1.01869158878505","0","359.9375"
"764","0.342790387182911","-0.227636849132176","2.90954606141522","-0.0186915887850467","1.01869158878505","0","359.9375"
"770","0.342790387182911","-0.227636849132176","2.90954606141522","-0.0186915887850467","5.01869158878505","0","359.9375"
"770","-0.657209612817089","-0.227636849132176","-1.09045393858478","-0.0186915887850467","5.01869158878505","0","359.9375"
"776","-0.657209612817089","-0.227636849132176","-1.09045393858478","0.981308411214953","0.0186915887850467","0","359.9375"
"776","-1.65720961281709","-0.227636849132176","0.90954606141522","0.981308411214953","0.0186915887850467","0","359.9375"
"783","-1.65720961281709","-0.227636849132176","0.90954606141522","0.981308411214953","0.0186915887850467","0","359.9375"
"784","0.342790387182911","-0.227636849132176","-1.09045393858478","0.981308411214953","0.0186915887850467","0","359.9375"
"790","0.342790387182911","-0.227636849132176","-1.09045393858478","-0.0186915887850467","-0.981308411214953","0","359.9375"
"790","1.34279038718291","0.772363150867824","-1.09045393858478","-0.0186915887850467","-0.981308411214953","0","359.9375"
"798","1.34279038718291","0.772363150867824","-1.09045393858478","0.981308411214953","0.0186915887850467","0","359.9375"
"798","-0.657209612817089","-0.227636849132176","0.90954606141522","0.981308411214953","0.0186915887850467","0","359.9375"
"805","-0.657209612817089","-0.227636849132176","0.90954606141522","-1.01869158878505","-0.981308411214953","0","359.9375"
"805","0.342790387182911","-0.227636849132176","-0.0904539385847798","-1.01869158878505","-0.981308411214953","0","359.9375"
"812","0.342790387182911","-0.227636849132176","-0.0904539385847798","1.98130841121495","-1.98130841121495","0","359.9375"
"812","0.342790387182911","0.772363150867824","-0.0904539385847798","1.98130841121495","-1.98130841121495","0","359.9375"
"818","0.342790387182911","0.772363150867824","-0.0904539385847798","-0.0186915887850467","0.0186915887850467","0","359.9375"
"818","1.34279038718291","-0.227636849132176","-3.09045393858478","-0.0186915887850467","0.0186915887850467","0","359.9375"
"825","1.34279038718291","-0.227636849132176","-3.09045393858478","-1.01869158878505","-1.98130841121495","0","359.9375"
"825","1.34279038718291","-0.227636849132176","0.90954606141522","-1.01869158878505","-1.98130841121495","0","359.9375"
"831","1.34279038718291","-0.227636849132176","0.90954606141522","-1.01869158878505","-1.98130841121495","0","359.9375"
"831","0.342790387182911","-0.227636849132176","1.90954606141522","-1.01869158878505","-1.98130841121495","0","359.9375"
"836","0.342790387182911","-0.227636849132176","1.90954606141522","1.98130841121495","2.01869158878505","0","359.9375"
"837","-0.657209612817089","-0.227636849132176","1.90954606141522","1.98130841121495","2.01869158878505","0","359.9375"
"843","-0.657209612817089","-0.227636849132176","1.90954606141522","-0.0186915887850467","3.01869158878505","0","359.9375"
"843","-0.657209612817089","-1.22763684913218","-2.09045393858478","-0.0186915887850467","3.01869158878505","0","359.9375"
"849","-0.657209612817089","-1.22763684913218","-2.09045393858478","0.981308411214953","-0.981308411214953","0","359.9375"
"849","0.342790387182911","-0.227636849132176","-0.0904539385847798","0.981308411214953","-0.981308411214953","0","359.9375"
"856","0.342790387182911","-0.227636849132176","-0.0904539385847798","-2.01869158878505","0.0186915887850467","0","359.9375"
"856","1.34279038718291","-2.22763684913218","1.90954606141522","-2.01869158878505","0.0186915887850467","0","359.9375"
"862","1.34279038718291","-2.22763684913218","1.90954606141522","0.981308411214953","0.0186915887850467","0","359.9375"
"862","1.34279038718291","-0.227636849132176","0.90954606141522","0.981308411214953","0.0186915887850467","0","359.9375"
"868","1.34279038718291","-0.227636849132176","0.90954606141522","-0.0186915887850467","-2.98130841121495","0","359.9375"
"868","0.342790387182911","-0.227636849132176","-1.09045393858478","-0.0186915887850467","-2.98130841121495","0","359.9375"
"874","0.342790387182911","-0.227636849132176","-1.09045393858478","0.981308411214953","-0.981308411214953","0","359.9375"
"875","0.342790387182911","-0.227636849132176","-0.0904539385847798","0.981308411214953","-0.981308411214953","0","359.9375"
"881","0.342790387182911","-0.227636849132176","-0.0904539385847798","-0.0186915887850467","1.01869158878505","0","359.9375"
"881","-0.657209612817089","-0.227636849132176","-0.0904539385847798","-0.0186915887850467","1.01869158878505","0","359.9375"
"887","-0.657209612817089","-0.227636849132176","-0.0904539385847798","-3.01869158878505","3.01869158878505","0","359.9375"
"887","1.34279038718291","0.772363150867824","0.90954606141522","-3.01869158878505","3.01869158878505","0","359.9375"
"893","1.34279038718291","0.772363150867824","0.90954606141522","-1.01869158878505","0.0186915887850467","0","359.9375"
"893","0.342790387182911","-0.227636849132176","0.90954606141522","-1.01869158878505","0.0186915887850467","0","359.9375"
"899","0.342790387182911","-0.227636849132176","0.90954606141522","-1.01869158878505","-0.981308411214953","0","359.9375"
"899","0.342790387182911","-0.227636849132176","-0.0904539385847798","-1.01869158878505","-0.981308411214953","0","359.9375"
"905","0.342790387182911","-0.227636849132176","-0.0904539385847798","-0.0186915887850467","0.0186915887850467","0","359.9375"
"905","0.342790387182911","-0.227636849132176","-1.09045393858478","-0.0186915887850467","0.0186915887850467","0","359.9375"
"911","0.342790387182911","-0.227636849132176","-1.09045393858478","-2.01869158878505","0.0186915887850467","0","359.9375"
"911","-0.657209612817089","1.77236315086782","-0.0904539385847798","-2.01869158878505","0.0186915887850467","0","359.9375"
"917","-0.657209612817089","1.77236315086782","-0.0904539385847798","-3.01869158878505","-1.98130841121495","0","359.9375"
"917","1.34279038718291","-1.22763684913218","-0.0904539385847798","-3.01869158878505","-1.98130841121495","0","359.9375"
"923","1.34279038718291","-1.22763684913218","-0.0904539385847798","-2.01869158878505","0.0186915887850467","0","359.9375"
"924","-2.65720961281709","-0.227636849132176","1.90954606141522","-2.01869158878505","0.0186915887850467","0","359.9375"
"931","-2.65720961281709","-0.227636849132176","1.90954606141522","-2.01869158878505","2.01869158878505","0","359.9375"
"931","0.342790387182911","-0.227636849132176","-2.09045393858478","-2.01869158878505","2.01869158878505","0","359.9375"
"937","0.342790387182911","-0.227636849132176","-2.09045393858478","-1.01869158878505","-0.981308411214953","0","359.9375"
"937","1.34279038718291","-0.227636849132176","-0.0904539385847798","-1.01869158878505","-0.981308411214953","0","359.9375"
"943","1.34279038718291","-0.227636849132176","-0.0904539385847798","0.981308411214953","-0.981308411214953","0","359.9375"
"943","0.342790387182911","-0.227636849132176","1.90954606141522","0.981308411214953","-0.981308411214953","0","359.9375"
"950","0.342790387182911","-0.227636849132176","1.90954606141522","2.98130841121495","0.0186915887850467","0","359.9375"
"950","1.34279038718291","0.772363150867824","-0.0904539385847798","2.98130841121495","0.0186915887850467","0","359.9375"
"956","1.34279038718291","0.772363150867824","-0.0904539385847798","-0.0186915887850467","2.01869158878505","0","359.9375"
"956","0.342790387182911","-0.227636849132176","-1.09045393858478","-0.0186915887850467","2.01869158878505","0","359.9375"
"961","0.342790387182911","-0.227636849132176","-1.09045393858478","-0.0186915887850467","0.0186915887850467","0","359.9375"
"962","0.342790387182911","0.772363150867824","1.90954606141522","-0.0186915887850467","0.0186915887850467","0","359.9375"
"968","0.342790387182911","0.772363150867824","1.90954606141522","0.981308411214953","-1.98130841121495","0","359.9375"
"968","1.34279038718291","0.772363150867824","-0.0904539385847798","0.981308411214953","-1.98130841121495","0","359.9375"
"974","1.34279038718291","0.772363150867824","-0.0904539385847798","0.981308411214953","-0.981308411214953","0","359.9375"
"974","1.34279038718291","-2.22763684913218","-0.0904539385847798","0.981308411214953","-0.981308411214953","0","359.9375"
"981","1.34279038718291","-2.22763684913218","-0.0904539385847798","2.98130841121495","0.0186915887850467","0","359.9375"
"981","-0.657209612817089","0.772363150867824","0.90954606141522","2.98130841121495","0.0186915887850467","0","359.9375"
"990","-0.657209612817089","0.772363150867824","0.90954606141522","0.981308411214953","0.0186915887850467","0","359.9375"
"990","0.342790387182911","-0.227636849132176","-1.09045393858478","0.981308411214953","0.0186915887850467","0","359.9375"
"998","0.342790387182911","-0.227636849132176","-1.09045393858478","0.981308411214953","0.0186915887850467","0","359.9375"
"998","1.34279038718291","-1.22763684913218","0.90954606141522","0.981308411214953","0.0186915887850467","0","359.9375"
"1005","1.34279038718291","-1.22763684913218","0.90954606141522","-0.0186915887850467","2.01869158878505","0","359.9375"
"1005","1.34279038718291","-0.227636849132176","-2.09045393858478","-0.0186915887850467","2.01869158878505","0","359.9375"
"1013","1.34279038718291","-0.227636849132176","-2.09045393858478","-0.0186915887850467","-2.98130841121495","0","359.9375"
"1013","-2.65720961281709","1.77236315086782","-0.0904539385847798","-0.0186915887850467","-2.98130841121495","0","359.9375"
"1019","-2.65720961281709","1.77236315086782","-0.0904539385847798","-0.0186915887850467","0.0186915887850467","0","359.9375"
"1020","-0.657209612817089","-0.227636849132176","0.90954606141522","-0.0186915887850467","0.0186915887850467","0","359.9375"
"1026","-0.657209612817089","-0.227636849132176","0.90954606141522","-1.01869158878505","-1.98130841121495","0","359.9375"
"1026","1.34279038718291","-0.227636849132176","0.90954606141522","-1.01869158878505","-1.98130841121495","0","359.9375"
"1032","1.34279038718291","-0.227636849132176","0.90954606141522","-1.01869158878505","-1.98130841121495","0","359.9375"
"1032","-0.657209612817089","-0.227636849132176","1.90954606141522","-1.01869158878505","-1.98130841121495","0","359.9375"
"1038","-0.657209612817089","-0.227636849132176","1.90954606141522","-2.01869158878505","-0.981308411214953","0","359.9375"
"1038","0.342790387182911","-1.22763684913218","-0.0904539385847798","-2.01869158878505","-0.981308411214953","0","359.9375"
"1045","0.342790387182911","-1.22763684913218","-0.0904539385847798","1.98130841121495","-0.981308411214953","0","359.9375"
"1045","0.342790387182911","1.77236315086782","0.90954606141522","1.98130841121495","-0.981308411214953","0","359.9375"
"1050","0.342790387182911","1.77236315086782","0.90954606141522","-0.0186915887850467","0.0186915887850467","0","359.9375"
"1050","-1.65720961281709","-0.227636849132176","1.90954606141522","-0.0186915887850467","0.0186915887850467","0","359.9375"
"1057","-1.65720961281709","-0.227636849132176","1.90954606141522","-1.01869158878505","0.0186915887850467","0","359.9375"
"1057","1.34279038718291","-1.22763684913218","-1.09045393858478","-1.01869158878505","0.0186915887850467","0","359.9375"
"1063","1.34279038718291","-1.22763684913218","-1.09045393858478","-3.01869158878505","2.01869158878505","0","359.9375"
"1063","0.342790387182911","0.772363150867824","-0.0904539385847798","-3.01869158878505","2.01869158878505","0","359.9375"
"1069","0.342790387182911","0.772363150867824","-0.0904539385847798","-0.0186915887850467","0.0186915887850467","0","359.9375"
"1069","1.34279038718291","0.772363150867824","-2.09045393858478","-0.0186915887850467","0.0186915887850467","0","359.9375"
"1075","1.34279038718291","0.772363150867824","-2.09045393858478","0.981308411214953","1.01869158878505","0","359.9375"
"1075","0.342790387182911","-2.22763684913218","-0.0904539385847798","0.981308411214953","1.01869158878505","0","359.9375"
"1081","0.342790387182911","-2.22763684913218","-0.0904539385847798","0.981308411214953","0.0186915887850467","0","359.9375"
"1081","0.342790387182911","-0.227636849132176","-0.0904539385847798","0.981308411214953","0.0186915887850467","0","359.9375"
"1087","0.342790387182911","-0.227636849132176","-0.0904539385847798","-0.0186915887850467","1.01869158878505","0","359.9375"
"1087","0.342790387182911","-0.227636849132176","0.90954606141522","-0.0186915887850467","1.01869158878505","0","359.9375"
"1093","0.342790387182911","-0.227636849132176","0.90954606141522","-2.01869158878505","-0.981308411214953","0","359.9375"
"1093","1.34279038718291","-1.22763684913218","0.90954606141522","-2.01869158878505","-0.981308411214953","0","359.9375"
"1099","1.34279038718291","-1.22763684913218","0.90954606141522","-1.01869158878505","0.0186915887850467","0","359.9375"
"1099","1.34279038718291","-1.22763684913218","-0.0904539385847798","-1.01869158878505","0.0186915887850467","0","359.9375"
"1105","1.34279038718291","-1.22763684913218","-0.0904539385847798","-2.01869158878505","3.01869158878505","0","359.9375"
"1105","-2.65720961281709","0.772363150867824","0.90954606141522","-2.01869158878505","3.01869158878505","0","359.9375"
"1111","-2.65720961281709","0.772363150867824","0.90954606141522","-0.0186915887850467","1.01869158878505","0","359.9375"
"1111","1.34279038718291","-0.227636849132176","-0.0904539385847798","-0.0186915887850467","1.01869158878505","0","359.9375"
"1117","1.34279038718291","-0.227636849132176","-0.0904539385847798","1.98130841121495","1.01869158878505","0","359.9375"
"1117","0.342790387182911","2.77236315086782","1.90954606141522","1.98130841121495","1.01869158878505","0","359.9375"
"1123","0.342790387182911","2.77236315086782","1.90954606141522","-1.01869158878505","1.01869158878505","0","359.9375"
"1123","1.34279038718291","-0.227636849132176","-1.09045393858478","-1.01869158878505","1.01869158878505","0","359.9375"
"1129","1.34279038718291","-0.227636849132176","-1.09045393858478","0.981308411214953","2.01869158878505","0","359.9375"
"1130","1.34279038718291","-1.22763684913218","-0.0904539385847798","0.981308411214953","2.01869158878505","0","359.9375"
"1135","1.34279038718291","-1.22763684913218","-0.0904539385847798","1.98130841121495","-1.98130841121495","0","359.9375"
"1135","1.34279038718291","-0.227636849132176","-0.0904539385847798","1.98130841121495","-1.98130841121495","0","359.9375"
"1141","1.34279038718291","-0.227636849132176","-0.0904539385847798","1.98130841121495","-1.98130841121495","0","359.9375"
"1142","0.342790387182911","-0.227636849132176","1.90954606141522","1.98130841121495","-1.98130841121495","0","359.9375"
"1147","0.342790387182911","-0.227636849132176","1.90954606141522","0.981308411214953","-0.981308411214953","0","359.9375"
"1148","0.342790387182911","-0.227636849132176","0.90954606141522","0.981308411214953","-0.981308411214953","0","359.9375"
"1153","0.342790387182911","-0.227636849132176","0.90954606141522","0.981308411214953","-0.981308411214953","0","359.9375"
"1153","-0.657209612817089","0.772363150867824","-0.0904539385847798","0.981308411214953","-0.981308411214953","0","359.9375"
"1159","-0.657209612817089","0.772363150867824","-0.0904539385847798","2.98130841121495","0.0186915887850467","0","359.9375"
"1159","1.34279038718291","0.772363150867824","-1.09045393858478","2.98130841121495","0.0186915887850467","0","359.9375"
"1165","1.34279038718291","0.772363150867824","-1.09045393858478","3.98130841121495","2.01869158878505","0","359.9375"
"1165","0.342790387182911","-0.227636849132176","1.90954606141522","3.98130841121495","2.01869158878505","0","359.9375"
"1171","0.342790387182911","-0.227636849132176","1.90954606141522","3.98130841121495","1.01869158878505","0","359.9375"
"1171","1.34279038718291","-2.22763684913218","1.90954606141522","3.98130841121495","1.01869158878505","0","359.9375"
"1177","1.34279038718291","-2.22763684913218","1.90954606141522","0.981308411214953","-0.981308411214953","0","359.9375"
"1177","0.342790387182911","-0.227636849132176","-0.0904539385847798","0.981308411214953","-0.981308411214953","0","359.9375"
"1183","0.342790387182911","-0.227636849132176","-0.0904539385847798","-0.0186915887850467","2.01869158878505","0","359.9375"
"1183","1.34279038718291","-0.227636849132176","-0.0904539385847798","-0.0186915887850467","2.01869158878505","0","359.9375"
"1189","1.34279038718291","-0.227636849132176","-0.0904539385847798","0.981308411214953","1.01869158878505","0","359.9375"
"1189","0.342790387182911","-0.227636849132176","-1.09045393858478","0.981308411214953","1.01869158878505","0","359.9375"
"1195","0.342790387182911","-0.227636849132176","-1.09045393858478","0.981308411214953","0.0186915887850467","0","359.9375"
"1196","-0.657209612817089","-0.227636849132176","-0.0904539385847798","0.981308411214953","0.0186915887850467","0","359.9375"
"1203","-0.657209612817089","-0.227636849132176","-0.0904539385847798","-2.01869158878505","-0.981308411214953","0","359.9375"
"1203","1.34279038718291","1.77236315086782","0.90954606141522","-2.01869158878505","-0.981308411214953","0","359.9375"
"1210","1.34279038718291","1.77236315086782","0.90954606141522","-3.01869158878505","2.01869158878505","0","359.9375"
"1210","1.34279038718291","1.77236315086782","0.90954606141522","-3.01869158878505","2.01869158878505","0","359.9375"
"1218","1.34279038718291","1.77236315086782","0.90954606141522","-3.01869158878505","2.01869158878505","0","359.9375"
"1218","1.34279038718291","0.772363150867824","-1.09045393858478","-3.01869158878505","2.01869158878505","0","359.9375"
"1226","1.34279038718291","0.772363150867824","-1.09045393858478","-1.01869158878505","2.01869158878505","0","359.9375"
"1226","-1.65720961281709","-0.227636849132176","-4.09045393858478","-1.01869158878505","2.01869158878505","0","359.9375"
"1234","-1.65720961281709","-0.227636849132176","-4.09045393858478","-0.0186915887850467","1.01869158878505","0","359.9375"
"1234","-0.657209612817089","-0.227636849132176","-0.0904539385847798","-0.0186915887850467","1.01869158878505","0","359.9375"
"1242","-0.657209612817089","-0.227636849132176","-0.0904539385847798","-3.01869158878505","0.0186915887850467","0","359.9375"
"1242","-0.657209612817089","0.772363150867824","-0.0904539385847798","-3.01869158878505","0.0186915887850467","0","359.9375"
"1249","-0.657209612817089","0.772363150867824","-0.0904539385847798","-0.0186915887850467","-0.981308411214953","0","359.9375"
"1249","1.34279038718291","-0.227636849132176","-0.0904539385847798","-0.0186915887850467","-0.981308411214953","0","359.9375"
"1257","1.34279038718291","-0.227636849132176","-0.0904539385847798","-0.0186915887850467","-0.981308411214953","0","359.9375"
"1257","1.34279038718291","0.772363150867824","-2.09045393858478","-0.0186915887850467","-0.981308411214953","0","359.9375"
"1264","1.34279038718291","0.772363150867824","-2.09045393858478","1.98130841121495","2.01869158878505","0","359.9375"
"1264","-0.657209612817089","0.772363150867824","-0.0904539385847798","1.98130841121495","2.01869158878505","0","359.9375"
"1270","-0.657209612817089","0.772363150867824","-0.0904539385847798","-2.01869158878505","-0.981308411214953","0","359.9375"
"1270","1.34279038718291","-0.227636849132176","1.90954606141522","-2.01869158878505","-0.981308411214953","0","359.9375"
"1276","1.34279038718291","-0.227636849132176","1.90954606141522","-1.01869158878505","-0.981308411214953","0","359.9375"
"1276","1.34279038718291","-1.22763684913218","-0.0904539385847798","-1.01869158878505","-0.981308411214953","0","359.9375"
"1282","1.34279038718291","-1.22763684913218","-0.0904539385847798","-0.0186915887850467","0.0186915887850467","0","359.9375"
"1282","1.34279038718291","-1.22763684913218","-0.0904539385847798","-0.0186915887850467","0.0186915887850467","0","359.9375"
"1287","1.34279038718291","-1.22763684913218","-0.0904539385847798","-0.0186915887850467","0.0186915887850467","0","359.9375"
"1287","0.342790387182911","-0.227636849132176","2.90954606141522","-0.0186915887850467","0.0186915887850467","0","359.9375"
"1293","0.342790387182911","-0.227636849132176","2.90954606141522","-0.0186915887850467","1.01869158878505","0","359.9375"
"1293","0.342790387182911","-1.22763684913218","-1.09045393858478","-0.0186915887850467","1.01869158878505","0","359.9375"
"1298","0.342790387182911","-1.22763684913218","-1.09045393858478","-0.0186915887850467","1.01869158878505","0","359.9375"
"1299","1.34279038718291","-1.22763684913218","-3.09045393858478","-0.0186915887850467","1.01869158878505","0","359.9375"
"1305","1.34279038718291","-1.22763684913218","-3.09045393858478","-1.01869158878505","0.0186915887850467","0","359.9375"
"1305","1.34279038718291","-0.227636849132176","0.90954606141522","-1.01869158878505","0.0186915887850467","0","359.9375"
"1313","1.34279038718291","-0.227636849132176","0.90954606141522","2.98130841121495","-2.98130841121495","0","359.9375"
"1313","1.34279038718291","-0.227636849132176","0.90954606141522","2.98130841121495","-2.98130841121495","0","359.9375"
"1318","1.34279038718291","-0.227636849132176","0.90954606141522","2.98130841121495","-2.98130841121495","0","359.9375"
"1319","1.34279038718291","0.772363150867824","0.90954606141522","2.98130841121495","-2.98130841121495","0","359.9375"
"1324","1.34279038718291","0.772363150867824","0.90954606141522","-0.0186915887850467","-0.981308411214953","0","359.9375"
"1324","-0.657209612817089","-1.22763684913218","-1.09045393858478","-0.0186915887850467","-0.981308411214953","0","359.9375"
"1330","-0.657209612817089","-1.22763684913218","-1.09045393858478","0.981308411214953","1.01869158878505","0","359.9375"
"1330","1.34279038718291","-1.22763684913218","-1.09045393858478","0.981308411214953","1.01869158878505","0","359.9375"
"1335","1.34279038718291","-1.22763684913218","-1.09045393858478","-1.01869158878505","0.0186915887850467","0","359.9375"
"1336","0.342790387182911","-1.22763684913218","0.90954606141522","-1.01869158878505","0.0186915887850467","0","359.9375"
"1341","0.342790387182911","-1.22763684913218","0.90954606141522","-1.01869158878505","0.0186915887850467","0","359.9375"
"1341","0.342790387182911","-1.22763684913218","0.90954606141522","-1.01869158878505","0.0186915887850467","0","359.9375"
"1347","0.342790387182911","-1.22763684913218","0.90954606141522","0.981308411214953","1.01869158878505","0","359.9375"
"1347","-0.657209612817089","0.772363150867824","0.90954606141522","0.981308411214953","1.01869158878505","0","359.9375"
"1352","-0.657209612817089","0.772363150867824","0.90954606141522","1.98130841121495","1.01869158878505","0","359.9375"
"1352","1.34279038718291","0.772363150867824","1.90954606141522","1.98130841121495","1.01869158878505","0","359.9375"
"1358","1.34279038718291","0.772363150867824","1.90954606141522","-0.0186915887850467","-1.98130841121495","0","359.9375"
"1358","1.34279038718291","-0.227636849132176","-1.09045393858478","-0.0186915887850467","-1.98130841121495","0","359.9375"
"1364","1.34279038718291","-0.227636849132176","-1.09045393858478","1.98130841121495","-0.981308411214953","0","359.9375"
"1364","1.34279038718291","-0.227636849132176","-1.09045393858478","1.98130841121495","-0.981308411214953","0","359.9375"
"1369","1.34279038718291","-0.227636849132176","-1.09045393858478","-0.0186915887850467","-0.981308411214953","0","359.9375"
"1369","0.342790387182911","0.772363150867824","-0.0904539385847798","-0.0186915887850467","-0.981308411214953","0","359.9375"
"1374","0.342790387182911","0.772363150867824","-0.0904539385847798","0.981308411214953","0.0186915887850467","0","359.9375"
"1374","1.34279038718291","-0.227636849132176","-0.0904539385847798","0.981308411214953","0.0186915887850467","0","359.9375"
"1379","1.34279038718291","-0.227636849132176","-0.0904539385847798","2.98130841121495","3.01869158878505","0","359.9375"
"1380","0.342790387182911","-2.22763684913218","-2.09045393858478","2.98130841121495","3.01869158878505","0","359.9375"
"1385","0.342790387182911","-2.22763684913218","-2.09045393858478","2.98130841121495","2.01869158878505","0","359.9375"
"1385","0.342790387182911","-0.227636849132176","-2.09045393858478","2.98130841121495","2.01869158878505","0","359.9375"
"1391","0.342790387182911","-0.227636849132176","-2.09045393858478","2.98130841121495","0.0186915887850467","0","359.9375"
"1391","-1.65720961281709","0.772363150867824","-1.09045393858478","2.98130841121495","0.0186915887850467","0","359.9375"
"1397","-1.65720961281709","0.772363150867824","-1.09045393858478","-0.0186915887850467","-0.981308411214953","0","359.9375"
"1397","-1.65720961281709","0.772363150867824","-1.09045393858478","-0.0186915887850467","-0.981308411214953","0","359.9375"
"1403","-1.65720961281709","0.772363150867824","-1.09045393858478","-0.0186915887850467","0.0186915887850467","0","359.9375"
"1403","-1.65720961281709","-1.22763684913218","0.90954606141522","-0.0186915887850467","0.0186915887850467","0","359.9375"
"1409","-1.65720961281709","-1.22763684913218","0.90954606141522","1.98130841121495","-0.981308411214953","0","359.9375"
"1409","0.342790387182911","-0.227636849132176","-0.0904539385847798","1.98130841121495","-0.981308411214953","0","359.9375"
"1416","0.342790387182911","-0.227636849132176","-0.0904539385847798","-2.01869158878505","1.01869158878505","0","359.9375"
"1416","1.34279038718291","-0.227636849132176","0.90954606141522","-2.01869158878505","1.01869158878505","0","359.9375"
"1423","1.34279038718291","-0.227636849132176","0.90954606141522","-0.0186915887850467","2.01869158878505","0","359.9375"
"1423","-1.65720961281709","1.77236315086782","-0.0904539385847798","-0.0186915887850467","2.01869158878505","0","359.9375"
"1431","-1.65720961281709","1.77236315086782","-0.0904539385847798","-1.01869158878505","0.0186915887850467","0","359.9375"
"1431","-1.65720961281709","1.77236315086782","-0.0904539385847798","-1.01869158878505","0.0186915887850467","0","359.9375"
"1438","-1.65720961281709","1.77236315086782","-0.0904539385847798","0.981308411214953","-1.98130841121495","0","359.9375"
"1438","-2.65720961281709","1.77236315086782","-0.0904539385847798","0.981308411214953","-1.98130841121495","0","359.9375"
"1446","-2.65720961281709","1.77236315086782","-0.0904539385847798","-1.01869158878505","2.01869158878505","0","359.9375"
"1446","0.342790387182911","-0.227636849132176","-0.0904539385847798","-1.01869158878505","2.01869158878505","0","359.9375"
"1454","0.342790387182911","-0.227636849132176","-0.0904539385847798","-2.01869158878505","-0.981308411214953","0","359.9375"
"1454","1.34279038718291","-0.227636849132176","0.90954606141522","-2.01869158878505","-0.981308411214953","0","359.9375"
"1461","1.34279038718291","-0.227636849132176","0.90954606141522","-0.0186915887850467","-0.981308411214953","0","359.9375"
"1461","-0.657209612817089","-1.22763684913218","-2.09045393858478","-0.0186915887850467","-0.981308411214953","0","359.9375"
"1466","-0.657209612817089","-1.22763684913218","-2.09045393858478","0.981308411214953","-2.98130841121495","0","359.9375"
"1466","-0.657209612817089","-1.22763684913218","-2.09045393858478","0.981308411214953","-2.98130841121495","0","359.9375"
"1473","-0.657209612817089","-1.22763684913218","-2.09045393858478","1.98130841121495","-0.981308411214953","0","359.9375"
"1474","1.34279038718291","-0.227636849132176","-0.0904539385847798","1.98130841121495","-0.981308411214953","0","359.9375"
"1479","1.34279038718291","-0.227636849132176","-0.0904539385847798","-2.01869158878505","1.01869158878505","0","359.9375"
"1480","0.342790387182911","-0.227636849132176","0.90954606141522","-2.01869158878505","1.01869158878505","0","359.9375"
"1485","0.342790387182911","-0.227636849132176","0.90954606141522","-0.0186915887850467","0.0186915887850467","0","359.9375"
"1486","0.342790387182911","-0.227636849132176","-0.0904539385847798","-0.0186915887850467","0.0186915887850467","0","359.9375"
"1492","0.342790387182911","-0.227636849132176","-0.0904539385847798","1.98130841121495","0.0186915887850467","0","359.9375"
"1492","0.342790387182911","0.772363150867824","0.90954606141522","1.98130841121495","0.0186915887850467","0","359.9375"
"1497","0.342790387182911","0.772363150867824","0.90954606141522","-0.0186915887850467","0.0186915887850467","0","359.9375"
"1498","0.342790387182911","0.772363150867824","0.90954606141522","-0.0186915887850467","0.0186915887850467","0","359.9375"
"1503","0.342790387182911","0.772363150867824","0.90954606141522","0.981308411214953","-1.98130841121495","0","359.9375"
"1503","0.342790387182911","-0.227636849132176","-0.0904539385847798","0.981308411214953","-1.98130841121495","0","359.9375"
"1508","0.342790387182911","-0.227636849132176","-0.0904539385847798","-0.0186915887850467","1.01869158878505","0","359.9375"
"1508","-0.657209612817089","-0.227636849132176","-2.09045393858478","-0.0186915887850467","1.01869158878505","0","359.9375"
"1513","-0.657209612817089","-0.227636849132176","-2.09045393858478","-0.0186915887850467","-0.981308411214953","0","359.9375"
"1513","-1.65720961281709","-0.227636849132176","-2.09045393858478","-0.0186915887850467","-0.981308411214953","0","359.9375"
"1519","-1.65720961281709","-0.227636849132176","-2.09045393858478","0.981308411214953","0.0186915887850467","0","359.9375"
"1519","1.34279038718291","-0.227636849132176","1.90954606141522","0.981308411214953","0.0186915887850467","0","359.9375"
"1525","1.34279038718291","-0.227636849132176","1.90954606141522","0.981308411214953","-2.98130841121495","0","359.9375"
"1525","1.34279038718291","-0.227636849132176","1.90954606141522","0.981308411214953","-2.98130841121495","0","359.9375"
"1530","1.34279038718291","-0.227636849132176","1.90954606141522","-0.0186915887850467","1.01869158878505","0","359.9375"
"1530","-0.657209612817089","-0.227636849132176","-0.0904539385847798","-0.0186915887850467","1.01869158878505","0","359.9375"
"1536","-0.657209612817089","-0.227636849132176","-0.0904539385847798","-2.01869158878505","-0.981308411214953","0","359.9375"
"1536","0.342790387182911","-0.227636849132176","-2.09045393858478","-2.01869158878505","-0.981308411214953","0","359.9375"
"1542","0.342790387182911","-0.227636849132176","-2.09045393858478","1.98130841121495","1.01869158878505","0","359.9375"
"1542","1.34279038718291","0.772363150867824","-1.09045393858478","1.98130841121495","1.01869158878505","0","359.9375"
"1547","1.34279038718291","0.772363150867824","-1.09045393858478","0.981308411214953","-0.981308411214953","0","359.9375"
"1547","0.342790387182911","-0.227636849132176","0.90954606141522","0.981308411214953","-0.981308411214953","0","359.9375"
"1553","0.342790387182911","-0.227636849132176","0.90954606141522","0.981308411214953","-0.981308411214953","0","359.9375"
"1553","0.342790387182911","-0.227636849132176","0.90954606141522","0.981308411214953","-0.981308411214953","0","359.9375"
"1559","0.342790387182911","-0.227636849132176","0.90954606141522","-0.0186915887850467","-0.981308411214953","0","359.9375"
"1559","1.34279038718291","-0.227636849132176","-0.0904539385847798","-0.0186915887850467","-0.981308411214953","0","359.9375"
"1564","1.34279038718291","-0.227636849132176","-0.0904539385847798","-3.01869158878505","1.01869158878505","0","359.9375"
"1564","0.342790387182911","-1.22763684913218","-3.09045393858478","-3.01869158878505","1.01869158878505","0","359.9375"
"1570","0.342790387182911","-1.22763684913218","-3.09045393858478","0.981308411214953","-0.981308411214953","0","359.9375"
"1571","0.342790387182911","-0.227636849132176","-1.09045393858478","0.981308411214953","-0.981308411214953","0","359.9375"
"1577","0.342790387182911","-0.227636849132176","-1.09045393858478","-2.01869158878505","-1.98130841121495","0","359.9375"
"1577","1.34279038718291","-0.227636849132176","-1.09045393858478","-2.01869158878505","-1.98130841121495","0","359.9375"
"1583","1.34279038718291","-0.227636849132176","-1.09045393858478","-1.01869158878505","-0.981308411214953","0","359.9375"
"1583","1.34279038718291","-0.227636849132176","-1.09045393858478","-1.01869158878505","-0.981308411214953","0","359.9375"
"1588","1.34279038718291","-0.227636849132176","-1.09045393858478","0.981308411214953","1.01869158878505","0","359.9375"
"1589","1.34279038718291","-0.227636849132176","-0.0904539385847798","0.981308411214953","1.01869158878505","0","359.9375"
"1595","1.34279038718291","-0.227636849132176","-0.0904539385847798","1.98130841121495","-0.981308411214953","0","359.9375"
"1595","-0.657209612817089","-0.227636849132176","-2.09045393858478","1.98130841121495","-0.981308411214953","0","359.9375"
"1600","-0.657209612817089","-0.227636849132176","-2.09045393858478","-2.01869158878505","2.01869158878505","0","359.9375"
"1600","0.342790387182911","0.772363150867824","-0.0904539385847798","-2.01869158878505","2.01869158878505","0","359.9375"
"1607","0.342790387182911","0.772363150867824","-0.0904539385847798","-1.01869158878505","1.01869158878505","0","359.9375"
"1607","0.342790387182911","-0.227636849132176","-0.0904539385847798","-1.01869158878505","1.01869158878505","0","359.9375"
"1613","0.342790387182911","-0.227636849132176","-0.0904539385847798","-2.01869158878505","2.01869158878505","0","359.9375"
"1613","0.342790387182911","-0.227636849132176","-0.0904539385847798","-2.01869158878505","2.01869158878505","0","359.9375"
"1619","0.342790387182911","-0.227636849132176","-0.0904539385847798","-3.01869158878505","1.01869158878505","0","359.9375"
"1619","0.342790387182911","-0.227636849132176","0.90954606141522","-3.01869158878505","1.01869158878505","0","359.9375"
"1625","0.342790387182911","-0.227636849132176","0.90954606141522","-2.01869158878505","0.0186915887850467","0","359.9375"
"1625","0.342790387182911","-0.227636849132176","-3.09045393858478","-2.01869158878505","0.0186915887850467","0","359.9375"
"1632","0.342790387182911","-0.227636849132176","-3.09045393858478","-0.0186915887850467","1.01869158878505","0","359.9375"
"1632","-0.657209612817089","0.772363150867824","-0.0904539385847798","-0.0186915887850467","1.01869158878505","0","359.9375"
"1638","-0.657209612817089","0.772363150867824","-0.0904539385847798","0.981308411214953","0.0186915887850467","0","359.9375"
"1639","0.342790387182911","0.772363150867824","-0.0904539385847798","0.981308411214953","0.0186915887850467","0","359.9375"
"1645","0.342790387182911","0.772363150867824","-0.0904539385847798","-1.01869158878505","0.0186915887850467","0","359.9375"
"1645","0.342790387182911","0.772363150867824","-0.0904539385847798","-1.01869158878505","0.0186915887850467","0","359.9375"
"1652","0.342790387182911","0.772363150867824","-0.0904539385847798","0.981308411214953","-0.981308411214953","0","359.9375"
"1652","-0.657209612817089","-0.227636849132176","0.90954606141522","0.981308411214953","-0.981308411214953","0","359.9375"
"1658","-0.657209612817089","-0.227636849132176","0.90954606141522","0.981308411214953","2.01869158878505","0","359.9375"
"1659","-0.657209612817089","-0.227636849132176","-1.09045393858478","0.981308411214953","2.01869158878505","0","359.9375"
"1665","-0.657209612817089","-0.227636849132176","-1.09045393858478","-1.01869158878505","1.01869158878505","0","359.9375"
"1665","-1.65720961281709","0.772363150867824","0.90954606141522","-1.01869158878505","1.01869158878505","0","359.9375"
"1672","-1.65720961281709","0.772363150867824","0.90954606141522","-0.0186915887850467","0.0186915887850467","0","359.9375"
"1672","-0.657209612817089","2.77236315086782","-2.09045393858478","-0.0186915887850467","0.0186915887850467","0","359.9375"
"1678","-0.657209612817089","2.77236315086782","-2.09045393858478","-2.01869158878505","1.01869158878505","0","359.9375"
"1679","-0.657209612817089","2.77236315086782","-2.09045393858478","-2.01869158878505","1.01869158878505","0","359.9375"
"1685","-0.657209612817089","2.77236315086782","-2.09045393858478","-1.01869158878505","1.01869158878505","0","359.9375"
"1685","1.34279038718291","-2.22763684913218","1.90954606141522","-1.01869158878505","1.01869158878505","0","359.9375"
"1691","1.34279038718291","-2.22763684913218","1.90954606141522","-0.0186915887850467","0.0186915887850467","0","359.9375"
"1691","-0.657209612817089","-0.227636849132176","-2.09045393858478","-0.0186915887850467","0.0186915887850467","0","359.9375"
"1697","-0.657209612817089","-0.227636849132176","-2.09045393858478","-2.01869158878505","1.01869158878505","0","359.9375"
"1697","-0.657209612817089","-0.227636849132176","0.90954606141522","-2.01869158878505","1.01869158878505","0","359.9375"
"1703","-0.657209612817089","-0.227636849132176","0.90954606141522","-0.0186915887850467","0.0186915887850467","0","359.9375"
"1704","0.342790387182911","-0.227636849132176","1.90954606141522","-0.0186915887850467","0.0186915887850467","0","359.9375"
"1709","0.342790387182911","-0.227636849132176","1.90954606141522","0.981308411214953","-0.981308411214953","0","359.9375"
"1710","0.342790387182911","-0.227636849132176","1.90954606141522","0.981308411214953","-0.981308411214953","0","359.9375"
"1715","0.342790387182911","-0.227636849132176","1.90954606141522","-1.01869158878505","-0.981308411214953","0","359.9375"
"1715","-2.65720961281709","-0.227636849132176","-0.0904539385847798","-1.01869158878505","-0.981308411214953","0","359.9375"
"1722","-2.65720961281709","-0.227636849132176","-0.0904539385847798","-1.01869158878505","2.01869158878505","0","359.9375"
"1722","-0.657209612817089","1.77236315086782","-2.09045393858478","-1.01869158878505","2.01869158878505","0","359.9375"
"1728","-0.657209612817089","1.77236315086782","-2.09045393858478","3.98130841121495","2.01869158878505","0","359.9375"
"1728","1.34279038718291","-0.227636849132176","0.90954606141522","3.98130841121495","2.01869158878505","0","359.9375"
"1734","1.34279038718291","-0.227636849132176","0.90954606141522","-0.0186915887850467","-0.981308411214953","0","359.9375"
"1734","0.342790387182911","-0.227636849132176","0.90954606141522","-0.0186915887850467","-0.981308411214953","0","359.9375"
"1740","0.342790387182911","-0.227636849132176","0.90954606141522","-1.01869158878505","1.01869158878505","0","359.9375"
"1740","0.342790387182911","-0.227636849132176","0.90954606141522","-1.01869158878505","1.01869158878505","0","359.9375"
"1747","0.342790387182911","-0.227636849132176","0.90954606141522","-1.01869158878505","0.0186915887850467","0","359.9375"
"1747","1.34279038718291","-0.227636849132176","-1.09045393858478","-1.01869158878505","0.0186915887850467","0","359.9375"
"1752","1.34279038718291","-0.227636849132176","-1.09045393858478","-0.0186915887850467","0.0186915887850467","0","359.9375"
"1753","-0.657209612817089","1.77236315086782","-2.09045393858478","-0.0186915887850467","0.0186915887850467","0","359.9375"
"1758","-0.657209612817089","1.77236315086782","-2.09045393858478","2.98130841121495","0.0186915887850467","0","359.9375"
"1759","1.34279038718291","-0.227636849132176","-2.09045393858478","2.98130841121495","0.0186915887850467","0","359.9375"
"1764","1.34279038718291","-0.227636849132176","-2.09045393858478","1.98130841121495","-0.981308411214953","0","359.9375"
"1765","-0.657209612817089","-0.227636849132176","-0.0904539385847798","1.98130841121495","-0.981308411214953","0","359.9375"
"1770","-0.657209612817089","-0.227636849132176","-0.0904539385847798","-0.0186915887850467","1.01869158878505","0","359.9375"
"1770","-0.657209612817089","-0.227636849132176","-0.0904539385847798","-0.0186915887850467","1.01869158878505","0","359.9375"
"1777","-0.657209612817089","-0.227636849132176","-0.0904539385847798","-0.0186915887850467","0.0186915887850467","0","359.9375"
"1777","0.342790387182911","-0.227636849132176","0.90954606141522","-0.0186915887850467","0.0186915887850467","0","359.9375"
"1783","0.342790387182911","-0.227636849132176","0.90954606141522","-2.01869158878505","-1.98130841121495","0","359.9375"
"1783","1.34279038718291","-0.227636849132176","-1.09045393858478","-2.01869158878505","-1.98130841121495","0","359.9375"
"1789","1.34279038718291","-0.227636849132176","-1.09045393858478","-1.01869158878505","1.01869158878505","0","359.9375"
"1789","-0.657209612817089","-0.227636849132176","-1.09045393858478","-1.01869158878505","1.01869158878505","0","359.9375"
"1796","-0.657209612817089","-0.227636849132176","-1.09045393858478","0.981308411214953","-0.981308411214953","0","359.9375"
"1796","1.34279038718291","0.772363150867824","2.90954606141522","0.981308411214953","-0.981308411214953","0","359.9375"
"1802","1.34279038718291","0.772363150867824","2.90954606141522","-0.0186915887850467","-2.98130841121495","0","359.9375"
"1802","1.34279038718291","0.772363150867824","2.90954606141522","-0.0186915887850467","-2.98130841121495","0","359.9375"
"1808","1.34279038718291","0.772363150867824","2.90954606141522","-1.01869158878505","-0.981308411214953","0","359.9375"
"1808","-0.657209612817089","-0.227636849132176","-0.0904539385847798","-1.01869158878505","-0.981308411214953","0","359.9375"
"1813","-0.657209612817089","-0.227636849132176","-0.0904539385847798","1.98130841121495","0.0186915887850467","0","359.9375"
"1814","0.342790387182911","0.772363150867824","-2.09045393858478","1.98130841121495","0.0186915887850467","0","359.9375"
"1819","0.342790387182911","0.772363150867824","-2.09045393858478","-2.01869158878505","2.01869158878505","0","359.9375"
"1819","0.342790387182911","-0.227636849132176","-0.0904539385847798","-2.01869158878505","2.01869158878505","0","359.9375"
"1825","0.342790387182911","-0.227636849132176","-0.0904539385847798","-0.0186915887850467","2.01869158878505","0","359.9375"
"1825","1.34279038718291","-0.227636849132176","0.90954606141522","-0.0186915887850467","2.01869158878505","0","359.9375"
"1830","1.34279038718291","-0.227636849132176","0.90954606141522","-1.01869158878505","0.0186915887850467","0","359.9375"
"1830","1.34279038718291","-0.227636849132176","0.90954606141522","-1.01869158878505","0.0186915887850467","0","359.9375"
"1839","1.34279038718291","-0.227636849132176","0.90954606141522","0.981308411214953","0.0186915887850467","0","359.9375"
"1839","1.34279038718291","-1.22763684913218","-0.0904539385847798","0.981308411214953","0.0186915887850467","0","359.9375"
"1845","1.34279038718291","-1.22763684913218","-0.0904539385847798","-0.0186915887850467","-1.98130841121495","0","359.9375"
"1845","0.342790387182911","-0.227636849132176","-0.0904539385847798","-0.0186915887850467","-1.98130841121495","0","359.9375"
"1851","0.342790387182911","-0.227636849132176","-0.0904539385847798","-2.01869158878505","-0.981308411214953","0","359.9375"
"1851","-1.65720961281709","-0.227636849132176","1.90954606141522","-2.01869158878505","-0.981308411214953","0","359.9375"
"1858","-1.65720961281709","-0.227636849132176","1.90954606141522","-2.01869158878505","0.0186915887850467","0","359.9375"
"1859","1.34279038718291","0.772363150867824","-0.0904539385847798","-2.01869158878505","0.0186915887850467","0","359.9375"
"1864","1.34279038718291","0.772363150867824","-0.0904539385847798","1.98130841121495","1.01869158878505","0","359.9375"
"1864","1.34279038718291","0.772363150867824","-0.0904539385847798","1.98130841121495","1.01869158878505","0","359.9375"
"1871","1.34279038718291","0.772363150867824","-0.0904539385847798","0.981308411214953","0.0186915887850467","0","359.9375"
"1871","1.34279038718291","0.772363150867824","2.90954606141522","0.981308411214953","0.0186915887850467","0","359.9375"
"1878","1.34279038718291","0.772363150867824","2.90954606141522","0.981308411214953","-1.98130841121495","0","359.9375"
"1878","-1.65720961281709","-0.227636849132176","-0.0904539385847798","0.981308411214953","-1.98130841121495","0","359.9375"
"1884","-1.65720961281709","-0.227636849132176","-0.0904539385847798","-0.0186915887850467","1.01869158878505","0","359.9375"
"1884","-1.65720961281709","-0.227636849132176","-0.0904539385847798","-0.0186915887850467","1.01869158878505","0","359.9375"
"1890","-1.65720961281709","-0.227636849132176","-0.0904539385847798","0.981308411214953","0.0186915887850467","0","359.9375"
"1890","0.342790387182911","0.772363150867824","0.90954606141522","0.981308411214953","0.0186915887850467","0","359.9375"
"1896","0.342790387182911","0.772363150867824","0.90954606141522","-1.01869158878505","-1.98130841121495","0","359.9375"
"1896","0.342790387182911","0.772363150867824","0.90954606141522","-1.01869158878505","-1.98130841121495","0","359.9375"
"1902","0.342790387182911","0.772363150867824","0.90954606141522","0.981308411214953","-2.98130841121495","0","359.9375"
"1902","0.342790387182911","0.772363150867824","-0.0904539385847798","0.981308411214953","-2.98130841121495","0","359.9375"
"1908","0.342790387182911","0.772363150867824","-0.0904539385847798","-2.01869158878505","0.0186915887850467","0","359.9375"
"1908","0.342790387182911","0.772363150867824","-0.0904539385847798","-2.01869158878505","0.0186915887850467","0","359.9375"
"1913","0.342790387182911","0.772363150867824","-0.0904539385847798","-1.01869158878505","-1.98130841121495","0","359.9375"
"1913","-0.657209612817089","-0.227636849132176","-2.09045393858478","-1.01869158878505","-1.98130841121495","0","359.9375"
"1919","-0.657209612817089","-0.227636849132176","-2.09045393858478","0.981308411214953","-0.981308411214953","0","359.9375"
"1920","-0.657209612817089","-0.227636849132176","0.90954606141522","0.981308411214953","-0.981308411214953","0","359.9375"
"1925","-0.657209612817089","-0.227636849132176","0.90954606141522","0.981308411214953","-2.98130841121495","0","359.9375"
"1925","-0.657209612817089","-0.227636849132176","0.90954606141522","0.981308411214953","-2.98130841121495","0","359.9375"
"1931","-0.657209612817089","-0.227636849132176","0.90954606141522","0.981308411214953","-0.981308411214953","0","359.9375"
"1931","-0.657209612817089","-0.227636849132176","1.90954606141522","0.981308411214953","-0.981308411214953","0","359.9375"
"1937","-0.657209612817089","-0.227636849132176","1.90954606141522","0.981308411214953","-1.98130841121495","0","359.9375"
"1937","1.34279038718291","-0.227636849132176","-0.0904539385847798","0.981308411214953","-1.98130841121495","0","359.9375"
"1944","1.34279038718291","-0.227636849132176","-0.0904539385847798","2.98130841121495","-1.98130841121495","0","359.9375"
"1944","0.342790387182911","-0.227636849132176","-1.09045393858478","2.98130841121495","-1.98130841121495","0","359.9375"
"1951","0.342790387182911","-0.227636849132176","-1.09045393858478","0.981308411214953","2.01869158878505","0","359.9375"
"1951","0.342790387182911","1.77236315086782","-1.09045393858478","0.981308411214953","2.01869158878505","0","359.9375"
"1957","0.342790387182911","1.77236315086782","-1.09045393858478","-1.01869158878505","-0.981308411214953","0","359.9375"
"1957","0.342790387182911","1.77236315086782","-1.09045393858478","-1.01869158878505","-0.981308411214953","0","359.9375"
"1963","0.342790387182911","1.77236315086782","-1.09045393858478","1.98130841121495","0.0186915887850467","0","359.9375"
"1963","0.342790387182911","-1.22763684913218","-0.0904539385847798","1.98130841121495","0.0186915887850467","0","359.9375"
"1969","0.342790387182911","-1.22763684913218","-0.0904539385847798","-2.01869158878505","1.01869158878505","0","359.9375"
"1969","1.34279038718291","1.77236315086782","-2.09045393858478","-2.01869158878505","1.01869158878505","0","359.9375"
"1975","1.34279038718291","1.77236315086782","-2.09045393858478","-0.0186915887850467","1.01869158878505","0","359.9375"
"1975","-0.657209612817089","-0.227636849132176","-1.09045393858478","-0.0186915887850467","1.01869158878505","0","359.9375"
"1980","-0.657209612817089","-0.227636849132176","-1.09045393858478","-1.01869158878505","3.01869158878505","0","359.9375"
"1981","0.342790387182911","-0.227636849132176","-1.09045393858478","-1.01869158878505","3.01869158878505","0","359.9375"
"1986","0.342790387182911","-0.227636849132176","-1.09045393858478","-1.01869158878505","-0.981308411214953","0","359.9375"
"1987","1.34279038718291","1.77236315086782","-1.09045393858478","-1.01869158878505","-0.981308411214953","0","359.9375"
"1992","1.34279038718291","1.77236315086782","-1.09045393858478","-0.0186915887850467","2.01869158878505","0","359.9375"
"1993","1.34279038718291","-1.22763684913218","-1.09045393858478","-0.0186915887850467","2.01869158878505","0","359.9375"
"1999","1.34279038718291","-1.22763684913218","-1.09045393858478","2.98130841121495","0.0186915887850467","0","359.9375"
"1999","0.342790387182911","0.772363150867824","-1.09045393858478","2.98130841121495","0.0186915887850467","0","359.9375"
"2004","0.342790387182911","0.772363150867824","-1.09045393858478","-2.01869158878505","3.01869158878505","0","359.9375"
"2004","-0.657209612817089","-0.227636849132176","-0.0904539385847798","-2.01869158878505","3.01869158878505","0","359.9375"
"2010","-0.657209612817089","-0.227636849132176","-0.0904539385847798","0.981308411214953","0.0186915887850467","0","359.9375"
"2010","0.342790387182911","-0.227636849132176","-0.0904539385847798","0.981308411214953","0.0186915887850467","0","359.9375"
"2016","0.342790387182911","-0.227636849132176","-0.0904539385847798","-0.0186915887850467","0.0186915887850467","0","359.9375"
"2016","1.34279038718291","-0.227636849132176","1.90954606141522","-0.0186915887850467","0.0186915887850467","0","359.9375"
"2022","1.34279038718291","-0.227636849132176","1.90954606141522","-0.0186915887850467","1.01869158878505","0","359.9375"
"2022","0.342790387182911","1.77236315086782","0.90954606141522","-0.0186915887850467","1.01869158878505","0","359.9375"
"2028","0.342790387182911","1.77236315086782","0.90954606141522","1.98130841121495","3.01869158878505","0","359.9375"
"2028","0.342790387182911","-0.227636849132176","-0.0904539385847798","1.98130841121495","3.01869158878505","0","359.9375"
"2034","0.342790387182911","-0.227636849132176","-0.0904539385847798","1.98130841121495","2.01869158878505","0","359.9375"
"2034","0.342790387182911","0.772363150867824","-1.09045393858478","1.98130841121495","2.01869158878505","0","359.9375"
"2040","0.342790387182911","0.772363150867824","-1.09045393858478","1.98130841121495","-0.981308411214953","0","359.9375"
"2041","-1.65720961281709","-0.227636849132176","0.90954606141522","1.98130841121495","-0.981308411214953","0","359.9375"
"2048","-1.65720961281709","-0.227636849132176","0.90954606141522","-1.01869158878505","1.01869158878505","0","359.9375"
"2048","1.34279038718291","-0.227636849132176","-1.09045393858478","-1.01869158878505","1.01869158878505","0","359.9375"
"2054","1.34279038718291","-0.227636849132176","-1.09045393858478","-1.01869158878505","2.01869158878505","0","359.9375"
"2054","0.342790387182911","-0.227636849132176","3.90954606141522","-1.01869158878505","2.01869158878505","0","359.9375"
"2061","0.342790387182911","-0.227636849132176","3.90954606141522","-1.01869158878505","4.01869158878505","0","359.9375"
"2061","0.342790387182911","-0.227636849132176","-0.0904539385847798","-1.01869158878505","4.01869158878505","0","359.9375"
"2068","0.342790387182911","-0.227636849132176","-0.0904539385847798","0.981308411214953","3.01869158878505","0","359.9375"
"2069","-0.657209612817089","-0.227636849132176","-2.09045393858478","0.981308411214953","3.01869158878505","0","359.9375"
"2075","-0.657209612817089","-0.227636849132176","-2.09045393858478","0.981308411214953","2.01869158878505","0","359.9375"
"2075","1.34279038718291","-0.227636849132176","-2.09045393858478","0.981308411214953","2.01869158878505","0","359.9375"
"2082","1.34279038718291","-0.227636849132176","-2.09045393858478","-0.0186915887850467","-1.98130841121495","0","359.9375"
"2082","1.34279038718291","-0.227636849132176","-2.09045393858478","-0.0186915887850467","-1.98130841121495","0","359.9375"
"2089","1.34279038718291","-0.227636849132176","-2.09045393858478","0.981308411214953","1.01869158878505","0","359.9375"
"2089","0.342790387182911","0.772363150867824","0.90954606141522","0.981308411214953","1.01869158878505","0","359.9375"
"2095","0.342790387182911","0.772363150867824","0.90954606141522","-1.01869158878505","-1.98130841121495","0","359.9375"
"2096","-1.65720961281709","-1.22763684913218","-2.09045393858478","-1.01869158878505","-1.98130841121495","0","359.9375"
"2102","-1.65720961281709","-1.22763684913218","-2.09045393858478","-0.0186915887850467","-1.98130841121495","0","359.9375"
"2102","-1.65720961281709","-0.227636849132176","-1.09045393858478","-0.0186915887850467","-1.98130841121495","0","359.9375"
"2109","-1.65720961281709","-0.227636849132176","-1.09045393858478","2.98130841121495","-0.981308411214953","0","359.9375"
"2109","1.34279038718291","-0.227636849132176","-0.0904539385847798","2.98130841121495","-0.981308411214953","0","359.9375"
"2115","1.34279038718291","-0.227636849132176","-0.0904539385847798","3.98130841121495","1.01869158878505","0","359.9375"
"2115","1.34279038718291","1.77236315086782","0.90954606141522","3.98130841121495","1.01869158878505","0","359.9375"
"2121","1.34279038718291","1.77236315086782","0.90954606141522","-3.01869158878505","1.01869158878505","0","359.9375"
"2122","1.34279038718291","-0.227636849132176","1.90954606141522","-3.01869158878505","1.01869158878505","0","359.9375"
"2128","1.34279038718291","-0.227636849132176","1.90954606141522","-4.01869158878505","2.01869158878505","0","359.9375"
"2128","0.342790387182911","-0.227636849132176","0.90954606141522","-4.01869158878505","2.01869158878505","0","359.9375"
"2133","0.342790387182911","-0.227636849132176","0.90954606141522","3.98130841121495","0.0186915887850467","0","359.9375"
"2133","-1.65720961281709","-0.227636849132176","-0.0904539385847798","3.98130841121495","0.0186915887850467","0","359.9375"
"2139","-1.65720961281709","-0.227636849132176","-0.0904539385847798","0.981308411214953","0.0186915887850467","0","359.9375"
"2139","0.342790387182911","-0.227636849132176","-1.09045393858478","0.981308411214953","0.0186915887850467","0","359.9375"
"2145","0.342790387182911","-0.227636849132176","-1.09045393858478","1.98130841121495","1.01869158878505","0","359.9375"
"2145","0.342790387182911","0.772363150867824","1.90954606141522","1.98130841121495","1.01869158878505","0","359.9375"
"2150","0.342790387182911","0.772363150867824","1.90954606141522","1.98130841121495","1.01869158878505","0","359.9375"
"2151","1.34279038718291","-0.227636849132176","-0.0904539385847798","1.98130841121495","1.01869158878505","0","359.9375"
"2156","1.34279038718291","-0.227636849132176","-0.0904539385847798","-0.0186915887850467","0.0186915887850467","0","359.9375"
"2156","0.342790387182911","-0.227636849132176","0.90954606141522","-0.0186915887850467","0.0186915887850467","0","359.9375"
"2162","0.342790387182911","-0.227636849132176","0.90954606141522","0.981308411214953","-0.981308411214953","0","359.9375"
"2162","1.34279038718291","-0.227636849132176","-0.0904539385847798","0.981308411214953","-0.981308411214953","0","359.9375"
"2167","1.34279038718291","-0.227636849132176","-0.0904539385847798","1.98130841121495","4.01869158878505","0","359.9375"
"2167","1.34279038718291","-0.227636849132176","-1.09045393858478","1.98130841121495","4.01869158878505","0","359.9375"
"2173","1.34279038718291","-0.227636849132176","-1.09045393858478","-0.0186915887850467","0.0186915887850467","0","359.9375"
"2173","-1.65720961281709","-0.227636849132176","-1.09045393858478","-0.0186915887850467","0.0186915887850467","0","359.9375"
"2179","-1.65720961281709","-0.227636849132176","-1.09045393858478","1.98130841121495","0.0186915887850467","0","359.9375"
"2179","-0.657209612817089","0.772363150867824","1.90954606141522","1.98130841121495","0.0186915887850467","0","359.9375"
"2184","-0.657209612817089","0.772363150867824","1.90954606141522","-2.01869158878505","1.01869158878505","0","359.9375"
"2184","0.342790387182911","-0.227636849132176","0.90954606141522","-2.01869158878505","1.01869158878505","0","359.9375"
"2190","0.342790387182911","-0.227636849132176","0.90954606141522","0.981308411214953","1.01869158878505","0","359.9375"
"2190","1.34279038718291","-0.227636849132176","-1.09045393858478","0.981308411214953","1.01869158878505","0","359.9375"
"2197","1.34279038718291","-0.227636849132176","-1.09045393858478","-0.0186915887850467","2.01869158878505","0","359.9375"
"2197","1.34279038718291","-0.227636849132176","1.90954606141522","-0.0186915887850467","2.01869158878505","0","359.9375"
"2203","1.34279038718291","-0.227636849132176","1.90954606141522","-1.01869158878505","-0.981308411214953","0","359.9375"
"2203","-1.65720961281709","-0.227636849132176","-1.09045393858478","-1.01869158878505","-0.981308411214953","0","359.9375"
"2208","-1.65720961281709","-0.227636849132176","-1.09045393858478","0.981308411214953","2.01869158878505","0","359.9375"
"2209","0.342790387182911","-0.227636849132176","0.90954606141522","0.981308411214953","2.01869158878505","0","359.9375"
"2215","0.342790387182911","-0.227636849132176","0.90954606141522","1.98130841121495","0.0186915887850467","0","359.9375"
"2215","-0.657209612817089","1.77236315086782","0.90954606141522","1.98130841121495","0.0186915887850467","0","359.9375"
"2221","-0.657209612817089","1.77236315086782","0.90954606141522","4.98130841121495","1.01869158878505","0","359.9375"
"2221","0.342790387182911","-0.227636849132176","-3.09045393858478","4.98130841121495","1.01869158878505","0","359.9375"
"2227","0.342790387182911","-0.227636849132176","-3.09045393858478","-0.0186915887850467","2.01869158878505","0","359.9375"
"2227","0.342790387182911","-1.22763684913218","-1.09045393858478","-0.0186915887850467","2.01869158878505","0","359.9375"
"2233","0.342790387182911","-1.22763684913218","-1.09045393858478","1.98130841121495","3.01869158878505","0","359.9375"
"2233","-1.65720961281709","-0.227636849132176","-0.0904539385847798","1.98130841121495","3.01869158878505","0","359.9375"
"2239","-1.65720961281709","-0.227636849132176","-0.0904539385847798","0.981308411214953","1.01869158878505","0","359.9375"
"2239","-0.657209612817089","-0.227636849132176","-1.09045393858478","0.981308411214953","1.01869158878505","0","359.9375"
"2245","-0.657209612817089","-0.227636849132176","-1.09045393858478","3.98130841121495","0.0186915887850467","0","359.9375"
"2245","-2.65720961281709","0.772363150867824","-1.09045393858478","3.98130841121495","0.0186915887850467","0","359.9375"
"2252","-2.65720961281709","0.772363150867824","-1.09045393858478","-0.0186915887850467","1.01869158878505","0","359.9375"
"2252","0.342790387182911","-1.22763684913218","-1.09045393858478","-0.0186915887850467","1.01869158878505","0","359.9375"
"2258","0.342790387182911","-1.22763684913218","-1.09045393858478","-0.0186915887850467","2.01869158878505","0","359.9375"
"2258","-0.657209612817089","0.772363150867824","-1.09045393858478","-0.0186915887850467","2.01869158878505","0","359.9375"
"2266","-0.657209612817089","0.772363150867824","-1.09045393858478","-0.0186915887850467","-0.981308411214953","0","359.9375"
"2266","1.34279038718291","0.772363150867824","-0.0904539385847798","-0.0186915887850467","-0.981308411214953","0","359.9375"
"2273","1.34279038718291","0.772363150867824","-0.0904539385847798","1.98130841121495","2.01869158878505","0","359.9375"
"2273","1.34279038718291","0.772363150867824","1.90954606141522","1.98130841121495","2.01869158878505","0","359.9375"
"2280","1.34279038718291","0.772363150867824","1.90954606141522","1.98130841121495","-0.981308411214953","0","359.9375"
"2280","-1.65720961281709","-0.227636849132176","1.90954606141522","1.98130841121495","-0.981308411214953","0","359.9375"
"2285","-1.65720961281709","-0.227636849132176","1.90954606141522","-1.01869158878505","2.01869158878505","0","359.9375"
"2285","-0.657209612817089","0.772363150867824","-2.09045393858478","-1.01869158878505","2.01869158878505","0","359.9375"
"2292","-0.657209612817089","0.772363150867824","-2.09045393858478","-2.01869158878505","-0.981308411214953","0","359.9375"
"2292","0.342790387182911","-0.227636849132176","-0.0904539385847798","-2.01869158878505","-0.981308411214953","0","359.9375"
"2297","0.342790387182911","-0.227636849132176","-0.0904539385847798","-3.01869158878505","0.0186915887850467","0","359.9375"
"2297","-0.657209612817089","-0.227636849132176","-1.09045393858478","-3.01869158878505","0.0186915887850467","0","359.9375"
"2304","-0.657209612817089","-0.227636849132176","-1.09045393858478","-1.01869158878505","-1.98130841121495","0","359.9375"
"2304","-1.65720961281709","-2.22763684913218","1.90954606141522","-1.01869158878505","-1.98130841121495","0","359.9375"
"2310","-1.65720961281709","-2.22763684913218","1.90954606141522","-2.01869158878505","-0.981308411214953","0","359.9375"
"2310","1.34279038718291","-1.22763684913218","-2.09045393858478","-2.01869158878505","-0.981308411214953","0","359.9375"
"2317","1.34279038718291","-1.22763684913218","-2.09045393858478","-1.01869158878505","-0.981308411214953","0","359.9375"
"2317","1.34279038718291","1.77236315086782","-0.0904539385847798","-1.01869158878505","-0.981308411214953","0","359.9375"
"2325","1.34279038718291","1.77236315086782","-0.0904539385847798","-0.0186915887850467","-1.98130841121495","0","359.9375"
"2326","-0.657209612817089","-1.22763684913218","-3.09045393858478","-0.0186915887850467","-1.98130841121495","0","359.9375"
"2331","-0.657209612817089","-1.22763684913218","-3.09045393858478","-1.01869158878505","-0.981308411214953","0","359.9375"
"2332","-1.65720961281709","-0.227636849132176","1.90954606141522","-1.01869158878505","-0.981308411214953","0","359.9375"
"2337","-1.65720961281709","-0.227636849132176","1.90954606141522","-0.0186915887850467","1.01869158878505","0","359.9375"
"2337","-0.657209612817089","1.77236315086782","1.90954606141522","-0.0186915887850467","1.01869158878505","0","359.9375"
"2343","-0.657209612817089","1.77236315086782","1.90954606141522","-1.01869158878505","-1.98130841121495","0","359.9375"
"2343","-0.657209612817089","-0.227636849132176","-2.09045393858478","-1.01869158878505","-1.98130841121495","0","359.9375"
"2348","-0.657209612817089","-0.227636849132176","-2.09045393858478","0.981308411214953","-0.981308411214953","0","359.9375"
"2348","-0.657209612817089","-0.227636849132176","-1.09045393858478","0.981308411214953","-0.981308411214953","0","359.9375"
"2354","-0.657209612817089","-0.227636849132176","-1.09045393858478","-1.01869158878505","1.01869158878505","0","359.9375"
"2354","-0.657209612817089","-0.227636849132176","1.90954606141522","-1.01869158878505","1.01869158878505","0","359.9375"
"2360","-0.657209612817089","-0.227636849132176","1.90954606141522","0.981308411214953","0.0186915887850467","0","359.9375"
"2360","0.342790387182911","-0.227636849132176","-1.09045393858478","0.981308411214953","0.0186915887850467","0","359.9375"
"2366","0.342790387182911","-0.227636849132176","-1.09045393858478","-2.01869158878505","1.01869158878505","0","359.9375"
"2366","0.342790387182911","-0.227636849132176","1.90954606141522","-2.01869158878505","1.01869158878505","0","359.9375"
"2373","0.342790387182911","-0.227636849132176","1.90954606141522","-1.01869158878505","0.0186915887850467","0","359.9375"
"2373","0.342790387182911","0.772363150867824","0.90954606141522","-1.01869158878505","0.0186915887850467","0","359.9375"
"2379","0.342790387182911","0.772363150867824","0.90954606141522","-1.01869158878505","-2.98130841121495","0","359.9375"
"2379","1.34279038718291","0.772363150867824","-3.09045393858478","-1.01869158878505","-2.98130841121495","0","359.9375"
"2384","1.34279038718291","0.772363150867824","-3.09045393858478","-2.01869158878505","-0.981308411214953","0","359.9375"
"2384","-0.657209612817089","-0.227636849132176","-3.09045393858478","-2.01869158878505","-0.981308411214953","0","359.9375"
"2390","-0.657209612817089","-0.227636849132176","-3.09045393858478","-0.0186915887850467","-0.981308411214953","0","359.9375"
"2390","0.342790387182911","0.772363150867824","-0.0904539385847798","-0.0186915887850467","-0.981308411214953","0","359.9375"
"2396","0.342790387182911","0.772363150867824","-0.0904539385847798","-2.01869158878505","-0.981308411214953","0","359.9375"
"2396","-0.657209612817089","-0.227636849132176","2.90954606141522","-2.01869158878505","-0.981308411214953","0","359.9375"
"2402","-0.657209612817089","-0.227636849132176","2.90954606141522","-1.01869158878505","2.01869158878505","0","359.9375"
"2402","-0.657209612817089","-0.227636849132176","0.90954606141522","-1.01869158878505","2.01869158878505","0","359.9375"
"2408","-0.657209612817089","-0.227636849132176","0.90954606141522","-1.01869158878505","-1.98130841121495","0","359.9375"
"2408","1.34279038718291","-0.227636849132176","-0.0904539385847798","-1.01869158878505","-1.98130841121495","0","359.9375"
"2413","1.34279038718291","-0.227636849132176","-0.0904539385847798","-4.01869158878505","-1.98130841121495","0","359.9375"
"2413","0.342790387182911","-0.227636849132176","-0.0904539385847798","-4.01869158878505","-1.98130841121495","0","359.9375"
"2419","0.342790387182911","-0.227636849132176","-0.0904539385847798","-0.0186915887850467","-0.981308411214953","0","359.9375"
"2419","-1.65720961281709","-0.227636849132176","-1.09045393858478","-0.0186915887850467","-0.981308411214953","0","359.9375"
"2424","-1.65720961281709","-0.227636849132176","-1.09045393858478","-1.01869158878505","2.01869158878505","0","359.9375"
"2424","0.342790387182911","1.77236315086782","-0.0904539385847798","-1.01869158878505","2.01869158878505","0","359.9375"
"2430","0.342790387182911","1.77236315086782","-0.0904539385847798","-0.0186915887850467","-0.981308411214953","0","359.9375"
"2430","1.34279038718291","-1.22763684913218","-0.0904539385847798","-0.0186915887850467","-0.981308411214953","0","359.9375"
"2436","1.34279038718291","-1.22763684913218","-0.0904539385847798","-0.0186915887850467","0.0186915887850467","0","359.9375"
"2436","-1.65720961281709","-0.227636849132176","-0.0904539385847798","-0.0186915887850467","0.0186915887850467","0","359.9375"
"2442","-1.65720961281709","-0.227636849132176","-0.0904539385847798","0.981308411214953","2.01869158878505","0","359.9375"
"2442","0.342790387182911","0.772363150867824","-0.0904539385847798","0.981308411214953","2.01869158878505","0","359.9375"
"2448","0.342790387182911","0.772363150867824","-0.0904539385847798","-2.01869158878505","1.01869158878505","0","359.9375"
"2448","-0.657209612817089","-0.227636849132176","1.90954606141522","-2.01869158878505","1.01869158878505","0","359.9375"
"2454","-0.657209612817089","-0.227636849132176","1.90954606141522","0.981308411214953","-0.981308411214953","0","359.9375"
"2454","-0.657209612817089","-0.227636849132176","1.90954606141522","0.981308411214953","-0.981308411214953","0","359.9375"
"2461","-0.657209612817089","-0.227636849132176","1.90954606141522","0.981308411214953","-0.981308411214953","0","359.9375"
"2461","1.34279038718291","-0.227636849132176","2.90954606141522","0.981308411214953","-0.981308411214953","0","359.9375"
"2467","1.34279038718291","-0.227636849132176","2.90954606141522","-1.01869158878505","0.0186915887850467","0","359.9375"
"2467","-0.657209612817089","0.772363150867824","-2.09045393858478","-1.01869158878505","0.0186915887850467","0","359.9375"
"2474","-0.657209612817089","0.772363150867824","-2.09045393858478","-0.0186915887850467","0.0186915887850467","0","359.9375"
"2474","-0.657209612817089","0.772363150867824","-0.0904539385847798","-0.0186915887850467","0.0186915887850467","0","359.9375"
"2481","-0.657209612817089","0.772363150867824","-0.0904539385847798","-2.01869158878505","-0.981308411214953","0","359.9375"
"2481","-0.657209612817089","-0.227636849132176","0.90954606141522","-2.01869158878505","-0.981308411214953","0","359.9375"
"2488","-0.657209612817089","-0.227636849132176","0.90954606141522","2.98130841121495","0.0186915887850467","0","359.9375"
"2488","0.342790387182911","0.772363150867824","-0.0904539385847798","2.98130841121495","0.0186915887850467","0","359.9375"
"2494","0.342790387182911","0.772363150867824","-0.0904539385847798","0.981308411214953","-0.981308411214953","0","359.9375"
"2495","1.34279038718291","0.772363150867824","0.90954606141522","0.981308411214953","-0.981308411214953","0","359.9375"
"2500","1.34279038718291","0.772363150867824","0.90954606141522","1.98130841121495","-1.98130841121495","0","359.9375"
"2500","-0.657209612817089","0.772363150867824","-0.0904539385847798","1.98130841121495","-1.98130841121495","0","359.9375"
"2507","-0.657209612817089","0.772363150867824","-0.0904539385847798","1.98130841121495","-0.981308411214953","0","359.9375"
"2507","1.34279038718291","-0.227636849132176","-0.0904539385847798","1.98130841121495","-0.981308411214953","0","359.9375"
"2513","1.34279038718291","-0.227636849132176","-0.0904539385847798","0.981308411214953","0.0186915887850467","0","359.9375"
"2513","-0.657209612817089","-0.227636849132176","-0.0904539385847798","0.981308411214953","0.0186915887850467","0","359.9375"
"2518","-0.657209612817089","-0.227636849132176","-0.0904539385847798","-4.01869158878505","3.01869158878505","0","359.9375"
"2519","0.342790387182911","-0.227636849132176","-0.0904539385847798","-4.01869158878505","3.01869158878505","0","359.9375"
"2524","0.342790387182911","-0.227636849132176","-0.0904539385847798","-1.01869158878505","2.01869158878505","0","359.9375"
"2525","-0.657209612817089","1.77236315086782","2.90954606141522","-1.01869158878505","2.01869158878505","0","359.9375"
"2531","-0.657209612817089","1.77236315086782","2.90954606141522","-1.01869158878505","-0.981308411214953","0","359.9375"
"2531","-1.65720961281709","-0.227636849132176","-0.0904539385847798","-1.01869158878505","-0.981308411214953","0","359.9375"
"2537","-1.65720961281709","-0.227636849132176","-0.0904539385847798","-2.01869158878505","0.0186915887850467","0","359.9375"
"2537","1.34279038718291","-0.227636849132176","-0.0904539385847798","-2.01869158878505","0.0186915887850467","0","359.9375"
"2543","1.34279038718291","-0.227636849132176","-0.0904539385847798","-1.01869158878505","-1.98130841121495","0","359.9375"
"2543","1.34279038718291","-0.227636849132176","-1.09045393858478","-1.01869158878505","-1.98130841121495","0","359.9375"
"2549","1.34279038718291","-0.227636849132176","-1.09045393858478","0.981308411214953","3.01869158878505","0","359.9375"
"2549","-0.657209612817089","-0.227636849132176","0.90954606141522","0.981308411214953","3.01869158878505","0","359.9375"
"2555","-0.657209612817089","-0.227636849132176","0.90954606141522","-2.01869158878505","2.01869158878505","0","359.9375"
"2555","-0.657209612817089","-0.227636849132176","-1.09045393858478","-2.01869158878505","2.01869158878505","0","359.9375"
"2561","-0.657209612817089","-0.227636849132176","-1.09045393858478","-2.01869158878505","1.01869158878505","0","359.9375"
"2561","0.342790387182911","-0.227636849132176","-2.09045393858478","-2.01869158878505","1.01869158878505","0","359.9375"
"2567","0.342790387182911","-0.227636849132176","-2.09045393858478","-0.0186915887850467","-0.981308411214953","0","359.9375"
"2567","-0.657209612817089","0.772363150867824","-1.09045393858478","-0.0186915887850467","-0.981308411214953","0","359.9375"
"2573","-0.657209612817089","0.772363150867824","-1.09045393858478","-1.01869158878505","-1.98130841121495","0","359.9375"
"2574","0.342790387182911","0.772363150867824","1.90954606141522","-1.01869158878505","-1.98130841121495","0","359.9375"
"2579","0.342790387182911","0.772363150867824","1.90954606141522","-0.0186915887850467","-0.981308411214953","0","359.9375"
"2580","-1.65720961281709","1.77236315086782","-0.0904539385847798","-0.0186915887850467","-0.981308411214953","0","359.9375"
"2585","-1.65720961281709","1.77236315086782","-0.0904539385847798","-1.01869158878505","-1.98130841121495","0","359.9375"
"2585","-1.65720961281709","-0.227636849132176","-0.0904539385847798","-1.01869158878505","-1.98130841121495","0","359.9375"
"2591","-1.65720961281709","-0.227636849132176","-0.0904539385847798","-4.01869158878505","1.01869158878505","0","359.9375"
"2591","1.34279038718291","1.77236315086782","-1.09045393858478","-4.01869158878505","1.01869158878505","0","359.9375"
"2597","1.34279038718291","1.77236315086782","-1.09045393858478","-3.01869158878505","1.01869158878505","0","359.9375"
"2597","-0.657209612817089","1.77236315086782","-2.09045393858478","-3.01869158878505","1.01869158878505","0","359.9375"
"2603","-0.657209612817089","1.77236315086782","-2.09045393858478","-1.01869158878505","-1.98130841121495","0","359.9375"
"2604","1.34279038718291","-1.22763684913218","-1.09045393858478","-1.01869158878505","-1.98130841121495","0","359.9375"
"2609","1.34279038718291","-1.22763684913218","-1.09045393858478","-3.01869158878505","0.0186915887850467","0","359.9375"
"2610","1.34279038718291","0.772363150867824","-2.09045393858478","-3.01869158878505","0.0186915887850467","0","359.9375"
"2615","1.34279038718291","0.772363150867824","-2.09045393858478","-0.0186915887850467","0.0186915887850467","0","359.9375"
"2615","-0.657209612817089","-0.227636849132176","0.90954606141522","-0.0186915887850467","0.0186915887850467","0","359.9375"
"2621","-0.657209612817089","-0.227636849132176","0.90954606141522","0.981308411214953","-1.98130841121495","0","359.9375"
"2622","0.342790387182911","0.772363150867824","-1.09045393858478","0.981308411214953","-1.98130841121495","0","359.9375"
"2628","0.342790387182911","0.772363150867824","-1.09045393858478","-0.0186915887850467","-2.98130841121495","0","359.9375"
"2628","-3.65720961281709","0.772363150867824","-0.0904539385847798","-0.0186915887850467","-2.98130841121495","0","359.9375"
"2633","-3.65720961281709","0.772363150867824","-0.0904539385847798","-2.01869158878505","1.01869158878505","0","359.9375"
"2634","-0.657209612817089","-0.227636849132176","-2.09045393858478","-2.01869158878505","1.01869158878505","0","359.9375"
"2639","-0.657209612817089","-0.227636849132176","-2.09045393858478","-0.0186915887850467","3.01869158878505","0","359.9375"
"2640","1.34279038718291","0.772363150867824","1.90954606141522","-0.0186915887850467","3.01869158878505","0","359.9375"
"2645","1.34279038718291","0.772363150867824","1.90954606141522","0.981308411214953","1.01869158878505","0","359.9375"
"2645","1.34279038718291","-0.227636849132176","-0.0904539385847798","0.981308411214953","1.01869158878505","0","359.9375"
"2652","1.34279038718291","-0.227636849132176","-0.0904539385847798","-3.01869158878505","3.01869158878505","0","359.9375"
"2652","0.342790387182911","-0.227636849132176","-1.09045393858478","-3.01869158878505","3.01869158878505","0","359.9375"
"2659","0.342790387182911","-0.227636849132176","-1.09045393858478","-2.01869158878505","2.01869158878505","0","359.9375"
"2659","0.342790387182911","-0.227636849132176","0.90954606141522","-2.01869158878505","2.01869158878505","0","359.9375"
"2666","0.342790387182911","-0.227636849132176","0.90954606141522","-2.01869158878505","1.01869158878505","0","359.9375"
"2666","1.34279038718291","-2.22763684913218","-0.0904539385847798","-2.01869158878505","1.01869158878505","0","359.9375"
"2673","1.34279038718291","-2.22763684913218","-0.0904539385847798","-0.0186915887850467","2.01869158878505","0","359.9375"
"2674","0.342790387182911","-0.227636849132176","1.90954606141522","-0.0186915887850467","2.01869158878505","0","359.9375"
"2680","0.342790387182911","-0.227636849132176","1.90954606141522","1.98130841121495","2.01869158878505","0","359.9375"
"2681","-0.657209612817089","-0.227636849132176","-0.0904539385847798","1.98130841121495","2.01869158878505","0","359.9375"
"2688","-0.657209612817089","-0.227636849132176","-0.0904539385847798","-0.0186915887850467","1.01869158878505","0","359.9375"
"2688","-1.65720961281709","0.772363150867824","1.90954606141522","-0.0186915887850467","1.01869158878505","0","359.9375"
"2699","-1.65720961281709","0.772363150867824","1.90954606141522","-4.01869158878505","-0.981308411214953","0","359.9375"
"2699","0.342790387182911","-0.227636849132176","0.90954606141522","-4.01869158878505","-0.981308411214953","0","359.9375"
"2706","0.342790387182911","-0.227636849132176","0.90954606141522","-0.0186915887850467","2.01869158878505","0","359.9375"
"2706","0.342790387182911","-0.227636849132176","-0.0904539385847798","-0.0186915887850467","2.01869158878505","0","359.9375"
"2712","0.342790387182911","-0.227636849132176","-0.0904539385847798","-2.01869158878505","3.01869158878505","0","359.9375"
"2713","0.342790387182911","1.77236315086782","0.90954606141522","-2.01869158878505","3.01869158878505","0","359.9375"
"2718","0.342790387182911","1.77236315086782","0.90954606141522","-2.01869158878505","-2.98130841121495","0","359.9375"
"2718","1.34279038718291","-0.227636849132176","2.90954606141522","-2.01869158878505","-2.98130841121495","0","359.9375"
"2725","1.34279038718291","-0.227636849132176","2.90954606141522","-1.01869158878505","0.0186915887850467","0","359.9375"
"2725","-0.657209612817089","0.772363150867824","0.90954606141522","-1.01869158878505","0.0186915887850467","0","359.9375"
"2731","-0.657209612817089","0.772363150867824","0.90954606141522","-4.01869158878505","2.01869158878505","0","359.9375"
"2737","0.342790387182911","-0.227636849132176","0.90954606141522","-4.01869158878505","2.01869158878505","0","359.9375"
"2737","0.342790387182911","0.772363150867824","-1.09045393858478","-4.01869158878505","2.01869158878505","0","359.9375"
"2742","0.342790387182911","0.772363150867824","-1.09045393858478","-1.01869158878505","0.0186915887850467","0","359.9375"
"2743","1.34279038718291","-0.227636849132176","0.90954606141522","-1.01869158878505","0.0186915887850467","0","359.9375"
"2748","1.34279038718291","-0.227636849132176","0.90954606141522","-0.0186915887850467","1.01869158878505","0","359.9375"
"2748","0.342790387182911","1.77236315086782","0.90954606141522","-0.0186915887850467","1.01869158878505","0","359.9375"
"2754","0.342790387182911","1.77236315086782","0.90954606141522","1.98130841121495","-0.981308411214953","0","359.9375"
"2754","-0.657209612817089","0.772363150867824","0.90954606141522","1.98130841121495","-0.981308411214953","0","359.9375"
"2760","-0.657209612817089","0.772363150867824","0.90954606141522","1.98130841121495","1.01869158878505","0","359.9375"
"2760","-0.657209612817089","0.772363150867824","0.90954606141522","1.98130841121495","1.01869158878505","0","359.9375"
"2760","0.342790387182911","0.772363150867824","-1.09045393858478","1.98130841121495","1.01869158878505","0","359.9375"
"2766","0.342790387182911","0.772363150867824","-1.09045393858478","-1.01869158878505","0.0186915887850467","0","359.9375"
"2766","1.34279038718291","-0.227636849132176","0.90954606141522","-1.01869158878505","0.0186915887850467","0","359.9375"
"2771","1.34279038718291","-0.227636849132176","0.90954606141522","-0.0186915887850467","1.01869158878505","0","359.9375"
"2771","0.342790387182911","1.77236315086782","0.90954606141522","-0.0186915887850467","1.01869158878505","0","359.9375"
"2777","0.342790387182911","1.77236315086782","0.90954606141522","1.98130841121495","-0.981308411214953","0","359.9375"
"2778","-0.657209612817089","0.772363150867824","0.90954606141522","1.98130841121495","-0.981308411214953","0","359.9375"
"2783","-0.657209612817089","0.772363150867824","0.90954606141522","1.98130841121495","1.01869158878505","0","359.9375"
"2783","0.342790387182911","-0.227636849132176","-2.09045393858478","1.98130841121495","1.01869158878505","0","359.9375"
"2788","0.342790387182911","-0.227636849132176","-2.09045393858478","-0.0186915887850467","-1.98130841121495","0","359.9375"
"2789","-0.657209612817089","0.772363150867824","-2.09045393858478","-0.0186915887850467","-1.98130841121495","0","359.9375"
"2794","-0.657209612817089","0.772363150867824","-2.09045393858478","-2.01869158878505","0.0186915887850467","0","359.9375"
"2794","1.34279038718291","-0.227636849132176","-2.09045393858478","-2.01869158878505","0.0186915887850467","0","359.9375"
"2800","1.34279038718291","-0.227636849132176","-2.09045393858478","-2.01869158878505","1.01869158878505","0","359.9375"
"2800","0.342790387182911","-0.227636849132176","-0.0904539385847798","-2.01869158878505","1.01869158878505","0","359.9375"
"2805","0.342790387182911","-0.227636849132176","-0.0904539385847798","-3.01869158878505","1.01869158878505","0","359.9375"
"2805","1.34279038718291","-0.227636849132176","-0.0904539385847798","-3.01869158878505","1.01869158878505","0","359.9375"
"2811","1.34279038718291","-0.227636849132176","-0.0904539385847798","-1.01869158878505","-0.981308411214953","0","359.9375"
"2811","0.342790387182911","-0.227636849132176","-2.09045393858478","-1.01869158878505","-0.981308411214953","0","359.9375"
"2816","0.342790387182911","-0.227636849132176","-2.09045393858478","-1.01869158878505","1.01869158878505","0","359.9375"
"2816","0.342790387182911","-0.227636849132176","-1.09045393858478","-1.01869158878505","1.01869158878505","0","359.9375"
"2822","0.342790387182911","-0.227636849132176","-1.09045393858478","-1.01869158878505","0.0186915887850467","0","359.9375"
"2822","0.342790387182911","-0.227636849132176","-3.09045393858478","-1.01869158878505","0.0186915887850467","0","359.9375"
"2828","0.342790387182911","-0.227636849132176","-3.09045393858478","-1.01869158878505","0.0186915887850467","0","359.9375"
"2828","-1.65720961281709","-0.227636849132176","0.90954606141522","-1.01869158878505","0.0186915887850467","0","359.9375"
"2833","-1.65720961281709","-0.227636849132176","0.90954606141522","-0.0186915887850467","1.01869158878505","0","359.9375"
"2833","1.34279038718291","-0.227636849132176","1.90954606141522","-0.0186915887850467","1.01869158878505","0","359.9375"
"2840","1.34279038718291","-0.227636849132176","1.90954606141522","-3.01869158878505","3.01869158878505","0","359.9375"
"2840","0.342790387182911","-0.227636849132176","-1.09045393858478","-3.01869158878505","3.01869158878505","0","359.9375"
"2847","0.342790387182911","-0.227636849132176","-1.09045393858478","0.981308411214953","0.0186915887850467","0","359.9375"
"2847","-2.65720961281709","-0.227636849132176","-1.09045393858478","0.981308411214953","0.0186915887850467","0","359.9375"
"2854","-2.65720961281709","-0.227636849132176","-1.09045393858478","-4.01869158878505","-0.981308411214953","0","359.9375"
"2854","-0.657209612817089","-0.227636849132176","1.90954606141522","-4.01869158878505","-0.981308411214953","0","359.9375"
"2861","-0.657209612817089","-0.227636849132176","1.90954606141522","0.981308411214953","0.0186915887850467","0","359.9375"
"2861","1.34279038718291","-0.227636849132176","0.90954606141522","0.981308411214953","0.0186915887850467","0","359.9375"
"2868","1.34279038718291","-0.227636849132176","0.90954606141522","-0.0186915887850467","-1.98130841121495","0","359.9375"
"2868","-2.65720961281709","1.77236315086782","-3.09045393858478","-0.0186915887850467","-1.98130841121495","0","359.9375"
"2874","-2.65720961281709","1.77236315086782","-3.09045393858478","-0.0186915887850467","0.0186915887850467","0","359.9375"
"2875","-1.65720961281709","0.772363150867824","-0.0904539385847798","-0.0186915887850467","0.0186915887850467","0","359.9375"
"2882","-1.65720961281709","0.772363150867824","-0.0904539385847798","0.981308411214953","-0.981308411214953","0","359.9375"
"2882","0.342790387182911","-0.227636849132176","-1.09045393858478","0.981308411214953","-0.981308411214953","0","359.9375"
"2890","0.342790387182911","-0.227636849132176","-1.09045393858478","0.981308411214953","-0.981308411214953","0","359.9375"
"2890","-1.65720961281709","-0.227636849132176","-0.0904539385847798","0.981308411214953","-0.981308411214953","0","359.9375"
"2898","-1.65720961281709","-0.227636849132176","-0.0904539385847798","-0.0186915887850467","0.0186915887850467","0","359.9375"
"2898","1.34279038718291","-0.227636849132176","-0.0904539385847798","-0.0186915887850467","0.0186915887850467","0","359.9375"
"2906","1.34279038718291","-0.227636849132176","-0.0904539385847798","1.98130841121495","-1.98130841121495","0","359.9375"
"2906","1.34279038718291","-0.227636849132176","-0.0904539385847798","1.98130841121495","-1.98130841121495","0","359.9375"
"2914","1.34279038718291","-0.227636849132176","-0.0904539385847798","-1.01869158878505","-0.981308411214953","0","359.9375"
"2914","-0.657209612817089","-0.227636849132176","-1.09045393858478","-1.01869158878505","-0.981308411214953","0","359.9375"
"2921","-0.657209612817089","-0.227636849132176","-1.09045393858478","-1.01869158878505","1.01869158878505","0","359.9375"
"2921","-1.65720961281709","-0.227636849132176","1.90954606141522","-1.01869158878505","1.01869158878505","0","359.9375"
"2927","-1.65720961281709","-0.227636849132176","1.90954606141522","-1.01869158878505","1.01869158878505","0","359.9375"
"2927","0.342790387182911","-0.227636849132176","0.90954606141522","-1.01869158878505","1.01869158878505","0","359.9375"
"2932","0.342790387182911","-0.227636849132176","0.90954606141522","-2.01869158878505","-0.981308411214953","0","359.9375"
"2932","-0.657209612817089","1.77236315086782","1.90954606141522","-2.01869158878505","-0.981308411214953","0","359.9375"
"2939","-0.657209612817089","1.77236315086782","1.90954606141522","-0.0186915887850467","0.0186915887850467","0","359.9375"
"2939","0.342790387182911","-0.227636849132176","-0.0904539385847798","-0.0186915887850467","0.0186915887850467","0","359.9375"
"2944","0.342790387182911","-0.227636849132176","-0.0904539385847798","-2.01869158878505","3.01869158878505","0","359.9375"
"2945","0.342790387182911","-0.227636849132176","-0.0904539385847798","-2.01869158878505","3.01869158878505","0","359.9375"
"2951","0.342790387182911","-0.227636849132176","-0.0904539385847798","-2.01869158878505","1.01869158878505","0","359.9375"
"2951","0.342790387182911","0.772363150867824","-0.0904539385847798","-2.01869158878505","1.01869158878505","0","359.9375"
"2957","0.342790387182911","0.772363150867824","-0.0904539385847798","-0.0186915887850467","-0.981308411214953","0","359.9375"
"2957","-0.657209612817089","-0.227636849132176","-1.09045393858478","-0.0186915887850467","-0.981308411214953","0","359.9375"
"2964","-0.657209612817089","-0.227636849132176","-1.09045393858478","-1.01869158878505","2.01869158878505","0","359.9375"
"2964","0.342790387182911","-0.227636849132176","1.90954606141522","-1.01869158878505","2.01869158878505","0","359.9375"
"2970","0.342790387182911","-0.227636849132176","1.90954606141522","0.981308411214953","1.01869158878505","0","359.9375"
"2970","1.34279038718291","-0.227636849132176","1.90954606141522","0.981308411214953","1.01869158878505","0","359.9375"
"2975","1.34279038718291","-0.227636849132176","1.90954606141522","0.981308411214953","2.01869158878505","0","359.9375"
"2975","1.34279038718291","1.77236315086782","0.90954606141522","0.981308411214953","2.01869158878505","0","359.9375"
"2983","1.34279038718291","1.77236315086782","0.90954606141522","-1.01869158878505","-2.98130841121495","0","359.9375"
"2983","1.34279038718291","-1.22763684913218","0.90954606141522","-1.01869158878505","-2.98130841121495","0","359.9375"
"2989","1.34279038718291","-1.22763684913218","0.90954606141522","-2.01869158878505","-1.98130841121495","0","359.9375"
"2989","1.34279038718291","0.772363150867824","-0.0904539385847798","-2.01869158878505","-1.98130841121495","0","359.9375"
"2994","1.34279038718291","0.772363150867824","-0.0904539385847798","-0.0186915887850467","1.01869158878505","0","359.9375"
"2994","1.34279038718291","-0.227636849132176","2.90954606141522","-0.0186915887850467","1.01869158878505","0","359.9375"
"3000","1.34279038718291","-0.227636849132176","2.90954606141522","0.981308411214953","-0.981308411214953","0","359.9375"
"3000","-0.657209612817089","-0.227636849132176","-0.0904539385847798","0.981308411214953","-0.981308411214953","0","359.9375"
"3005","-0.657209612817089","-0.227636849132176","-0.0904539385847798","-1.01869158878505","3.01869158878505","0","359.9375"
"3006","0.342790387182911","0.772363150867824","0.90954606141522","-1.01869158878505","3.01869158878505","0","359.9375"
"3011","0.342790387182911","0.772363150867824","0.90954606141522","-1.01869158878505","-0.981308411214953","0","359.9375"
"3011","1.34279038718291","-0.227636849132176","-0.0904539385847798","-1.01869158878505","-0.981308411214953","0","359.9375"
"3017","1.34279038718291","-0.227636849132176","-0.0904539385847798","0.981308411214953","0.0186915887850467","0","359.9375"
"3017","0.342790387182911","-0.227636849132176","0.90954606141522","0.981308411214953","0.0186915887850467","0","359.9375"
"3022","0.342790387182911","-0.227636849132176","0.90954606141522","1.98130841121495","1.01869158878505","0","359.9375"
"3022","-1.65720961281709","-0.227636849132176","1.90954606141522","1.98130841121495","1.01869158878505","0","359.9375"
"3028","-1.65720961281709","-0.227636849132176","1.90954606141522","-2.01869158878505","0.0186915887850467","0","359.9375"
"3028","1.34279038718291","0.772363150867824","-3.09045393858478","-2.01869158878505","0.0186915887850467","0","359.9375"
"3033","1.34279038718291","0.772363150867824","-3.09045393858478","-3.01869158878505","1.01869158878505","0","359.9375"
