Timer,AX,AY,AZ,GX,GY,GZ
"1002","9,15325988563557","4,01898225250047","-20,5785577034084","0,032960371861242","1,90038536488529","0,00488810306006103"
"1013","7,709309034281","0,933866192688692","-30,0276400179567","0,0337659867623214","1,90542883968702","0,00494385672059666"
"1013","8,33400721113014","2,12807028219416","-27,3484181849835","-1,7306550698417","-4,57084266026738","-1,33440363294848"
"1021","-0,167018687309447","-7,95733405577776","-19,6867164768597","-1,14643759799828","-3,05092854282358","-1,2455182152708"
"1021","2,56593394643915","-4,6430880905108","-21,7405382130652","-4,53657522579135","2,37275894270793","0,0259879764003571"
"1033","8,49468737067726","-2,02674921425338","-20,5163516393148","-3,33666548860898","1,47623052031207","0,0220280296498819"
"1033","7,07602793168518","-2,32993867741021","-21,2053472263886","-1,28948568705922","-3,70768380554271","-1,15037411992579"
"1041","3,23108558870399","9,72499850141595","-30,1101369151018","-1,80633835807893","-2,7188193283038","-1,12612234732759"
"1041","4,20554633720719","5,93559715352453","-27,3723979694446","12,1836307274657","0,888900110333937","-1,10692440506817"
"1053","7,93201017766026","3,19269421713259","-26,6768756244602","7,48535161477236","0,288549728630247","-1,09133274759866"
"1054","6,92594834774733","3,46217523017318","-26,500178232153","-2,44344035397381","1,66767824157547","-1,07842340049203"
"1063","6,65760728848798","-8,60173952414766","-17,7255378474856","0,213302157039293","1,20272456477866","-1,0675769532195"
"1063","6,5860342281216","-4,81472918861964","-20,4963412075549","-4,45167095409762","-3,81377954968153","-2,18534634651512"
"1070","8,30021973686076","10,0632227428934","-19,454313478965","-2,55263401314903","-2,75998112809885","-2,16161601306517"
"1074","7,75743453371229","6,02567661943002","-20,1895864235581","1,42353806851227","2,48497103425254","0,104641170520622"
"1082","7,61266057247744","1,48301573621808","-29,1061328795533","0,361939742873419","1,51980125565535","0,0925327273916822"
"1082","7,57404585024468","2,27316613397893","-26,3713807447791","-3,41659154693034","1,14535424956553","0,0819883866728299"
"1090","7,56374636848433","-0,983731434273718","-30,9144674549749","-2,30834874861976","1,00008389042365","0,0727773523744369"
"1094","7,56099924722077","0,148857079641926","-29,0686382454929","1,48119093074962","-0,668315429433925","1,18371745556988"
"1103","11,0268180786569","2,18416945821175","-26,8537554071001","0,375546181765933","-0,315587178028598","1,16253725255884"
"1103","9,9512359114181","1,72623542680416","-27,2910646112685","0,114607051771989","-3,40282336235813","-1,09232910470604"
"1111","-0,735302571412735","1,60427358109436","-16,9264624645186","0,0530237723103137","-2,60054667689791","-1,08086084104146"
"1115","2,414338761708","1,57179140945226","-20,2933361747932","5,3304708202151","0,934784910146285","2,28202802648186"
"1123","11,9208032851411","-1,90419838524398","-21,1486901531888","3,57598158896357","0,306351195850252","2,24950043389808"
"1123","9,45640764283671","-0,829960835626831","-21,3659927583101","-0,3660763220786","1,6745844927729","-1,13099903733138"
"1131","7,06581785387103","6,39081909317579","-17,9292982956724","0,703573162858932","1,20540391234698","-1,11506466976645"
"1132","7,42818965135448","4,31393374983082","-19,0562063611052","2,72001088032725","-0,588659529296567","1,13315170035181"
"1144","5,79156720964501","5,49446502775678","-29,8181977715346","2,19590289190404","-0,284683896569461","1,11815630731206"
"1144","6,3550403615332","4,80887663226549","-26,5522807697409","7,36419119305218","-1,77879386300593","2,22188221096172"
"1152","8,238608077418","4,6262834629954","-25,7225748345082","5,58393980950346","-1,3584483612172","2,19652431264552"
"1152","7,74100121175723","4,57765331452242","-25,5117881125607","1,63580186813203","2,02870930717604","-0,0596396079784924"
"1164","7,60827740745769","-7,57098417656392","-27,2041878493119","2,70401642758748","1,34279007950212","-0,0520855798131122"
"1164","7,57287675396318","-3,80653809841998","-26,6341418578177","2,95612179691825","1,07668104157162","-1,16225994691987"
"1172","2,36360720935926","4,1307266840522","-29,9812218932894","3,01562025318139","0,973441451236118","-1,14271905477364"
"1173","3,97416884085224","2,2446631822464","-28,8315472902926","3,02966226389736","0,933388647710424","1,10817266726563"
"1181","2,67046886201469","6,94335495428216","-35,5232728974415","3,03297626693763","0,917849772894527","1,0961212109417"
"1185","3,32274049892873","5,19476035688453","-33,223305216129","-0,494229000813584","-3,92429949669661","-3,38172781516312"
"1193","-1,70311018875648","-2,20562148960461","-27,4011483668737","0,673328322890001","-2,80285841684304","-3,33655958391853"
"1193","-0,0436263052801016","-0,176569632901232","-28,9220299168244","2,71287290745165","-2,36778443901099","2,28728960795798"
"1201","12,5319286863762","-6,57084862967408","-15,340809061029","2,19421828531246","-2,19899325632013","2,25432151367772"
"1201","8,88613381265473","-4,273840796543","-19,8905010631309","0,307818828562053","-2,13350907476519","-0,00836675082222738"
"1213","-4,21921843330037","5,00626967570742","-26,2842001838436","0,862616666187598","-2,10810384941185","-0,0068057349212896"
"1214","-0,714733320256411","2,47784707323682","-24,9085188991184","-0,770441243742872","1,12583289622255","2,228136741189"
"1221","17,5527555224943","7,00545896006563","-22,8130771008359","-0,155853204174724","0,380470120822982","2,20207869048302"
"1222","12,4251372791042","5,21130055405669","-23,280730291038","5,28117453714599","0,0912993802046952","-1,17127506875851"
"1234","2,39109840237314","-0,467546929750644","-26,891437714948","3,56434735542896","-0,0208872220641151","-1,15068986078281"
"1234","4,71477718554095","1,02000220805705","-25,808737627457","3,15916531883087","-1,67645137655903","-1,13250866330335"
"1242","5,33455860206669","-5,51849553317204","-29,025577933647","3,06353980420127","-1,31874359787333","-1,11645069900172"
"1242","5,49986931844161","-3,25989756489808","-27,8428159385552","3,04097157999037","-2,79200765550583","-3,33582294338883"
"1254","9,01051324593852","6,00998318496845","-25,7963852693192","3,03564533682183","-2,36357478057927","-3,29602259683103"
"1254","7,94688701759008","3,47883609438938","-26,2764897326675","4,79838200654001","1,02672046290775","1,20623780044899"
"1263","7,66319213891969","-2,39629402855951","-12,4308595469553","4,21439897168862","0,34201848801806","1,18273789395652"
"1263","7,58752384301017","-0,961020963960241","-16,9133783813857","-2,97939949228475","1,68842196578929","1,16198225518731"
"1271","9,30061705323358","6,35591377045633","-32,0197625918419","-0,677181274603581","1,21077229463343","1,14365040714286"
"1275","8,75754050761287","4,30463739425996","-27,8575382096661","-1,8978369602893","1,02546345748339","1,12745930059861"
"1283","6,87941306067417","3,75831972458856","-18,0703750337863","-1,18591939629578","0,953571091174826","1,11315894228314"
"1283","7,37847097783918","3,6128186113994","-20,5839470652682","2,51008502960959","2,53772001883979","-0,0162478331137919"
"1291","12,7114091455513","-1,62694098510423","-33,444170423232","1,38236537122567","2,15230600808102","-0,0137665891779212"
"1295","11,133832931391","-0,0224493064686065","-29,7113090684152","-2,41177096988992","-2,83333991914713","1,1052012017468"
"1304","-3,15315107846863","2,13854532547871","-23,5251257038471","-1,30721106205257","-1,76756976375433","1,09350007870191"
"1304","1,03616422119598","1,71408432412257","-24,9535263486886","2,48145943195068","0,257946407931756","-0,0336108853186314"
"1312","14,2864865301141","-3,59997082699461","-25,3164114104536","1,37560954974183","0,043765113711356","-0,0291020512378478"
"1315","10,8206684443839","-2,0152663280557","-25,4086023293864","-4,17735908302319","-1,65136887386916","-0,0251197422375237"
"1324","2,96314770008256","10,5424747676578","-23,6860733390134","-2,48789468249968","-1,30901259691812","-0,0216024725343292"
"1324","4,86735658964153","6,88698549832213","-24,2484649961995","-2,08917043473965","-1,17619214836785","-0,0184959364795997"
"1332","7,10853100258772","-4,48859955020694","-29,6291908050015","-1,99506899898135","-1,12466316309494","-0,0157521700721818"
"1332","6,70630650512229","-1,51826595058977","-27,996163736944","-3,7368541636698","0,507368278726684","-2,24688122167487"
"1344","3,13247193359043","4,47383297917281","-22,3434430934961","-3,14792644156733","0,14053075520117","-2,21746748914943"
"1344","4,17924368654628","3,06971228716664","-23,9073698970537","-4,77292948362963","1,61025283949649","1,15884001849715"
"1353","9,65827040120227","-2,50525621793716","-17,3208850260594","-4,15644044447217","1,18044582155265","1,14087516604886"
"1353","8,11965954112569","-0,990040929321258","-19,6475891073991","6,57301703477115","2,62573827783556","-1,10854421180084"
"1361","5,97599897830068","4,61451546644283","-21,9846381658964","3,10523663108751","2,18645354801967","-1,09528495076081"
"1365","6,40423278161199","3,10718033852277","-21,5783652795066","0,522824900606058","0,403988492487758","-1,0835740558697"
"1373","8,25172888741102","-0,761607930105005","-23,2211017728854","0,913359454442278","0,712463831951732","-1,07323071477983"
"1373","7,74450084959975","0,208015365958133","-22,6384388386563","1,00552807081229","0,832139841164099","-1,06409522973524"
"1381","4,14265929042089","7,40093331775987","-27,7282636263543","1,02728044524399","0,878569313308894","-1,05602655188563"
"1385","5,18196090137511","5,31662747734088","-26,0213331787429","6,32439523275899","-0,715458191884537","1,1846522808086"
"1394","5,45916781538607","3,02784365141528","-34,3174380716352","4,57454771202755","-0,333876671390173","1,16367317158924"
"1394","5,53310561396691","3,41827047996393","-31,4250628107714","-2,89440211943164","1,42620186267022","-1,08840846049612"
"1402","9,01937817101764","-10,3471021018523","-25,4524048665524","-0,657121358844518","1,10904145439487","-1,07750057622292"
"1402","7,94925150783836","-6,01324205175072","-26,9350516261879","-0,129108997047099","0,985995988236971","-1,06786647314334"
"1414","4,19727125052353","0,342005696770859","-20,3279175669805","-0,00449475143148594","0,938259302487502","-1,05935740393621"
"1414","5,1965272339667","-0,965397352156796","-22,6493757238192","5,31689608605432","0,919739390803643","2,29848658223792"
"1422","12,3961561195576","9,08841760356244","-14,5093915429446","3,57277786613572","0,912554410879021","2,26421433700729"
"1422","10,3164715355671","5,7660561810128","-17,441429257356","3,16115497249788","0,909766928012015","2,23394427404953"
"1435","9,76176928208468","-2,05346792953218","-33,8998639572102","3,06400937500811","0,908685496913338","2,20720903375721"
"1435","9,61381675486633","-0,136046483833863","-29,0811278863332","-4,01489238505526","0,908265945196975","-1,16673274014391"
"1443","4,37452689926482","-3,09271727662918","-31,3488285701886","-1,68555782102052","0,908103176026643","-1,14667844487556"
"1443","5,97708138665104","-1,88016918523088","-29,9249377351468","-1,13582018136478","0,908040028143373","-1,12896601382501"
"1451","2,93796993091856","-1,55723052355451","-24,3253481338257","-1,00607863323321","0,90801552930767","-1,11332197300787"
"1455","4,12736529113023","-1,47122207576992","-25,9027728740957","9,60850337000232","-2,31607451653601","0,0172714072930208"
"1463","9,64443317652605","-1,44831539419791","-22,8116173236699","6,11361162988382","-1,56689161815055","0,0158383990914383"
"1463","8,11596881813388","-1,44221464393259","-24,0263095202238","5,28879514979127","-1,27623882365254","0,0145727321293431"
"1471","7,70829035069013","-1,44058982744912","-24,3349019689628","5,09413326140637","-1,16347724416166","0,0134548649341646"
"1472","7,59955262847584","-1,44015708909889","-24,4132998541956","1,5202044353732","-1,11973029230028","1,1292437289716"
"1484","0,637446533635739","5,49463575918118","-31,4170171720404","2,67673470480866","-1,10275823669586","1,11473501955208"
"1484","2,78048419928932","3,34158330486069","-29,1963109581704","2,949683138377","-2,70821403323791","-3,36518418186162"
"1492","5,08536003182383","6,23549834956345","-26,8861906488462","3,01410068918072","-2,33106622956219","-3,32195548315308"
"1492","4,70012624596326","5,00623648207225","-27,2993047816625","3,02930363721491","-2,18474806971982","-3,28377486722002"
"1504","-12,7353827121039","2,94517703116366","-29,1502064772539","3,03289162878004","-2,12798251602707","-3,25005283818411"
"1504","-7,38585528092705","3,39625382932652","-28,6204278948591","-4,02223636931023","-0,493919496538513","-0,986716357353007"
"1513","-14,6253856247372","-10,3529658096441","-23,2479874349211","-1,68729104759618","-0,859968849742191","-0,987683689588497"
"1516","-11,5563437261624","-6,0148037365698","-24,8831193951494","-1,13622923376172","-1,00198125774312","-0,988538060450141"
"1521","-10,7377559122812","-4,85941842529671","-25,2985245299232","-1,00617517217728","-1,05707635311679","-0,989292661136904"
"1525","-10,5194187141654","-4,55170396119426","-25,4040581689161","2,5525057994871","-1,07845103140696","3,47714562135689"
"1533","-6,99463133956002","23,2689602041649","-30,6687192372347","1,39237694030849","-1,08674354581155","3,4220102541228"
"1533","-8,05448516797654","14,6784544058738","-29,0062059317752","2,88257291355668","-9,15016206066069","2,25653719411463"
"1545","-6,60389807859904","8,92320103706425","-11,124343714084","2,23426855642686","-7,27844372538986","2,22716363870466"
"1545","-7,21699136517512","9,39040094961493","-16,5814581456867","-1,44672275168421","-8,16433265724293","1,08444402426411"
"1553","-28,1798275266039","-19,9575492034484","-42,4111387970258","-0,315459902868327","-7,50802188748678","1,07516685371714"
"1554","-21,7711237008606","-10,7738063998502","-34,9731669593495","-0,0484747398348786","-13,7015608214408","1,06697303580941"
"1566","-14,8619398235796","-23,9309192542446","-31,3376007641133","0,0145354415342069","-12,104404510032","1,05973606074624"
"1566","-16,0190931265589","-18,4350610254987","-31,413985482873","-8,79056224188416","-6,64865136779083","1,05334419206493"
"1570","-16,3277339414826","-16,9713458015461","-31,4333910141468","-5,86862079652826","-7,53203885527746","1,04769874146124"
"1574","-16,4100559228411","-16,5815136465563","-31,4383209877087","5,40493798258453","-11,0988381671239","2,15948873602082"
"1582","122,230049019455","4,3263433759376","3,47942826193128","2,06556891531524","-10,4826126628257","2,14144812988431"
"1586","79,208723202327","-2,1052545019009","-7,64972052492312","8,33343155304033","-19,9157836068001","1,00873804606922"
"1594","114,532339523001","-28,0895574176385","17,4581215439652","5,8126866438938","-17,5754740532215","1,00830153128768"
"1595","96,9540036181537","-21,0099724244569","7,83676667609848","-21,2421304939138","-5,38324629771187","6,59179694576727"
"1603","35,0673349819008","20,7499338818525","-45,2400901839904","-12,6272378736341","-7,65315291740113","6,5232730335821"
"1603","51,5606614135574","8,87187481760427","-29,7242611338728","1,75388696393853","5,97457716052309","1,99564631906854"
"1615","12,6279366404364","-53,2363753621993","-46,733867114921","-1,85207692554777","2,26158763333199","1,99673860629903"
"1615","27,2436358997821","-35,777702946986","-39,0551560609336","11,4088424404173","20,1655804689422","4,23125572227835"
"1623","31,1419969194246","-31,1279242335385","-37,1043801738148","6,53850299861686","15,1116086838909","4,20483444085106"
"1623","32,1817842309862","-29,8895458752168","-36,6087857263863","-15,7788521691087","22,8231127818205","-0,285606227753263"
"1635","23,7927418050665","-17,4240420286052","-66,1640314520175","-9,04588866214604","19,814865824604","-0,251670339411196"
"1635","26,5551809874121","-21,10409689991","-56,6725391031152","19,0030386157122","12,1996260666733","-3,57202592768257"
"1643","230,085256410535","-15,1495305279323","66,2093296131319","10,6227622546798","13,2452197111826","-3,50464303777101"
"1644","167,371657510849","-17,5636472886027","28,4274578602255","3,35298311986707","21,711069291731","-5,67868124696921"
"1652","129,845112279706","122,220620879645","85,1750798169687","4,63726942029958","19,9954780037944","-5,59884355512728"
"1656","131,835873683927","78,4494490027492","61,5918083259889","-9,1715804909613","4,82153523626689","-5,52832900483253"
"1664","-73,892959564097","-11,2232764649492","-115,502628155212","-4,43055611163285","7,93465650686805","-5,46604887512743"
"1664","-9,76582263548206","9,89413268620742","-62,4934546105223","49,6081664264565","31,7109859814463","-5,41104158174089"
"1672","7,3384380959322","15,5183449526938","-49,0264786011335","32,3616455688616","26,9352443295539","-5,36245783055025"
"1672","11,9005587390831","17,0162447846324","-45,6051944967029","-54,6163458078001","70,2195764687455","-7,55309988665649"
"1681","-122,078123833461","-8,58985964125216","-69,1793187586229","-28,1437000228941","59,012154250951","-7,48792710772563"
"1681","-79,8134837595276","-0,409548817047809","-61,1683230129522","15,1478788781869","6,30291764129332","-4,08003638483516"
"1693","7,7236537136247","-1,69822051894557","0,229172676998665","4,36496437956161","15,8538564714913","-4,07010615972234"
"1697","-12,928071363558","-0,0414332275410442","-18,172798789392","67,0878953668364","-7,84544848571782","-15,2290974579284"
"1705","4,0961984331314","83,6159510889534","-26,3397182388783","44,8909024426029","-0,0398244229129579","-15,084984257536"
"1705","-4,36301644358046","57,8964725150026","-26,4145234271561","-82,0632928731376","-11,5199190597982","-18,3080286205869"
"1713","-60,3508430595","219,212520057008","-87,5417806695998","-43,025283200701","-6,97373346813982","-18,1546981396723"
"1717","-44,2841525769655","165,175919916936","-68,0711551487118","31,4556999282232","-8,43407707766629","-16,9024968173293"
"1721","-39,9987770516226","150,784319736647","-63,1246443988973","12,0336814241964","-7,00063158918932","-16,7965227957064"
"1722","-38,8557635969742","146,951396214213","-61,8679837655868","69,1897420177925","-11,2806332773519","-10,0022668709949"
"1730","39,446515770326","36,7093992398364","-19,6459271882735","47,6789325908797","-9,94110157394755","-10,00141827348"
"1730","15,3316303459733","70,3485819526797","-32,9194173226863","-70,2933506108634","-22,317739381955","-11,1174449628961"
"1746","83,430464720335","-132,199941007982","16,0869562063905","-34,135553063648","-19,1193764363239","-11,1031463065286"
"1746","58,5940733645364","-64,1448108184743","-1,46297878614745","-46,7700092884473","-6,59425851905799","-2,15630786522339"
"1754","-52,0269404633949","30,2618064571276","-65,2838411766616","-37,7518205965335","-8,73501716168601","-2,25424713809855"
"1754","-21,5322443566993","11,405177555274","-47,4975258134721","-0,343597287123963","0,106696318543132","8,82701247371158"
"1762","50,7326335209452","-73,3657121125229","18,1293390754575","-11,5150207900628","-2,4630749125974","8,61424479717636"
"1766","33,0074268790048","-49,9427940877742","-0,198161507332717","17,6003393863965","15,8844405837469","9,54309951040874"
"1771","28,2796849207222","-43,7045542578431","-4,85426146430365","6,47174791150291","11,0025377301185","9,36348610828808"
"1771","27,0186816232363","-42,0431200960269","-6,03714326050787","-27,9065563638782","4,27243520834496","6,97129489321884"
"1783","-1,0500709424694","26,0124772314217","-53,4783065869091","-18,0200528703563","4,66142645543941","6,85845465625865"
"1787","7,46331285597125","5,13776535518429","-38,5307300761288","31,9410540822525","17,7086615595132","7,87556766330157"
"1795","35,7331751936647","-116,577658946917","42,0885042189677","16,7321902439642","14,7704633593729","7,77390608762089"
"1795","28,2734322427726","-81,994201027458","18,5698138027146","-6,26112815169182","-10,5500432787717","-2,36686955499574"
"1803","-27,4478110009315","78,0456698285731","-78,1945119312654","-0,687696227333936","-5,37338018133894","-2,32344404483474"
"1803","-11,3100162757407","33,6691847850035","-50,777480615461","-11,7202870388077","3,0831177154878","-4,5186419822312"
"1816","10,3270822495284","-99,5064890821404","6,820366325584","-7,32404801227709","2,36389835086561","-4,45749306612709"
"1816","6,09822052846755","-64,9752463146135","-7,54690558078577","27,2293723457905","5,30895074209904","-8,87058965130805"
"1820","4,97028067432062","-55,7785196820991","-11,1969097809141","16,3841973515955","4,45151247075003","-8,768341626997"
"1824","4,66943179382002","-53,3291499527033","-12,1241930360634","-28,5111810279494","-2,32930013150861","-10,9115861193877"
"1836","98,1860801010242","124,157470877688","-1,884068755097","-15,1067733155045","-0,95998235351492","-10,8045506836921"
"1836","69,1292354013295","69,4275892367304","-5,28256605653721","28,6286064205338","-11,7130240934451","-12,9435668203642"
"1844","-13,1517873435265","-61,3045027688655","-89,9515581071713","15,9504317163776","-8,88477125665434","-12,8327968002248"
"1844","7,90187084735635","-29,1224593760578","-63,4617083026604","16,4862899649494","1,88471857231183","-9,38463350827172"
"1851","65,5156647850799","182,287923282444","-41,018413454334","14,612755889299","0,0628469316919902","-9,33913359131101"
"1855","50,882659172086","121,592977510434","-44,3166963158986","-19,3452901989418","-7,09212697949373","-7,06539459945033"
"1864","104,177782789838","212,915558888319","-24,2032237696392","-8,35960312423251","-5,86796872164801","-7,05717418626339"
"1864","85,3928831939883","175,23755685295","-31,0933977879604","59,5008550488332","-15,0652862390876","3,00107199689305"
"1872","80,3824954566017","165,20275193407","-32,8438459085487","38,5163509239296","-12,6334750539823","2,8847545031884"
"1872","79,0461036834723","162,530176311152","-33,2885471040082","-33,4678847954148","-10,0779899741156","1,66524393239342"
"1880","113,355171179165","-302,805011346795","43,4202803550898","-12,4566181649266","-10,0865646741496","1,58814316087364"
"1880","102,506230527897","-158,738011447341","18,9081514162961","-102,753486420037","-2,02968995924906","-1,83028264906559"
"1892","-23,4500249413471","148,350196067375","-18,7462543841424","-70,0641164983916","-3,90394702537694","-1,84951771389034"
"1896","13,9543907633989","75,1371828721931","-10,3123529601707","54,0743648355218","1,81707779306294","-13,0342684905672"
"1905","58,5965700084084","-88,2562430520955","-27,3751719640397","17,3718289150249","0,0366050332809558","-12,9129066748691"
"1905","50,5037205533511","-48,7729123446581","-20,7099796739529","-7,1661441801895","46,0950211518541","-19,5063741754074"
"1913","20,6127491337756","285,938884495202","-6,79503754404696","-3,95726050138184","34,9638318039196","-19,32988165611"
"1913","28,6401030253925","188,082878441132","-10,2599476849777","-36,7158239634598","0,0166134548721111","-29,2249849794559"
"1921","30,7811927499874","162,020829557236","-11,1402078102042","-25,447051428252","5,45850008232598","-28,9645758276893"
"1921","31,3522732418483","155,079708420009","-11,3638378197996","125,387920441782","-2,10250867833072","-35,4352334104264"
"1929","-29,16005797437","7,60284592421164","-72,5289039953819","76,9859245643593","0,964124409203924","-35,1502722477389"
"1930","-10,3001624630526","52,3252445321698","-53,0678838307271","-72,0287598969907","13,4381364463742","-42,7160211008159"
"1945","6,86315894483624","107,577922802569","-67,329264260794","-29,197164717263","11,2775507803357","-42,3982706211803"
"1946","4,44103250099369","97,2934018019227","-59,952366740416","-45,5485437237374","-10,5171929682507","-44,3511782141186"
"1954","-51,6698321747755","-175,898107130876","-96,4891684356231","-34,4075722372565","-5,97267585440083","-44,0760326970851"
"1954","-34,6359589230789","-92,6573658373639","-83,7713397842168","63,4774268793374","-2,59754595420333","-47,1833461983229"
"1962","108,569449883038","-266,392451307974","45,168029650341","32,5789036714266","-2,28813147157126","-46,9277994648127"
"1966","66,7658011889637","-199,663421000738","5,9250654373073","-101,720888729837","-7,00421192455258","-44,4685421235594"
"1970","55,615755497951","-181,891438268466","-4,04460626769837","-61,416486271241","-5,83386122072646","-44,2964674871724"
"1974","52,641768231397","-177,15821543004","-6,57740051244553","-28,9724751825981","-44,0687787737991","-47,4948156442175"
"1978","117,713013339487","345,936875812569","-12,4587069302463","-34,3154840606611","-34,9023870397526","-47,3196728861653"
"1982","97,0690905909242","184,253105736747","-10,9528523231304","140,822901833313","-12,0017129357214","-47,1649826322702"
"1995","228,491642779874","-92,8535987790533","3,39731059473288","82,1566648577614","-15,1171736081829","-47,0283565170013"
"1995","184,545220817047","-31,6555938773971","-0,957031742206933","-32,2365775712954","3,01863636019244","-49,1412374609481"
"2003","131,22502692954","109,467504278264","52,0612006081259","-2,23410384188302","-1,94539971277052","-49,0073842163396"
"2003","141,003239677183","75,0529037962795","34,5304780063142","-32,1971985567767","-5,48328607480653","-56,7065951804006"
"2015","-78,2479736653481","-157,75610992354","-79,9180559560307","-18,2686777764965","-5,85584351032489","-56,5067216147927"
"2015","-8,72758305230946","-90,7602744183068","-45,9936962295248","29,1183833405619","43,9728675976919","-61,9140694775747"
"2023","9,81518907423744","-72,9172332973557","-37,3752155398462","15,3020284600464","32,3044008734656","-61,6899678538238"
"2024","14,760995550655","-68,1650854355818","-35,1856912570834","-60,2824599445135","34,2256667636644","-69,3094693006977"
"2028","71,5449868206752","71,7941088958221","0,289558908859515","-37,1208756412846","30,9710405584525","-69,0391943917019"
"2032","54,6906527364006","29,0695252090547","-10,6979568178466","51,2531079930906","3,91573232645778","-81,0850192574873"
"2044","-12,2027344100791","-145,274262358168","-6,5055339075315","25,1099251803923","9,41936226704893","-80,7241785786497"
"2044","5,95517892020903","-97,7073480460282","-9,44044922540893","34,8159125178323","16,3906698612157","-91,5732374092799"
"2052","152,926947997443","185,41360309654","-13,6779643820271","28,1065867094223","16,095256468727","-91,1553844743255"
"2056","110,127878817925","104,817376112327","-12,7545047454698","-81,0804719698144","14,368607698287","-96,3702077682179"
"2065","62,3135390421813","306,995487055008","-24,7415505018629","-45,849306059197","14,6987375086091","-95,9760638613958"
"2065","70,5602964463806","231,84170481021","-20,7868584519802","73,597074059833","-19,0260311029861","-100,095051342479"
"2073","72,7599064022588","211,825952832847","-19,7821692746364","38,7871726768033","-11,1098832062353","-99,7330391549686"
"2073","73,3465956573029","206,495145583329","-19,526928074983","32,335810229104","19,365947990251","-98,2965251808462"
"2081","104,70204388961","-422,512934025945","3,23526704083","29,8132480264384","14,1893432132302","-98,0277618368619"
"2081","95,0653014370782","-228,037033773937","-3,98199923502975","-163,057405491918","0,896747130451729","-107,841369370963"
"2093","0,631332586745778","328,255644748869","-79,1454487046003","-99,576095447896","2,73975515169856","-107,508981197798"
"2097","28,4435056778917","185,413408038367","-56,2407166196198","58,2893832965665","-4,6054333083771","-112,799289004138"
"2105","58,3942710275411","-91,8762277739388","-12,0108695107399","14,5466313570511","-2,45507063543885","-112,471814815925"
"2105","53,3828656254269","-27,7269430743851","-22,7742806321742","62,4348581651235","19,335707003511","-121,116791343608"
"2114","147,376370184987","128,051526396598","-23,7627742223899","40,7367815466956","14,78965119884","-120,752240441574"
"2114","117,446714598394","89,5400997619146","-25,0139009345173","-86,0996663760452","6,57780353664498","-133,831574696632"
"2122","109,463750485644","79,2833283687813","-25,3317495688243","-47,0338675766611","7,3919373400825","-133,383554117282"
"2122","107,334500590299","76,551636281419","-25,4124989872098","55,6775731082502","-1,96445315371991","-148,62271834789"
"2130","-12,8294505873665","67,1557560905825","-16,7032629428001","26,9181205330729","0,40564412252744","-148,082311026455"
"2130","24,1199129753999","69,6533456743481","-19,4906822699229","4,25476517515819","25,5057504799899","-149,838562795467"
"2142","2,7762392425319","130,996959180868","-76,0692286461967","7,90607045628597","20,2435809493131","-149,389726172552"
"2146","15,083364463176","112,334640621069","-58,4430035184461","-61,7919463491775","2,08166837594045","-162,394617272165"
"2155","32,2321790883909","-112,811719592097","-38,251511761853","-38,2411176442417","5,0355776893331","-161,880846725503"
"2155","28,8061833342202","-45,7750849747437","-42,1218650064556","76,6846355726533","11,0176963590309","-167,010953301028"
"2163","69,4910059434038","-189,152431927705","24,9869254150294","41,8078377457572","10,3385174991203","-166,541985571519"
"2167","56,3426336169339","-134,33820688225","3,03590788715426","-58,15097860835","5,23890264052001","-171,711663061866"
"2171","52,8356442324554","-119,739501393716","-2,5407462400856","-29,7418893404281","6,26045744014233","-171,277645306474"
"2175","51,9002452159486","-115,851419390109","-3,95749474458519","-33,6211273816627","6,65677956372919","-169,777534300413"
"2179","82,8497156376169","226,716967469009","-32,2526209482937","-28,5366520114767","6,81053658753493","-169,452600543636"
"2179","73,1046890692343","120,953411754977","-23,4409953425243","83,794919115743","-2,80205350296839","-175,866268458957"
"2195","96,5045910997501","-205,405796243738","-24,6943027812331","47,305877963721","-0,531351352919004","-175,530972665138"
"2196","87,7459117728534","-120,325240185403","-23,0127054289419","-47,7414568875662","21,3061131570021","-177,468383818853"
"2204","-11,6536837059126","49,6962143580117","-31,3152461925355","-21,1732270263342","16,7781699781578","-177,179551477741"
"2204","17,8340364840827","9,97813049480023","-28,4245059640734","-39,5988690645072","-5,93501315039269","-182,508328831973"
"2216","79,4306748277224","28,8723691435028","-18,9603632287962","-29,9474367282529","-1,74681352982638","-182,214831864382"
"2216","64,8599902917988","16,9044830743982","-21,555998575611","69,3500154565231","14,386401697239","-181,95560835472"
"2220","60,9736357892573","13,7170687873533","-22,215419513672","37,7848400758484","11,6454395104217","-181,72665597912"
"2224","59,937050906633","12,8681628252983","-22,3829453466388","0,347366877032929","-10,3744669560923","-179,290887407959"
"2228","80,4598779411873","69,8531633641307","14,2394465242634","8,51188722170051","-5,91730390935137","-179,139558612563"
"2232","73,9338130232336","52,0300127940088","2,5433620496787","6,91077809327687","-13,8603457638749","-175,655572844638"
"2244","94,7257385416459","24,7454602049377","-16,1415779807088","8,53290624666405","-10,941926132043","-175,578433663999"
"2245","87,2714487075457","30,4787489214354","-11,8884853987986","-35,1841037013164","-0,137455217675501","-178,860631075884"
"2253","85,2832090480719","-245,381404722772","-10,8079875917916","-20,5015936113878","-1,94575560587036","-178,759545976079"
"2257","84,7528973709727","-158,851405178562","-10,5334872162501","-64,6642584919224","2,18881747684882","-171,969608063516"
"2265","-55,7838875850952","202,259714431685","-185,058758964311","-48,0869257751827","0,792865331035531","-171,97257323714"
"2265","-12,2684522697641","103,434655871665","-129,396889338702","74,013006915709","-2,97278842693431","-169,741639767191"
"2273","-0,66183162329805","77,1145186516569","-115,255996116629","35,8293606658325","-2,43371043973597","-169,771226210115"
"2274","2,43393524321218","70,1046606928141","-111,663503401902","62,0976534006608","-5,44865043100112","-165,330252897149"
"2281","209,519468788914","11,0266308374137","27,1792258158538","48,2971360635622","-4,61832573404596","-165,407879531762"
"2282","145,754196692215","28,29234365217","-16,5477906905015","-39,6315704576749","-36,5369986021553","-159,892560268942"
"2294","165,145245406503","-46,8580610440771","-6,70523447206152","-12,3832994395514","-28,9201582895652","-160,021298981482"
"2298","149,317307796158","-20,872913476905","-16,2047339058143","-14,7725042080695","-11,456768547553","-151,20079454998"
"2306","169,361474331526","-88,5000576793266","82,6470240308803","-10,3363715933645","-13,6816765895514","-151,410315028207"
"2307","160,707739064138","-63,5112356248877","49,7603046878042","6,58652693618467","3,18759166567737","-135,960501829825"
"2314","-28,7942057276551","-270,09728373601","-61,605618592687","1,58043765962039","-1,26781158753982","-136,314858967569"
"2315","28,6610354062655","-202,117470045554","-30,8981218858656","-19,0049616281053","17,9601948904899","-124,343297528132"
"2323","43,9857399199695","-184,012365423362","-23,0968849714565","-12,8632456163887","12,4198870798193","-124,769729433263"
"2323","48,0732098147514","-179,190422031856","-21,1149813999674","-41,4016547679585","32,8390345500002","-113,978602335361"
"2331","38,7637823783248","-129,363447773684","28,2751234256185","-31,1368992144834","26,7608414762729","-114,44762195596"
"2331","42,280732584443","-144,092999783649","12,8226753361689","47,1373767553821","16,3425459831929","-95,8766760057128"
"2343","29,3525821724801","-215,629036788871","-45,2274704294958","22,6105992721599","17,3006668833156","-96,4743743857906"
"2347","33,9043313069018","-195,68127250305","-28,9751050008717","119,133759593348","17,6723792084204","-83,6009615343627"
"2351","35,1183930552971","-190,368572456266","-24,8461929524961","83,913833845614","17,8165886214674","-84,2308568001933"
"2355","35,4422127310719","-188,953637860956","-23,7972431994223","-77,8657422444204","0,140093089273099","-73,6194333867306"
"2363","141,258405716467","258,709907514484","0,912543592014746","-29,0467419502721","4,28232466658753","-74,247171580002"
"2367","108,48214750682","119,936408508875","-6,80993718507463","15,9907300778785","-18,2912603513504","-61,4002906068062"
"2371","99,7399255229814","82,9767791441227","-8,77183276660736","7,6198573621664","-12,0489022855718","-62,0536194591903"
"2371","97,4081631623769","73,1332988502039","-9,27025217145157","136,179812191204","1,65716315467662","-42,5286836197394"
"2379","-28,0096303279384","-2,30243593696117","-124,629581218369","92,5207718855238","-0,0254354065479414","-43,2837954160747"
"2379","10,5384062294243","19,6067194956716","-87,9366089052717","-46,5545766811287","7,38198546422458","-18,2648757413495"
"2396","50,2857895242291","-40,4376391447634","1,69894150615728","-6,37723557942749","5,25576646049764","-19,1675702078101"
"2396","43,8873794255932","-18,4292892558919","-21,5291545711867","-40,9949722457214","-14,9136041364383","4,60422474791107"
"2404","42,180768467499","-12,5677922074562","-27,4302503947926","-24,1649763056742","-10,7385076945668","3,60004003676578"
"2404","41,7255739867782","-11,0066961769812","-28,9294232845304","62,714712564956","2,16554348555642","28,3989725829401"
"2416","-22,5270411786798","-76,4703657030293","-111,369942045219","36,2188667689943","0,171795689031621","27,301980246858"
"2416","-2,66476999524296","-55,9053441382245","-85,3139487918205","35,2576612393624","-5,43781897844125","38,6176285976803"
"2420","2,63297884106857","-50,4282495894836","-78,6944259322821","32,0308106755822","-4,61412356664226","37,611878636015"
"2424","4,04601677985396","-48,9695317076999","-77,0127367154553","-26,9425383877511","13,4378800594446","45,6577858514804"
"2429","51,2213542207411","-22,5759895097951","-15,4772507228672","-7,86062049464882","9,44133050060881","44,764122669623"
"2429","36,8041594156715","-30,5465815590877","-34,8441657646642","10,7547819810094","-17,901814114863","57,376132361477"
"2445","22,5590896765798","33,210043041468","-17,0669777652763","7,14813430412253","-12,5098530997053","56,5153596013486"
"2445","24,7595845275221","12,1903831760707","-25,5506846730944","48,6327914388145","-10,4179893635505","64,6893141329817"
"2453","25,346509805514","6,592204535588","-27,7059696880919","34,4234320137134","-9,60643047461594","63,9087453894489"
"2453","25,5030569938877","5,10123825490388","-28,2535196619827","-32,4338394572076","-10,903618578347","78,854195163794"
"2465","77,543085249259","42,8448750920864","-75,5332769932144","-12,21257694719","-10,4068753239982","78,0543722415238"
"2466","61,4234213188528","30,8971605671662","-60,5446953031534","17,255680219789","-15,0502797574032","91,8660400758387"
"2474","57,1239164918189","27,7151185796029","-56,7368474055694","10,210374659081","-13,8517336846913","91,0648339498578"
"2474","55,9771344101641","26,8676434252965","-55,7694639725691","1,49166335121537","5,95773717299431","99,2913991509952"
"2478","79,9371207377163","-139,790327465276","-22,3506486705264","3,43399252572278","1,64301412568691","98,557297403379"
"2482","72,3278294594198","-88,1764449800353","-32,8606014986838","-40,2074479629435","-0,0309246600054808","112,427011743907"
"2494","11,3668707215504","62,5297938887841","63,9885007540556","-25,5071030042782","-0,680345498266224","111,677073674247"
"2494","29,1071064060126","23,6674770304499","31,5930069055977","39,7020504507244","7,12790672228708","115,481815279588"
"2502","6,10644453222311","-64,6978701309337","-70,9183701527104","20,0918217003331","5,1571941405397","114,842253652725"
"2506","15,9716108794697","-43,2322661299883","-42,9613767347653","-21,580183524585","9,22875783260364","117,627706169359"
"2515","22,069441257411","-117,264111283339","-89,9833575948178","-10,4150394296923","7,80836058064468","117,087884151041"
"2515","21,6958803232366","-90,981057081081","-70,9292878142808","-11,3079824391681","-5,63901851793563","117,727876682757"
"2523","-49,4680643084358","16,5717496891863","-39,8993517329561","-9,51872261791082","-2,85606007360864","117,293133324384"
"2523","-27,4492121025596","-12,7836466663725","-47,0161991230069","49,1153459685911","-0,16434399808921","116,909157639442"
"2527","11,3559889045646","52,2122277522017","-8,66738162896147","29,9533557443629","-0,120066557919437","116,570021172403"
"2531","2,70627596789701","27,5226180353739","-21,9248678215098","32,4869800539851","-8,16309004741949","118,504040152086"
"2543","161,593835328646","90,2937954142205","60,2586231311822","29,0849313613033","-6,28345926363397","118,212211762105"
"2543","110,972996046667","67,0116807982125","32,1373319851254","12,4060831555146","-29,7348422730768","120,188014361808"
"2551","139,069810715055","105,886345604025","4,04171934703576","17,4697698468138","-23,8330344785143","119,933090259856"
"2551","122,56391175913","90,239858437507","8,90403135710222","2,78888855389249","7,47335414773102","127,52536856013"
"2564","38,4307029252185","-56,0881706246144","-99,8555540755823","8,32410803045531","1,61897220637666","127,231049519899"
"2564","61,9903382217754","-13,0598025180507","-64,4859174612374","-46,8173435765377","18,6921910205367","145,956295182183"
"2568","241,601841387003","-46,6754357682494","115,602844072408","-27,8310737300594","13,3159123709651","145,494877981506"
"2572","189,508579901138","-29,628307567919","63,3543785514267","-5,71025740294684","-8,11435048657327","141,737014751125"
"2580","16,1526736994619","25,1882769044352","-49,4384945201978","-10,4896053151416","-4,42842946487597","141,417980474881"
"2580","61,9144544210184","10,7876107805521","-21,0935142858808","23,6623123853957","40,5266467644475","140,019425615253"
"2592","-17,7433864141228","-32,9221234617747","-69,7628772138376","11,7223802332234","30,9674059716888","139,784188664961"
"2593","14,0099379318175","-21,5633632431752","-50,1273247068827","5,37649359072746","24,0347249595706","137,342869407802"
"2601","-19,1192999863259","-105,221647770047","3,74768812225209","5,87882434293771","23,3451239103771","137,186638114377"
"2601","-3,95567020843276","-77,5024089496663","-10,5653694721319","-11,6425593999784","23,0775864739662","125,880889006849"
"2609","1,82211293030279","-47,5822252313719","-117,212655572489","-5,77771640621318","22,9737927225429","125,895382215884"
"2613","2,363187645123","-52,6135647257464","-85,3063894932628","13,2463604750933","10,0372027617035","122,557854390336"
"2617","19,8402631537835","30,9962361648943","58,9835013428792","7,73616253394545","13,0183268216679","122,610070351431"
"2621","14,5018225284912","4,26408466854794","17,6403357802143","43,4795887175465","7,72672182259332","122,656188731482"
"2630","-71,8525819989331","-112,076677449889","10,6290082726974","30,9152625991661","9,67379217927763","122,696921582778"
"2630","-45,8853933965054","-80,0617825219782","6,84778111853148","-19,6778273720849","21,7134589623868","120,499345424963"
"2642","-54,5587972073408","136,505091583057","-39,5075415385809","-4,61811550978798","19,3843648291344","120,55839384017"
"2642","-47,8722040942647","74,1834772760024","-25,284107298553","73,0238066764294","-7,31187423070999","122,844099188259"
"2650","148,038159346526","258,690974602659","-35,6382457288688","49,3477897143374","-1,66893991127021","122,862888572174"
"2650","88,2921986935117","191,830967217068","-30,2687137123282","59,6360437438589","-17,2121516169608","130,696917140024"
"2658","18,6249546914685","-34,0162266236318","-76,0452368695061","53,0641365449939","-12,2422918236701","130,616117691962"
"2662","31,043013208934","25,8337545526425","-60,6747586659783","-86,078383319739","0,970095531174129","141,71251560513"
"2671","-2,04358111919467","-22,3721317735813","41,003314793425","-40,9168950677871","-0,9040302464543","141,513118436783"
"2671","10,1314227370851","1,78916555924301","10,834620667384","-60,2463920165105","-14,5274377410558","148,037663255914"
"2679","-64,6186188191745","120,912569342157","-30,0027851209706","-47,8082751364338","-11,8127712256087","147,800296583413"
"2679","-39,5562655269258","87,6387770405474","-21,3775245719413","27,4509404125459","-17,2077510215399","153,174529641512"
"2691","211,520355809164","-113,660355365531","-19,1862778664899","4,21258966510088","-15,3007859230666","152,921180233833"
"2691","137,488572395468","-56,272474238993","-18,6295918282122","-55,9556121871292","-29,0693226953349","143,763206477397"
"2699","142,008363418801","-160,611513925205","-55,1531175822089","-39,1556870837473","-25,4109604951735","143,674666013016"
"2700","129,213901164867","-119,400193051331","-43,4319161790726","-68,7066791009286","-9,48330085033267","125,728045911683"
"2707","-14,5940298170878","-40,8112506344391","-47,4379463059842","-56,6808994863727","-12,304010325198","125,877163746129"
"2711","28,048911618163","-58,8806103846115","-44,4556779174103","41,4129199256766","22,066553944435","114,841106258411"
"2720","81,021435675552","135,678947085562","76,7725230079292","10,5636796237547","13,4009487563977","115,093797527165"
"2720","71,1504909628214","72,4961109172323","38,5705370940488","112,650673653932","6,81496237163287","97,44856141694"
"2728","-26,8124968584635","173,558107346374","-20,0212765556117","74,7438477321503","6,25986487623748","97,8638687680013"
"2732","2,0584013918537","132,474009573009","-6,90652180663118","-8,29013738480001","14,1047107553611","83,7125876262426"
"2740","66,9570699384983","-110,779642363452","-89,1262736703652","14,1133187377355","12,1481950394889","84,2138391932173"
"2740","51,2671168407812","-41,5655336295552","-61,0141946056601","-121,718820135488","3,32894437866744","70,1384660292038"
"2748","-32,6484594685876","-5,795004474846","-128,948176995807","-73,7760611031458","4,90743027914603","70,7067613294202"
"2752","-9,03077630615514","-6,26821795427489","-103,206799417057","6,33448639756804","15,1920608657387","72,3254694600906"
"2761","-9,66447124042799","56,0178491867814","36,0250018514288","-13,758919429765","13,1820833646705","72,7551510210089"
"2761","-5,83349302900471","36,6065348696903","-4,60317093368482","27,3627462534502","4,34209168413332","64,2004464783596"
"2769","52,3864223165455","-17,106035312331","129,989102334298","11,067718557749","5,91253090421637","64,644727746865"
"2769","34,9150839647284","-3,41133639921589","81,1822578571045","-22,7659035347698","0,0736369964505164","61,6867989682895"
"2781","-13,0768396115188","60,9144099621705","-44,7038723660334","-13,7508516127857","1,8083812962378","62,0742858455641"
"2781","-0,877448108417915","43,0463246372614","-11,6852329922381","14,8366629157535","4,09343249593133","54,5990901446507"
"2789","108,106247538063","-53,5969714202013","-130,75120671863","6,58349654077011","3,97994034093588","54,9968193242621"
"2790","76,1748390126144","-26,3360385221089","-87,9999071696191","-28,8801829829836","-5,73633166864656","45,2971174867411"
"2798","10,4598582427171","-133,497798232547","-50,9496918905445","-18,2498348895463","-3,50585392786253","45,7301098831129"
"2802","25,9320810974593","-96,0382540786046","-56,5370878648405","-73,9527977234046","11,8678440485624","26,0105676397091"
"2810","59,5245859264044","63,0339371529943","6,64358782698724","-54,099048065852","8,83221975474307","26,5937984266788"
"2810","51,4845206550541","19,3997294136714","-14,3053669122995","82,8860892488112","4,43043923399534","15,9411598344491"
"2818","64,9395224960697","299,035063717433","62,4322069424302","40,2154451163679","4,72272565446836","16,5324958005389"
"2822","59,5282973993774","205,510510306396","34,9273810229903","113,052607878255","20,9565237214604","3,65346351359378"
"2830","19,9529254858733","-173,066497630339","-57,6117718386083","83,2426374060796","17,2545836259992","4,27839556018214"
"2831","31,3972151864289","-69,8931396017513","-32,1213357156168","-140,763928218681","9,37021886589689","-5,22063529573932"
"2839","77,7815788978586","-340,606053834894","-18,6616922549309","-70,6308896914199","10,3114028474","-4,61040551063255"
"2842","65,1534122398681","-240,705186925893","-19,2422709838717","-163,446659722026","7,45246378885894","-13,005645562996"
"2851","110,316896080864","18,2131704713525","22,513035090454","-123,351766496844","8,3433105654535","-12,4205214599714"
"2851","94,3630911887994","-46,8289478458782","9,12096703064106","164,82188511056","19,9732051342885","-10,7869497299829"
"2859","-84,9530285537653","502,758239245285","-128,719443295259","74,8326833409451","17,4851358836874","-10,3441402842587"
"2859","-31,7809811541835","322,130124973159","-86,737787760076","140,030355629758","34,2523081876488","-12,1865928208118"
"2871","-57,4640510436374","95,4553826603893","-41,1533500496976","106,417417251776","29,7572958168093","-11,8138907681484"
"2871","-41,314347888503","138,084962354909","-49,5726275445711","-106,138716893329","0,608727433055929","-23,7692495419531"
"2880","-177,402168858981","-145,285273938009","-149,484749057922","-40,303304361124","6,30025673169286","-23,328507056766"
"2880","-132,70008708415","-50,7554392176589","-118,867414990887","-176,469189936175","11,7324214393128","-22,939232800187"
"2892","-332,23660395188","-306,433694214442","-287,430042517872","-122,605197229177","11,8398825891146","-22,5954165085243"
"2892","-263,457826251935","-212,528637478255","-229,253363637408","-102,836980641572","-13,9110711425478","-27,8756307285145"
"2900","-387,241474016927","43,0591827942005","-4,95957308501639","-102,171556921481","-7,90140418301957","-27,5392416445181"
"2900","-338,257571211704","-21,8699594764493","-67,97775476111","114,956711962353","-103,904351924965","-29,4756871783173"
"2908","1274,62116490723","796,466073469667","1066,59358788061","43,2003520481204","-80,1496295485953","-29,1860019787061"
"2912","781,814991608739","532,414000777372","695,831340529495","400,232062500932","-291,783270962279","-56,8495498869161"
"2921","1373,14764750962","677,063859117028","795,439682756581","272,493796653283","-236,88860120839","-56,2826540423672"
"2921","1113,87039032889","591,588542793712","709,745173587828","-64,5881424842008","100,368213058217","-42,3806438438615"
"2929","-541,232470988869","-1069,49373180353","-427,687613746508","29,8583951436786","35,2102754455669","-42,1020574428228"
"2933","-67,6884946501491","-566,890771968901","-77,6523161750409","-649,921117927527","148,567082878899","-18,4037032906912"
"2941","-225,640073321453","-405,293513326944","-362,359197023887","-412,353367880829","106,544959211734","-18,4727526681229"
"2941","-103,76958531791","-378,255218345815","-220,688955775303","-142,842644105859","-90,3064428250616","-48,6866958777993"
"2949","-289,656522151609","29,4235382170949","-474,525357276555","-200,236414482354","-54,6768594831955","-48,3723698860062"
"2949","-213,237070831131","-92,9991336156641","-373,0124733876","318,944390334484","-31,1817743488654","-32,459883013013"
"2961","-161,655188105196","687,486910870633","174,815941639684","139,474332834541","-28,0666274788842","-32,405595745518"
"2961","-165,897050545683","426,354228011705","14,9917036653684","188,845940234474","2,15864892924537","-39,058305084011"
"2970","332,154965944925","-463,219022125037","307,864835985963","148,497950785949","-4,1151610156559","-38,9341363664872"
"2970","176,997502753406","-227,13960028617","191,269230225969","-240,283073836212","-87,1511601559799","-62,2767676086858"
"2978","218,81048636082","-296,023300371698","-42,6280334519134","-117,037846258649","-69,3657839095136","-61,8935352877752"
"2982","181,963021899334","-238,369137600541","14,9503866972672","-163,802924653306","-52,7935325305406","-88,3576839602396"
"2990","619,320061217033","-110,32555884305","120,36758385949","-131,839777929747","-52,3641663706851","-87,7314501541183"
"2990","477,973777436059","-141,223635584474","95,1488137906417","71,5070265023538","46,1368669175898","-96,1125550740811"
"2998","308,54434070847","-269,075927471527","200,482792878404","8,49815410851752","23,3513011336901","-95,5149464855761"
"3002","339,353405947242","-234,126905182975","163,242881264851","-34,5962360884416","0,00305676310781955","-105,038110070223"
"3011","-193,21111269853","501,588567186773","-66,2076258651319","-28,7667838126998","-0,0551218039109483","-104,449194885703"
"3011","-23,2589698070976","278,532110958056","1,50049240506669","314,823780825005","72,4641194338192","-105,045827164167"
"3019","120,868102672961","236,462044951233","160,123690987403","201,913319841134","55,5986646377286","-104,572786997757"
"3023","102,310284005625","215,2574989961","119,421901032877","4,15835076019732","55,503708442085","-105,27176285109"
"3031","-115,832456393653","-204,736906877453","-304,708555478774","54,4869315440416","51,4668692621221","-104,889114966708"
"3031","-51,0164091967836","-77,5942693247923","-175,458861713566","-187,650298475542","46,6766576851159","-100,084046480956"
"3039","-94,3930516261048","-3,85789809689302","-196,747440705868","-100,796211028857","46,8182484981283","-99,8400955902016"
"3040","-70,9626528479765","-7,21964604723618","-171,155802379751","-7,97435735840558","30,7527773252142","-95,1575275914656"
"3047","35,81679714777","2,28703399664648","165,330317300261","-27,0678148062372","34,5200214769458","-95,0217720474652"
"3051","6,29746291517125","-1,18104619568916","61,8145872521927","46,0417315377576","21,4731980627117","-84,8508838002834"
"3060","-107,305880987683","-31,5770818633881","169,95458145857","19,2960453078811","25,4115559819309","-84,8677131411399"
"3060","-76,6066445511332","-22,6724763045886","120,427537746125","2,39993259091","5,98295673605696","-77,0651438790565"
"3068","-170,681685463572","21,3071582246311","-145,317565867195","4,41234348808228","11,4454426308033","-77,1737289349876"
"3072","-136,773777597298","9,02028071159474","-67,8300867322118","-5,69667703538699","-44,4687825629197","-87,320619560203"
"3080","189,459750063761","-127,744634497055","-165,12305500444","-2,08246959932735","-30,1612502363944","-87,2825949482652"
"3080","93,4741340468681","-87,1693165324141","-122,840325280305","-45,3293362798819","-61,6874300919437","-100,650324997018"
"3088","-70,7896169546708","-62,4935125277645","-215,109456448508","-30,5358694153768","-50,9183182964256","-100,457022449089"
"3092","-34,6027382075039","-63,9215908220773","-179,550421337383","24,1112992163073","-17,7236117272615","-106,98695018208"
"3101","-45,7501304442402","251,225898882909","171,689565242296","8,00837547203185","-22,8454023505374","-106,754337827264"
"3101","-36,7234099702656","153,159319155447","64,9220538193684","95,9356561937917","-23,2204105839359","-107,665665248155"
"3109","161,544397898765","130,508526857013","200,171134612529","64,6870486780043","-24,3658986766726","-107,470571324131"
"3113","101,427224777702","122,475927735661","141,531152030983","4,39236943390449","-37,7066240922428","-101,714378770703"
"3121","118,324758299251","23,2511144303032","-75,8965404452784","20,1624450755775","-34,88228831392","-101,630372458013"
"3121","103,831739788104","52,824510288798","-15,1340271396528","-73,1353709864819","-22,5022778752559","-93,7387427459161"
"3129","177,963510688054","-254,82702007972","-151,594973260681","-40,1542436632135","-24,6993323760103","-93,7686674919502"
"3130","152,736249635775","-154,764036998633","-99,262864962126","-92,346275411374","-11,0433386097409","-79,277007257836"
"3141","-126,116769036128","-57,0337572298323","-82,4759971497622","-70,663923887071","-14,7453629640509","-79,4776279063379"
"3142","-43,4936236026357","-72,0051931030284","-80,2112948164708","-2,04297917607015","49,9120517656519","-67,3702827392823"
"3150","63,4744837174353","71,3693543184061","168,288964751698","-21,8480036844303","33,9965248852396","-67,6767872232978"
"3150","43,0054689629654","24,5543836720376","89,4204344606174","93,4294570683395","2,02929705385293","-76,8817088087262"
"3158","-97,649623734061","190,654072531528","22,2432387723399","52,6356644368353","5,62729999603086","-77,0117147134563"
"3162","-57,1657439589398","131,891502457535","32,1768779480316","20,0761541826029","11,8593010556341","-79,3600914057226"
"3170","35,0962489410764","-242,628333769789","-162,591841524077","25,3919045295584","11,2770665000827","-79,4342336129609"
"3171","12,7047572535315","-135,374426762301","-99,0728180629576","-114,473040615997","-0,233098954999475","-83,9668225394316"
"3178","30,9982649315405","-167,487858243392","-93,4115160930684","-67,4820492839977","2,30142037016959","-83,9701129959472"
"3182","21,8775865417522","-141,040647743378","-85,9732628113769","-51,0998980403052","16,1810339667454","-87,3233477783211"
"3191","-75,8852870779601","-28,2431129300937","-73,6078746880621","-50,2336070848354","13,5657651012803","-87,2850045754633"
"3191","-46,9610135228392","-59,2016777149431","-76,4664488919577","69,9224144153357","22,2233877238795","-85,0175865638929"
"3199","-35,7796575954203","225,543237591565","38,0400362155152","30,2799928713528","19,5821966534354","-85,014948990995"
"3203","-34,797319130408","132,379521958806","1,1303989724772","95,0118667685805","-15,2953248029006","-86,1293956147589"
"3211","-5,06961744784192","-46,7294029272111","-30,9438423260355","68,2889970341081","-7,82639858781321","-86,1137014067875"
"3211","-14,1405193331026","-5,43159050006259","-26,0923005871753","-50,9133652535085","-11,3769170773696","-83,866287526752"
"3219","96,1029769597879","-100,186552656205","-45,8111678483839","-15,0458741241425","-8,75437526966206","-83,8813180791051"
"3220","60,5075877821196","-64,4226986556698","-38,8207443911146","-29,5128381901278","-23,8573373661212","-79,4274886570246"
"3228","37,1472290621427","161,810984967557","-68,4719294472298","-19,9271328996191","-19,7166784535827","-79,4937604699756"
"3232","38,9164555477936","97,0639378472644","-58,0048104770388","45,8389270511617","-5,21394737737827","-75,0851885492612"
"3240","-10,8766464442638","-3,39631327384511","42,4275649881278","25,3601317441344","-7,58747175408774","-75,1914328649571"
"3240","4,84232714649354","17,8480476889343","11,942401393096","-30,6288102364353","-13,3444244408259","-68,5846132284834"
"3248","-8,29779962182976","-104,7854644334","-32,4673036077136","-14,8425534601249","-12,5778902471054","-68,749312823421"
"3252","-1,80258971622345","-63,4465213946874","-22,7495853683551","-49,9247586820089","-4,22030449556016","-62,1941222813386"
"3260","124,725696082996","-104,446777835022","35,5896028543773","-36,2043802487753","-5,97789778929608","-62,4044219216825"
"3261","86,4738547231966","-85,3664007655744","18,4106686372725","7,6055705690341","-24,3922161849081","-69,2908207167428"
"3269","-31,1919361302896","162,429003411284","-144,835095908601","-5,05500488977875","-20,5362301660001","-69,3730520911843"
"3269","-0,576252697649536","88,4245022802395","-95,307668442112","41,3488430052812","16,4246230804096","-68,3289046079968"
"3281","-44,4085816694096","18,438426455476","-39,0764775901217","24,3004436068655","8,76394570276426","-68,4066886906813"
"3281","-26,0997255299671","28,7989928336994","-49,790948359135","-25,5869222263484","10,6280321925494","-62,8915084897462"
"3289","117,445752095445","-167,813652206638","97,6387486062592","-11,3606550190688","8,35122268262822","-63,0203700250543"
"3289","75,7328079927566","-105,177616084358","49,093250522434","-48,575021309038","-18,3247320488989","-63,1341836011098"
"3301","10,8754063074541","34,5948043910508","-73,2345845009005","-34,3578463275683","-12,6739282269349","-63,2347064612756"
"3301","24,5763662766732","0,820477111003353","-41,3119605356519","21,9173074838458","5,63875880090505","-56,6228334990553"
"3310","59,4297081674375","128,785222772123","-24,4722702178216","5,19859850369979","2,7433439040618","-56,7830698763787"
"3310","50,725938680962","83,8661503647797","-25,1941483315302","57,7006760947227","-9,66424237018655","-49,1071611232888"
"3318","-33,0595290148306","16,4254060488026","-89,9776945662873","38,0914973436536","-7,4778861831423","-49,32761575643"
"3322","-8,40714273361573","30,4638720969866","-69,4359489514663","-38,8601340083853","9,4907346778758","-41,7048932006181"
"3330","72,6991042645199","-158,234558117767","30,0639843809904","-16,0212040583024","6,07387623471177","-41,9723231495083"
"3330","51,3321049261099","-97,4907244061595","1,34193394182098","-49,4389339559129","-1,69988832472017","-36,6246426928949"
"3338","-1,16543735270227","10,5716954787187","-65,3172034232514","-35,3257288544285","-0,715795919297923","-36,9014439903984"
"3342","11,8321965055689","-13,6479753098522","-48,2519515748175","17,3969000165956","-5,17012850794909","-29,3284881501123"
"3351","43,0313927310847","-23,5657535804657","17,1917271898033","1,83977275781239","-3,89823017351714","-29,6398732470532"
"3351","35,3529740835441","-24,2071614258415","-1,18231181221423","8,75215484324604","1,43133597200425","-27,6813435965652"
"3359","95,702881834532","-145,734845906923","86,6851196782426","4,38352058637172","0,498993011421591","-27,9515235785149"
"3359","75,7996640507529","-108,101387128138","56,0078331401116","-14,2874416019445","9,80952311261021","-23,7230482075209"
"3371","-12,7062435609502","316,268540968166","-93,2076858049819","-8,6939063674557","7,42163385085612","-23,9883580838584"
"3371","11,6870870543524","190,291238877888","-50,1158756425006","84,3538754330386","8,10726924976776","-14,1717003649075"
"3379","-61,5373065758033","203,548702104005","-79,3252569182746","54,3137384479947","7,37326817356846","-14,5013945421914"
"3380","-35,0680260268228","180,07957025005","-63,7458977354402","-3,93174043679304","10,312585855979","-0,274497806983788"
"3391","86,3881735670668","-65,4173548269056","97,3475448242107","11,3219594064453","9,45292274854708","-0,708963881488584"
"3391","52,783483958253","7,19930162373319","48,2733201410379","-115,613604835828","-11,8371154362852","10,0750672467373"
"3400","-67,1093505133398","-75,7471551889833","-137,043040905885","-71,571198112615","-7,09679288851537","9,59978029677129"
"3400","-35,087673557969","-38,8383348658288","-85,1226465945527","-38,2449944556818","18,9228654238068","16,9974288830469"
"3408","162,380343087027","-205,842665293274","38,0625805269948","-43,3798003268853","14,0174450206689","16,5312082454639"
"3412","106,049846273659","-148,32102895158","6,35777695103291","-63,9955775422879","8,89025890739335","17,2362072690235"
"3420","-125,634333886944","-65,3881504169679","-167,562083806022","-57,8610309129849","8,90111717051379","16,8588791919916"
"3421","-62,4301166804627","-82,3005870510878","-116,74640956988","0,0345590532745312","36,3100143402324","22,1094950052596"
"3428","-42,1054694390444","-20,9254492910353","-39,2365387107395","-18,3017167801987","29,9435626682249","21,7469639037361"
"3432","-38,6843937082158","-42,579371977452","-56,5451626422017","28,5266237473589","-1,5430890709623","15,8428868486203"
"3441","35,0256727154273","85,1460695225744","104,922841044794","10,5784072859259","4,24135804188172","15,6282654230496"
"3441","12,685932864626","42,1632630942342","50,9437735840174","20,4544646410893","6,4854905782721","12,0883780972158"
"3449","-69,536751090303","63,6553450191408","-71,0185091897825","14,7852764288679","7,35612362973583","11,9618653296692"
"3449","-47,4675325310416","50,379344110562","-40,0030167067761","11,6833185793914","4,46981365147068","9,61657385933163"
"3461","123,080061500845","-152,528442096029","16,7630689008575","11,9512369742788","5,35004161345676","9,54515659355705"
"3461","73,5692358995721","-91,5689947026544","3,18448809880863","-62,073267856269","-16,877029173611","8,36530297310187"
"3469","-97,3645963213035","33,8875436956669","-157,40065688417","-37,5435175964961","-11,500237540605","8,32322816431669"
"3470","-51,9567898006456","4,30045894110132","-108,197299245078","31,749431164144","29,2747075815399","12,7531714552182"
"3481","53,7514640749481","-43,4538832990775","0,330064258456865","12,1030038473559","21,093744255755","12,6658028425037"
"3482","27,9464158901739","-33,1723259585309","-27,098568317145","5,70232946617658","-6,26074412162741","18,1725177583176"
"3490","-88,1327895100576","-25,2330244172913","14,819792313406","5,19172996671285","-1,87318402927045","18,0361794816401"
"3490","-56,0939253061421","-26,1185454679109","-2,53085175033098","3,30723156968787","7,88921394991171","25,7331956062114"
"3498","-68,3476934963917","91,5351323245195","-102,966036091865","3,86247806939161","6,67663122781001","25,5313835061093"
"3502","-59,6160702882896","54,8699070168581","-73,4815860916342","19,8694630133294","-11,526245013933","25,3531382543438"
"3510","-365,810223292392","79,7782235164175","-453,591983058449","14,6472123572635","-7,58822795423491","25,1957078041337"
"3511","-269,47962065293","66,4120704145666","-328,158996927394","8,12274719487263","11,6720070555077","31,7573186279108"
"3519","-425,779872220508","57,6512466310055","-261,373755810059","9,58293229074995","8,14420261727811","31,5526895332206"
"3522","-362,468935279311","58,3179711692601","-264,406971011007","-21,8243413628291","-49,6458529102441","33,6055086266558"
"3531","382,393451741132","100,103605896991","454,153876131826","-11,2366559152022","-37,0660672123429","33,4186073256596"
"3531","161,066292707096","87,232399098677","224,70419794736","23,0139911282396","-175,65720104464","24,3193221191124"
"3539","781,477083142765","-890,517799493435","578,456746977322","13,0973597233155","-140,424979817775","24,2826167793126"
"3543","554,955668784397","-588,922597313059","432,32755183019","-149,766454193744","-10,6893973197314","28,7173025130639"
"3551","14,4195302870339","-59,5781915253253","-355,555094453729","-97,2033408610732","-32,357215845559","28,6341225387874"
"3551","147,245449072358","-177,597577903779","-125,716613417502","51,0293998518957","162,353617244128","77,6988084066716"
"3560","477,330221167292","1210,84548596438","-477,624437030747","9,0132610187076","111,893579352867","77,0339071489671"
"3560","395,371825327261","761,630361335675","-332,02658954913","514,183346843124","87,4809958972059","52,9943505176367"
"3572","-401,262736662989","-1140,22151507494","-38,3828062766111","341,40667134691","81,0098966267937","52,7620417417316"
"3572","-166,744470739239","-618,742867944731","-110,782628228121","-390,855242235205","186,506068838137","33,5716658537266"
"3580","-279,253622162916","-1188,92793082652","165,889767632739","-171,673669522501","160,434335257659","33,622268964735"
"3580","-208,262538088212","-931,785661188839","67,1783661595044","-539,775936600083","82,6138611869353","30,3166342643534"
"3588","53,3311124736017","105,820388128793","101,463045955433","-388,650391897152","94,4226511278685","30,3970189929396"
"3592","-16,895524498005","-176,833369366688","76,1730659279587","574,876873698703","29,686254439847","18,1834785987108"
"3600","513,821751866853","-246,911706220146","356,083962676828","276,275381800998","47,5711395010857","18,3961889296791"
"3601","338,376904714476","-268,575711777125","263,195302077462","225,207478195546","40,0013922332915","-2,63468786954229"
"3609","-398,262245203241","-87,1092042787553","185,472493140586","202,155131047268","46,064635131962","-2,20965898390662"
"3612","-196,741749647447","-146,779120312329","196,727020171595","-62,5924415978788","112,898540031608","-31,9872205081057"
"3621","-411,649097704051","1014,49047716038","-491,810002036121","21,9254624689253","98,8274036884799","-31,2874718218636"
"3621","-313,970093000454","644,772106741632","-270,732773692428","493,45460692199","122,385094312564","-16,1513466395286"
"3629","-225,518808433067","861,832621677715","-380,433380840546","348,738457212484","113,524529591407","-15,7827605016608"
"3633","-237,926708337389","737,642479029771","-313,302810712597","-6,46231910688195","-2,75583164465134","-8,75655930333558"
"3641","-404,164118886161","-623,423916064743","94,8445240329187","91,7080587372259","22,1320708804414","-8,55085111776745"
"3642","-354,503662946993","-219,917546793761","-25,465680451217","-379,041348362271","4,38289020749226","11,7328066864626"
"3650","-401,922668669393","151,066295638247","-173,009133345049","-210,141175722388","14,496922877271","11,6478161938729"
"3650","-379,570466097231","97,8706452788399","-143,492534945123","23,7596362873215","5,52443808943839","69,6451124964401"
"3662","-63,3522280553568","529,256051354256","-24,2530401750114","-31,0382977264808","10,0434753194731","68,8697054516562"
"3662","-158,009164407942","387,147185729028","-57,9602567176922","176,528256522164","-118,778582141721","84,9364903521769"
"3670","419,923508457651","-371,907223900191","55,6929337814326","100,51527168347","-87,7563526898344","84,1270573112743"
"3670","226,072151221793","-158,066640853734","14,5665171160578","-194,371282251307","-125,694225337439","92,3463563052776"
"3678","-167,088029485356","-215,536530243816","-77,941299539679","-106,966367744529","-109,41259214226","91,6058368705191"
"3682","-74,9533729593809","-164,842520412767","-54,442902456266","-208,053822050544","-33,7782424967724","93,1853448565637"
"3691","389,873219170538","231,799782906347","243,100527585003","-162,911098453439","-47,4351606780656","92,5804039164301"
"3691","259,853730502819","116,437765850509","151,691410561869","137,037835119908","-81,7502198310961","74,1776866199044"
"3699","-71,2157744789131","463,6532595654","-126,439780282655","43,8276741176374","-77,0630808930437","73,9239685523137"
"3703","11,4799692476249","338,12737061223","-51,0989855503665","34,1774444642867","10,1934746048044","56,9482358500479"
"3711","215,530883837087","-598,545771793331","13,4360391351953","24,8999294376005","-8,95449573945241","56,9548645512616"
"3711","164,956205359033","-327,010492559853","3,83115664203743","-257,76462035981","-43,7878217328814","34,6251953590867"
"3719","78,6691309097253","-258,159677302649","-30,036064472713","-165,475235837399","-40,3017494579657","34,9030998802469"
"3723","97,6542780748821","-237,822598309891","-20,6400291029577","-66,0786367066169","9,41191431756661","21,7472374786336"
"3731","-119,141222844537","135,131700787899","-28,7286676328642","-86,6204127830792","-1,30118613863384","22,1276665768838"
"3732","-48,9658342450297","22,4608433361329","-24,7835855602119","151,962728723165","34,8435690738081","14,646237277497"
"3740","-115,17887139274","73,9356079413622","-49,9705890785139","70,269853984771","23,8662785237741","15,0384607945206"
"3740","-83,8394922380763","40,6449129245151","-41,3693451701064","13,9459529798365","-1,34899166544517","13,151329561336"
"3752","-26,9487989297816","-138,121019002218","-124,735754077208","21,6531573150425","1,8684989362314","13,4845703253769"
"3752","-39,77467299587","-87,7318570541549","-96,9149831363885","-107,06342743511","-9,77956644585509","13,7788965023254"
"3760","-5,06357717521713","-86,4473670733377","-142,225621219664","-63,4413527781008","-6,29854673904524","14,0388523894343"
"3760","-17,8052871341312","-79,10526808503","-123,736784952922","-16,1024005648478","-33,9647761472361","3,10068970877778"
"3768","3,06205107168506","4,33261931221044","177,77181684729","-25,9301094499073","-26,6981590208216","3,43984400191051"
"3772","-5,37212437200893","-20,4453180081182","84,3700513706906","7,0303632395941","-30,3271652896665","7,08972172138488"
"3781","-66,5530996974561","116,850119192785","4,77093809814816","-5,19075744524305","-27,7350735795696","7,3133806233622"
"3781","-48,8715477662287","70,4160954690766","16,5487901730116","46,6087856365366","-0,936802050990645","11,9780262544775"
"3789","35,575236193322","-21,6994983300186","-88,7079528116948","27,8338043129856","-6,54015188147431","12,0979523366807"
"3793","12,0992389783122","-0,232699769228776","-53,4484193727594","-29,5170205244761","-37,7307508367506","13,3206500987546"
"3801","57,8358952045819","-263,234191287955","-114,328741333533","-13,0521766867772","-31,8314471659845","13,400565873496"
"3801","40,0349692712755","-178,279536534429","-89,7953819254376","-95,6020608951536","-35,9909159930316","15,7047017703576"
"3809","42,2201342543214","76,658187199821","59,6052229427197","-66,0843539067512","-33,60462239345","15,7397694537629"
"3813","38,8029706852192","10,5559043275754","15,5604338431773","74,9455319496968","-13,3343533266931","13,5371896847839"
"3822","-8,90691560598707","280,739963884044","35,7979604741724","32,2294739684634","-17,4703052255202","13,5918187914798"
"3822","5,36770207265151","186,698246791271","22,9393023854779","150,919754889431","5,10571605478418","18,107173282963"
"3830","-11,6242209584058","296,878272915945","-18,7383404830836","105,931409329723","-1,13569683930606","18,0952418761622"
"3830","-4,15637841578387","248,222585469469","-7,32654209248253","0,0582165809823678","-11,6173150497201","9,15049424603625"
"3842","100,098746958292","-368,05286392323","-79,5032293608444","29,0714757395577","-10,6837608138766","9,25028017312515"
"3842","68,9061142039169","-184,185874615926","-54,839710593866","-179,288443213967","-13,5456599064788","1,52098014312017"
"3850","8,58801015990875","48,5524874284782","14,2802573175884","-106,462697446457","-12,6559615038975","1,69427832929408"
"3850","22,4997107627011","4,53783522008408","-4,15982074081533","13,0362720061107","7,03368889527109","-0,386212968502161"
"3862","-126,317970141525","268,468820926994","-99,6339254392518","-16,7612179627167","2,67248033530576","-0,223752417246503"
"3863","-78,0112503586632","179,761718919045","-71,8891135796169","122,61786340585","21,9370305610366","5,50361756438209"
"3871","57,9359021219308","-133,386486520658","66,1057099112842","72,5122051599257","16,4109002528338","5,56216709542052"
"3871","23,1963006535207","-49,7874362136612","26,163283027475","-71,6125732690846","-17,9738211787592","-4,43710628326681"
"3879","13,9304074657029","-32,7234591170197","2,04831220712716","-30,6269294430772","-11,3137083994444","-4,26870260456835"
"3883","11,4589693104288","-25,1787998448988","3,92190593084465","-89,749813324949","-13,5659736600041","-8,58706922979148"
"3891","-207,592971088519","115,524125728153","-157,975465690604","-64,7031865915878","-11,4397618809354","-8,4011534494149"
"3891","-140,01942955456","72,9976204298045","-106,105479116885","-58,7920248055856","-10,6148773345681","-8,23694820570736"
"3899","212,52629584389","11,3950981470226","85,1589952557836","-57,3969533641388","-10,294855349207","-8,09191822489326"
"3903","113,558780307889","23,988461376889","31,7497186265899","18,7840212468217","-40,7994648485565","-11,314152865648"
"3912","-11,634972639113","-165,09484393968","-111,019209860536","-6,23678855185254","-33,6340248941259","-11,1601072187228"
"3912","11,972820957949","-104,45351424517","-73,2896439430703","-79,1736178523372","-0,225357606487783","-5,44016948094978"
"3920","115,333034893613","36,5213242681234","34,0687538394725","-58,3871693115012","-6,26414008733103","-5,38818428463928"
"3924","86,9017075817187","2,0672377065137","5,34314562234081","10,0223366482372","-32,7875485638719","-0,875164957757498"
"3928","65,452177692048","173,192677649873","25,9806086765866","-9,83258873818719","-28,0775629381087","-0,88915883753237"
"3932","67,7310685115836","114,7686188815","15,2235544020442","-14,518476281352","-26,2502781894529","-0,901518565330583"
"3940","148,069589663374","-290,867110612092","12,4907256827882","-15,6243752781924","-25,5413652929026","-0,912434971195398"
"3941","123,497819245588","-173,900318152518","11,7964507801817","-72,3331727060103","13,4226308579663","0,194699590180991"
"3953","129,076863331413","-109,808763458685","-61,7098332884041","-53,7168063527305","4,53909225940232","0,172547194615733"
"3953","123,564929526887","-111,739221191115","-38,3840984749084","-68,7271572118917","2,70467729959426","-0,963794519520591"
"3961","-104,964363597837","85,3849503504307","-121,501651896682","-61,2696946297139","0,99299816825503","-0,9674385766676"
"3961","-34,918661599981","23,8851493885405","-91,6176592410796","88,6657840674945","51,9142242562234","3,49644766908059"
"3969","87,7607704537639","-18,4991705385427","12,0016212392418","40,0515021314911","39,6696093479398","3,43905828223631"
"3973","60,4823465716079","-14,7874119290604","-16,6739094090113","-13,7576235571265","20,4108294262479","-5,54583891817555"
"3981","53,2065301736012","-13,7988570285866","-23,9589255198728","-2,45691639583364","21,9391983800439","-5,48151404748647"
"3981","51,2658937025868","-13,5355746080234","-25,8096832403318","0,210121726216544","22,5321439857193","-5,42470079017953"
"3990","-80,9806801494088","97,4893871062685","74,9852368750394","0,839559534217859","22,7621830024217","-5,37452196865609"
"3993","-40,2540447238908","63,0587318630092","42,5921777174126","57,4359091181819","30,9116302302886","-20,9650695120132"
"4002","-27,6579887818285","112,833554339195","-96,5835326023502","38,7930043649577","29,0732875712373","-20,7350122985025"
"4002","-25,2983155554946","92,0901127138014","-56,9411099165065","7,93325588079871","20,2998832975576","-24,998925053867"
"4010","-17,735830438667","-26,1230115051183","-57,3456563333178","15,6501607196357","21,8961557499838","-24,7649143191362"
"4014","-19,7187324765414","7,39321609966286","-51,4484313159402","-56,6163363567871","16,0672840960462","-18,9743495119201"
"4022","-58,3796875880789","125,540785283906","-28,9988407787926","-31,6716851857534","17,8059166267163","-18,8599848063137"
"4023","-46,6915007770779","94,0070983673545","-35,2955242211502","35,9551891085188","12,0322749502058","-10,9415418387882"
"4031","-43,5739782387587","85,6087125855505","-36,8951961116289","16,9155577158657","13,792334487971","-10,9477844792295"
"4031","-42,7424594639407","83,3719654545646","-37,3015926187129","12,4220846942907","14,475166709898","-10,9532981278986"
"4043","-47,7205005981527","-133,932423653137","-143,907792829068","11,3615967373961","14,7400781139145","-10,9581679136779"
"4043","-46,0482647487034","-66,807232159839","-109,991088882997","34,0432329517995","8,39469198795679","1,32206907597731"
"4051","-14,4032749451346","-189,356960916379","-69,9474516055816","26,3962420680332","9,93293770385193","1,16826676607258"
"4051","-23,9627896472222","-140,995703803518","-77,7743689769874","-181,795758493414","-29,7712916705469","-3,43467985970485"
"4059","-14,3796133293007","-34,4974735843847","66,897010511427","-113,93038292693","-20,1749337530461","-3,50011191139856"
"4063","-18,8235480778719","-60,1337359463926","19,6507621082736","41,4417755216477","-30,9602957683095","-6,90823163016622"
"4072","35,4559717654651","187,887944579526","147,323863574658","-0,889415723894686","-26,1445818967899","-6,91836410988996"
"4072","17,9336344874091","106,943707764473","99,7592040925129","102,015752902524","-27,5003593878068","-8,04408954817222"
"4079","13,2600027024555","85,3857805425317","87,6754064154792","62,3020213426717","-26,0263464562927","-8,03835705772143"
"4079","12,0134318988742","79,6442448335915","84,6055186481906","52,9293303661474","-25,4544887983109","-8,03329398567012"
"4092","9,94766549302478","-77,9151477496067","-143,147897185281","50,7173162166076","-25,2326310560883","-8,02882215988744"
"4092","10,3966755547842","-29,8780354373716","-71,0086330162203","-69,7563044398894","-25,1465591864595","-11,3752011097227"
"4100","202,910048729006","-512,913730627032","-17,7626574093763","-30,1888382987288","-25,1131667672129","-11,3308026723361"
"4104","143,258028488674","-355,560917532896","-24,2355218563319","-56,1305408165531","-41,2206145596894","-20,2257984429153"
"4112","82,2822195582017","296,598580235178","57,9256515856312","-42,2529461296386","-37,4696556459227","-20,08207048893"
"4112","92,0184943365895","118,288611090686","30,7986906778807","204,453383833106","13,9588137489701","-18,838350346998"
"4121","63,4164306588644","69,0655404812812","11,6854379791177","124,677632773511","2,91098881676006","-18,739867105843"
"4121","73,7875674656594","56,9559305128454","13,8297177642265","59,9862165576238","11,5211998111823","-25,353541508135"
"4129","76,5538008657574","53,7307708145444","14,3744718604044","70,7186345599105","6,86161493830225","-25,1948962055737"
"4133","77,2916223183491","52,8718120944322","14,5128665919891","73,2515528583262","5,05388365209442","-25,0547768971568"
"4141","87,8880718372117","-365,171280105674","-95,4468296216344","73,8493375425495","4,35255671154345","-24,9310201878548"
"4141","84,7144015952305","-235,508948010023","-60,3820810486375","-86,5330079017317","28,2610741611102","-28,1720438885055"
"4153","-189,989665994486","227,240440400989","-421,615302785377","-33,3842523679923","22,5366161202189","-28,0345931866302"
"4153","-105,259894809862","103,48476303456","-301,386571900178","150,266577529499","31,6000388224349","-22,3293124994351"
"4162","-569,710905985586","-43,8973412178313","-333,696676168555","96,6093309954444","28,1162818410527","-22,2902727591656"
"4162","-412,591240779914","-17,1497055899765","-305,905055397034","27,4980843008301","42,8851271318133","-13,3215824034963"
"4174","-791,869634214783","-391,433259548172","-80,6008358335631","43,1873944505267","38,6148443537616","-13,4002215453317"
"4174","-650,032368773218","-271,116423341989","-148,362318105733","-80,1173756202725","-53,3161085529941","-10,1193489348878"
"4182","-612,200934442321","-239,0723680693","-165,577116886752","-37,2180785865309","-32,9816161624134","-10,221604130869"
"4182","-602,110374538495","-230,538055576579","-169,950535046063","-27,0935740785269","-25,0926519979112","-10,3119183545591"
"4190","736,936646742259","513,745395856223","848,573248347136","-24,7041271966358","-22,0320515957282","-10,3916860272185"
"4190","323,09292223769","283,970854638978","523,329128485211","263,390769887614","-240,082138699198","-18,2795720715226"
"4203","880,021951007674","390,940794751692","-477,668857320323","168,382981554119","-188,676791478565","-18,2463408289607"
"4203","643,568413133047","322,430163169043","-205,972310078833","-189,19825772618","16,6510442404723","-3,69889972203413"
"4211","542,368460004544","-800,163721794121","531,75105725876","-83,5896841456752","-18,690024184102","-3,85025337557838"
"4215","537,375981200389","-462,144825626482","336,169615692334","-347,960361351285","64,3214807131029","-14,0349182444855"
"4223","-332,326798408807","503,382996668235","-273,967810254646","-246,353507585058","36,5266016867053","-14,0302567439453"
"4223","-63,2975960109312","255,532601665418","-107,973171180167","329,756377424909","207,903858524492","-7,32548245000922"
"4231","8,45900879898018","189,522457056747","-65,8022473075559","152,721941692812","161,391332705566","-7,4036661592683"
"4231","27,5982334182866","171,941935584476","-55,088727701229","110,940698955156","143,346345777053","-7,47271987276612"
"4239","263,228806644091","274,747207489093","274,125707018457","101,080062308484","136,34561753198","-7,53370975663102"
"4240","193,077188059173","240,127397320464","170,762606027584","186,952574739059","146,525939061834","10,280841580956"
"4252","-246,819961816432","-285,726398483934","-178,497546755029","157,219028954688","142,475493847343","10,0150774699365"
"4252","-121,151187048802","-127,777355851473","-82,2270587251337","-199,069027212944","102,215117722762","-0,270637439017463"
"4260","-569,482946995578","141,399998863713","-127,607552885467","-85,1552542665013","110,595713097578","-0,355225739752528"
"4264","-411,063887040349","82,0901654657354","-99,1364635491313","47,5687359846778","139,639690941315","7,38749719568927"
"4272","-349,743652908251","40,2891009156733","-135,552137872346","18,8924342858745","134,90758472508","7,22605443918385"
"4272","-344,388061142563","44,1561982801352","-119,803536822435","5,06867154230558","36,3493018396711","-2,96752136567059"
"4280","102,492279752221","19,1810836564925","72,7600031571869","5,80617639920895","58,1126570853606","-2,97073021591996"
"4284","-35,313908821014","27,5294463738241","13,6807540344345","-4,60372998590582","-23,7182926594744","-13,0245500673694"
"4293","-105,00239708339","-25,7245499425266","-235,285635607187","-1,06053350977471","0,534594224330042","-12,9043231321143"
"4293","-104,590004924742","-7,90771877625804","-164,535525621436","1,53967688917606","-28,7452288394391","-19,4987929860803"
"4301","-133,945698166268","54,0485387462644","-90,6910634907571","1,15334293328932","-16,1046210709381","-19,3231857691953"
"4305","-124,775572618848","37,5493860353208","-103,930884196475","6,35414677455002","-19,2607756553424","-11,3506519575822"
"4313","253,791165728271","168,381369919085","196,5008553529","4,58156926342375","-15,485236533723","-11,3091202766734"
"4313","137,764084636816","125,225930790204","98,8255131134939","46,4990785179682","-67,2178083290684","-13,5059908891558"
"4321","285,344256750236","-130,715068528352","94,9625017893427","32,3918749215582","-54,2879628818354","-13,4463193195123"
"4322","221,707463397445","-57,8799886452382","81,9811040925369","-90,8890854235979","-21,8670189405761","-6,69295882280656"
"4329","204,733989174996","-38,4817780609306","78,6831811169252","-51,9841691445242","-26,288998303562","-6,72823004098791"
"4330","200,206752461748","-33,315440981641","77,8453440667789","-42,802363672486","-28,0045482204571","-6,75938242066002"
"4342","4,87234167756603","200,372212169913","-166,800520327233","-40,6353997052175","-28,6701125019176","-6,78689694409514"
"4342","64,7719228550475","128,610385232417","-88,9527812715157","44,5477148907182","42,0014472677803","-7,92797461723333"
"4350","42,6165249587193","-287,512277667752","77,4842373613006","16,6514668718763","25,4191664694102","-7,93580158612948"
"4354","58,707143683069","-169,338476482862","35,7675477229063","-102,827820087031","41,5544730876938","-9,05949074235679"
"4362","-37,5310936512475","-78,9204174419919","131,672381497424","-67,0256849256353","33,8143222764475","-9,05195975911312"
"4363","-5,20016266847593","-88,8393214548121","95,0369963227624","-9,18433184818318","29,1994151918776","-16,8627415520252"
"4371","-223,635847109779","152,966356167952","-160,449182198828","-23,5334079292875","28,4090170883309","-16,7614099988545"
"4374","-150,897935184723","76,366607565151","-84,3554240209166","77,1557477727984","50,6709382429672","-28,9564496588862"
"4379","-131,496972188204","55,9657504989304","-65,0238112580381","41,9190231945629","45,3076671491311","-28,7273990389901"
"4382","-126,32226541933","50,5323779797268","-60,1126166875172","33,6029340857124","43,2269339470876","-28,5250960780192"
"4391","-7,0792929028577","-266,442526042757","-165,367883338995","31,6402846370444","42,4196932571545","-28,3464172862475"
"4391","-43,2743037828692","-168,862642668377","-131,107974837729","-76,4265285014683","-1,41857092974669","-47,173799169255"
"4403","109,999533181036","392,829710650322","127,26661420887","-40,9309775819727","8,57394796073506","-46,8025911104887"
"4403","56,8813781580431","233,425572572313","49,906656478022","136,789591056062","-6,89384036259108","-56,5257170333829"
"4411","-31,8173788724913","192,705042107803","40,7290663396175","82,7327654844355","-0,8947193342909","-56,113413346918"
"4412","-12,475485868465","180,859918764451","32,3975003491819","-44,684576372127","14,3290202013683","-47,9318235778529"
"4424","48,1482903860981","-288,651868437916","-125,108690883815","-9,75587220268568","12,2352180714545","-47,7056486978978"
"4424","32,3181199659724","-144,697224804412","-76,1231253076364","-128,520024012748","3,36270581059683","-39,6884523222929"
"4432","28,0958300703552","-106,3576980781","-63,6783465588302","-84,5491124484983","4,92052835514013","-39,6074736014933"
"4432","26,9696430812395","-96,1467088908403","-60,5167515811036","-74,1717001565639","5,52490076791048","-39,5359512672562"
"4440","123,732705278433","-117,698581594727","-0,35124574186716","-71,7225654435063","5,75937292560091","-39,4727810387789"
"4440","93,5417577991035","-109,438504800237","-19,0662041245581","-28,808705493247","-15,1061848378924","-34,9498828251823"
"4453","-80,9053738410648","177,083187884489","2,36851357926608","-42,68076404515","-10,2011809807417","-34,9551514370038"
"4453","-31,4346493760427","89,392682438351","-7,18599821967632","61,6489581939799","25,5546086716445","-36,0765809913506"
"4461","165,487623564592","-81,3238814935642","84,6679834885423","25,2714302661464","18,4264151482013","-36,0670542739271"
"4465","112,011563686053","-41,7909265314113","54,0034796925825","-67,9855930646497","4,37668122354071","-51,6935067235135"
"4473","35,3502752045001","-48,5987848771308","-25,3707883799503","-41,9948383996736","5,92595025256352","-51,4951615780463"
"4473","50,9028526468037","-40,4119258804816","-4,53581440123749","-30,5688753806319","24,2594472228185","-60,2541879507232"
"4481","55,0511017712702","-38,2315148052704","0,757308957703724","-30,8722760866252","20,3721057456026","-59,9903685872078"
"4482","56,1575402932756","-37,6508046136267","2,10202649474478","-30,9438805656716","18,8639737981759","-59,7573570440614"
"4489","46,0529995820235","-278,476190208728","-30,7293997534283","-30,9607796740726","18,2788793360146","-59,5515557013699"
"4493","49,3578738182015","-203,615359841244","-20,0702207863277","-38,0207427568916","24,5000473293891","-70,5375489650244"
"4502","-98,822353045472","433,508676203188","-74,9786101004174","-35,6869385456507","22,9136099803955","-70,2406397815965"
"4505","-52,345608829334","247,19430350459","-55,928081713734","188,891053437149","43,254659694168","-67,744850139775"
"4514","-95,413960252546","246,115827864516","-117,434399852071","114,892875132269","38,146167836001","-67,5405093057266"
"4514","-74,9013327955432","217,828596799351","-95,0600747193939","-22,5227327561266","13,5957149282999","-70,7103591887695"
"4522","8,56729180453922","-302,871300609425","-21,2838259987716","13,0463176075216","18,0711278625874","-70,5100460766016"
"4522","-14,1696042049988","-145,549617120815","-41,5409763154859","-144,374569791338","0,462924605651265","-72,5666771485602"
"4530","-20,2340851127166","-103,650038639027","-46,6873036224715","-87,5268914918582","5,63165083559217","-72,3831426777552"
"4530","-21,8516290670297","-92,4908987288652","-47,994727635057","-74,1104810840151","7,63690846489077","-72,2210406633581"
"4538","47,0479638839535","-96,4535558890384","-18,645727141083","-70,9441236598223","8,41486767204852","-72,0778683047468"
"4542","25,4251542368268","-93,5089327512567","-28,1896160734641","-24,3330072354922","16,7768858687148","-65,2507579231499"
"4551","36,990584923894","61,5718870272867","-62,0413417793112","-39,3324899545201","15,0210121851884","-65,2208914870803"
"4555","30,0753654305132","13,8746549308709","-52,641369802248","71,7871278613679","11,115723364857","-67,4280651215431"
"4563","59,4298728854525","-31,7682961345551","-10,0964557593512","33,0120580885408","11,6006285710525","-67,3774934262179"
"4563","49,2594310600275","-24,9244107139208","-22,2879239822208","-34,3508947799651","21,4609938874589","-65,0992749189515"
"4571","43,0801763175541","67,0491341605355","-35,8608659551792","-17,2489762672497","19,2864185469927","-65,0870980911052"
"4575","43,4320194014151","39,5445036243041","-33,3090707035999","34,415014110966","15,2186903451527","-72,893776563451"
"4579","43,5258644743614","32,2191788489126","-32,6607873379874","19,6080414949417","15,6405756128609","-72,7888208598601"
"4579","43,5508952284682","30,2682207004554","-32,4960910043494","16,1135026244582","15,8042501071415","-72,6961214835526"
"4592","14,0918833175317","-65,6031961115613","37,3837535031424","15,2887694238237","15,8677492196456","-72,6142471873133"
"4592","23,2344512731946","-36,1366881502871","15,1367220290303","-2,54580977687388","25,5646259419933","-70,3083814776341"
"4604","-50,5911386129967","-151,379382725066","-182,569643815468","3,24511711468343","23,3266236108228","-70,2717859823631"
"4604","-26,2822116679114","-111,072038808538","-122,796929164233","-34,1960489637752","4,72592585506602","-66,8891353967992"
"4612","-26,7315351417739","-115,939984279585","40,7940811485876","-21,0324001619809","8,50960418785418","-66,9014978619169"
"4612","-22,8513805959417","-108,236467121532","-2,64563666030986","38,522102223674","-1,30676288466288","-64,6788643035565"
"4624","-54,74868916653","498,865835553547","-31,1409941122327","20,5773401778357","1,88488200259486","-64,7157814260091"
"4625","-44,2564739913702","311,555756569748","-28,3802372379624","153,933771564382","6,34719223054741","-60,281282743739"
"4628","-41,4579460576218","261,669350698812","-27,678867189961","107,406729960005","6,07838889889975","-60,3646279263372"
"4632","-40,7115108706546","248,383074251643","-27,5006841891984","96,4260548664921","5,97410403110292","-60,438240375978"
"4641","193,479811451436","137,357029512488","-43,1689675821313","93,8345463297029","5,93364570201623","-60,5032566441435"
"4641","120,9443097884","169,787396313085","-38,1494936392495","-5,56071303411216","-3,7542921242326","-54,9767996054357"
"4653","6,26716674309888","-400,620983946946","80,1043590121823","26,9813792357993","-1,51282186135085","-55,0957011691321"
"4653","30,6799949383763","-218,538190560778","43,1467401734741","-168,197756983329","12,253100500331","-47,3832845245042"
"4661","2,52597200292477","202,694950025228","-51,7938939215225","-99,2612634077967","9,59372401414605","-47,5714945186205"
"4665","15,016612128302","99,8822254327621","-26,913553900669","179,843244410046","37,5787179038402","-36,569964157071"
"4674","-33,6501049253819","202,525255662844","-48,5279070116006","96,7136675403689","30,435768559399","-36,8531506057146"
"4674","-16,6306971878245","154,862235571563","-38,0190315724839","82,3865444967523","29,2766321355456","-39,3368200014491"
"4682","-12,0912088934776","142,168114794891","-35,3492526651609","76,0052531500029","27,8269338822573","-39,5304559455819"
"4682","-10,8804174081171","138,787281981861","-34,6709955618884","74,4992281688421","27,2645093402593","-39,7014798217287"
"4690","93,4390766658624","-0,806689188729862","21,3717183316443","74,1437967803292","27,046311267161","-39,8525321810584"
"4690","61,2636126029155","42,0151646018815","3,60936500744033","-89,9915010589025","17,289417577929","-34,4020642665047"
"4702","-186,510420339438","-48,8665599038839","-131,849415745537","-35,7284659464352","19,5041357428701","-34,5880812338833"
"4706","-114,597756604547","-14,0711441928976","-91,2627074208632","-51,1459467694263","38,0958001797982","-31,4020472755236"
"4714","-7,01984263174354","-126,160918165905","-11,1136542211141","-38,7845694249833","34,308617283082","-31,5880662270442"
"4714","-29,326207180955","-86,0138550112442","-30,7517941044631","-16,4632757904963","-31,6422679942012","-28,4020340211261"
"4723","40,9882792951152","-28,5123897825581","34,0971415542576","-22,1953097944779","-17,2285555973621","-28,5880545204447"
"4723","15,7428560232327","-40,1979900015413","10,572008117007","8,20378058995356","-13,248655907467","-32,1026808272517"
"4731","9,00929013212072","-43,3102229285271","4,59544997749866","-2,62184246409503","-10,7046151008994","-32,2068824613529"
"4731","7,21328500589864","-44,1391057937889","3,07710589285411","-5,17675774222792","-9,71762971810514","-32,2989158255334"
"4739","41,3997624873876","80,4643340773911","-46,1952316847102","-5,77973385231847","-9,33471913611502","-32,3802018840051"
"4743","30,5181241099082","41,6500430795536","-30,7128648359638","68,1656952454651","-26,9186082274085","-32,4519956661914"
"4751","-128,379092409514","109,327732602793","-306,131584533027","43,61728261432","-22,7404490803453","-32,5154056439605"
"4755","-80,7608289256728","82,3523723140154","-216,101686737507","-18,6240957968829","3,06111247118326","-20,2868727456573"
"4764","-36,8609206293881","517,253705198585","-69,2671428286614","-1,31345342931601","-1,92892069224631","-20,4863413400696"
"4764","-43,1517517260471","378,081238472793","-102,963839495647","108,611589084704","-13,5370942316689","-18,4289643699222"
"4772","511,551855854154","472,774226134916","302,265687847167","74,5545920108448","-12,0405980963755","-18,6118400456876"
"4776","338,504744243192","421,993866430155","168,214214641702","29,4730583989697","-74,3295884157395","-13,1894792418931"
"4780","292,348887961834","408,46950272134","134,158449328567","39,8335323031885","-59,495208242085","-13,4003210786978"
"4784","280,038003086422","404,867550809385","125,506585060834","42,2786694499772","-53,7400661247056","-13,5865416089086"
"4788","382,484214325267","-317,298229276153","-32,0809779221409","42,8557372291037","-51,5073027464245","-13,7510160149255"
"4792","348,809100354802","-93,6330753607784","16,8839151679088","-357,434640283706","33,1850136028684","-9,42917896251767"
"4805","178,632484449435","425,358190247685","195,188700191141","-224,905692535482","14,0422217325264","-9,61202957897718"
"4805","226,242258903028","298,581445825159","145,48701559013","-290,647678811742","82,3814820994603","20,3794295585939"
"4813","-296,641276308984","1178,46069269653","-759,320186800748","-251,163201965784","61,8943630560097","19,8686003371819"
"4813","-127,106980639206","885,799461143882","-478,186379252277","564,300502835487","-62,1207135895853","6,0161095151241"
"4825","231,834838289156","-2045,76501157477","223,523621379986","299,755077298103","-38,2335691614452","5,78125980637367"
"4825","146,573315826257","-1180,53033886667","40,7929870794176","337,868330067239","99,9969025773357","1,10673018827379"
"4829","123,83200254751","-950,091868654638","-5,62971495028944","289,863297960822","73,6247589822792","0,978074333437511"
"4833","117,766343447097","-888,719052436513","-17,4233984341116","-779,862410214805","-10,7604231589617","-29,2885147362565"
"4842","-121,310296292248","-288,1270058889","477,176191637876","-432,324420168801","2,50152441561306","-29,0206868214791"
"4842","-48,0778271184591","-465,170965298465","317,829175232076","-34,5483921688879","75,3523173743405","-44,4190015036552"
"4854","-241,737874370312","1580,21577546366","-262,151497073682","-119,670742250907","61,6154912941965","-44,0191596502667"
"4854","-170,39169988167","917,964854991381","-100,495537313548","805,740467996167","69,1824781310203","-51,483443142116"
"4862","250,758033434752","-1187,98687184967","-258,465164291318","488,143346778416","64,1181642962976","-51,0760760396497"
"4866","131,088868563544","-635,866260507012","-184,597334526498","108,017514728952","-2,32819635405073","-46,249174951944"
"4874","-178,153920798369","91,9596023571135","-43,6147127052523","191,305422310129","11,89329155115","-45,9859409873313"
"4875","-100,636463320797","-49,1980983112831","-77,7980896785451","-633,991087219523","-19,6662700748092","-36,8192369548695"
"4882","-79,9606797534019","-86,7927135373051","-86,4823736776369","-349,766265577362","-8,91010906190485","-36,7229857028433"
"4882","-74,4459474590741","-96,8053099971528","-88,6886152855331","131,851102610041","24,2795731251414","-21,0031076321656"
"4891","-254,968991425175","782,965753366909","132,486550074668","10,5158372911519","19,1558332439389","-21,1189370447092"
"4891","-198,1188599506","508,275709235757","61,6760819349855","451,102273177372","22,0041493182447","22,3330311072178"
"4903","291,962010224756","-476,792759231631","-289,789777766109","289,083449204265","20,1091812515612","21,7108439292778"
"4903","148,678449230739","-213,146636263927","-188,079649390377","-123,12067820599","-46,7196411430144","25,6284181638148"
"4915","129,527286396972","-383,909652425684","-5,1046922771537","-8,40345052975403","-31,6465329925943","25,0885130014962"
"4915","113,419207382262","-290,389069113813","-48,6199200577693","-346,476156911197","-9,67837132754841","30,1955368622326"
"4924","-379,660976753019","403,71471211912","132,379549442458","-219,263446598016","-11,1556092734626","29,7061819294444"
"4924","-229,177405442669","202,57578918979","68,3624492025667","-123,972678324431","-0,444436212671224","14,7558815194361"
"4932","-189,03979190237","149,006339002524","52,0989103568904","-138,483456363562","-3,28893241088927","14,5514202447995"
"4932","-178,334118142223","134,739155149829","47,9671597028675","189,722723528758","52,0289270863226","7,67017803333785"
"4940","143,444087446766","212,42182926525","108,025741793025","79,1814507722601","38,4900288855798","7,59250107630404"
"4940","45,270129114701","186,111102533864","88,2836194410176","139,528704761868","-28,0200486805576","-12,578076498582"
"4952","86,6825117463535","-370,4694486715","-281,635432914616","104,77103709153","-15,823280372762","-12,3932108551023"
"4956","58,728197301119","-201,703881265495","-166,613336555942","-160,975071282538","-38,4961100419123","-32,3319045543237"
"4964","-128,988576353133","326,937316073319","-15,1754768231636","-77,6928279418499","-30,2922549041585","-31,9422335509211"
"4964","-75,0571868357182","188,73064376618","-46,7027014984328","-89,7895800989536","3,51927565696401","-39,4155001796363"
"4973","117,855026189532","60,0374995387757","268,28857557509","-74,6444898577423","-2,36321209732956","-39,0160671975299"
"4977","66,3093861983231","78,7625771183413","163,31208259958","145,901071595063","21,1472638758132","-36,429726095721"
"4981","52,560915454047","83,7496382800621","136,642813529404","74,9512142673999","14,2683817714548","-36,1454080562671"
"4981","48,8938652857213","85,0778452754706","129,867488001018","-8,82515975545712","-14,1929917983006","-32,5439630216413"
"4989","-5,81577492478663","76,7632404465203","-4,54598936472479","9,40308790576877","-9,23485858560813","-32,3630810200586"
"4993","10,5918388328013","79,5488067470431","37,3062781961545","-55,0906849181652","-0,863141483722097","-28,8529931567948"
"5005","18,4346984087967","-261,242183349733","-62,0560121896417","-31,3116218295678","-1,61525238260433","-28,752799984087"
"5005","18,526579030522","-155,005252488133","-24,2989935716348","-92,7313735273916","1,31703941789938","-23,0804260337193"
"5014","-2,24822351340949","-1,88691012234632","21,9581255763809","-69,2268220764902","0,454650551224399","-23,070450306894"
"5014","4,21063343274409","-33,1068100071505","12,7097427432584","-56,6236249906283","3,34415894118897","-23,0616395074492"
"5026","-7,93283919163754","144,081001014541","-66,4616118850258","-57,6491910363677","2,46517183414017","-23,0538575996028"
"5026","-3,17179748449612","84,2715371777091","-42,5750877631406","47,9483907131043","11,7964018578255","-17,4631034785855"
"5030","-1,90191233739006","68,3424467407479","-36,5067183510817","12,870085621437","9,41654333240099","-17,5252163283335"
"5034","-1,56320320900295","64,1000425145353","-34,965049620491","61,0391828037126","-1,17898756088143","-22,0471806398611"
"5042","-122,802165712782","-275,095372396596","-141,076344023677","40,4073933640128","0,710373141345859","-22,041087183497"
"5043","-85,139533710034","-170,433491037189","-107,033909299585","-100,28935363683","11,1156106318895","-28,7363624434298"
"5055","-71,6274459207024","252,717793724191","-126,32063303406","-56,494672785792","9,15242375263689","-28,649788961176"
"5055","-70,0234448122206","137,415929622367","-115,220423550751","-35,5748898729407","-17,4018580279752","-41,9746394917626"
"5063","20,5347215718464","21,7577143222207","100,605494144882","-36,6376892414003","-11,7038500009039","-41,7434647324693"
"5067","-7,31122191825332","39,9543923543185","33,4360500931102","135,982865683017","-17,553453702041","-44,8896142538455"
"5075","142,989686220084","-241,254726321528","-8,07164262490784","78,722404727953","-14,8228643707915","-44,6683684179704"
"5075","92,0785790678687","-151,149319847831","-4,61666841308347","-17,6991287324214","-34,7200291911825","-38,8890778733438"
"5083","78,4993536016543","-127,151492806707","-3,73893250979741","6,54478159505098","-29,4393278699127","-38,7846708648861"
"5083","74,877445248513","-120,760137113042","-3,51594377857022","-135,90897327155","-8,04614516679506","-29,7582465816201"
"5092","172,708113883193","-223,078087463475","78,6003605056987","-85,5289573518156","-11,746451795166","-29,7858937440118"
"5092","141,801922900721","-190,32848865254","52,4620005922702","-27,7751199196915","-27,6903841890232","-29,810312376089"
"5104","60,7609104842701","106,182851942444","-3,06504990281371","-40,1448502447323","-24,8759878854621","-29,8318794933241"
"5104","81,1453094657529","19,1528954259878","10,8283076637027","112,167260735926","21,3530121207246","-25,3838233209768"
"5116","6,85163666294994","-90,7093151404965","-8,33943714456411","60,1138789994936","11,2880024516617","-25,4551942055479"
"5116","33,0357145560877","-69,9689836854651","-0,209001075218429","-10,3828391898863","10,6072645657384","-21,0511259062923"
"5124","34,8198150383188","-38,4401577602773","-10,3651150846986","5,97949095397407","8,34316567975118","-21,1613479276876"
"5124","38,2956778521084","-45,0430666092238","-5,94527498096594","-36,0227321087086","7,46478648870159","-30,1929081688301"
"5132","39,2227746582525","-46,8016232899661","-4,82241498028849","-19,9355215049975","7,12401073546741","-30,1697972067171"
"5132","39,470053832952","-47,2699807472824","-4,53715249306489","3,26509226379992","15,0520048196756","-26,7990564818923"
"5141","-185,789841910697","63,5601228787674","-163,346139358521","-2,25941664584731","13,1277472589447","-26,8219380195773"
"5141","-115,872112438688","29,0775709637966","-112,691548901445","40,5366068456971","36,5618168760817","-22,3750427746666"
"5153","15,4395651306601","-146,53845012827","121,912906327898","25,6367381467763","30,6532921825259","-22,4474390179902"
"5157","-14,5364297788627","-97,3103705351548","54,5141481319369","-18,4515798084411","9,01653929381104","-24,7449334856706"
"5165","-43,3310630428008","536,454218393888","-165,138710540728","-5,85670074869392","12,6223504988978","-24,774135300697"
"5165","-39,0112892091445","347,245122126706","-104,941500517159","37,6876251225888","-21,4436259159593","-16,9824937023775"
"5173","201,332956417651","-77,6196403862594","36,0600016978791","24,9643605020764","-12,6598529062171","-17,1007303311222"
"5177","127,43858843849","25,2258721565346","-0,118578712984208","147,205142317021","-6,02802216532465","-11,6212787820043"
"5181","107,729170600211","52,6167793012483","-9,30974397490042","105,054737348238","-5,45513890593337","-11,7816967132629"
"5181","102,472191453526","59,9118160574524","-11,6447587243042","-70,7084313997518","-39,0857289551268","-6,33950069482221"
"5190","-87,8570319809314","-336,889254237315","-120,48687431977","-18,1896471159546","-31,1330435687951","-6,53282359779379"
"5190","-29,6224460996758","-212,569521685489","-86,1382044862271","-198,070195920229","10,6412445967475","2,23063853903015"
"5206","48,308056529677","387,450520915507","9,88557642239225","-131,523139282884","2,84798612761603","1,97073694802071"
"5206","33,0940092439923","220,254219351182","-15,7195902430155","57,0537678255306","-24,356088378508","1,74118567483003"
"5214","9,97002075860128","-115,531731161585","-44,9219317572494","3,55910656389999","-19,9101737613658","1,53844052494924"
"5214","14,8022929112684","-36,9618051005684","-39,3407841235973","147,929468316561","2,771185588587","0,242594990458713"
"5226","99,2884142688235","-222,34288799348","-20,4633931896766","93,0017837029255","-1,42936037651124","0,0980733615397181"
"5227","73,8229092907073","-152,715543176597","-25,6675936359891","-99,8888531539772","11,4493593834783","5,5543093726826"
"5231","67,0306422776377","-134,171650599673","-26,9897203146754","-43,4122593038132","7,44578401605415","5,37338692554457"
"5235","65,218980140308","-129,232844548561","-27,3256064844197","-58,3073263119366","-11,8398849770111","-0,37028904208762"
"5239","-27,1278502478088","282,962158245552","-67,5677903024942","-45,8226560142428","-8,32194790006786","-0,443240408194539"
"5243","1,24101322669289","155,742300984893","-54,7913136627771","110,591256481969","13,9993935345381","0,609103399302273"
"5255","-29,3243908303771","-263,014846655791","53,2115542627982","60,5059257581778","9,65917511643752","0,538558505394528"
"5255","-15,4769244595507","-152,54268937463","20,6496736304338","-58,9181434939725","20,8716673187203","4,94335633926996"
"5264","45,4146309013999","13,8393091824136","-74,9201736343075","-26,1029766057267","17,2216627589578","4,83377866022046"
"5267","28,6558836551979","-20,8480731802193","-49,1996851654613","-44,8182958257539","-1,92683499925781","8,08732561797949"
"5276","-46,8783870542736","-172,247275299619","-147,422402394776","-34,2352291303455","1,64431899283356","7,96093575494911"
"5276","-26,0252066730913","-130,569515760142","-112,375875313741","61,7541072422234","-9,86653923602344","4,49897664586106"
"5284","-20,4631583515516","-119,469453022154","-103,472308103534","31,4081956777519","-6,33228867918054","4,44129193474138"
"5284","-18,9796253380904","-116,51316664427","-101,210357614592","-33,965422721892","6,32314010482614","4,39034342446204"
"5296","83,6793397302758","-20,374000160913","94,9107002842522","-16,3940087351113","4,2329368307914","4,34534448714747"
"5296","52,0609723595498","-49,7691981913562","32,7352382848879","30,0888044443275","-19,1465416546825","-2,39505679134388"
"5304","-101,967577409862","11,7487370248258","34,3990683313504","17,0590413507687","-14,2168378004614","-2,34833968308887"
"5305","-59,0507225730455","-11,8671543293078","24,8217642124798","63,3757586369205","11,8762928322573","-3,42385421173336"
"5316","19,9939974875208","240,159951619377","27,6265011758127","46,3067958655902","6,99937673065577","-3,3737742504162"
"5316","2,07713897975055","158,282482163614","25,3390443616824","8,76253282350383","19,615692115541","-7,79664720000634"
"5325","-25,2343062823386","164,21471691905","-88,7288394007411","18,9018500920288","15,5103144177687","-7,70303389350748"
"5325","-19,5189302822302","149,79465256553","-52,7077755234717","100,674509229326","2,63331130273752","-8,73712858330886"
"5333","-17,9945010629319","145,954148162737","-43,5566273234552","74,9733722250502","4,63755265927509","-8,65046563415828"
"5333","-17,5878988648252","144,931304317781","-41,2317789052077","10,6959498991176","-2,64508375967752","0,360286673458363"
"5341","17,1860673424769","-267,954427308476","-122,700805379365","28,5260730689698","-0,470453413794327","0,3187976490382"
"5341","6,46112643855333","-139,918532272668","-96,3980045935882","-106,621407511594","-12,5231065784777","9,21636308241983"
"5353","29,5996615799126","190,638811839548","-4,16422611448331","-59,5170648065626","-9,19905063830605","9,07490471580285"
"5358","20,771269372747","107,676347894545","-29,7322425732531","38,0355481228882","-17,5816924192289","7,83318912747127"
"5366","101,613760651588","309,224257525833","-174,157851720372","12,0585796796748","-14,8338198558692","7,7364763557827"
"5366","75,1764112740482","233,902633387149","-131,849165383014","67,6676307696692","-21,8279573130802","16,5852668607517"
"5374","78,5245844849148","411,480491486584","-94,9113959525383","45,7917173486088","-19,5414009880793","16,4007293160757"
"5378","73,4176233810119","344,774909122306","-100,527358785062","12,4049647434699","-18,6543092150679","20,7048461267354"
"5382","72,0554731517948","327,009171294769","-101,95409366278","20,5254806812375","-18,3101533308938","20,5063445708618"
"5382","71,6921546911279","322,277611665573","-102,31655553655","22,4419736287695","-21,4007152484943","18,0974708886888"
"5390","59,4623184139599","409,434591906221","18,0619169514486","22,8942780446573","-20,5997288136139","17,9698962995889"
"5390","63,2003248429691","381,647162817294","-20,3559423993289","-38,7387546459373","-9,00469643863035","22,3243241488475"
"5407","176,860267245654","-1973,14184638851","427,322926103345","-18,2845388537085","-11,506290816523","22,1702585001227"
"5407","142,17612699996","-1246,29421795854","279,055704392241","-262,180326228989","11,7037953652789","32,085169769521"
"5415","1354,88444987834","-88,7922664341833","803,58435690092","-178,741269403","5,70837411876969","31,8422554673163"
"5415","973,343134284567","-336,514076261946","614,84081624972","-441,288117517542","-75,6075811468285","14,8760649078669"
"5427","-359,048978529773","1357,18446548818","-835,107382740998","-343,250828589641","-58,154897144238","14,8911214568054"
"5427","-4,43022873942026","793,268215680113","-400,46659879636","254,948534675193","-161,002696985593","-9,66465644149079"
"5431","90,1551815435047","643,080062069999","-290,046144775326","70,1273550483185","-132,903501577214","-9,35290413112039"
"5435","115,383401550705","603,080360886548","-261,993837866723","758,565775790923","192,345707443623","-5,72722849523702"
"5440","371,704090890189","-1690,81538231273","141,46351770351","506,04158253455","123,529302549574","-5,52494544971599"
"5443","296,071027436861","-984,750013762808","16,9618244106531","-451,428510424609","59,7543825066763","-17,6308223481442"
"5456","-6,62609435008699","777,468614521539","460,230603110715","-168,397487604339","58,0122817869423","-17,3230210543189"
"5456","75,6372512214452","338,801360526735","300,842998462101","-350,323493415093","10,587249014609","-36,0363588692281"
"5464","-347,872996745387","894,634574111768","-317,558887163177","-252,259177524449","21,1882461354132","-35,5644243742358"
"5468","-203,83343830875","654,669967828343","-143,663833363771","781,653007353659","170,384630467026","-28,4469434462716"
"5477","-553,668373275793","-735,497040323861","-612,795134927715","452,662800065307","138,266819353659","-28,1606148302022"
"5477","-422,977824269911","-340,74105481207","-437,977902002714","420,882873528018","174,167610165745","-33,4916035340036"
"5484","-388,119489212528","-235,605456022825","-393,565598916269","387,382610546139","158,095671252975","-33,2000596830016"
"5484","-378,82192690052","-207,604628832219","-382,282657112194","-566,024284100427","43,8537080491551","-37,4096659761952"
"5493","524,961362534214","-865,876200998021","111,195747300483","-255,034320866742","66,5324269231611","-37,1276904810894"
"5493","246,022257618227","-657,194064299987","-44,4361062262595","-451,529764865901","-60,0805261741154","-19,0102239551141"
"5505","-648,217001044084","1355,69712624334","226,80474989415","-344,903928223566","-25,2012531910777","-19,0084461596248"
"5505","-413,732271941851","762,79164635809","117,713466213979","646,928987100981","76,9927150009153","33,4816050061173"
"5517","459,983549011634","-463,057576224649","60,3176834642418","333,007806958843","61,6398592428026","32,8420679341899"
"5517","225,024721945734","-173,538736160645","62,7362897611469","269,504391879397","-61,9953702787959","55,729513575346"
"5526","-170,433437798226","-479,571946768627","-383,612485391022","248,517185638236","-36,9608604632324","54,9442504940558"
"5526","-83,9117079439144","-340,077955613437","-241,00735357788","-629,612807179868","-96,5662104481145","73,2358826903623"
"5534","-60,8342668286416","-302,926437141617","-204,778532026375","-341,857020620188","-76,6906858965975","72,391487752608"
"5534","-54,6789542924078","-293,031850906527","-195,574603006972","-302,168740321867","-67,3677425000819","67,1785932755564"
"5542","245,086250406223","12,9955250507623","73,8940174477976","-276,802056003492","-64,7508159031405","66,5744407593357"
"5542","153,040891529196","-80,5000200504534","-10,6475025517911","92,567342905868","-86,3041175578129","54,8730769632544"
"5554","40,0931000999813","189,323053115622","104,058838181504","-26,2591506976246","-80,6659306345523","54,5381538601471"
"5558","60,9671882602992","91,1851943006154","55,1999742431283","102,692486814844","29,5281569712187","38,6074751280433"
"5566","116,799810743646","-278,218461640792","-245,294380064689","44,125886091355","5,27902537571485","38,537120377451"
"5566","102,69172355954","-178,601959263974","-156,634945099315","81,459616360216","-12,1888625084725","8,32202423111941"
"5575","126,661167417693","-20,3121619972512","9,05688378458935","61,2706120301542","-13,965699564495","8,63533192180834"
"5579","117,054398691892","-54,1547451912989","-30,8491212458396","-42,2777672635384","4,6894424598275","-11,1899187032342"
"5583","114,492040773817","-63,1680607058644","-40,9872384138476","-10,7158374755263","-0,0731136892627399","-10,7000520757445"
"5583","113,808597850633","-65,5685824420242","-43,5628262140768","-70,2987835743808","57,7246963297964","-19,2015997346483"
"5591","-96,1000620223509","507,636656298223","29,1127495142637","-46,3607344241474","43,1479190623332","-18,7103690408038"
"5591","-31,0877861000055","329,298751911433","5,57597331791284","195,663951419499","43,9408775812858","-24,9771595419349"
"5607","8,78514775014246","-598,902144104172","-61,5117956543038","118,78330283789","40,2485135536916","-24,5121381188904"
"5608","6,42022502575124","-338,110446399564","-43,5554376290383","-12,2566114182323","56,5484679819023","-8,46655345310028"
"5616","-37,542451589163","-228,779240685551","-171,685832901301","20,817142830676","51,8721938904349","-8,29471104607454"
"5616","-24,2683623234813","-222,660994981967","-128,237348871463","-246,560259374011","24,2653435292446","6,37515474150727"
"5628","-13,7947380757122","94,4963117271821","-89,2640638491583","-153,663011659918","29,554997334663","6,33192948073364"
"5628","-15,0011687926156","-3,03499223007084","-95,3629041195133","-85,8748395245644","0,978404851236743","15,2279614288297"
"5632","-15,3229530874497","-29,0105630094412","-96,9123139690504","-95,8764036100101","8,89183776536444","15,0851486514977"
"5636","-15,4087807532668","-35,9286523811347","-97,3059414089281","134,61033218438","16,798051868953","26,1267749157759"
"5640","-103,828737728776","262,153654782401","171,470370732923","57,0066546637441","16,8653445528355","25,8790021230679"
"5640","-76,4124819968702","168,542094735978","85,7529698655955","89,8475148116721","12,0553305923393","30,1272680570942"
"5657","163,159051693754","-353,95264586415","-136,80778832695","68,5981648130673","13,1892388780123","29,8794376772214"
"5657","93,0585827242862","-206,108984041028","-78,3493299279257","-36,9644564387796","-23,4477765951033","33,0108765579473"
"5665","74,3610896491952","-166,733692763768","-63,4979635669351","-4,8779004493055","-14,6614632025744","32,7766379340033"
"5665","69,3740153480897","-156,24684778137","-59,7249752119763","-136,660773021566","-35,4333314963607","26,9858718496084"
"5677","5,64591383918186","16,445721065222","86,1474092495577","-88,7623616183705","-28,4919798978987","26,8713293712055"
"5677","24,6480855197952","-35,5609633208287","40,2062760571993","-29,8302047978204","-3,23045122139973","17,8359531995679"
"5685","29,7164249850377","-49,4119348187831","28,5349350953555","-42,9218443198674","-7,4299953928707","17,8556938410139"
"5685","31,0682738877156","-53,1008723794441","25,5698319213164","96,8719356631197","-10,6712896837067","8,93891971798105"
"5689","177,024010054269","309,987224496527","295,438810958087","48,8641489041773","-10,9287813395523","9,06341251255732"
"5693","131,953940286727","196,688695479447","208,999002022045","143,373630421314","-20,7009193565124","-1,99439439667214"
"5706","-67,2611230069317","438,699925852004","-48,66428558763","105,67846378296","-18,492115376831","-1,760912734831"
"5706","-12,3966058524082","346,15492223655","20,8763782124879","79,1422298847822","17,8296975714354","7,37951335544867"
"5714","172,098116028193","-455,176535020348","-109,862579354609","82,8795114184112","9,92109829267285","7,45255530328665"
"5718","123,307327256949","-220,595623468459","-58,0768003528714","-166,725571510781","-7,65548217889366","7,51706769067688"
"5726","-73,4335903644869","138,337918904324","-100,791030356984","-83,6339444230383","-5,47448758169918","7,57404656719887"
"5726","-19,9091586294588","62,9329048903701","-79,6425768395932","-166,335431084511","37,284697528628","15,4418050041747"
"5734","-5,6328961960398","42,8502422049891","-74,2698140306377","-127,853503230639","27,8735394116416","15,3907965796013"
"5734","-1,82507119984333","37,5016145864044","-72,9048640981257","138,77155402195","6,48994607856983","17,5792971064466"
"5738","-14,6756382596097","183,439010311636","81,0855088352034","55,6967481568909","9,19397299634851","17,5122328778848"
"5743","-10,1031957659029","137,306604593767","32,2067499204216","120,762267766157","2,18282519434433","21,920104918265"
"5755","115,91224139054","-306,663547138996","-1,16229563058478","88,1181405228017","4,46278219058288","21,8132424515946"
"5755","77,5236108752918","-175,906384385556","2,36030119857061","-193,005102258285","-2,71288766341129","32,8866208861919"
"5763","67,2844332524758","-141,081750671028","3,25521662201126","-104,351959564668","-0,496758597936365","32,6668923662989"
"5763","64,5533965631119","-131,80688505133","3,48256980886573","-65,7893221129667","-6,08515084803414","32,4728229060011"
"5775","-57,5043415068432","-35,7185569615264","5,28627895200887","-66,6882966016817","-4,25322199293397","32,3014161380558"
"5776","-20,060096780296","-64,1272948118681","4,74451110569724","93,6229661502434","20,6380966895107","33,2668017905188"
"5784","-10,0728097226079","-71,6934110314109","4,60687503063589","40,457434653051","15,2949259489404","33,1194533836938"
"5784","-7,40895834835525","-73,7084993098555","4,57190859752757","-58,5256570369687","-17,4067742676692","26,2886546168868"
"5792","-50,0303391022312","182,337892100454","4,56302537818429","-32,8862905980164","-11,0937170332841","26,2555305111826"
"5792","-36,3984937410184","102,530881356456","4,5607685970692","57,8364589353246","4,25181710792388","26,2262745123711"
"5808","57,3677900483924","-199,578610433758","-133,369861488539","31,2475996798078","2,20526638021612","26,2004349176631"
"5808","30,3775291785704","-118,039612888476","-89,4111262756002","9,09651802727943","-22,7693169458399","30,6447175361826"
"5817","23,1785728359503","-96,3232826839222","-78,2434133510319","12,868723131904","-17,4584495338703","30,5700137590262"
"5817","21,2584368034417","-90,5395594134552","-75,4062568368276","-104,428590363476","0,722355856349038","37,2046907500883"
"5825","-13,919225538903","87,8351017987965","3,88227637842558","-65,1114957110082","-2,22422380493294","37,0645954339804"
"5828","-3,30196017268064","33,3417324862712","-20,9744785334531","39,4232460759082","-19,4877807592687","40,2911884880934"
"5833","-0,470078323961346","18,828480697858","-27,2893349948035","10,0941040536563","-16,1853456430463","40,1409922956159"
"5833","0,285253160040095","14,9631576295436","-28,8936237392044","19,048184935518","-3,61985191464404","50,0593211608999"
"5841","-25,512418301385","-58,8804109520722","-18,8254926449321","12,1614044640837","-5,74494636851095","49,8194253607513"
"5841","-17,3932821614193","-36,5472129373481","-22,2676848007552","-35,3277552504163","-8,18143770833647","48,4907674874224"
