Timer,AX,AY,AZ,GX,GY,GZ
"1005","-1.99999928000026","3.99999744000164","-26.9999781300177","0.999998560002074","0.999998560002074","-0.99999936000041"
"1005","-1.99999983058828","3.99999944835045","-26.9999950517629","-2.50086673112578","-5.73960600876319","-2.76470569633227"
"1013","1.50183154155616","0.451963308520139","-30.5230697921725","-1.39944527241947","-3.9584026688325","-2.19047614582245"
"1013","0.37537194870364","1.64934048073651","-29.3642584733786","2.35857453277449","-0.0476750715422365","4.95262074759615"
"1026","-1.65616193153553","-1.62634779693018","-27.326331379607","1.36329193602345","-0.662233329398819","2.73814462751966"
"1026","-1.16404033622045","-0.368445593417507","-27.8388565590765","-4.10061291844324","-2.52543547289296","-3.06546467865856"
"1034","-1.0410100817635","1.68998149640795","-27.9614540117772","-2.56173154271075","-2.18639951020041","-1.5163661408105"
"1034","-1.01025252040507","1.15631387580933","-27.9907796851929","3.04754599608376","-0.420879385567099","2.37090846699445"
"1042","-4.50256313020985","1.03541258413213","-27.9977944733236","1.54754081683675","-0.794554853232247","1.3427271166738"
"1046","-3.37564078254734","1.00802264743598","-27.9994724314709","6.34418005369944","2.36337510054993","-2.41431822083954"
"1054","-4.84391019563697","4.54872166514354","-29.7606708350771","4.62686467834213","1.48366230766887","-1.35357955520958"
"1055","-4.21097754890923","3.35085967885256","-29.1819547221551","5.90021869138392","2.81682731340865","-1.08839488880239"
"1063","-0.552744387227306","3.07948653203164","-23.76113301665","5.24073035666488","2.28977247974499","-1.0220987222006"
"1063","-1.63818609680683","3.01800750885676","-25.4644563704662","-0.133385940459265","-1.18769483020019","5.99447531944985"
"1075","-1.90954652420171","1.23062748824778","-34.6758815289832","1.42950444901216","-0.421339089036931","3.74861882986246"
"1075","-1.97738663105043","1.82570025430208","-31.8792817752944","0.114855157074004","-0.149471584313103","-2.06284529253438"
"1083","1.50565334223739","3.73396482988179","-25.9279357181001","0.763300589315593","-0.0530255917345267","-0.515711323133596"
"1083","0.376413335559348","3.16627820885913","-27.5043560718844","0.936703454280838","3.27168165542548","1.6210721692166"
"1095","-3.40589666611016","3.03766998310512","-34.9246286249877","0.983073668462488","2.45113372275246","1.15526804230415"
"1095","-2.35147416652754","3.00853405648808","-32.6995798502155","0.995473675600104","0.514795000591498","-4.21118298942396"
"1103","-2.08786854163189","-0.544970778233073","-30.4065445461637","0.998789601129596","0.827871750176323","-2.55279574735599"
"1104","-2.02196713540797","0.649990076792003","-30.8580436934942","2.73226312814485","-0.706309465875183","3.111801063161"
"1116","-0.255491783851993","6.24106220487287","-29.205246598985","2.19581682284319","-0.250565868742491","1.52795026579025"
"1116","-0.813872945962998","4.50770799116924","-29.8098926268826","7.25012441659829","-0.0888891592311947","-0.618012433552437"
"1124","-0.95346823649075","0.568116040628967","-29.9545257519283","5.60171295989795","-0.0315337546509533","-0.154503108388109"
"1124","-0.988367059122687","1.67560966089249","-29.9891224248498","1.69573237566647","-0.0111867149041225","3.46137422290297"
"1132","-4.49709176478067","1.92651004195025","-26.4758039896578","2.65122162714751","-0.00396852806560199","2.36534355572574"
"1136","-3.37427294119517","1.9833510025329","-27.6354077890424","4.63931886566417","-0.00140784985962831","2.09133588893144"
"1144","2.15643176470121","1.99622820417897","-31.4343825227487","4.17096230063534","-0.00049943989169062","2.02283397223286"
"1144","0.539107941175302","1.99914550748514","-30.3431085580722","2.31313077030175","-1.64542351723713","2.00570849305822"
"1152","-1.61522301470617","5.5467105675122","-26.5604785236969","2.81632210458416","-1.22896635556621","2.00142712326455"
"1153","-1.15380575367654","4.35040406885824","-27.6556621889802","-2.24687830722833","-1.0812266528584","0.250356780816139"
"1165","-1.03845143841914","0.532479163515109","-33.200024466384","-0.60084490741928","-1.02881545246359","0.812589195204035"
"1165","-1.00961285960478","1.66753620034701","-31.5262523841535","3.30449975302047","0.635023951855412","-2.54685270119899"
"1173","-1.0024032149012","3.69813309172918","-20.5610989465009","2.34884044712636","0.225277071675349","-1.38671317529975"
"1173","-1.0006008037253","3.15816060294975","-23.9382016890636","-4.8370626805071","3.37041054410636","2.40332170617506"
"1185","-2.75015020093132","3.03583095633452","-24.7460146915826","-2.75866799645004","2.48615815744789","1.35083042654377"
"1185","-2.18753755023283","3.00811742879011","-24.9392459601532","1.26229577650236","-1.11802629208675","2.83770760663594"
"1194","-2.04688438755821","1.22838691113564","-37.3110466705409","0.337554546914426","-0.396623920092229","2.20942690165899"
"1194","-2.01172109688955","1.82519265620766","-33.2704181319022","3.55544014950192","1.50454255145677","0.302356725414747"
"1202","1.49706972577761","3.73384983458702","-30.5430907579417","2.41594522036068","1.1789883172055","0.825589181353687"
"1206","0.374267431444403","3.16625215691378","-30.8907059527524","0.378642435641232","-0.581749578321453","2.70639729533842"
"1214","-3.4064331421389","-0.509240069926963","-27.4522624773371","0.833840788337152","-0.206377792632404","2.17659932383461"
"1214","-2.35160828553472","0.658084794599347","-28.6297765894013","-2.50960677525551","-1.71845961657049","0.294149830958651"
"1222","-2.08790207138368","4.46944397088249","-28.9114414610047","-1.40368877130547","-1.25487617918205","0.823537457739663"
"1226","-2.02197551784592","3.33289948175929","-28.9788165345452","-1.10795170421154","3.84532075968225","4.45588436443492"
"1235","-2.00549387946148","6.62232183767464","-28.9949328521702","-1.02886771015327","2.65463429501884","3.36397109110873"
"1235","-2.00137346986537","5.36753364518167","-28.9987879231949","2.45745400293763","-1.05825876551037","-0.409007227222818"
"1243","-0.250343367466342","-3.78399639304831","-32.5213041297007","1.38974243182006","-0.375421171236746","0.647748193194296"
"1243","-0.812585841866586","-0.857256529126645","-31.3639004645223","1.10422226900804","-1.77842837398007","-0.838062951701426"
"1255","-2.70314646046665","5.12614653909688","-32.8478431025568","1.02787040996912","-1.27615031541229","-0.209515737925357"
"1255","-2.17578661511666","3.48167408559619","-32.2028065873476","-4.19030749894075","0.54728100375793","-1.80237893448134"
"1263","-2.04394665377917","3.10912226437293","-28.526917875748","-2.5857171268186","0.194149939620236","-1.20059473362033"
"1263","-2.01098666344479","3.02472142250945","-29.6476343823505","4.77371873071614","-1.57637093726475","-1.05014868340508"
"1275","1.4972533341388","3.00560058695998","-26.3941190360261","2.74172898843823","-1.20446970002691","-1.01253717085127"
"1276","0.374313333534701","3.00126880135172","-27.615868505614","0.465761314015523","0.572709964480947","0.746865707287182"
"1284","-1.65642166661632","-0.546616706705114","-33.1905056991768","0.857137525967702","0.203170956529427","0.186716426821796"
"1284","-1.16410541665408","0.649617195112802","-31.5239754667766","0.961796689341172","-3.2184170375984","0.0466791067054489"
"1292","-4.54102635416352","0.920621502775459","-29.364539456282","0.989783930628522","-2.43223790458225","0.0116697766763622"
"1296","-3.38525658854088","0.982016966204563","-29.8479959512829","-2.46790552130184","-0.508091639920049","-3.49708255583091"
"1304","0.40368585286478","4.54283013203553","-31.7244372112878","-1.3925373057408","-0.825493708437842","-2.37427063895773"
"1304","-0.649078536783805","3.34952496425487","-31.1732875317684","0.627617149600841","2.35239942399482","1.40643234026057"
"1312","0.837730365804049","1.30573207970078","-25.7590597989769","0.167833107353218","1.47976864665154","0.351608085065142"
"1316","0.209432591451012","1.84271504361551","-27.4639604506435","3.51005439705055","-0.475046655325917","0.0879020212662855"
"1325","0.052358147862753","0.190915344068462","-29.6325747793471","2.40380847127993","-0.16852454007177","0.0219755053165714"
"1325","0.0130895369656883","0.81670355046117","-29.1513137653119","-1.35718989598439","1.58546164156641","1.75549387632914"
"1333","-3.49672761575858","0.958474569790403","-27.2753976708722","-0.362930486613244","1.20769466065802","1.18887346908229"
"1337","-2.37418190393964","0.990592499972419","-27.8266729715541","-0.0970524010700723","2.71892678032348","-2.45278163272943"
"1345","1.40645452401509","6.31822497692101","-38.5233218464072","-0.0259530926744759","2.25504190723366","-1.36319540818236"
"1345","0.351613631003772","4.52518905702472","-35.0819920152424","3.45823341011049","-1.20001562794208","-1.09079885204559"
"1353","0.087903407750943","-1.20137573569255","-25.4548305472641","2.38995085558254","-0.425709937141077","-1.0226997130114"
"1354","0.0219758519377358","0.501282896053934","-28.1519849414235","-1.36089560527623","-1.79626849778642","0.744325071747151"
"1366","0.00549396298443394","-0.886435400316128","-23.5147611871553","-0.363921442175555","-1.28247916464338","0.186081267936788"
"1366","0.00137349074610849","-0.200820100136996","-25.4055234973819","1.63526940911097","2.19028216043112","3.5465203169842"
"1374","-3.49965662731347","1.72795669862685","-25.8577994555941","1.16987942251952","1.42225695390838","2.38663007924605"
"1374","-2.37491415682837","1.16491707919326","-25.9659852075898","2.77801480395333","1.14979720023646","-1.40334248018849"
"1386","-2.09372853920709","4.58426577302229","-34.7958487158445","2.20805142465807","1.05314110517538","-0.350835620047122"
"1386","-2.02343213480177","3.35891212272038","-31.9079782825699","-3.14212471808377","1.01885200160486","-0.0877089050117805"
"1394","-3.75585803370044","-0.465593354540964","-25.9348000078393","-1.57283241543477","1.00668781658448","-0.0219272262529451"
"1395","-3.18896450842511","0.667972867380896","-27.5059980303698","0.579403858234004","-2.28812015079759","-1.75548180656324"
"1402","2.20275887289372","-0.848672133278535","-29.6426302932257","0.154940237056464","-1.45696533916529","-1.18887045164081"
"1407","0.550689718223431","-0.192264910367628","-29.1537190740861","0.0414330638602992","-1.16211012697003","-2.7972176129102"
"1415","-3.36232757044414","7.05025108563963","-32.558364120979","0.0110797479948738","-1.05750916101042","-2.19930440322755"
"1415","-2.34058189261104","4.69102805262817","-31.3727653244658","5.20072328513645","0.624844753703832","1.45017389919311"
"1423","-0.335145473152759","4.15655097108799","-27.5675725102681","3.58850244548598","0.221665963866123","0.362543474798278"
"1427","-0.83378636828819","4.03546629757704","-28.6573590916298","-7.23814750930014","-1.56660952693031","-1.65936413130043"
"1435","-2.70844659207205","-3.08577348593041","-28.9180392774292","-4.13333656729987","-1.20100680397529","-1.16484103282511"
"1436","-2.17711164801801","-0.699075578686991","-28.9803947518226","0.162104456820759","-2.71655423868176","-1.04121025820628"
"1443","-2.0442779120045","1.61507795409506","-37.7992955216064","-0.689237934015513","-2.25420023940064","-1.01030256455157"
"1444","-2.01106947800113","1.13934463390043","-34.9088027687416","2.54827548656842","1.2003142126871","0.747424358862108"
"1456","1.49723263049972","-0.741883837909864","-23.6526061342728","1.41402929495291","0.42581586117246","0.186856089715527"
"1456","0.37430815762493","-0.168072243691921","-26.9600904800602","-0.621869908093872","-1.49418660348999","1.79671402242888"
"1464","-3.40642296059377","3.50882773304498","-27.751250555376","-0.166296219138106","-1.17531450675227","1.19917850560722"
"1464","-2.35160574014844","2.34182179133585","-27.9404983943177","-1.77705660808796","-4.3526861412923","-5.95020537359819"
"1476","-2.08790143503711","0.303986941863975","-26.2249700082271","-1.20779519044006","-3.47987036066246","-3.73755134339955"
"1476","-2.02197535875928","0.842319686260628","-26.8146105249314","7.6073668480433","0.120256911015333","0.315612164150113"
"1485","-2.00549383968982","4.51118200320719","-33.998842411291","4.96465749518658","-0.602584759676801","-0.671096958962472"
"1485","-2.00137345992245","3.34235514635479","-31.7173320082373","0.792788533537718","-4.14950816681505","0.832225760259382"
"1493","-2.00034336498061","-2.2427963786814","-27.6499938840325","1.6771757244402","-3.40779223040386","0.208056440064846"
"1497","-2.00008584124515","-0.508100864646274","-28.6770745289404","-1.55150108057244","0.145826891594882","1.80201411001621"
"1505","-2.00002146031129","3.43179495470022","-30.6835522996038","-0.41489186135203","-0.593513715457247","1.20050352750405"
"1505","-2.00000536507782","2.32437017528407","-30.1635077395077","6.81939966077984","2.43469517575858","-2.44987411812399"
"1513","1.49999865873054","3.84693746548637","-22.9959234125967","4.75394467190744","1.50896336586566","-1.362468529531"
"1517","0.374999664682636","3.19187192497963","-25.2814159612965","5.93420155851246","1.18055661730119","4.15938286761725"
"1525","-3.40625008382934","4.8169202618812","-31.1105036575983","5.24981782374666","1.06405312098602","2.53984571690431"
"1526","-2.35156252095734","4.18507158980386","-29.5048387409079","-0.130955831850416","-0.622523259945751","-1.36503857077392"
"1534","-0.337890630239334","4.04192758455232","-30.881555956709","1.43015429212","-0.220842405456703","-0.34125964269348"
"1534","-0.834472657559833","4.00949860725925","-30.2108708021531","0.115028933695867","-3.36883733003046","-0.0853149106733701"
"1546","-0.958618164389958","0.455247738742202","-30.0504409219429","0.763347059477301","-2.48560005399509","-0.0213287276683425"
"1546","-0.98965454109749","1.65003958135922","-30.0120656182861","-0.795870923759019","2.76347062043694","1.74466781808291"
"1554","-0.997413635274372","3.69416926901189","-26.4812920696453","-0.212826386709643","1.62559765847698","1.18616695452073"
"1554","-0.999353408818593","3.1572626071401","-27.6367205540693","-1.78949938887265","2.86717939869786","-0.703458261369818"
"1566","-0.999838352204648","8.35598374377454","-26.1523054469341","-1.21112255420719","2.30763506633892","-0.175864565342454"
"1566","-0.999959588051162","6.53374322728673","-26.7972289461316","-1.05645695680476","-2.82660435131872","-0.0439661413356136"
"1575","-0.999989897012791","-4.51979403270085","-32.2338876550013","-1.01509733521188","-1.64799458063312","-0.0109915353339034"
"1575","-0.999997474253198","-1.02394995723533","-30.5343525594093","-4.46921083619697","3.70586056760314","-1.75274788383348"
"1583","-0.999999368563299","1.54147833791462","-31.88861574972","-3.39288636416768","2.60516028132996","-1.18818697095837"
"1587","-0.999999842140825","1.12267079361141","-31.2125595256016","-6.57023660755126","-1.07580985298556","-1.04704674273959"
"1595","-0.999999960535206","2.8012428891973","-27.5292508075345","-5.41990198848567","-0.381647483771221","-1.0117616856849"
"1595","-0.999999990133801","2.18151991356085","-28.6481924265602","-1.64711372287402","-0.135390842038383","0.747059578578775"
"1603","0.75000000246655","3.81457503517997","-30.6766436149646","-2.63822035785672","-0.0480303968644814","0.186764894644694"
"1607","0.187500000616637","3.18454028356223","-30.1618551616304","0.561918259621716","1.62820737998534","0.0466912236611735"
"1616","-1.70312499984584","-0.505096932791927","-28.2779192041687","-0.582322447513164","1.2228588678497","0.0116728059152934"
"1616","-1.17578124996146","0.659023413718171","-28.8272761298049","0.844279293658844","-0.566186339875038","3.50291820147882"
"1624","-2.79394531249037","4.46965661309575","-27.1978869064028","0.225771423580224","-0.20085667681819","2.37572955036971"
"1624","-2.19848632812259","3.33294765541136","-27.8081321665663","-3.40479935177832","-3.36174731963033","0.343932387592427"
"1636","1.45037841796935","6.62233275131554","-33.2364957377005","-2.37566188331006","-2.48308484684988","0.835983096898107"
"1636","0.362594604492338","5.36753611764436","-31.5349764205343","3.09730346978239","2.76436289937961","-0.791004225775473"
"1644","-3.40935134887692","-2.01054375740805","-25.8455768550111","1.56084662221249","1.62591419769843","-0.197751056443868"
"1644","-2.35233783721923","0.317967560169774","-27.4846555873129","-0.582609017496888","-0.423200986068829","1.70056223588903"
"1656","-0.338084459304807","-0.927965109188061","-24.3551340243749","-0.155797338936159","-0.150132099101379","1.17514055897226"
"1657","-0.834521114826202","-0.210228569486649","-25.6065431750819","-0.0416622642125824","-3.34375258998805","-0.706214860256935"
"1665","-2.70863027870655","5.27272938044099","-34.709869114498","-0.0111410391934247","-2.4767011506325","-0.176553715064234"
"1665","-2.17715756967664","3.51488212406869","-31.8874117066574","-0.00297926088884867","-0.523865139231557","-5.29413842876606"
"1673","-0.294289392419159","3.1166454765653","-25.9298804218196","-0.000796693673698034","-0.83108941506369","-3.57353460719151"
"1677","-0.82357234810479","3.02642579061714","-27.5048212507878","-1.73279985117518","-0.940078351630292","2.10661634820212"
"1685","-2.7058930870262","1.23253463250838","-24.3599577109492","-1.19596034966369","-0.978742575874113","0.52665408705053"
"1685","-2.17647327175655","1.82613231387603","-25.6076970152318","0.680184421533167","-4.2829515291845","-1.61833647823737"
"1693","-2.04411831793914","5.50751478759049","-31.1885510544165","0.181890289504941","-3.45513175172628","-1.15458411955934"
"1697","-2.01102957948478","4.34152434626817","-29.5235079099467","6.97898708259418","0.129033023100841","-2.78864602988984"
"1706","-2.0027573948712","2.30391955630124","-32.6468187084067","4.79662045429265","-0.599471401786061","-2.19716150747246"
"1706","-2.0006893487178","2.84230442020125","-31.3939239243971","-2.71732039803257","-0.857911013491326","-0.299290376868115"
"1714","1.49982766282055","1.19082231818621","-25.8118366791553","-0.726647330089909","-0.949593411863494","-0.824822594217029"
"1718","0.374956915705138","1.81668247564062","-27.4765848370748","-3.65948869389014","5.59886727810316","0.793794351445743"
"1726","-3.40626077107372","-1.58843435568439","-33.1571886321339","-2.44376917407412","3.92195768108172","0.198448587861436"
"1726","-2.35156519276843","-0.359856506470547","-31.5160059254228","6.54426429108957","-1.60867115476945","3.54961214696536"
"1734","-0.337891298192107","3.46537940636244","-25.8410390562577","3.94778303880468","-0.570681981327182","2.38740303674134"
"1734","-0.834472824548027","2.33197866310331","-27.4835701323786","3.2534496907875","-0.2024515220814","0.346850759185335"
"1747","-2.70861820613701","0.301757001592394","-31.3980625044741","3.06777579164246","-0.0718204186117052","0.836712689796334"
"1747","-2.17715455153425","0.841814497920362","-30.3344207018681","-3.91222307809507","-0.025478556429359","-4.29082182755092"
"1755","-2.04428863788356","0.964163402819286","-24.7976033316634","-1.77876687852348","-0.00903861116758004","-2.57270545688773"
"1755","-2.01107215947089","0.991881293287888","-26.4731801780965","0.524334265452361","1.64203985870607","-0.393176364221932"
"1767","-2.00276803986772","2.77161279935379","-30.3955771965624","0.140213901290945","1.2277659903151","-0.848294091055483"
"1767","-2.00069200996693","2.17480727820432","-29.3338262088368","5.23525546168212","-7.14543087664461","2.53792647723613"
"1775","-2.00017300249173","5.58650637708105","-30.8406492513075","3.59773680515415","-5.11585311857507","1.38448161930903"
"1775","-2.00004325062293","4.3594197269195","-30.2010857967705","4.89242951374457","3.83037871670257","-0.653879595172742"
"1784","-0.250010812655733","2.30797371764578","-24.7657092264974","4.23864742778417","2.00408721146343","-0.163469898793185"
"1787","-0.812502703163933","2.84322288203941","-26.4655510134483","-4.59911655267525","-1.93428906409197","1.7091325253017"
"1796","-2.70312567579098","2.96448246931834","-33.915346339799","-1.96245125734066","-1.33144246581878","1.17728313132543"
"1796","-2.17578141894775","2.99195357714102","-31.6973595000396","2.20780144357409","0.527665910982593","-0.705679217168643"
"1804","-2.04394535473694","2.99817709960172","-27.6452164007739","1.32298204322438","0.187191413649433","-0.176419804292161"
"1808","-2.01098633868423","2.99958702569822","-28.6759317407608","-0.646217144595119","-4.86933217804162","-0.0441049510730402"
"1816","-0.252746584671059","2.99990644152906","-28.9224819102428","-0.172806991445821","-3.66315243358506","-0.0110262377682601"
"1816","-0.813186646167765","2.99997880452259","-28.9814574427816","-5.24397128406272","3.34572960288432","-0.00275655944206502"
"1825","0.796703338458059","-2.32036102831832","-28.9955645652612","-3.60006753106597","1.83215616408793","-0.000689139860516254"
"1825","0.199175834614515","-0.525672975035392","-28.9989390308418","-1.42787917105928","-0.350035893462414","-1.75017228496513"
"1837","-3.45020604134637","5.20126610507161","-27.2389491819918","-1.84700734107777","-0.124176514649689","-1.18754307124128"
"1837","-2.36255151033659","3.49869226735643","-27.8179543847996","3.23867267009132","-0.0440520731688913","7.70311423218968"
"1845","-2.09063787758415","3.11297769812933","-26.1956571173216","1.59865061177361","-0.0156276342265836","4.92577855804742"
"1845","-2.02265946939604","3.02559486302497","-26.8075987943979","1.16008707291821","-0.00554396045297487","-2.76855536048814"
"1857","-0.255664867349009","1.23234638758697","-28.7147740914232","1.04280939568339","-0.00196674026653799","-0.692138840122036"
"1857","-0.813916216837252","1.82608966737979","-28.1709760848073","1.01144779728538","-1.64594404741673","-0.173034710030509"
"1865","0.796520945790687","0.187148899588377","-26.2801009560723","1.00306129205038","-1.22915101555303","-0.0432586775076273"
"1866","0.199130236447672","0.815850270281496","-26.8277980113378","4.46599223943728","-1.08129216166475","-1.76081466937691"
"1874","0.0497825591119179","4.50518541195463","-26.9588087730504","3.39202566892403","-1.02883869195246","-1.19020366734423"
"1878","0.0124456397779795","3.3409966310525","-26.9901469362184","-3.82551438235965","-1.0102306315455","2.45244908316394"
"1886","-3.49688859005551","-0.469652071994559","-28.7584401489256","-1.75557982914302","-1.00362935399401","1.36311227079099"
"1886","-2.37422214751388","0.667053373365688","-28.1814211354048","2.26312159318933","2.28920515159826","-0.659221932302253"
"1894","-0.343555536878469","2.69802370827867","-29.8041935052573","1.33777538119336","1.4573502471714","-0.164805483075563"
"1898","-0.835888884219617","2.15813582235607","-29.1923654740795","1.0903255939535","-2.12824600372001","-0.0412013707688909"
"1906","0.791027778945096","3.80927741785142","-23.7636232994194","1.02415425568977","-1.4002494002074","-0.0103003426922227"
"1907","0.197756944736274","3.1833401193517","-25.4650520534982","4.47163277624086","-4.43248261820805","1.74742491432694"
"1915","-3.45056076381593","-0.505368827502871","-31.154429956062","3.39353402289346","-3.50817845297467","1.18685622858174"
"1915","-2.36264019095398","0.658961816535727","-29.515346041916","-0.359937419056592","1.75546085074184","1.04671405714543"
"1927","-2.0906600477385","4.46964265838191","-27.3624752722348","0.636334789463061","0.622756163354735","1.01167851428636"
"1927","-2.02266501193462","3.3329444939999","-27.8475021923303","2.63533792883217","1.86617136790083","-0.74708037142841"
"1935","-3.75566625298366","3.0754278840864","-31.4851161337159","2.1698977455971","1.30727746372338","-0.186770092857103"
"1935","-3.18891656324591","3.01708803058852","-30.3552441884419","-3.15232751531108","-2.18148487304857","-0.0466925232142757"
"1947","2.20277085918852","3.00387125786347","-33.6065695266538","-1.57556077804157","-1.4191360840035","-0.0116731308035689"
"1947","0.55069271479713","3.00087702543414","-32.3842962006234","2.31126106284587","-1.14869006021253","-0.00291828270089223"
"1956","-3.36232682130072","-0.546705462726107","-28.5703307300798","1.35064851059068","-1.05274834319877","-0.000729570675223057"
"1956","-2.34058170532518","0.64959708762046","-29.6580188659978","-2.37140557093037","0.626533671251358","-0.000182392668805764"
"1964","-2.0851454263313","-0.852835128044166","-28.1574000663813","-1.36673194567284","0.222265113549053","-4.55981672014411E-05"
"1968","-2.02128635658282","-0.193208028191449","-28.7984475942292","2.36710464816485","1.72409570182745","-1.13995418003603E-05"
"1976","-0.255321589145706","-0.0437708777817775","-25.4301940040666","1.36558182217369","1.25687560106006","-2.84988545009007E-06"
"1976","-0.813830397286426","-0.00991620151461232","-26.6244977450745","-0.634825401590375","1.09112755987011","-1.75000071247136"
"1984","-0.953457599321607","5.31810973165493","-26.910178745769","-0.169760689049732","1.03232783547215","-1.18750017811784"
"1988","-0.988364399830402","3.52516294844889","-26.9785144893118","-1.77798305305679","-0.633777921124668","-1.04687504452946"
"1997","-0.9970910999576","3.11897457599069","-34.0380487261959","-1.20804293404938","-0.224835037712032","-1.01171876113237"
"1997","-0.9992727749894","3.02695344325789","-31.7267102751647","0.676953379036005","1.56548528638183","-1.00292969028309"
"2005","0.75018180625265","3.00610624662796","-27.6522371933253","0.181026266106865","1.20060797552499","-1.00073242257077"
"2005","0.187545451563162","3.0013833575","-28.6776111351835","-1.68417799253486","-2.21932626449252","0.749816894357307"
"2017","-3.45311363710921","-0.546590754247484","-27.1620865953393","-1.18295822308687","-1.43256045615152","0.187454223589327"
"2017","-2.3632784092773","0.649623074588213","-27.79956862587","-2.78151224780276","0.491793933729925","1.79686355589733"
"2025","-2.09081960231933","-0.852829240750558","-29.71285325127","-2.20898668729297","0.174465698395584","1.19921588897433"
"2025","-2.02270490057983","-0.193206694437301","-29.1705166141398","-2.05588579780865","3.35238502342037","-2.45019602775642"
"2037","-2.00567622514496","3.50313357539539","-30.8015851113955","-2.01494459975975","2.47976353799503","-1.3625490069391"
"2037","-2.00141905628624","2.34053179173861","-30.1917415385235","1.46117722637544","0.524951532359486","5.90936274826522"
"2046","-2.00035476407156","2.07714677064159","-33.5674592073597","0.390738070896109","0.831474817002992","3.72734068706631"
"2046","-2.00008869101789","2.01747744077004","-32.3749408961311","-3.3606850935139","-3.99552394294229","-0.318164828233423"
"2054","-0.250022172754472","2.00395947793187","-25.0464988513986","-2.36386514855256","-2.7079194241581","0.670458792941644"
"2058","-0.812505543188618","2.00089701150753","-27.2935137564146","-3.82988914678","4.32984834909138","-2.58238530176459"
"2066","-2.70312638579715","2.00020321609528","-27.8310063930018","-3.22192330842358","2.82652223116532","-1.39559632544115"
"2066","-2.17578159644929","2.00004603818461","-27.95957622747","-1.32675841622633","-2.64252723000625","0.651100918639713"
"2074","-0.293945399112322","2.00001042985517","-27.9903305135941","-1.81996631692426","-1.5826925479609","0.162775229659928"
"2078","-0.823486349778081","2.00000236286204","-27.9976870301433","1.5133169919881","-1.20671231456411","-1.70930619258502"
"2087","-2.70587158744452","5.54690468631943","-31.5210407928143","0.40468093221691","-1.07333195034325","-1.17732654814625"
"2087","-2.17646789686113","4.35044804607112","-30.3638374735572","1.84080382590533","-2.67126111695184","0.705668362963436"
"2095","-0.294116974215282","4.07939327747935","-26.5654369418243","1.22484203764335","-2.23813233865368","0.176417090740859"
"2099","-0.823529243553821","4.01798638223149","-27.6568482573177","-2.40504788184129","-2.08447831891437","-1.70589572731479"
"2107","-2.70588231088846","2.23062270205468","-27.9179170843451","-1.37572834352831","-2.02996899290095","-1.1764739318287"
"2107","-2.17647057772211","2.82569916999997","-27.9803655228741","2.36469889266879","-0.365385270837727","-4.54411848295717"
"2115","-0.294117644430528","1.18706043321746","-24.4737093127063","1.36493849140956","-0.774868101573163","-3.38602962073929"
"2116","-0.823529411107632","1.81583022840878","-25.6349067360966","4.56276297759725","-2.56537997395648","3.90349259481518"
"2127","-0.955882352776908","0.184824644983053","-29.4342626693965","3.41790344121974","-2.20057061555656","1.72587314870379"
"2128","-0.988970588194227","0.815323715224671","-28.3430798887945","3.11175289451239","2.86458585718524","-0.568531712824051"
"2136","2.50275735295144","0.958161970981434","-29.8428627590272","3.02988419859728","1.66146865888549","-0.142132928206013"
"2136","1.37568933823786","0.990521681361048","-29.2016152743889","3.00799142903366","2.87990476741266","-0.0355332320515032"
"2144","-2.40607766544053","2.77130478209365","-34.330618065329","3.00213701357231","2.31214943747671","-0.00888330801287581"
"2148","-1.35151941636013","2.17473749753332","-32.5574907607489","-3.92977575346952","2.1107361556905","-1.75222082700322"
"2156","-2.83787985409003","5.58649056841487","-28.6117593830703","-1.78346069553012","2.03928405662441","-1.1880552067508"
"2156","-2.20946996352251","4.35941614549898","-29.6679287227934","3.98825268639737","-1.27655651531208","-2.7970138016877"
"2164","-2.05236749088063","2.30797290628239","-29.9205675645844","2.53168500378564","-0.452863097143573","-2.19925345042193"
"2168","-2.01309187272016","2.84322269822672","-29.9809995256165","-3.05558082860693","1.4845914975122","-0.299813362605482"
"2177","-2.00327296818004","-2.35587379885095","-22.9522669059735","-1.54968943742251","1.17191060778","-0.82495334065137"
"2177","-2.00081824204501","-0.533718319492484","-25.2709731952977","-1.14699420884298","2.70623225656342","0.793761664837157"
"2185","-0.250204560511252","5.19944344898304","-27.5864116548961","-1.03930819106638","2.25053847845649","0.198440416209289"
"2185","-0.812551140127813","3.4982793484025","-27.1402714088865","-2.74309833374589","2.08887944242696","1.79961010405232"
"2197","-0.953137785031953","1.33943207668836","-37.5983355236798","-2.19871429979389","2.03153030757908","1.19990252601308"
"2197","-0.988284446257988","1.8503497079884","-34.0999355095589","1.41203478370364","-2.92455352527871","1.04997563150327"
"2205","0.752928888435503","1.96609703694529","-29.7415137774848","0.377596733280045","-1.68274240867685","1.01249390787582"
"2206","0.188232222108876","1.99231935408586","-30.6989663591735","1.83356115372749","0.403040970182243","-2.49687652303105"
"2218","-3.45294194447278","0.224807890100433","-22.1240067041784","1.2229052515343","0.142980259661955","-1.37421913075776"
"2218","-2.3632354861182","0.824381836420429","-25.0728508959532","4.52478141509394","1.69596910965764","-1.09355478268944"
"2226","-2.09080887152955","2.73366614504709","-31.0606142747459","3.40774667023106","1.24689758951938","-1.02338869567236"
"2226","-2.02270221788239","2.16621054242975","-29.4929050524098","1.37645003515485","-2.20290485446669","4.24415282608191"
"2234","-2.0056755544706","-1.50924949760195","-23.8355132588474","1.83325451151788","-1.42673490082783","2.56103820652048"
"2238","-2.00141888861765","-0.341917341220853","-25.4822483452321","-4.97493716296161","0.493860570807736","-1.35974044836988"
"2246","-2.00035472215441","5.24289556252583","-34.680137422171","-2.7955374523433","0.175198845464674","-0.33993511209247"
"2246","-2.0000886805386","3.50812333454037","-31.8802997975805","2.98502320227","0.062152431812793","-1.83498377802312"
"2254","-2.00002217013465","-2.20524193970132","-32.9713673561956","1.53082139711621","0.0220488027189812","-1.20874594450578"
"2259","-2.00000554253366","-0.499592984439911","-32.2323539555571","-5.7883985732001","0.00782189348286271","2.44781351387356"
"2267","-2.00000138563342","-0.113181753715142","-19.7300005387711","-3.74565457202227","0.00277484534815943","1.36195337846839"
"2267","-2.00000034640835","-0.0256410913944206","-23.739400482433","1.99836254268371","0.000984386545671039","1.0904883446171"
"2275","-0.250000086602088","3.54109521498085","-24.6984608527228","0.53438851275844","0.000349214730810463","1.02262208615427"
"2279","-0.812500021650522","2.34913192239697","-24.9278709407123","0.142902539688654","-3.29036879301012","-4.24434447846143"
"2287","-2.70312500541263","0.30564303688363","-30.2651376079764","0.0382140247440128","-2.45776305322222","-2.56108611961536"
"2288","-2.17578125135316","0.84269487115009","-28.541827640941","3.4753925440078","1.12809955926224","-0.39027152990384"
"2295","-0.293945312838289","-0.80908922596171","-29.8904038114156","2.39453943440533","0.400197448499885","-0.84756788247596"
"2296","-0.823486328209572","-0.183297484869681","-29.2129872352679","-1.35966855875169","0.14197150993531","0.78810802938101"
"2308","-0.955871582052393","3.50537848625628","-29.0509471790276","-0.363593313743736","0.0503649128920361","0.197027007345253"
"2308","-0.988967895513098","2.34104037163481","-29.0121867164838","1.63535715498336","0.017867137228999","1.79925675183631"
"2316","-2.74724197387827","-1.46964216265642","-29.0029150987648","1.16990288692362","0.00633843234166225","1.19981418795908"
"2316","-2.18681049346957","-0.332944381694323","-29.0006973002794","4.51060788341888","-4.93349043524394","1.04995354698977"
"2324","-2.04670262336739","7.01838044339207","-30.7609638273326","3.4039564808382","-3.68591281020409","1.01248838674744"
"2328","-2.01167565584185","4.6838078247748","-30.1820248067725","-2.08973712104977","0.0471625977411114","-0.746877903313139"
"2336","1.49708108603954","2.38146316794449","-26.5219468121341","-0.558823280721711","-0.628515234901279","-0.186719475828285"
"2337","0.374270271509885","2.85987176447657","-27.6464452891751","-0.149436719064311","0.777031919491845","1.70332013104293"
"2345","-3.40643243212253","1.19480216357061","-26.1546316324438","-0.0399613505290354","0.275654918070326","1.17583003276073"
"2349","-2.35160810803063","1.81758410135225","-26.7977853766119","3.45448741711806","1.74303593043572","-0.706042491809817"
"2357","1.41209797299234","0.185221981258218","-28.7124266927531","2.38894912762714","1.26359471649699","-0.176510622952454"
"2357","0.353024493248085","0.815413730933134","-28.1704145800761","-3.09375028532382","-2.19698148754499","1.70587234426189"
"2365","-1.66174387668798","6.27853859038026","-29.8015607045446","-1.5598964538032","-1.42463356472755","1.17646808606547"
"2369","-1.16543596917199","4.51619818852337","-29.1917357003323","-6.34748411402991","0.494606027482079","-2.45588297848363"
"2377","-1.041358992293","0.570039477218063","-25.5242696867049","-4.62774822767435","0.175463298948934","-1.36397074462091"
"2378","-1.01033974807325","1.67604541145964","-26.647000927669","2.76247905973745","0.0622462476544701","-4.59099268615523"
"2386","-1.00258493701831","1.92660876033684","-30.4371556359278","0.738723352108528","0.0220820842322659","-3.39774817153881"
"2386","-1.00064623425458","1.98337336697849","-29.3437718949779","0.197544371975195","-3.28265897799277","0.400562957115298"
"2398","-2.75016155856364","3.76968534630667","-32.6038253199963","0.0528259717087445","-2.45502796812001","-0.649859260721175"
"2398","-2.18754038964091","3.17437061771694","-31.3836397782435","0.0141263618855388","2.77431617982226","-2.66246481518029"
"2406","-0.296885097410228","-2.28085292499091","-20.5269855877554","0.00377757556872671","1.62944516037335","-2.16561620379507"
"2406","-0.824221274352557","-0.51672249622599","-23.9300416723703","1.73359697832732","1.22329797497373","3.20859594905123"
"2418","0.793944681411861","1.65638966645115","-30.0264538844694","1.19617351198244","1.07921577409189","1.55214898726281"
"2418","0.198486170352965","1.14870371659187","-28.4847337856346","4.51763299520644","-0.617144253247597","1.1380372468157"
"2427","0.0496215425882413","4.58059266937593","-31.6375438227523","3.40583508842813","-0.218934183138566","1.03450931170393"
"2427","0.0124053856470603","3.35807998871286","-30.3917053442117","3.10852565773128","-0.0776677029629908","1.00862732792598"
"2435","-3.49689865358823","-0.465781872773267","-31.8544941123302","3.02902119289789","-0.027552901959259","1.0021568319815"
"2439","-2.37422466339706","0.667930158966639","-31.204397528632","-0.457412959626477","-0.00977449283826878","-0.749460792004626"
"2447","-2.09355616584926","0.924770266727825","-31.0488924956978","0.610268543702914","-0.00346753711774674","-0.187365198001157"
"2447","-2.02338904146232","0.982956860067175","-31.011695230131","-2.56939294355694","1.64401621762035","1.70315870049971"
"2455","-0.255847260365579","0.996138912021408","-29.2420005027345","-1.41967638160126","1.22846711087518","1.17578967512493"
"2459","-0.813961815091395","0.999125278532173","-29.8186842697805","-6.30998741648761","1.08104954397658","-4.20605258121877"
"2468","-0.953490453772849","2.77325390917592","-22.9134406148694","-4.61772111597415","1.02875262243939","-2.55151314530469"
"2468","-0.988372613443212","2.17517906822838","-25.2616858311917","1.0325736369418","-0.635046241036512","1.36212171367383"
"2476","0.752906846639197","0.266234378812445","-29.3449871208636","-0.456462989213834","-0.225284978843943","0.340530428418457"
"2476","0.188226711659799","0.833766921457087","-28.3217249125295","2.61052257832633","1.5653256681181","1.83513260710461"
"2488","-1.70294332208505","2.73579231658332","-29.8377545853024","1.4306749886534","1.20055135036159","1.20878315177615"
"2488","-1.17573583052126","2.1666922221784","-29.2003933840679","1.11516817481961","1.07114632573778","1.05219578794404"
"2496","-2.79393395763032","2.03776377696331","-36.0911228165721","1.03079748961683","1.02523941951455","1.01304894698601"
"2496","-2.19848348940758","2.00855530529198","-33.7394057551578","2.74082245987765","-2.28153890174271","-0.746737763253498"
"2509","-0.299620872351895","0.228486111148317","-31.4160710208676","2.19810570109086","-1.45463061696982","-0.186684440813374"
"2509","-0.824905218087974","0.825215129764647","-31.8603224545272","0.320389273746855","0.483964463383138","-1.79667111020334"
"2517","0.793773695478007","-0.813049225093222","-26.6841976233186","0.818263124182976","0.171688165127209","-1.19916777755084"
"2517","0.198443423869502","-0.184194614453911","-28.4460531959629","2.68398796612171","0.0609070051108527","2.45020805561229"
"2525","0.0496108559673754","-0.0417289076069593","-28.8674942798259","2.18290740751655","0.0216069830370942","1.36255201390307"
"2525","0.0124027139918439","-0.00945359740963467","-28.9683042383296","2.04891185427445","0.00766515633325878","1.09063800347577"
"2537","-1.74689932150204","5.31821453365478","-27.2316212486693","2.01307967523595","0.00271924227053953","1.02265950086894"
"2538","-1.18672483037551","3.52518669112444","-27.8162015213925","3.73608448252164","-3.28952801706398","-2.49433512478276"
"2545","0.703318792406123","3.11897995484455","-31.477628920297","3.19683870342718","-2.45746478487734","-1.37358378119569"
"2549","0.175829698101531","3.02695466182607","-30.3534532247628","-3.87770995246958","-0.517040968057638","0.656604054701077"
"2558","-3.45604257547462","-0.540797628325883","-26.5629529986822","-1.76953761332274","-0.828668515357183","0.164151013675269"
"2558","-2.36401064386865","0.650935495242067","-27.6562540907433","3.99197590229784","-4.22971220681107","-1.70896224658118"
"2566","-2.09100266096716","0.920920160933601","-29.678571988972","2.5326806408461","-3.43624490721084","-1.1772405616453"
"2566","-2.02275066524179","0.982084626590422","-29.1623164344182","0.409859027429256","1.78097953944256","0.705689859588676"
"2578","1.49431233368955","9.86320168688242","-27.278029541989","0.842188516891245","0.631809011592501","0.176422464897169"
"2578","0.373578083422388","6.87520032405346","-27.8273025229391","0.957799127058578","1.86938289895468","-3.45589438377571"
"2586","0.093394520855597","-2.66898556061665","-27.9586902507544","0.98871492972542","1.30841676612181","-2.36397359594393"
"2587","0.0233486302138993","0.168798936254733","-27.9901185853333","-0.735604581474754","1.10941197686244","3.15900660101402"
"2599","-3.49416284244653","0.811693124173772","-29.7584333673097","-0.196710371554841","1.03881429933748","1.5397516502535"
"2599","-2.37354071061163","0.957339468114178","-29.1814195132222","-6.98295016808865","-0.631476824322195","-2.36506208743662"
"2607","-0.343385177652908","2.76378742055255","-27.2825990551553","-4.79768023564768","-0.224018715197287","-1.34126552185916"
"2607","-0.835846294413227","2.17303445487854","-27.8283955640552","0.984450193739898","1.56577487978241","4.16468361953521"
"2619","-0.958961573603307","5.58610474763611","-33.2413428025412","-0.469331832925719","1.20071070984402","2.5411709048838"
"2619","-0.989740393400827","4.35932873860233","-31.536135852835","2.60708127971047","2.71644919820472","-1.36470727377905"
"2627","-0.997435098350207","4.08140517994034","-31.1282452877664","1.42975473999481","2.25416297590687","-0.341176818444762"
"2628","-0.999358774587552","4.0184421745583","-31.0306766535894","1.11492208818541","2.09016524616638","-0.0852942046111906"
"2636","-0.999839693646888","-3.08963026566659","-27.4857438845454","1.03073168280367","2.03198645116283","-0.0213235511527977"
"2640","-0.999959923411722","-0.699949324131441","-28.6377854414107","-2.45695555205537","-1.27914536756533","-1.7553308877882"
"2648","-0.99998998085293","8.70868831091396","-32.4349512642544","-1.38960913947698","-0.453781501957923","-1.18883272194705"
"2648","-0.999997495213233","5.84019563942171","-31.3432446027289","0.628400179897601","-0.160980649065027","0.702791819513237"
"2656","-2.74999937380331","3.41689250276843","-32.8429021590893","0.168042499986834","-0.0571084745887246","0.175697954878309"
"2656","-2.18749984345083","3.86789820674703","-32.2016246990007","-1.68765002291909","4.91547957689311","0.0439244887195774"
"2668","-0.296874960862707","-3.12373568911888","-21.4834470404043","-1.18388668982583","3.67952339226831","0.0109811221798943"
"2669","-0.824218740215677","-0.707675837028444","-24.9196271225795","-2.78176053206009","-1.69467560625196","0.00274528054497359"
"2677","0.793945314946081","3.38658165892669","-31.023962693239","-2.20905308177955","-0.601192375343684","0.000686320136243396"
"2677","0.19848632873652","2.31412719696717","-29.4841378852961","-2.05590355257045","-0.213275196054037","0.000171580034060849"
"2689","-1.70037841781587","5.61806901551704","-27.3550101885154","-2.01494934761733","-0.0756601565778089","4.28950085152123E-05"
"2689","-1.17509460445397","4.36657017714863","-27.8457165221411","6.65893637105852","-3.31733339574401","1.75001072375213"
"2697","-2.79377365111349","2.30959363730436","-36.7670800892117","3.97844786611235","-2.46732884475659","1.18750268093803"
"2697","-2.19844341277837","2.8435898714759","-33.9010967416663","-0.203523739309675","-0.52054027941107","-0.703124329765492"
"2709","-2.04961085319459","-2.35579061651341","-29.6939509538597","0.678161871341196","-0.829909908870416","-0.175781082441373"
"2709","-2.01240271329865","-0.533699474706562","-30.68758919055","-2.55123737187868","0.705586421616972","-1.79394527061034"
"2717","-3.75310067832466","3.42599564272121","-23.8820822827008","-1.41482134216762","0.250309366144903","-1.19848631765259"
"2718","-3.18827516958117","2.32305635319175","-26.2541848250352","-4.57610231010543","-1.55644817511148","0.700378420586854"
"2726","-3.04706879239529","2.07318774630923","-26.8215987958497","-3.42147055474793","-1.19740202721794","0.175094605146713"
"2726","-3.01176719809882","2.01658053202453","-26.9573259023004","-3.1127067877387","-1.07002909182323","0.0437736512866784"
"2738","-1.25294179952471","5.55066043613505","-26.9897922291324","-3.03013928223283","-1.02484307669329","0.0109434128216696"
"2738","-1.81323544988118","4.35129890339675","-26.997558270902","3.92228757733344","3.92692584491668","-1.74726414679458"
"2746","-3.70330886247029","-3.01422226459536","-35.8034010863281","1.78145825842316","2.68358399775323","-1.18681603669865"
"2750","-3.17582721561757","-0.682865797998737","-32.9097848320123","-3.98878816450239","-1.04798875248359","2.45329599082534"
"2758","-1.29395680390439","1.61875024626644","-28.6960291708651","-2.53182819769667","-0.371777846518078","1.36332399770633"
"2759","-1.8234892009761","1.14017658406998","-29.6880863062279","-2.1422178776572","-0.131889552091146","1.09083099942658"
"2767","-1.95587230024402","9.89901709172814","-26.4037952563179","-2.03803093708253","-0.0467883014378517","1.02270774985665"
"2767","-1.98896807506101","6.88331422968607","-27.6181830862361","-0.277583169628386","-1.66184466032919","-4.24432306253584"
"2779","-0.247242018765252","-4.44059944764504","-26.1478712295913","-0.806816207105491","-1.23479181619416","-2.56108076563396"
"2779","-0.811810504691313","-1.00600858836001","-26.7961682681782","-0.948340104676256","-1.08329325634256","-2.14027019140849"
"2787","-2.70295262617283","-0.227909157713112","-32.2336339376857","-0.986185462326451","-1.02954858761521","-2.03506754785212"
"2787","-2.17573815654321","-0.0516323466524047","-30.5342918694742","-4.46147941988871","3.92525654769076","3.24123311303697"
"2799","-3.7939345391358","8.85556317657414","-28.3670071704362","-3.39081888142907","2.68299180845122","1.56030827825924"
"2799","-3.19848363478395","5.87346983539692","-28.8485862358351","0.360663483711076","0.597047505300738","2.89007706956481"
"2808","0.450379091304012","1.65097862729676","-32.4853754401408","-0.636140630193865","0.857051127339532","2.2225192673912"
"2808","-0.637405227173997","2.69438200792004","-31.3553062153086","-0.902699203307325","0.949288364103194","2.0556298168478"
"2816","0.840648693206501","-2.38959334831974","-29.3241932705578","-0.973980483058404","0.982009861515743","2.01390745421195"
"2820","0.210162173301625","-0.541357413439411","-29.8383450238713","2.47213157171215","-0.651628406594415","-3.24652313644701"
"2824","0.0525405433254063","-0.122643398422532","-29.9613316497621","1.3936674073842","-0.23116756278114","-1.56163078411175"
"2824","0.0131351358313516","-0.0277846073651513","-29.9907504158181","1.10527185926483","-1.72725387828344","2.35959230397206"
"2836","-1.74671621604216","7.0875137569045","-22.9545993478598","1.02815108425336","-1.25799597571957","1.33989807599302"
"2840","-1.18667905401054","4.69946983346422","-25.2715311223218","2.74011477616354","-2.73677135598929","1.08497451899825"
"2849","-4.54666976350264","0.611559287997471","-32.8689362058034","2.19791645712766","-2.26137233577819","1.02124362974956"
"2849","-3.38666744087566","1.68545163841698","-30.6862580581978","0.320338667413979","2.84301622434804","2.75531090743739"
"2857","-1.34666686021891","-1.61816442948663","-30.1641549649967","0.818249591381803","1.65381675267238","2.18882772685935"
"2857","-1.83666671505473","-0.366591792985409","-30.0392663549975","-2.51377606705074","-0.413302452543558","-1.45279306828516"
"2869","-1.95916667876368","-0.0830506098362905","-30.0093926286958","-1.40480369494626","-0.146620558095819","-0.363198267071291"
"2869","-1.98979166969092","-0.0188149432861261","-30.0022467446704","-1.10824984950476","-0.0520141797466437","-0.0907995667678227"
"2877","-1.99744791742273","-0.00426248635088833","-30.0005374279957","-1.02894743813877","-0.0184522206834603","-0.0226998916919557"
"2877","-1.99936197935568","-0.000965657435965103","-30.0001285543722","0.724845877847995","4.92919302448241","-1.75567497292299"
"2889","1.50015950516108","1.77323330782108","-37.0432188747297","0.193833352241523","3.68438828800407","-1.18891874323075"
"2890","0.37503987629027","1.1751744010342","-34.727946990044","1.7844204008385","1.59754291153448","-1.04722968580769"
"2898","0.0937599690725675","-0.73376667853071","-27.1309389571251","1.20976436578846","1.85722687451458","-1.01180742145192"
"2898","0.0234399922681419","-0.166233318081811","-29.3137120804041","6.25385417362284","0.304104371949778","-1.00295185536298"
"2906","-1.74414000193296","-0.0376598131926917","-24.5534467989616","4.6027103461413","0.753128478349858","-1.00073796384075"
"2910","-1.18603500048324","-0.00853175251552427","-26.4147772105821","-4.50176132441417","-2.37807125428989","0.749815509039814"
"2918","-2.79650875012081","7.09187545121121","-30.3816070333367","-1.93641718467943","-1.48887582243053","0.187453877259953"
"2918","-2.1991271875302","4.70045796625667","-29.3304845043163","-2.98299711619368","2.11706219048508","0.0468634693149884"
"2926","-2.04978179688255","4.15868729844866","-29.0790528746292","-2.26286639973902","1.39628190151956","0.0117158673287471"
"2927","-2.01244544922064","4.03595027810663","-29.0189096823165","3.12746647045115","-2.14991022290467","0.00292896683218677"
"2939","-3.75311136230516","-1.31221176563697","-27.2437262211167","1.56891260659892","-1.40793486127354","0.000732241708046694"
"2939","-3.18827784057629","0.4761732235112","-27.8190970667412","-2.31303887161375","2.14577629277171","0.000183060427011673"
"2947","-1.29706946014407","9.74858850853848","-34.9999156054123","-1.35112392011381","1.406468334425","4.57651067529184E-05"
"2947","-1.82426736503602","6.84923494638032","-32.7175887194574","-2.82648197417209","-3.79154288764718","-1.74998855872331"
"2959","1.543933158741","-0.901415887528158","-26.889258259083","-2.22101218550982","-2.63555639803938","-1.18749713968083"
"2959","0.385983289685249","1.34269025259519","-28.4951043088554","-2.059101574711","2.71027305841313","2.45312571507979"
"2967","0.0964958224213122","3.62453991648668","-27.1184304206253","-2.01580454093634","1.60672562859846","1.36328142876995"
"2968","0.0241239556053281","3.14148822184186","-27.7891259392648","-2.00422634279086","2.86048447700997","-0.659179642807513"
"2976","0.00603098890133201","3.0320538629982","-27.9495582985946","-2.00113017982982","2.30526001836075","-0.164794910701878"
"2976","0.001507747225333","3.00726173613416","-27.9879341952642","1.46487138454909","2.10829210903769","1.70880127232453"
"2988","0.000376936806333251","1.22819305574043","-27.9971138236843","0.391725937536994","2.03841702212693","1.17720031808113"
"2988","9.42342015833127E-05","1.82514873867023","-27.9993096180563","3.56992629415812","0.368382240132974","1.04430007952028"
"2996","-1.7499764414496","0.186935734142133","-35.0430229827315","2.41981900658969","0.775931287402235","1.01107501988007"
"3000","-1.1874941103624","0.815801978092076","-32.7279001320965","-1.35290846757993","2.56575714302155","1.00276875497002"
"3008","-2.7968735275906","0.958270320441406","-30.4133188416715","-0.361785576163478","2.20070441766317","1.0006921887425"
"3009","-2.19921838189765","0.990546227706325","-30.8596641250923","-0.096746236908453","-2.86453839039809","1.00017304718563"
"3017","-5.54980459547441","0.997858267508257","-27.4448371799988","-0.0258712203377537","-1.66145181986897","1.00004326179641"
"3020","-4.3874511488686","0.999514794949181","-28.6280004362326","-0.00691830569490729","-1.23465245460275","1.0000108154491"
"3025","-4.09686278721715","0.999890077802784","-28.9110165998933","-0.00185004623142344","-1.08324381730782","1.00000270386228"
"3025","-4.02421569680429","0.999975097354365","-28.9787149065059","-1.73308153154834","3.90620796838482","1.00000067596557"
"3037","-0.506053924201072","2.77344643386629","-23.7125174493349","-1.19603567471231","2.67623425520763","1.00000016899139"
"3037","-1.62651348105027","2.1752226842974","-25.4528273824265","0.680164278621235","-2.69584243966541","-4.24999995775215"
"3049","-1.90662837026257","3.81314841096029","-31.151505778447","0.1818849030245","-1.60160631376876","-2.56249998943804"
"3049","-1.97665709256564","3.18421708480623","-29.5146465699487","0.0486384230811014","0.431824296881439","3.10937500264049"
"3057","1.50583572685859","-0.505170152799296","-29.1231049874991","0.0130065561268576","0.153191250181169","1.52734375066012"
"3058","0.376458931714647","0.659006825877471","-29.0294470785041","1.73606492950705","3.34483783503283","-0.618164062334969"
"3070","-1.65588526707134","0.922748704136932","-30.7678408596411","1.19683347469307","2.4770861452851","-0.154541015583742"
"3070","-1.16397131676783","0.982498879257979","-30.1836698133184","-0.679950936379227","-4.41173729982747","1.71136474610406"
"3074","-1.04099282919196","0.996035157419628","-30.0439343646549","-0.181827852493888","-2.85557263622562","1.17784118652602"
"3078","-1.01024820729799","0.999101773142483","-30.010509230465","-0.0486231670164211","-2.30351752486078","1.0444602966315"
"3086","-1.0025620518245","2.77324858407868","-30.0025138391288","-0.0130024764538549","-2.1076739530895","1.01111507415788"
"3090","-1.00064051295612","2.17517786183865","-30.0006013177831","-0.0034770337743725","4.54278762738732","-0.747221231460531"
"3098","0.749839871760969","0.266234105507355","-33.5217378990701","-0.000929804711512688","2.90206321968868","-0.186805307865133"
"3099","0.187459967940242","0.833766859540386","-32.3640042234433","-1.73283544682312","-0.970482448672964","5.20329867303372"
"3107","-1.70313500801494","4.50924437806519","-30.3262738599277","-1.19596986840964","-0.344282201498986","3.55082466825843"
"3111","-1.17578375200373","3.34191618140043","-30.8388427070257","-2.78499173345367","-0.122135371362013","-5.61229383293539"
"3119","-1.04394593800093","-0.469443749771771","-27.4398566349792","-2.20991714766862","-0.0433279701151814","-2.90307345823385"
"3119","-1.01098648450023","0.667100568332886","-28.6268090750768","1.40903899435783","-0.0153707560174164","1.27423163544154"
"3127","-1.00274662112506","0.924582324691571","-28.9107316227678","0.376795619678859","-0.00545283196786918","0.318557908860384"
"3127","-1.00068665528126","0.982914282188937","-28.9786467391314","1.83334692537966","-1.64718075120999","3.5796394772151"
"3139","0.749828336179684","0.996129266091464","-28.9948922366032","1.2228479640473","-1.22958974075113","2.39490986930377"
"3139","0.187457084044921","0.999123093266764","-28.9987782078307","1.05959248611544","0.563798538072254","-1.40127253267406"
"3148","-3.45313572898877","2.77325341410858","-32.5213018057567","1.01593581712357","0.200009595387166","-0.350318133168514"
"3148","-2.36328393224719","2.1751789560719","-31.363899908628","-4.1934989665473","0.0709541361772938","-0.0875795332921285"
"3160","-0.340820983061798","3.81313850442156","-29.3262489075142","-2.58657056736872","0.0251712395643844","-0.0218948833230321"
"3160","-0.83520524576545","3.18421484050045","-29.8388367383343","-0.42426990487115","-1.63631674972248","-0.00547372083075804"
"3168","0.791198688558638","1.26828141426685","-31.7222463003571","-0.846042175673988","-1.22573569645149","-0.00136843020768951"
"3168","0.197799672139659","1.83423067309064","-31.172763459369","2.50634396328158","2.21041211350395","-0.000342107551922377"
"3176","0.0494499180349149","1.96244530304441","-31.0413255324096","1.4028162523301","1.42939812845457","-8.55268879805944E-05"
"3177","0.0123624795087287","1.99149206134982","-31.0098851900464","-2.35745522842412","-0.49291578105736","1.749978618278"
"3189","1.75309061987718","1.9980725441571","-29.2415675357723","-1.36300144000875","-0.174863677841954","1.1874946545695"
"3189","1.1882726549693","1.99956333887924","-29.8185807027977","4.10068903937857","-6.64301888630024","2.79687366364238"
"3197","-2.45293183625768","0.226448999820418","-35.2389950585884","2.56175196819587","-4.93762062572394","2.19921841591059"
"3201","-1.36323295906442","0.824753626421354","-33.5355742655111","2.15021988873959","0.603114667817258","-1.45019539602235"
"3209","-1.0908082397661","4.50720244880911","-26.084922830269","2.04017078043431","-0.431289202760811","-0.362548849005588"
"3209","-1.02270205994153","3.34145358656551","-28.3027048862399","2.01074219675065","-2.44349410179726","-5.3406372122514"
"3217","-1.00567551498538","-0.469548549671503","-28.8332049385442","2.00287260515683","-2.15733115619696","-3.58515930306285"
"3221","-1.00141887874635","0.667076826133115","-28.9601021260912","-1.46440543702495","-0.410567464526222","3.85371017423429"
"3225","-1.00035471968659","0.92457694594549","-28.9904563101056","-0.391601337020757","-0.790896650191325","1.71342754355857"
"3226","-1.00008867992165","0.982913063645176","-28.9977171210424","-1.83730616956167","0.71942651795674","1.17835688588964"
"3238","-1.00002216998041","4.54303314105084","-28.9994539285756","-1.22390671818469","0.255219190988545","1.04458922147241"
"3238","-1.0000055424951","3.34957095552595","-28.999869378094","2.40529799860629","1.73578628144045","1.0111473053681"
"3250","0.749998614376224","-0.467709576581187","-32.5215628169234","1.37579522805161","1.26102287697573","1.00278682634203"
"3250","0.187499653594056","0.667493441669921","-31.363962343274","1.10049260268386","-0.552647517923231","4.50069670658551"
"3258","-3.45312508660149","0.924671329330665","-31.0870608731024","1.02687304798024","-0.19605373016661","3.37517417664638"
"3258","-2.36328127165037","0.982934446005194","-31.0208252193267","-2.45798740192271","-0.069550778508303","-0.406206455838406"
"3270","-3.84082031791259","4.54303798518012","-25.7225903611856","-1.389885069747","-0.0246733932937679","0.648448386040399"
"3271","-3.21020507947815","3.34957205295338","-27.4552368528473","4.093500002051","-0.00875297659761312","-2.5878879034899"
"3275","-3.05255126986954","3.07919482305666","-27.8696910378187","2.5598295247535","-0.00310515049171265","-1.39697197587248"
"3278","-3.01313781746738","3.01794142279392","-27.9688297093635","-1.31546780755253","1.6441447756026","2.40075700603188"
"3287","0.496715545633154","1.23061251658741","-26.2317469429007","-0.351773449634193","1.22851271729002","1.35018925150797"
"3291","-0.625821113591712","1.8256968625035","-26.8162315878258","1.63851794261203","2.72631206212636","1.08754731287699"
"3299","-0.906455278397928","3.73396406147686","-32.2384331433127","1.17074812324283","2.25766186298996","1.02188682821925"
"3299","-0.976613819599482","3.16627803477859","-30.5354398537088","-5.88468691788197","-1.19908618904615","2.75547170705481"
"3307","-0.99415345489987","3.03766994366754","-30.128078802709","-3.77140334593664","-0.425380215290172","2.1888679267637"
"3311","-0.998538363724968","3.00853404755357","-30.0306368298694","1.99147698077812","1.49434115046158","0.297216981690926"
"3320","-2.74963459093124","4.77538544626974","-24.7249373275578","0.532547222648342","1.17536933285623","0.824304245422732"
"3320","-2.18740864773281","4.17566196353296","-26.4557982541716","1.87499695919126","1.06221291283908","0.956076061355683"
"3328","-2.0468521619332","4.03979585325041","-26.8698253266822","1.23398573267012","1.02207025858447","0.989019015338921"
"3328","-2.0117130404833","4.00901566795723","-26.9688618316584","-0.670015932363734","-3.92790951229177","-2.50274524616527"
"3340","-2.00292826012083","-1.31831374566329","-28.7533486887201","-0.179171101325525","-2.68393295735565","-1.37568631154132"
"3340","-2.00073206503021","0.474790832600951","-28.1802032430073","-0.0479127166975694","-0.59738138132003","2.40607842211467"
"3348","1.49981698374245","6.20137117972899","-29.8039021817799","-0.0128124926640416","-0.85716957107966","1.35151960552867"
"3348","0.374954245935612","4.49871607180198","-29.1922957886388","-3.46859983915066","0.695915956653541","2.83787990138217"
"3360","-3.4062614385161","-1.20737313554985","-29.0459977235618","-2.39272297549525","0.24687873329659","2.20946997534554"
"3361","-2.35156535962902","0.499924197563921","-29.0110027920416","-0.372432500941455","1.73282747354071","-1.44763250616361"
"3369","1.41210866009274","2.66016094037889","-29.0026319005232","-0.832180169856942","1.25997322904142","-0.361908126540904"
"3369","0.353027165023186","2.14955809087288","-29.0006295584192","-4.42029637254777","2.73747279384373","-0.0904770316352259"
"3377","0.0882567912557965","2.03388207507809","-29.000150592243","-3.3798059911505","2.26162117342494","-0.0226192579088065"
"3377","0.0220641978139491","2.00767591378639","-29.0000360221116","2.09619528066342","-4.48817428738904","1.7443451855228"
"3389","0.00551604945348728","5.54864311335482","-29.000008616596","0.560550277819276","-2.88268893739071","1.1860862963807"
"3390","0.00137901236337182","4.35084188310786","-29.0000020611154","3.61507215042488","2.6226018853525","-0.703478425904825"
"3397","-1.74965524690916","0.532578349424675","-36.0431886171671","2.43189160426519","1.57562395900043","-0.175869606476206"
"3401","-1.18741381172729","1.66755867070896","-33.7279397523452","-3.08226690043513","1.20420470675304","-0.0439674016190516"
"3410","0.703146547068178","1.92468610683407","-24.3701401948105","-1.55682564515811","1.07244236729219","-0.0109918504047629"
"3410","0.175786636767044","1.98293779381792","-27.1317267576739","4.04885788936749","-0.619547144106507","-0.00274796260119072"
"3418","-3.45605334080824","0.222682517093243","-27.7923064625632","2.54789163475918","-0.21978661746749","-0.000686990650297681"
"3418","-2.36401333520206","0.823900337576881","-27.9503190892104","-1.31866015686017","4.85776891015962","1.74982825233743"
"3426","-2.09100333380052","0.960104986974471","-27.9881161786383","-0.352627125962824","3.65905032197204","1.18745706308436"
"3426","-2.02275083345013","0.990961867601524","-27.9971573546476","-3.55947075602554","1.58855417532503","1.04686426577109"
"3438","-0.255687708362532","0.99795242986385","-26.2385229997565","-2.41702305772986","1.85403808743748","1.01171606644277"
"3439","-0.813921927090633","0.999536127235405","-26.8178524407436","-5.5766910778989","1.94821947716752","-0.747070983389307"
"3450","-0.953480481772658","2.77334698609692","-30.4780238251073","-4.42162799902483","1.98163066996223","-0.186767745847327"
"3451","-0.988370120443165","2.17520015461165","-29.3535476871659","1.08501152390699","0.348237073813798","1.70330806353817"
"3459","-2.74709253011079","0.266239155888809","-29.0845696564406","-0.442440406309588","0.768784715901212","1.17582701588454"
"3459","-2.1867731325277","0.833768003693822","-29.0202293129049","6.07944601157463","0.917975531511576","1.04395675397114"
"3467","1.45330671686808","-0.811111589256134","-23.7224478186003","3.82348449748027","0.970901519520942","1.01098918849278"
"3471","0.363326679217019","-0.183755647076599","-25.4552027562377","-1.9775497936328","0.989677207523635","-2.4972527028768"
"3475","0.0908316698042547","-0.0416294604587101","-25.8696828818084","-0.528822909033307","0.996337951578372","-1.3743131757192"
"3475","0.0227079174510637","-0.00943106786460225","-25.9688277584217","1.59117258096113","-2.29179180329825","2.4064217060702"
"3488","-3.49432302063723","7.09167171318541","-34.7965286624429","1.15808734880465","-1.45826787133142","1.35160542651755"
"3491","-2.37358075515931","4.70041180982979","-31.908140927815","1.04227464306861","0.482674134082761","-0.662098643370612"
"3500","-2.09339518878983","0.611772690788009","-27.6956359441004","1.01130479738","0.171230416084143","-0.165524660842653"
"3500","-2.02334879719746","1.68549998437625","-28.6879922452183","-0.729563752785516","-1.5845017221451","1.70861883478934"
"3508","-0.255837199299364","0.155298598699075","-28.9253668187163","-0.19509497425324","-1.20735412572915","1.17715470869733"
"3512","-0.813959299824841","0.808634650720609","-28.9821475214537","-3.5173445799861","-1.07355963520365","1.04428867717433"
"3520","-2.70348982495621","0.956646577301253","-27.2349326030928","-2.40575796239251","-1.02609554988244","1.01107216929358"
"3521","-2.17587245623905","0.990178372068017","-27.8169936072019","-2.10850503321166","-1.00925749185381","-2.4972319576766"
"3524","-2.04396811405976","0.997774930576886","-27.9562243275032","-2.0290156776292","-1.00328412912582","-1.37430798941915"
"3528","-2.01099202851494","0.999495915140345","-27.9895287291704","4.92258804403066","2.28932762138408","0.656423002645212"
"3541","-0.252748007128735","0.999885800621278","-31.5190893029998","2.78153860718272","1.45739369377627","0.164105750661303"
"3541","-0.813187001782184","0.999974128367772","-30.3633706713997","-2.98876667818386","-5.41872326909219","1.79102643766533"
"3549","-2.70329675044555","2.77344621434438","-33.6085134055045","-1.53182245197158","-3.85805093439716","1.19775660941633"
"3549","-2.17582418761139","2.17522263456517","-32.3847611822158","4.05554407314835","-0.0139040319956099","-2.45056084764592"
"3561","-0.293956046902847","0.266244248675621","-28.5704419550572","2.54967960852789","-0.650178845358769","-1.36264021191148"
"3561","-0.823489011725712","0.833769157454104","-29.6580454713427","-6.51594244340455","4.0598393525882","2.40933994702213"
"3570","-2.70587225293143","0.962340747634832","-29.9182034614943","-3.94020940302053","2.73073555118181","1.35233498675553"
"3570","-2.17646806323286","0.991468374538787","-29.9804340251384","1.94633601367986","0.613984772819144","-4.16191625331112"
"3578","-2.04411701580821","0.998067177959227","-29.9953197607224","0.520475932401019","0.863059684997208","-2.54047906332778"
"3578","-2.01102925395205","0.999562123178253","-29.9988804728693","0.139182132121441","-2.33907275628537","-2.13511976583195"
"3590","-0.252757313488013","0.99990079991485","-28.238935174751","0.0372191386689226","-1.47504096249411","-2.03377994145799"
"3590","-0.813189328372003","0.9999775264266","-28.817951034226","-5.18780752552784","2.12197015769547","-0.258444985364497"
"3598","-4.453297332093","4.54689905967653","-30.7172503779255","-3.58504860094027","1.39802302085499","-0.814611246341124"
"3602","-3.36332433302325","3.35044677136685","-30.1715684198907","-1.42386291096549","-0.504046215339219","-0.953652811585281"
"3610","2.15916891674419","-0.467511162320194","-30.0410396754184","-1.84593334013324","-0.178812240150771","-0.98841320289632"
"3611","0.539792229186047","0.667538392008938","-30.0098168122054","-1.95880054220728","3.22705838140837","2.50289669927592"
"3619","-3.36505194270349","-2.62222263828126","-24.7199571175187","-1.98898272135008","2.43530345293387","1.37572417481898"
"3619","-2.34126298567587","-1.36751117176499","-26.4546069731442","3.20070658000931","3.79967183263474","1.09393104370475"
"3627","-2.08531574641897","-1.08325889319062","-26.8695403687236","1.58849797831455","3.28368651014006","1.02348276092619"
"3627","-2.02132893660474","-1.01886212944776","-26.9687936688687","-4.04038828955788","1.45539248891095","1.00587069023155"
"3639","-2.00533223415119","4.31608305024903","-34.0357234770851","-2.54562675201181","1.80679849169142","1.00146767255789"
"3639","-2.0013330585378","2.52470380798278","-31.7261540686739","4.78443942594102","-1.3590316205768","-2.49963308186053"
"3651","-3.75033326463445","0.345418483162071","-32.934495240188","2.74459584380335","-0.482121442668755","-1.37490827046513"
"3651","-3.18758331615861","0.851705915950176","-32.2235340359361","-4.73123246535388","-1.81628068588884","-1.09372706761628"
"3660","0.453104170960347","-0.807047792464755","-30.292672974025","-2.7303676004645","-1.28957856163519","-1.02343176690407"
"3660","-0.636723957259913","-0.182835002347959","-30.830805275358","-0.46272312895527","0.542517284250988","-1.00585794172602"
"3668","-0.909180989314978","-0.041420890306243","-23.9163399953903","-0.856325075193053","0.192459992685682","-1.0014644854315"
"3672","-0.977295247328745","-0.00938381672945006","-26.2623793716204","-0.96157942928356","1.71352222608781","-1.00036612135788"
"3676","-0.994323811832186","-0.00212588420386113","-26.8235589557222","-0.989725832422321","1.25312462183306","-1.00009153033947"
"3676","-0.998580952958047","-0.000481614654093009","-26.9577947783616","2.4679210575288","-0.555449452849759","-1.00002288258487"
"3688","-0.999645238239512","5.32024711772662","-28.7507014167138","1.39254146033289","-0.19704772683938","-1.00000572064622"
"3692","-0.999911309559878","3.52564716882726","-28.1795700076838","2.83755757094047","1.57534293664027","-2.75000143016155"
"3701","0.750022172610031","-0.427819875905533","-31.564547741046","2.22397394623068","1.20410501304198","-2.18750035754039"
"3701","0.187505543152508","0.676530370566559","-30.3742444647448","0.327306783834578","2.71765333969038","4.9531249106149"
"3709","-1.70312361421187","4.47362277783391","-26.5679263250144","0.82011295765854","2.25459014950714","2.73828122765373"
"3709","-1.17578090355297","3.33384618180098","-27.6574437251676","2.68448263600205","-2.84542222975655","0.434570306913432"
"3721","-4.54394522588824","1.3021800840773","-29.6788565530582","2.18303968876983","-1.65467029189917","0.858642576728358"
"3721","-3.38598630647206","1.84191034637921","-29.1623845029925","-3.14881318629579","-1.23224668272902","-2.53533935581791"
"3725","-3.09649657661801","1.9641851170887","-29.0388428552296","-1.57462100009051","-1.08239036092834","-1.38383483895448"
"3729","-3.0241241441545","1.99188621261056","-29.009291326294","-6.35142165200085","0.616018056945544","0.65404129026138"
"3741","-1.25603103603863","1.99816183830716","-30.7630195438707","-4.62880117728448","0.218534660877529","0.163510322565345"
"3742","-1.81400775900966","1.99958356828361","-30.1825165402718","1.02961068234351","0.0775259709782797","0.0408775806413363"
"3750","-3.70350193975241","-1.54699849275898","-30.0436584983181","-0.457255322370273","0.0275026220188172","0.0102193951603341"
"3750","-3.1758754849381","-0.350469297725301","-30.0104432424182","-4.32003652111185","0.00975665584532755","-1.74744515120992"
"3758","-1.29396887123453","1.69405398351147","-26.480903992521","-3.35299518392516","0.00346120937920152","-1.18686128780248"
"3762","-1.82349221780863","1.15723648944926","-27.636627724869","0.370778039515847","3.2917205549127","0.70328467804938"
"3770","-0.205873054452158","4.58252575135692","-24.3914862108782","-0.633435864507822","2.45824259570582","0.175821169512345"
"3770","-0.801468263613039","3.35851792442352","-25.6152387260218","4.29578450104996","-2.77317577891779","0.0439552923780863"
"3778","-0.95036706590326","3.08122149167098","-25.9079639609219","2.61392306897545","-1.62904059897761","0.0109888230945216"
"3779","-0.987591766475815","3.01840056036213","-25.9779847062008","2.1641711294975","0.422091883769621","-1.74725279422637"
"3791","-0.996897941618954","-0.542735542258425","-33.0379220005028","2.04390152630274","0.14973864100043","-1.18681319855659"
"3791","-0.999224485404739","0.650496464862807","-30.7266799620027","0.27915304264962","-1.59212600803513","-4.54670329963915"
"3799","-6.24980612135118","4.46772485053033","-31.9346210354336","0.807236011866198","-1.21005886906033","-3.38667582490979"
"3799","-4.5624515303378","3.33251001861156","-31.2235641265323","-5.98189485308844","-1.07451915280216","0.403331043772553"
"3811","-2.39061288258445","3.07532945458892","-31.0534772028205","-3.7973980304915","-1.0264359422632","-0.649167239056862"
"3811","-2.84765322064611","3.01706573159016","-31.0127919056866","-6.67840836474899","2.28111443091729","-0.912291809764215"
"3819","0.538086694838472","-2.31649002045523","-29.2422628307834","-5.4488285437111","1.45448003439056","-0.978072952441054"
"3820","-0.615478326290382","-0.524796006238321","-29.8187470194287","7.00808495843768","1.16122845600276","-0.994518238110263"
"3828","-0.903869581572596","-0.118891445994474","-29.9566437489137","3.33922800069768","1.05719638500708","-0.998629559527566"
"3828","-0.975967395393149","-0.0269346103297857","-29.989629056017","-1.10704637074625","-0.624955712136057","-2.74965738988189"
"3840","-2.74399184884829","3.54080217095075","-22.9543311152661","-0.296038807264289","-0.221705326776161","-2.18741434747047"
"3840","-2.18599796221207","2.34906553388017","-25.271466960289","-0.079164683361354","-3.3691434545276","-0.296853586867618"
"3848","-2.04649949055302","5.62598422322984","-38.1513119511613","-0.0211696809266919","-2.48570865278114","-0.824213396716905"
"3852","-2.01162487263825","4.36836335102788","-34.2322091127798","3.45951255753005","1.11818575551287","-0.956053349179226"
"3860","-0.252906218159564","-3.01035634940194","-29.7731540160909","2.39029291648117","0.396680490326422","-0.989013337294807"
"3861","-0.813226554539891","-0.68198998293541","-30.7065347981868","-4.82597774322693","0.140723856148067","0.752746665676298"
"3869","-2.70330663863497","1.61894866035128","-27.4082081903674","-2.75570373795308","0.0499223031434848","0.188186666419075"
"3872","-2.17582665965874","1.14022153436909","-28.6192386731626","-3.93467195598433","3.30820279801466","3.54704666660477"
"3877","-2.04395666491469","1.03176689758026","-28.9089207601536","-3.24994361423764","2.46408973178596","2.38676166665119"
"3877","-2.01098916622867","1.00719672471433","-28.9782135754177","2.13092219381329","2.16463753133385","-1.4033095833372"
"3889","-0.252747291557168","6.32198662957407","-32.5163826846279","0.56983671262501","2.05840576696104","-0.350827395834301"
"3889","-0.813186822889292","4.52604125162593","-31.3627232402493","5.35014227040282","0.37547332053953","1.66229315104142"
"3901","-4.45329670572232","2.34572147824355","-34.6083585380511","3.62845905376344","0.778446874136146","1.16557328776036"
"3901","-3.36332417643058","2.85177455885702","-33.3847241374612","-5.494875780236","4.21189589573186","-0.708606678059911"
"3909","0.409168955892355","-0.580484317065647","-26.0488390317708","-2.93457589930988","3.42992450563189","-0.177151669514978"
"3910","-0.647707761026911","0.641944558278152","-28.2940735345076","1.21525568213316","3.15251729228046","-0.0442879173787444"
"3922","-4.41192694025673","2.69233535833416","-28.8311402935836","0.324975404975438","3.05410606778596","-0.0110719793446861"
"3922","-3.35298173506418","2.15684713848236","-28.9596082568867","3.55207632096282","-5.20703736991219","-1.75276799483617"
"3926","-3.08824543376605","2.03553339368554","-28.9903381751257","2.41504568822284","-3.13770824759651","-1.18819199870904"
"3930","-3.02206135844151","2.00805001658958","-28.9976888628044","2.11098869365233","0.886886512351465","0.702952000322739"
"3938","2.24448466038962","3.77527579005946","-30.7602442001567","2.0296798412035","0.314626237053169","0.175738000080685"
"3942","0.561121165097406","3.17563712114612","-30.1818526698155","5.47311039071858","0.111614809407552","-1.70606549997983"
"3950","-1.60971970872565","-0.507113925758704","-33.5650937606051","4.39392915650226","0.0395957622471862","-1.17651637499496"
"3951","-1.15242992718141","0.658566468147835","-32.3743750742445","-2.82500536466429","1.65929308072019","0.705870906251261"
"3959","-4.53810748179535","2.69610101751622","-26.8071605361589","-0.755443711094671","1.23388663398681","0.176467726562815"
"3963","-3.38452687044884","2.15770024075439","-28.4754662897868","3.26315799295156","-0.56227419946643","-3.4558830683593"
"3971","-1.34613171761221","3.80917873774361","-27.1137329481595","2.33778511497008","-0.19946883068631","-2.36397076708982"
"3971","-1.83653292940305","3.18331776357809","-27.7880022899044","0.357741392119554","1.57448404118717","-2.09099269177246"
"3979","-1.95913323235076","3.04153025886095","-27.9492895183315","0.828251573505469","1.20380031673567","-2.02274817294311"
"3979","-1.98978330808769","3.00940859394852","-27.9878699022273","-4.24368820982674","1.0722989084531","-0.255687043235779"
"3991","-0.247445827021923","-2.31822472909549","-31.51869250667","-2.59999183328004","1.02564830245229","-0.813921760808945"
"3992","-0.811861456755481","-0.525189000880367","-30.3632757565395","1.30472787630181","-2.28139384902367","-0.953480440202236"
"4000","-0.95296536418887","-0.118980478114966","-30.0868966395171","0.348901450301933","-1.45457915898672","-0.988370110050559"
"4000","-0.988241341047218","-0.0269547803718961","-30.0207859341655","-8.56963317222728","10.355460752934","-0.99709252751264"
"4012","-0.997060335261804","7.08770175248751","-31.7657690882006","-5.95456701236901","7.54511564697843","-0.99927313187816"
"4012","-0.999265083815451","4.69951242347337","-31.1831742394388","1.67508340426246","-3.32334260237452","0.75018171703046"
"4020","0.750183729046137","0.611568936675646","-29.283018790876","-0.284647399370884","-1.17896795459351","0.187545429257615"
"4020","0.187545932261534","1.68545382430499","-29.8284959660858","2.65646833419582","-3.70873587618171","1.7968863573144"
"4028","0.0468864830653836","1.9287402167397","-29.9589757258983","1.44296149003753","-2.6061803075744","1.1992215893286"
"4028","0.0117216207663459","1.9838562440027","-29.9901868718353","2.85104055218716","1.07544799494114","-0.70019460266785"
"4041","-3.49706959480841","1.99634266558532","-28.2368556395726","2.22757947332703","0.381519113305239","-0.175048650666962"
"4041","-2.3742673987021","1.99917143847919","-28.8174536032373","0.328270949355885","6.71633065857425","3.45623783733326"
"4049","-2.09356684967553","1.99981229110715","-28.9563343599206","0.820370788241319","4.96362824532469","2.36405945933332"
"4049","-2.02339171241888","1.99995747493992","-28.9895550492513","-4.24579563579511","1.05135796955437","2.09101486483333"
"4061","-2.00584792810472","0.226538290526931","-27.2367045057347","-2.60055538679194","1.66346576682259","2.02275371620833"
"4061","-2.00146198202618","0.824773855045591","-27.8174174515745","1.30457717465651","-3.05512576855692","-6.74431157094792"
"4069","-2.00036549550655","-0.813149194964954","-27.9563257123355","0.348861150693438","-1.72906338999079","-3.93607789273698"
"4069","-2.00009137387664","-0.184217262420864","-27.9895529807233","1.82587687977133","-1.25863790662218","3.76598052681575"
"4077","-2.00002284346916","-0.0417340384568664","-27.9975010419722","1.2208503752827","-1.09175274421988","1.69149513170394"
"4078","-2.00000571086729","-0.00945475979303199","-27.9994022418204","-2.40611530502742","-1.03254962190897","-2.32712621707402"
"4090","-0.250001427716822","7.0916663458282","-31.5214510765398","-1.37601378657317","-1.01154709753288","-1.3317815542685"
"4090","-0.812500356929206","4.70041059386615","-30.3639356146425","-1.10055104811645","2.28639630309183","2.41705461143287"
"4098","0.796874910767699","2.38522449082294","-28.3262574484988","-1.02688867706012","1.45635379788085","1.35426365285822"
"4102","0.199218727691925","2.86072388436802","-28.8388387813632","-1.00719038704804","-2.12859949775373","-2.41143408678545"
"4110","-5.20019531807702","-0.578456865945535","-32.4830438200913","-1.00192280437543","-1.40037480350996","-1.35285852169636"
"4110","-3.55004882951925","0.64240387312142","-31.3547484848702","2.46465942628674","2.1484582509399","-1.08821463042409"
"4118","-1.38751220737981","0.918987339649626","-27.5632628287455","1.3916692571008","1.40741976890352","-1.02205365760602"
"4122","-1.84687805184495","0.981646749940126","-28.6563282030143","-0.627849277261273","-2.14595902367567","-6.25551341440151"
"4127","-1.96171951296124","0.995842109291271","-28.9177926858117","-0.167895181352595","-1.40653315888213","-4.56387835360038"
"4127","-1.99042987824031","0.999058038489677","-28.9803357663756","-0.0448973869084987","2.14627355182654","-0.640969588400095"
"4139","-0.247607469560077","2.77323867608385","-23.712905163828","-0.012006153690487","1.40664473889511","-1.66024239710002"
"4143","-0.811901867390019","2.17517561720299","-25.4529201248844","-1.73579740869503","-5.43672664662277","-0.165060599275006"
"4151","0.797024533152495","0.266233596989805","-34.6731220247894","-1.19676193609794","-3.86443769848457","-0.791265149818752"
"4151","0.199256133288124","0.83376674433679","-31.8786216936983","2.41255687151782","-3.30666243815119","-2.69781628745469"
"4159","-3.45018596667797","0.962340200948113","-29.4493718866937","1.37773634645062","-3.10878962259246","-2.17445407186367"
"4160","-2.36254649166949","0.991468250688046","-29.8682881205018","-5.82933553573988","1.89714550043964","-2.04361351796592"
"4172","-2.09063662291737","4.54497130091904","-26.4469000653051","-3.75660165597787","0.67301931152735","-2.01090337949148"
"4172","-2.02265915572934","3.35001004162142","-27.6284938845225","5.4606087575333","-1.40649027449125","-2.00272584487287"
"4176","-2.00566478893234","3.07929404848035","-27.9111346341893","2.92541244527808","-1.14420391299311","-2.00068146121822"
"4180","-2.00141619723308","3.01796390210771","-27.97874314066","-1.21770611065511","-2.69640320515653","1.49982963469545"
"4192","-2.00035404930827","1.23061760922929","-26.2341182650995","-0.325630681896164","-2.24705158648679","0.374957408673861"
"4192","-2.00008851232707","1.82569801623095","-26.8167988151361","-1.81966474588366","4.49334290169305","-3.40626064783153"
"4200","-0.250022128081767","3.73396432285142","-30.4777717947339","-1.21918916871063","2.8845225222368","-2.35156516195788"
"4200","-0.812505532020442","3.16627809399245","-29.3534874007523","4.13914633835907","-0.976705075308634","3.16210870951053"
"4212","-2.70312638300511","3.03766995708232","-29.0845552357515","2.57203595739599","-0.34648970107836","1.54052717737763"
"4213","-2.17578159575128","3.00853405059266","-29.0202258634332","-3.04479045117158","-0.122918489919216","-2.36486820565559"
"4221","-2.04394539893782","3.00193337144927","-29.0048380865831","-1.54680394811483","-0.043605784290262","-1.3412170514139"
"4221","-2.01098634973445","3.0004380012891","-29.0011572846748","-2.87880939570171","-3.30596198982738","-2.83530426285347"
"4225","-2.00274658743361","3.00009922828297","-34.2826679190368","-2.23500522849898","-2.46329479687817","-2.20882606571337"
"4225","-2.0006866468584","3.00002247996156","-32.5460209433935","1.4023301105009","2.77138349205633","-0.302206516428342"
"4241","-2.0001716617146","-0.546899058229303","-26.8482187376699","0.375001575610281","1.62840477865213","-0.825551629107086"
"4241","-2.00004291542865","0.64955322896102","-28.4852875334885","-3.36489323999994","-2.06756378246491","-2.70638790727677"
"4250","-0.250010728857162","-0.852845064132433","-28.8768792498474","-2.36499046245037","-1.37872216006604","-2.17659697681919"
"4250","-0.812502682214291","-0.193210279191624","-28.9705491510224","-0.365016461016483","0.510893266362482","-2.0441492442048"
"4258","0.796874329446427","1.72968068776777","-32.5145493315571","-0.830197022924683","0.181241256567594","-2.0110373110512"
"4262","0.199218582361607","1.16530764535498","-31.3622846967516","4.2431679709814","-1.58095033983498","-0.2527593277628"
"4270","-3.4501953544096","2.81090217946664","-34.6082536371445","2.59985271454813","-1.2060942598534","-0.8131898319407"
"4270","-2.3625488386024","2.18370820572342","-33.3846990448528","5.6255821406107","0.57213364593516","2.54670254201482"
"4274","-0.3406372096506","2.04161871271861","-31.331224122651","4.43470211432257","0.202966505415469","1.38667563550371"
"4278","-0.83515930241265","2.00942863298639","-31.8400268245663","-1.08151533296047","0.0720031108347649","2.84666890887593"
"4286","0.791210174396838","2.00213603723385","-23.1577487863039","0.443375333901716","0.0255433671643061","2.21166722721898"
"4290","0.197802543599209","2.00048391480196","-26.0809221021766","4.31632482904577","0.00906160301306768","-4.94708319319525"
"4298","-6.9505493641002","0.226657554385047","-32.0625449312377","3.35200262849008","0.00321463684244339","-2.73677079829881"
"4299","-4.73763734102505","0.824800874025114","-30.4933668711746","-2.10363026671046","-4.93459861313317","1.3158073004253"
"4307","1.06559066474374","6.28066522816465","-35.4004059134803","-0.562538491194574","-3.68630594036721","0.328951825106324"
"4307","-0.483602333814066","4.51667997389957","-33.5741842212243","-0.150430215367795","-1.59822320573062","-1.66776204372342"
"4319","-2.62090058345352","0.570148624695091","-24.3333614152717","-0.0402270245499951","-1.85746821137115","-1.16694051093085"
"4319","-2.15522514586338","1.67607013859403","-27.1229291644134","-0.0107572371693376","-0.304189987083154","-2.79173512773271"
"4323","-2.03880628646584","5.47351851323575","-29.5509990831711","-0.00287662716325342","-0.753158850631851","-2.19793378193318"
"4327","-2.00970157161646","4.33382256087267","-29.1318006165912","-0.00076924806119869","0.732814140504503","-2.04948344548329"
"4335","-0.252425392904115","2.30217473280502","-30.7923241298355","-0.00020570708196633","0.259968499098016","-2.01237086137082"
"4339","-0.813106348226029","2.84190913405958","-30.1895262842388","-5.5008788069175E-05","3.38271745498615","-0.253092715342706"
"4348","-0.953276587056507","1.19073276693124","-31.8061322809223","-1.47100757830724E-05","2.49052407913677","-0.813273178835677"
"4348","-0.988319146764127","1.81666218798967","-31.1928292349747","1.73258287110591","0.528768873722707","-0.953318294708919"
"4356","0.752920213308968","1.95846519920833","-32.8069223565446","1.19590232633006","0.832829032826472","-0.98832957367723"
"4356","0.188230053327242","1.9905903770865","-32.1930182234093","1.05238686703607","-2.34979719081412","0.752917606580693"
"4368","-1.70294248666819","0.224416193949735","-32.0461705321037","1.01400893950198","-1.47884549490419","0.188229401645173"
"4368","-1.17573562166705","0.824293098470458","-32.0110441283579","-0.728840629500334","-2.81511853142646","-3.45294264958871"
"4376","-2.79393390541676","0.960193966139732","-21.4378596020795","-0.194901601545008","-2.28916628308514","-2.36323566239718"
"4377","-2.19848347635419","0.990982025646737","-24.9087224719848","-1.78470606479804","-0.457336458424074","-2.09080891559929"
"4385","-2.04962086908855","4.54486114764509","-32.7821512994768","-1.20984075610064","-0.807488121992864","-2.02270222889982"
"4388","-2.01240521727214","3.34998508662583","-30.6654988509432","0.676472617696828","-2.57695204561877","-0.255675557224956"
"4397","-2.00310130431803","-0.467615756040041","-31.9199863320236","0.180897704181014","-2.20467585034287","-0.813918889306239"
"4397","-2.00077532607951","0.667514696518792","-31.2200634620268","0.0483744330840418","2.86312951011598","2.54652027767344"
"4405","-0.250193831519877","0.924676144572562","-32.8134368645129","0.0129359617182363","1.66095201443113","1.38663006941836"
"4405","-0.812548457879969","0.982935536888251","-32.1945765130566","0.00345924685639113","-0.41077119231321","-0.65334248264541"
"4417","-0.953137114469992","-0.777317994209489","-25.0033551554717","0.000925048254942073","-0.14572258426243","-0.163335620661353"
"4417","-0.988284278617498","-0.176099778257691","-27.2831936562568","1.73283417488387","-0.0516956202418631","-1.79083390516534"
"4426","-4.49707106965437","3.50700911175033","-27.8285377944041","1.1959695282763","-0.0183392105329272","-1.19770847629133"
"4426","-3.37426776741359","2.34140978645611","-27.9589857313563","-5.87794238137389","1.63874043703271","0.700572880927166"
"4438","0.406433058146602","0.30389360301359","-31.5117833272416","-3.7695997678787","1.22659550839765","0.175143220231792"
"4438","-0.64839173546335","0.842298540537799","-30.3616230603072","1.99195928134943","-8.79109244849699","-1.70621419494205"
"4446","-2.66209793386584","0.964273061669632","-28.3257042786359","0.532676196185176","-6.34490392488753","-1.17655354873551"
"4446","-2.16552448346646","0.991906136272836","-28.8387064614897","0.142444643642559","1.10387576552562","0.705861612816122"
"4454","1.45861887913339","-0.77528572353747","-30.7222151377491","0.0380915772992455","-0.253642370116052","0.17646540320403"
"4454","0.364654719783346","-0.175639371554942","-30.1727560051807","-3.45498741915179","-2.38047323757052","-3.45588364919899"
"4466","-3.40883632005416","7.05401756695119","-30.0413237493457","-2.3890828347686","-2.13497427389989","-2.36397091229975"
"4466","-2.35220908001354","4.69188134115194","-30.0098847635322","1.36112772549561","-2.04788261779234","-0.340992728074937"
"4475","-0.338052270003385","-2.93706402020383","-26.4807704027133","0.363983514185096","-2.01698653395497","-0.835248182018734"
"4475","-0.834513067500846","-0.665385757874463","-27.6365957697904","1.829920799312","4.57495932132222","0.791187954495316"
"4483","-0.958628266875212","1.62271031307662","-27.9130726291996","1.2219317727283","2.91347624588921","0.197796988623829"
"4487","-0.989657066718803","1.14107372898667","-27.9792067148203","-2.40582612508118","-2.61167997495362","-3.45055075284404"
"4495","-2.7474142666797","2.80541203601111","-29.755823215486","-1.37593645603975","-1.57174937130248","-2.36263768821101"
"4495","-2.18685356666993","2.18246442511841","-29.1807951571565","2.36464324063714","-1.20283018258274","-3.84065942205275"
"4503","-0.296713391667481","2.04133693680403","-29.0432467383662","1.36492360932196","-1.07195474981079","-3.21016485551319"
"4507","-0.82417834791687","2.00936479723777","-29.0103447482152","-0.635001416392196","2.2649664673003","2.1974587861217"
"4516","-0.956044586979218","3.77557365088646","-30.7632715255218","-0.169807757730294","1.44875148518147","0.549364696530426"
"4516","-0.989011146744804","3.17570460089826","-30.1825768150308","-3.51058244461734","1.15919623219923","-1.61265882586739"
"4524","-0.997252786686201","-0.507098638360911","-30.0436729162195","-2.403949678167","1.05647544617302","-1.15316470646685"
"4528","-0.99931319667155","0.658569931476076","-30.010446691223","-0.375434669374755","-2.27045780693387","0.711708823383288"
"4536","0.750171700832112","2.69610180212604","-31.763295910592","-0.832982989310296","-1.45069955801969","0.177927205845822"
"4536","0.187542925208028","2.15770041850612","-31.182582648012","-2.6879242522887","-2.80513365727743","-3.45551819853854"
"4544","-3.45311426869799","5.58263085352187","-25.7612832183792","-2.18396002237778","-2.28562411242721","-2.36387954963464"
"4545","-2.3632785671745","4.35854173510085","-27.4644922991658","3.14856707694501","4.4796591569058","6.65903011259134"
"4556","1.40918035820638","0.534322734912574","-36.6758901232349","1.57455518720265","2.8796681636788","3.91475752814784"
"4557","0.352295089551594","1.66795385762075","-33.8792838310649","-0.578943166330912","3.95731184054309","-2.02131061796304"
"4565","-1.6619262276121","-1.62212851540921","-24.4063421477754","-0.154817041962643","3.33960988004873","-0.50532765449076"
"4565","-1.16548155690303","-0.367489848423675","-27.1403863723055","1.69118668490766","-1.8152611690988","-0.12633191362269"
"4573","0.708629610774244","1.69019801307706","-27.7943778680932","1.18483243990863","-0.643970545214424","-0.0315829784056725"
"4577","0.177157402693561","1.15636292735044","-27.9508145755631","1.04942663333733","1.41679543068518","-0.00789574460141814"
"4589","-1.70571064932661","4.58232784767652","-31.509828762516","1.01321733394999","1.14785970487898","-0.00197393615035453"
"4590","-1.17642766233165","3.35847308975548","-30.3611555226218","-5.9268127295932","4.34294644981866","3.49950651596241"
"4593","-1.04410691558291","-0.465692816547946","-33.6079835353401","-3.78266834384782","3.47641516945622","2.3748766289906"
"4598","-1.01102672889573","0.667950334469648","-32.3846344356993","1.98846457169248","3.16901002546948","-4.90628084275235"
"4606","-2.75275668222393","0.924774837446158","-30.3312086679497","0.531741664709425","3.05995692526289","-2.72657021068809"
"4606","-2.18818917055598","0.982957895553927","-30.8400231277559","1.87478154236887","-1.91446907858858","1.31835744732798"
"4614","-2.047047292639","0.996139146608783","-30.9617330571936","1.23392812736934","-0.679164914295449","0.329589361831995"
"4614","-2.01176182315975","0.999125331677456","-30.9908464336675","1.062555467993","-1.88618257880344","-1.667602659542"
"4626","-2.00294045578994","0.99980184570691","-25.71541934665","1.01672815757485","-1.31437651404998","-1.1669006648855"
"4626","-2.00073511394748","0.999955108556171","-27.4535215248799","4.46964693961589","2.17896645895635","4.20827483377863"
"4635","1.49981622151313","4.54689398095451","-27.8692807262761","3.39300298397638","1.41824266738464","2.55206870844466"
"4635","0.374954055378282","3.35044562079291","-27.9687315616244","-2.09266623064448","1.14837311739629","-1.36198282288884"
"4647","-3.40626148615543","-0.467511422980331","-31.5141145587768","-0.5596065632776","1.05263590657442","-0.340495705722209"
"4647","-2.35156537153886","0.667538332956926","-30.3621806978117","-7.07999339825247","2.66391911965884","-3.58512392643055"
"4655","-3.83789134288471","-0.848770576150405","-30.0866346982182","-4.82363087590081","2.23552773823573","-2.39628098160764"
"4655","-3.20947283572118","-0.192287212395931","-30.0207232770291","2.71009745488594","2.08355432738094","4.90092975459809"
"4663","-1.30236820893029","5.27679395765244","-26.483363007321","0.724715819784134","2.02964120352183","2.72523243864952"
"4667","-1.82559205223257","3.51580294559988","-27.6372159285099","5.39155898732195","-2.92522369185883","3.93130810966238"
"4675","1.54360198694186","-2.20350213975489","-29.6740180040421","3.63953443037054","-1.68298015272456","3.2328270274156"
"4676","0.385900496735464","-0.499198836373018","-29.1612271077024","-2.0267404688406","0.402956629610964","-2.1917932431461"
"4684","0.096475124183866","1.66035961522032","-25.5169719407689","-0.541977144665934","0.142950339535532","-0.547948310786525"
"4688","0.0241187810459665","1.14960310024586","-26.6452552851743","1.58765496477985","3.34120483449042","-1.88698707769663"
"4696","-1.74397030473851","2.80734434736709","-32.1975351040959","1.15714669182204","2.47579732504266","-1.22174676942416"
"4696","-1.18599257618463","2.18290218624558","-30.5256569213033","-2.42315051056928","2.16879084290191","0.69456330764396"
"4704","-1.04649814404616","2.04143611067881","-28.3649416651969","-1.38056922531844","2.05987916944464","0.17364082691099"
"4704","-1.01162453601154","2.00938726487326","-28.8480921608495","2.36340437700158","-2.91449666274976","0.0434102067277475"
"4716","0.747093865997115","0.228674589864718","-28.9636631938662","1.36459232083872","-1.67917469987761","0.0108525516819369"
"4716","0.186773466499279","0.825257829226658","-28.9913081280901","2.83008360224453","0.404306627939774","0.00271313792048422"
"4725","-1.70330663337518","2.73386459939921","-25.4763268163622","2.22197530838068","0.143429256384876","0.000678284480121056"
"4725","-1.1758266583438","2.16625550185133","-26.6355328507423","-3.13840128784755","0.0508820537816732","1.75016957112003"
"4737","-2.79395666458595","3.8111169143886","-30.4344124378786","-1.5718367210581","0.0180505948527952","1.18754239278001"
"4737","-2.19848916614649","3.18375685347431","-29.3431157138601","4.0448437295973","0.00640351460532264","2.796885598195"
"4745","1.45037770846338","4.81508180927458","-23.7996832043471","2.54681819546889","0.00227167024881901","2.19922139954875"
"4745","0.362594427115845","4.18465509218155","-25.4736776898175","-1.31894720869067","1.64605222244427","-6.70019465011281"
"4753","-3.40935139322104","0.494929076862494","-36.4388843269854","-0.352703887410013","1.22918939104006","-3.9250486625282"
"4757","-2.35233784830526","1.6590293061514","-33.0617943099047","-1.82690447827513","2.72655211461642","3.76873783436795"
"4766","-0.338084462076315","1.92275379699633","-28.7323902892877","-1.22112516868201","2.25774702248961","1.69218445859199"
"4766","-0.834521115519079","1.98250003303471","-29.6967839937094","0.673455016872201","-1.19905597840189","1.173046114648"
"4774","-0.95863027887977","7.31639164533226","-28.1666728000222","0.180090757902585","-0.425369497953522","1.043261528662"
"4778","-0.989657569719942","5.52477371955839","-28.8006656596465","3.51333225454992","-0.150901386631164","1.0108153821655"
"4786","-0.997414392429986","-1.97492190504248","-28.9523186339709","2.40468501362733","-0.0535328193412119","1.00270384554138"
"4786","-0.999353598107496","0.32603761688972","-28.9885944756815","0.375631307779766","-3.30948364185352","2.75067596138534"
"4794","-4.49983839952687","2.62076729643031","-28.9972717647204","0.833035573014484","-2.46454411582683","2.18766899034634"
"4794","-3.37495959988172","2.14063354259819","-28.9993473980211","-0.77723529568351","1.12569395247851","-1.45308275241342"
"4807","-1.34373989997043","3.80531231269841","-27.2390468646335","-0.207842973860933","0.399344050686688","-0.363270688103354"
"4807","-1.83593497499261","3.1824418330089","-27.8179777507775","-6.9859271728425","3.43216144215119","-0.0908176720258385"
"4815","-1.95898374374815","4.81478389411747","-31.4780537996395","-4.79847632600111","2.50806451459271","-0.0227044180064596"
"4815","-1.98974593593704","4.18458760012103","-30.353554857163","6.18199772299764","-6.04599394901427","-1.75567610450161"
"4827","-1.99743648398426","0.494913786676265","-28.3237743404896","3.11832137353348","-4.08057750447026","-1.1889190261254"
"4827","-1.99935912099606","1.65902584219144","-28.8382448145552","-11.5616405464085","-0.0928461473749702","-1.04722975653135"
"4835","-1.99983978024902","5.46965716326133","-28.9613076793962","-7.48725606921199","-0.678183849788222","-1.01180743913284"
"4835","-1.99995994506225","4.33294778005023","-28.9907446820354","-1.19995148326397","2.40465813563638","0.74704814021679"
"4843","-1.99998998626556","-3.0183796735016","-28.9977861004642","-2.5186432745783","1.49830761591992","0.186762035054198"
"4847","-1.99999749656639","-0.683807650357705","-28.999470428658","-6.33645246956016","4.46726912921269","-3.45330949123645"
"4856","-1.9999993741416","3.39198894707831","-30.7606703559983","-5.35738502515238","3.52051909510326","-2.36332737280911"
"4856","-1.9999998435354","2.31535220687505","-30.181954607558","3.56736455236959","1.53940971544536","-0.340831843202278"
"4864","-0.24999996088385","-1.47546176306673","-30.0435240823446","0.953960353484114","1.83660391038256","-0.83520796080057"
"4868","-0.812499990220962","-0.334262800088646","-30.0104110897183","0.255101586243842","0.296788299925484","-0.958801990200142"
"4876","-6.20312499755524","1.69772553191432","-31.7632873946063","0.0682175302846149","0.750533075015884","-0.989700497550036"
"4876","-4.55078124938881","1.15806827111959","-31.182580610963","1.7508290725181","2.55674703419736","4.25257487561249"
"4884","-0.637695312347203","2.809262114259","-27.5220797621466","1.20078160135043","2.19750804857275","2.56314371890312"
"4884","-1.6594238280868","2.1833366523546","-28.6464770912128","6.2514520638825","0.424820364179829","2.14078592972578"
"4897","1.5851440429783","3.81498661358304","-32.4370303326923","4.60206799030036","0.795952918521781","2.03519648243145"
"4897","0.396286010744575","3.18463352579521","-31.343741922072","-2.76934629406778","-0.717632788256054","-1.49120087939214"
"4905","-3.40092849731386","1.2683762665514","-31.0822240883172","-0.740559741183167","-0.254582858810575","-0.372800219848035"
"4905","-2.35023212432846","1.83425216167884","-31.0196682460459","4.99972496767752","-3.38080687937793","-0.0932000549620087"
"4917","-2.08755803108212","-1.58445397977847","-27.4831106407774","3.53475284317929","-2.48984629544535","-0.0233000137405022"
"4917","-2.02188950777053","-0.358954760570368","-28.6371555616834","-0.322173643097952","1.11671791163028","-0.00582500343512554"
"4925","1.49452762305737","7.01248784604248","-28.9132065330824","0.646433321455949","0.396159767335453","-0.00145625085878139"
"4926","0.373631905764342","4.68247286907538","-28.9792387450266","0.905451604765191","1.78578546686786","1.7496359372853"
"4934","-5.15659202355891","-2.93919549002541","-25.4734397840998","0.974716511526796","1.27876027104777","1.18740898432133"
"4938","-3.53914800588973","-0.665868637938657","-26.6348422640537","2.72582566633521","-2.19160145154863","-2.45314775391967"
"4946","-1.38478700147243","3.39605299310926","-28.6734502164568","2.19409536061153","-1.42272497726211","-1.36328693847992"
"4946","-1.84619675036811","2.3162729080684","-28.1610912912262","-1.41326994898895","-2.79520957234173","-1.09082173461998"
"4954","-1.96154918759203","5.61855512191358","-31.5601275772067","-0.377927032775621","-2.28210350696526","-1.022705433655"
"4958","-1.99038729689801","4.36668030354385","-30.3731871484312","1.63152412937758","-2.10007725184664","4.24432364158625"
"4966","-3.7475968242245","-3.01073764031627","-28.3284704428486","1.168877885299","-2.03550277146469","2.56108091039656"
"4967","-3.18689920605613","-0.682076363600678","-28.839368136182","-0.687426629863515","4.56839061827968","-3.10972977240086"
"4975","-1.29672480151403","-0.154522984518124","-28.9615763812644","-0.183826951575049","2.91114597443755","-1.52743244310021"
"4975","-1.82418120037851","-0.0350068614287408","-28.9908089563201","-3.51433136203785","0.677986030932345","0.618141889224946"
"4987","-1.95604530009463","5.31242549472728","-25.4762074129928","-2.40495218815306","0.885764365614614","0.154535472306237"
"4987","-1.98901132502366","3.52387519637061","-26.6355042891018","1.35688405100091","-2.33101818771694","-3.46136613192344"
"4995","-0.247252831255914","4.89213491393906","-28.6736085748139","0.362848699628969","-1.47218357480755","-2.36534153298086"
"4996","-0.811813207813979","4.20211131311888","-28.1611291710154","1.82961733492556","-4.45800152999076","1.40866461675478"
"5003","0.797046698046505","-3.04802040353263","-35.0817307002359","1.22185062234709","-3.51723138035159","0.352166154188696"
"5007","0.199261674511626","-0.690522696226635","-32.7371591330453","-0.673261020989633","0.107002952505924","-3.41195846145283"
"5015","-1.70018458137209","1.61701559186487","-26.8939395601171","-0.180038880843767","-0.607286649979335","-2.35298961536321"
"5016","-1.17504614534302","1.13978360171559","-28.4962240899614","1.68444203238299","-4.15117617961299","-0.338247403840802"
"5024","-2.79376153633576","1.03166768484655","-28.879495306626","1.18302883082632","-3.40838396405035","-0.834561850960201"
"5027","-2.19844038408394","1.00717424827542","-28.9711749195708","2.78153112924398","0.145616971917518","0.79135953725995"
"5036","1.45038990397902","1.00162531105658","-30.7539019862162","2.2089917364395","-0.593588185231285","0.197839884314987"
"5036","0.362597475994754","1.00036821084652","-30.1803355934111","-1.40928646153151","0.789422418226462","-1.70054002892125"
"5044","-3.40935063100131","-0.773368658105914","-30.0431368093539","-0.376861795666486","0.28005049285672","-1.17513500723031"
"5044","-2.35233765775033","-0.175205064360309","-30.0103184528691","-5.29853823126052","1.74459527668292","0.706216248192422"
"5056","-0.338084414437582","-0.0396923436911457","-30.0024682045614","-3.61465945276985","1.26414790028679","0.176554062048105"
"5057","-0.834521103609396","-0.00899221808141375","-30.0005904018591","3.76597917085625","-0.551538904463259","-1.70586148448797"
"5065","0.791369724097651","5.31831905818399","-33.5217352879487","1.73965932800645","-0.19566044548317","-1.17646537112199"
"5065","0.197842431024413","3.52521037093959","-32.3640035988553","1.19779466428071","3.22108141888723","0.705883657219502"
"5077","-1.7005393922439","-0.427918831560408","-26.8046796484533","1.0528929031739","2.43318310359847","0.176470914304875"
"5077","-1.17513484806097","0.67650795236833","-28.4748728540819","-5.91620295885463","-1.13681938637583","-1.70588227142378"
"5085","0.706216287984756","-0.846738527489277","-28.8743880276126","-3.77983115115401","-0.403290839090782","-1.17647056785595"
"5085","0.176554071996189","-0.191826855989288","-28.9699532432674","-3.20853713986664","-5.07880791889347","-4.54411764196399"
"5093","-3.45586148200095","3.50344617493192","-30.7536097576174","-3.05576558289497","-3.73746471952049","-3.386029410491"
"5097","-2.36396537050024","2.34060261051481","-30.1802656914627","2.18284796161728","4.96461338650657","2.15349264737725"
"5106","1.40900865737494","3.85061488999732","-31.8039171196358","0.583722348108021","3.05170745199514","0.538373161844313"
"5106","0.352252164343735","3.19270503787006","-31.1922993618182","7.08644227732935","-2.5626419485379","0.134593290461078"
"5114","-5.16193695891407","-2.27669930015848","-25.7636074851703","4.82535539126038","-1.55435295190855","0.0336483226152696"
"5118","-3.54048423972852","-0.515781501141087","-27.4650482706828","2.48812411759943","-2.84190507822347","-3.49158791934618"
"5126","2.11487894006787","-0.116849228574382","-27.8720379580947","2.86311763472828","-2.29866890862405","-2.37289697983655"
"5126","0.528719735016968","-0.0264719502119044","-27.9693910996615","-3.96695136976449","-0.460707549622098","-0.343224244959137"
"5134","-1.61782006624576","8.86126321216711","-27.9926782601623","-1.79340194586804","-0.808684028936566","-0.835806061239784"
"5134","-1.15445501656144","5.87476116663003","-27.9982486180928","-1.21216614944288","2.35836271933633","-0.958951515309946"
"5146","-2.78861375414036","1.65127117570745","-31.5211751263191","-1.05673602794126","1.48188414750492","-0.989737878827487"
"5147","-2.19715343853509","2.69444828415529","-30.3638696065304","-1.01517196251619","-0.474296173653556","4.25256553029313"
"5155","-2.04928835963377","-2.3895783335762","-26.5654446281269","-1.0040571829743","-0.168258303951067","2.56314138257328"
"5155","-2.01232208990844","-0.541354011880426","-27.6568500959041","4.19667547006007","3.23080242891205","0.390785345643321"
"5167","1.49691947752289","-0.122642627806404","-24.3963234620693","2.58742000632272","2.43663166749235","0.84769633641083"
"5167","0.374229869380722","-0.0277844327836669","-25.6163958108683","-1.30808974871829","0.509650343397505","2.71192408410271"
"5175","0.0935574673451806","5.3140617209466","-31.1906318321591","-0.349800459346766","0.826046664202716","2.17798102102568"
"5175","0.0233893668362951","3.5242458800246","-29.5240056381605","-1.82612806329962","-0.706956921805764","2.04449525525642"
"5183","-3.49415265829093","3.11876681604255","-27.3645466733666","-1.22091754507259","-0.250795556104131","2.01112381381411"
"5188","-2.37353816457273","3.02690637567285","-27.8479976776309","-1.05907626660928","-1.73421698077075","-1.49721904654647"
"5196","-2.09338454114318","-2.31426064296265","-27.9636405931998","-1.01579777321599","-1.26046616181812","-0.374304761636618"
"5196","-2.0233461352858","-0.524290945394468","-27.9913027219436","5.92612268608399","3.84333769287778","5.15642380959085"
"5204","-0.255836533821449","5.20157920101835","-35.0411077094092","3.78248381710818","2.65393079481016","3.53910595239771"
"5208","-0.813959133455362","3.49876319859333","-32.7274419930314","-0.25592711180325","2.23198434342947","-7.36522351190057"
"5216","0.79651021663616","4.8864458429628","-28.6524122224114","0.664148518062086","2.08229729510143","-4.09130587797514"
"5216","0.19912755415904","4.20082246589692","-29.6776530026606","-0.822397922680592","-1.2612974114955","3.72717353050621"
"5224","-3.45021811146024","0.498591761822182","-29.9228936411996","-0.21992005625101","-0.447449874202698","1.68179338262655"
"5224","-2.36255452786506","1.65985907982708","-29.9815559300489","-3.52398313448487","-0.15873448093945","-0.579551654343362"
"5237","-2.09063863196627","-1.62396237051758","-28.2347910926724","-2.4075331994627","-0.0563116382231953","-0.14488791358584"
"5237","-2.02265965799157","-0.367905304492294","-28.8169597574892","-7.30674016935173","3.27051591840376","1.71377802160354"
"5245","-2.00566491449789","7.0104601188939","-30.717013261587","-5.61685275924186","2.45072017327637","1.17844450540089"
"5245","-2.00141622862447","4.68201349169844","-30.1715117009585","0.0328058469901804","-4.42109072492057","-4.20538887364978"
"5257","-0.250354057156118","2.38105666551019","-33.5626201701525","-1.45640089318283","-2.85889079801928","-2.55134721841244"
"5257","-0.81258851428903","2.85977967219378","-32.3737833840642","3.34312598839867","0.985798023309792","1.36216319539689"
"5265","-2.70314712857226","-0.578670775253889","-26.8070190021111","1.62658280737411","0.349715457670079","0.340540798849222"
"5265","-2.17578678214306","0.642355412411584","-28.4754324344223","-2.29761709895515","3.41455551709359","1.83513519971231"
"5273","1.45605330446423","0.918976360976393","-30.6353189119269","-1.34699993461112","2.50181874822512","1.20878379992808"
"5278","0.364013326116058","0.981644262744491","-30.1519701699722","2.37238124829109","3.82326837714468","-2.44780405001798"
"5286","-3.40899666847099","4.5427456968402","-28.2755546848158","1.36699285467338","3.29205747068939","-1.3619510125045"
"5286","-2.35224916711775","3.34950583563662","-28.8267105297556","-2.36703487765535","-3.47737689951046","0.659512246873876"
"5294","-2.08806229177944","4.85263189716995","-32.4801427062983","-1.36556316461881","-1.8788585245127","0.164878061718469"
"5298","-2.02201557294486","4.1931619866587","-31.3540545298376","2.36741719564102","-1.31177827897776","1.79121951542962"
"5306","-0.255503893236215","0.496856296150157","-31.0846908947125","1.36566540149296","-1.11060448585423","1.1978048788574"
"5306","-0.813875973309054","1.65946591368106","-31.0202583134595","1.09778375339673","-1.03923734626796","-2.45054878028565"
"5314","0.796531006672737","0.149400634017025","-32.7656428797613","1.02614866593698","-1.01391959223228","-1.36263719507141"
"5315","0.199132751668184","0.80729847906317","-32.1831440500054","1.0069924983091","-2.65018436540969","0.659340701232147"
"5327","-3.45021681208295","-0.817108205123472","-26.7614175074028","1.00186988631545","-2.23065528388438","0.164835175308037"
"5327","-2.36255420302074","-0.185114167955315","-28.4645244214989","2.7330868370486","4.49915955006636","0.0412087938270092"
"5335","-2.09063855075518","7.05187107149171","-27.111115620779","2.19603709347308","2.88658599954136","0.0103021984567523"
"5335","-2.0226596376888","4.69139505706067","-27.7873762174242","0.319836100774118","-4.26646572739498","-1.74742445038581"
"5347","-2.0056649094222","0.609729964162516","-31.4707338220065","0.818115198430824","-2.80403701408153","-1.18685611259645"
"5347","-2.00141622735555","1.68503720889895","-30.3518038967804","0.951361604049391","-2.28523507423878","0.703285971850887"
"5355","-2.00035405683889","7.24900205991106","-30.0841525366031","0.986993451128194","-2.10118818680125","0.175821492962722"
"5356","-2.00008851420972","5.50950674884891","-30.0201295366014","4.46169548675589","2.89984213761461","-1.70604462675932"
"5364","1.49997787144757","1.56852354544796","-26.4832209828478","3.3908766605604","1.67397595343727","-1.17651115668983"
"5368","0.374994467861892","2.67570198026345","-27.6371819558342","4.8371123815139","1.23909543683562","4.20587221082754"
"5376","-1.65625138303453","-0.620373194305803","-29.6740098776772","4.22385489670364","1.08481998152021","2.55146805270689"
"5376","-1.16406284575863","0.632907815929117","-29.1612251638518","-2.87048546590268","1.03009019896116","5.63786701317672"
"5384","2.45898428856034","2.69028810311083","-29.0385655378651","-0.76760569028602","1.01067460823846","4.40946675329418"
"5384","1.36474607214009","2.15638333706061","-29.009224991157","-1.93785469508711","1.00378685635119","0.602366688323545"
"5396","-2.40881348196498","3.80888039594503","-27.2414096142379","-1.25079472067069","1.00134340115386","1.65059167208089"
"5397","-1.35220337049124","3.18325017486283","-27.8185429274978","-1.06706581760029","1.00047657647738","-3.33735208197978"
"5405","-6.33805084262281","1.26806287126882","-27.9565949295179","-1.01793428457492","1.00016906725005","-1.58433802049494"
"5405","-4.5845127106557","1.83418116262803","-27.9896173782726","-2.73738266911655","1.00005997722589","5.85391549487626"
"5417","-0.646128177663926","1.96243408655186","-29.7583134770927","-2.19718585565252","1.00002127714045","3.71347887371907"
"5417","-1.66153204441598","1.99148952027672","-29.1813908351263","-2.05273009971336","2.64525388725062","-0.321630281570233"
"5425","1.584616988896","5.5449761195002","-25.5217951642341","-2.01410072444892","2.2289061787075","0.669592429607442"
"5425","0.396154247224001","4.35001113326098","-26.6464090145472","-0.271183915005601","-1.20928737331683","-0.83260189259814"
"5437","-1.650961438194","0.532390144771092","-28.6762170175162","-0.805104961979749","-0.428999122755639","-0.208150473149535"
"5437","-1.1627403595485","1.66751603333531","-28.1617531182542","0.784704309624915","-0.152189009317382","-1.80203761828738"
"5446","-1.04068508988712","1.92467644742557","-31.5602858881967","0.20984028674419","-0.0539896082029965","-1.20050940457185"
"5446","-1.01017127247178","1.98293560549897","-30.37322501689","1.78870086633963","-3.30964568937449","0.699872648857038"
"5454","-2.75254281811795","3.76958617235206","-28.3284795010964","1.21090901874517","-2.46460160277814","0.17496816221426"
"5458","-2.18813570452949","3.17434815006336","-28.8393703029418","1.05639985460457","-0.519572780335072","1.79374204055356"
"5466","1.45296607386763","1.26604613602674","-30.7223739305954","1.01508206533007","-0.829566685031296","1.19843551013839"
"5466","0.363241518466907","1.83372427544468","-30.1727939889009","-2.46114046626805","-0.939538157576749","-0.700391122465402"
"5474","-3.40918962038327","0.188878504199782","-24.7589417420577","-1.39072824075833","-0.978550940056025","-0.175097780616351"
"5474","-2.35229740509582","0.8162421086164","-26.4639322110779","2.36068772222245","-2.63763720656932","-0.0437744451540876"
"5486","-0.338074351273955","2.73182210660717","-30.3933650553947","1.36386585150391","-2.22620413335195","-0.0109436112885219"
"5487","-0.834518587818489","2.16579277934851","-29.3332970581017","-9.29821829866151","1.21024593379861","-1.75273590282213"
"5495","2.54137035304538","3.81101208556597","-32.6013197079161","-6.14940028902272","0.429339175595737","-1.18818397570553"
"5495","1.38534258826134","3.18373310472211","-31.3830404283948","-0.109604389558084","0.152309644307304","0.702954006073617"
"5507","-0.653664352934664","4.81507642904406","-25.8092333145988","-1.49448326957106","0.054032403907303","0.175738501518404"
"5507","-0.163416088233666","4.18465387330149","-27.4759621045436","5.06552906322119","-3.27132448512135","-1.7060653746204"
"5515","-7.04085402205842","-1.27852327478122","-29.6354456105925","2.81976292185328","-2.45100701527951","-1.1765163436551"
"5515","-4.7602135055146","0.483805281193805","-29.1520004766692","-2.97854499206249","1.13049628845555","0.705870914086225"
"5523","-0.690053376378651","4.42996130883916","-27.2755619342677","-1.52908903822527","0.401047696955379","0.176467728521556"
"5527","-1.67251334409466","3.32395476661999","-27.826712263846","7.52144863360069","0.142273138687565","0.0441169321303891"
"5536","-5.41812833602367","3.07339128000674","-31.4801431210979","4.9416818309344","0.0504719167961291","0.0110292330325973"
"5536","-4.35453208400592","3.01662664216127","-30.3540546290589","7.71699175684474","-3.2725875809586","-5.24724269174185"
"5544","1.16136697899852","-2.31658949525402","-30.0846909184465","6.45914625187407","-2.45145510315183","-3.56181067293546"
"5548","-0.45965825525037","-0.524818542047524","-30.0202583191367","-6.00532586713042","-2.16015535057187","0.359547331766134"
"5556","-0.864914563812592","1.65455552407369","-30.0048458500837","-2.33849018327528","-2.05681569692695","-0.660113167058466"
"5556","-0.966228640953148","1.14828819544303","-30.0011591417272","-1.3579299366879","1.2703371017333","2.58497170823538"
"5564","-0.991557160238287","2.80704645841311","-28.239480239107","-1.09571518803665","0.450656737407893","1.39624292705885"
"5565","-0.997889290059572","2.18283470012133","-28.8180814152383","2.43957810528405","3.45036480561579","1.09906073176471"
"5577","0.750527677485107","0.267968746328459","-23.6740934413085","1.38496218091099","2.51452222442234","1.02476518294118"
"5577","0.187631919371277","0.834159838818144","-25.4436362456271","-0.629642837935813","-2.75321037459691","-0.743808704264705"
"5585","-3.45309202015718","2.73588133119596","-25.8669161381298","-0.168374803143405","-1.62195779870357","-0.185952176066176"
"5585","-2.36327300503929","2.16671238825414","-25.9681659451194","-1.77761244887836","2.06985087220336","-1.79648804401654"
"5597","-2.09081825125982","5.58467249656386","-29.5139792616295","-1.20794382960186","1.37953351352355","-1.19912201100414"
"5597","-2.02270456281496","4.35900426509456","-28.3621483343324","-6.25336733822415","-2.15585177486031","-1.04978050275103"
"5605","-2.00567614070374","2.30787959563163","-35.12981508092","-4.60258015993179","-1.41004264858119","-1.01244512568776"
"5605","-2.00141903517593","2.84320155889245","-32.7486610596658","4.50179613792443","0.499782208400781","2.49688871857806"
"5613","-3.75035475879398","-0.582426512414281","-30.4182849171846","1.93642649427145","0.177299568079288","1.37422217964452"
"5617","-3.1875886896985","0.641504557952963","-30.8608520250992","-2.21476080862142","3.35339034906516","-2.40644445508887"
"5626","2.20310282757538","-0.85466847384422","-27.4451213292072","-1.32484306926843","2.48012018094791","-1.35161111377222"
"5626","0.550775706893844","-0.193623368877326","-28.6280684055669","-1.0868673231","2.17032439185981","0.662097221556946"
"5634","0.137693926723461","7.04994332968375","-25.3894387962888","-1.02322946843088","2.06042320155161","0.165524305389236"
"5638","0.0344234816808653","4.69095833115512","-26.6147489783733","-2.73879867115078","-2.91430366536816","0.0413810763473091"
"5646","-1.74139412957978","-1.16382105069393","-32.190237904937","-2.19756451328094","-1.67910623334995","0.0103452690868273"
"5646","-1.18534853239495","0.509790831995288","-30.5239114095994","1.41234225178889","2.04957725579827","-3.49741368272829"
"5654","0.703662866901263","2.66239620593103","-28.364524133615","0.377678954303153","1.3723413738843","-2.37435342068207"
"5655","0.175915716725316","2.15006448564441","-28.8479922860554","-1.63159046883457","-0.513156873619828","1.40641164482948"
"5667","-1.70602107081867","3.80744887327152","-28.963639303519","-1.16889562534516","-0.182044279528961","0.35160291120737"
"5667","-1.17650526770467","3.18292586637229","-28.9913024134481","0.687421885941087","-0.0645808746074993","1.83790072780184"
"5675","-2.79412631692617","-0.505462675655571","-27.2371224804384","0.183825682987595","-0.0229103016906721","1.20947518195046"
"5675","-2.19853157923154","0.658940555431515","-27.8175174323646","1.78174421802654","-0.00812751339692547","4.55236879548761"
"5687","-2.04963289480789","0.922733690704946","-26.1955525970018","1.20904871919171","-0.00288326513151495","3.3880921988719"
"5687","-2.01240822370197","0.982495477996123","-26.8075737928271","-5.87444483314023","3.28946982935358","-2.15297695028202"
"5695","-0.253102055925493","4.54293853788875","-32.2363621730443","-3.76866447733008","2.45744414257406","-0.538244237570506"
"5696","-0.813275513981373","3.34954952337592","-30.534944471472","3.72479619515778","-1.12821269398218","-3.63456105939263"
"5704","0.796681121504657","3.07918971902764","-30.1279603058072","1.72864645688602","-0.400237583455956","-2.40864026484816"
"5707","0.199170280376164","3.01794026648674","-30.0306084850587","-0.537737127548493","-1.78723208706506","3.14783993378796"
"5716","-1.70020742990596","1.23061225462842","-28.246524609466","-0.143798003469242","-1.27927346485865","1.53695998344699"
"5716","-1.17505185747649","1.82569680315723","-28.8197664495426","-6.96880070267192","3.83666573327263","-2.36576000413825"
"5724","0.706237035630878","-1.58639217849482","-28.9568875996236","-4.79389648188985","2.65156389271491","-1.34144000103456"
"5728","0.176559258907719","-0.359393855466807","-28.9896873858308","-0.747124785352058","3.87639101535336","2.41463999974136"
"5736","-3.45586018527307","7.01238837000504","-28.9975331920729","-1.66496463563189","3.3109029210702","1.35365999993534"
"5736","-2.36396504631827","4.68245033298556","-28.99940993222","-1.91040712270071","1.46504761032478","1.08841499998384"
"5745","1.40900873842043","2.38115563099712","-28.9998588540351","-1.97604168241193","1.81022368135934","1.02210374999596"
"5745","0.352252184605108","2.85980209261944","-28.9999662374661","3.2041671845813","0.287429817104303","-0.74447406250101"
"5757","-3.41193695384872","2.96823845506495","-30.7607889549372","1.58942338964056","0.747213118974668","-0.186118515625253"
"5757","-2.35298423846218","2.99280448791633","-30.1819829767763","-2.30755401758401","0.910322928530579","-0.0465296289063132"
