Timer,AX,AY,AZ,GX,GY,GZ
"1003","0","0","-25,9999685400381","-1,99998942005597","0,999998790001464","0"
"1012","0","0","-31,3163768234566","-1,99999616131609","0,999999596666992","0"
"1012","0","0","-29,5567467063124","-1,99999839608225","0,999999848750115","0"
"1020","-3,54696226362919","0","-27,3752935566378","-1,99999931407071","0,999999942380996","0"
"1024","-2,35045878314513","0","-27,8493722957375","4,28214514042842","-3,85454547534544","-3,31602001971065"
"1032","-0,305943531070649","5,07843490096087","-27,9636806447352","2,98085910367962","-2,70833334138599","-2,45013143407931"
"1032","-0,842762950210901","3,63847494030184","-27,9912426711235","-0,718652242143018","-0,652519896989564","-0,496011374367136"
"1040","-0,964378272748888","3,1961333911862","-27,9978884313579","-0,308926982048506","-0,867274570582208","-0,82761245990152"
"1040","-0,991929971624843","3,06025030398592","-27,9994908582055","-0,132799066509872","-0,949303406023443","-0,941035433297299"
"1053","-2,77162382733053","-2,05992033827615","-31,5176368912791","-0,0570866548600695","-0,98063562471021","-0,979831371689539"
"1053","-2,17480977656954","-0,632787851766544","-30,3659328685373","-0,024539982041357","2,24346451351337","-2,65105480978067"
"1061","1,50730135895537","1,49842316813962","-26,5704741406366","-0,0105490633257029","1,47496118009911","-2,22269107108644"
"1061","0,341475994453851","1,15311083637221","-27,6553124786494","1,56559274959659","-2,0546489501138","-0,418217299295788"
"1073","0,0773606778070309","2,73984373832048","-34,952408196768","1,2431327684879","-1,40284005273941","-0,801003216903699"
"1073","0,0175259009944023","2,2272729295106","-32,711885172761","1,10451609071415","-1,15387120811639","-0,931933830904963"
"1081","-1,76948161901385","0,377006521177188","-26,8950103919819","1,04492859307488","-1,05877357161044","-0,976718199645306"
"1082","-1,17432446372159","0,808622354066978","-28,49244454327","1,01931356657055","2,21361847078486","0,665916880158359"
"1089","-1,03949284544414","0,94121061518642","-28,8776181408805","1,00830237112152","1,46356100646514","0,22777459144235"
"1093","-1,00894702216761","0,981940462534643","-28,970491265057","1,00356896101959","-0,440969440139321","3,39381635996076"
"1102","-4,54893108032038","0,994452282593247","-30,751764676566","1,00153419819144","-0,168435338133208","2,47675011911431"
"1102","-3,35090712142623","0,998295794203798","-30,1812656282552","-6,84997799662217","1,55369741448959","-1,1528360921683"
"1110","0,467406870969701","2,69228603614163","-33,5614664551286","-5,22512716280058","1,21149359285208","-0,394323642661204"
"1114","-0,667562018997935","2,2126636576669","-32,3765010605195","0,183734028975468","-3,77331860218302","-3,45078389333739"
"1122","-2,69813894089096","-1,32029085947097","-23,2963828614578","-0,491145295104722","-2,67734743315146","-2,49623566907852"
"1122","-2,15816192806521","-0,405580740764552","-26,1069831978526","-5,49163986024356","-3,87675768602125","-2,16973571349716"
"1130","-0,262379181027706","3,26102857426494","-35,5790747739853","-4,64121495396328","-3,33489163616241","-2,05805752031064"
"1134","-0,832893534400452","2,38737593281573","-32,8629871257614","-4,27564067449833","-3,12791722246598","-2,01985837626727"
"1139","-0,96214237704939","2,11899818639108","-32,2080836043558","-4,11849034550471","-3,04886003123552","-2,00679248968717"
"1139","-0,991423434094375","2,03655510620248","-32,0501731545109","0,659446762839105","1,8354390950091","2,97153691204291"
"1151","0,775395078714148","-1,37438972431241","-28,4943381040219","-0,286649473509883","0,701075350013127","1,67435745816699"
"1151","0,17566414574325","-0,42219939529777","-29,6369545443915","-0,693350226690541","0,267786955030286","1,23066166228368"
"1163","0,0397963476256235","1,56311393044795","-28,1535825894168","-0,868179695705257","0,10228551507773","1,07889703272814"
"1163","0,0090157799569086","1,17298322063476","-28,795911688221","-0,943334076406367","0,0390695902029028","-0,630966959750927"
"1171","-3,54486164478103","-0,639670758820478","-32,468549846756","-0,975640877830628","0,014923255530979","-0,21582009069467"
"1172","-2,34998519925094","-0,196500747048864","-31,35409699191","-0,989528683285609","3,24176815388982","-3,38972736386405"
"1183","-0,305836344983913","1,63244639934274","-25,8087404442099","-0,995498668918745","2,4743132286387","-2,47535149198367"
"1184","-0,842738664698997","1,19428149282355","-27,4716431186089","2,14219000093254","0,563137543276389","-0,50463893217503"
"1192","-0,96437277088487","1,05968141884114","-27,8726024977846","1,49099606975218","0,833133389940361","-0,830563440870508"
"1192","-0,991928725188601","1,01833356179802","-27,9692818923301","-0,359061793863926","-2,2998053509551","0,715908615552374"
"1200","-0,998171469443481","-0,687177656819546","-29,7514730724059","-0,154350790535214","-1,49648146530586","0,244874093563632"
"1204","-0,999585750197552","-0,211094412333806","-29,1811953166098","1,5037763412345","2,0464289325373","1,74171176621146"
"1212","-4,54681030358497","5,01358246853189","-27,2848100181234","1,21655959461939","1,39970028541798","1,25369997300057"
"1213","-3,35042666385852","3,61855330082715","-27,8275532684259","-3,61728948967129","-0,465362065033261","-0,571176211851573"
"1221","-1,3059363578745","-0,19560543810287","-34,9939389256559","-2,69522827413283","-0,177752491767867","-0,195368869858266"
"1221","-1,84276132241178","0,632721429699067","-32,7218990692614","-3,86898701665205","-0,0678954102703392","-5,04068551368962"
"1233","-1,96437790394267","2,57998508328964","-28,6563047722467","-3,3735536202326","-0,0259337390431509","-3,6980095008741"
"1233","-1,99192988807219","2,17816587763643","-29,6760079753218","3,11992957683803","-0,00990580685911346","5,05101533724812"
"1237","-1,99817173289235","2,05473085579014","-29,9218789872235","1,91129942437689","-0,0037836815341895","3,0435893617245"
"1241","-1,99958580988135","2,01681279611596","-29,9811634479482","4,53199756316248","3,23462273975633","-4,27485750774693"
"1253","-1,99990616608827","0,312355178489102","-24,7188186438767","3,65856362056099","2,4715839233034","-2,77810723058019"
"1253","-1,99997874212205","0,788762079135313","-26,4499611586295","1,71297088791227","-1,05593894734591","2,7077113427938"
"1262","-1,99999518407187","0,935109728430452","-28,6262543676775","1,87661407837184","-0,403332787841353","1,58411682448089"
"1262","-1,99999890896148","0,980066328398172","-28,1510025609651","-4,33355021942715","1,46397457257175","-2,11611167778858"
"1274","-1,99999975282749","-0,69893298539581","-26,2775299356837","-3,00312906379202","1,1772225168067","-1,38176218231902"
"1274","-1,99999994400358","-0,214705536986901","-26,8257978936945","2,27916490651481","2,68572696659826","3,84327981106332"
"1282","-1,99999998731413","3,31966361364766","-30,4757560137657","1,54987781468136","2,26192439423817","2,63048755541237"
"1282","-1,99999999712604","2,40538805683901","-29,3558345441402","1,23637735020621","-1,13602176138354","2,21565611208022"
"1290","-1,99999999934891","5,510150442609","-29,085798886552","1,10161212218188","-0,433921700888988","2,07376443559958"
"1294","-1,9999999998525","4,46390379118787","-29,0206878422986","-2,09657474562695","-1,78377733003332","2,02523087292467"
"1302","-1,99999999996658","-0,935921842153747","-27,2461084282807","-1,47138732597268","-1,29937630046109","2,00863013379505"
"1302","-1,99999999999243","0,405303301790937","-27,8182215344193","1,9376185547963","2,12171640614986","-2,97090835216049"
"1310","-1,99999999999828","-0,875494697099885","-31,4739292007127","1,40305643102797","1,42845754141086","-1,67414246140887"
"1313","-1,99999999999961","-0,268943608325432","-30,3553940626623","-3,53711962859471","2,78169020683263","-1,23058812337784"
"1322","-0,226547924490944","1,61019264432438","-24,809053194133","-2,66076545562712","2,29857909033713","-1,07887187899691"
"1322","-0,824776037600143","1,18744535184719","-26,4717185289242","0,856210104992473","2,11404706417876","-2,68493127644152"
"1330","-2,73375545050619","7,82881962916661","-30,3903803363656","0,368061177291144","2,04356210219914","-2,23427840066234"
"1330","-2,16623077439616","5,86898636952347","-29,3352487461052","3,29847438046924","3,63467323116857","1,23577271421876"
"1338","-2,03765923692599","5,26694431226075","-29,0808352353852","2,55817842649976","3,24242360255668","0,4226918305928"
"1339","-2,0085316219635","5,08200274290544","-29,0194910058746","-0,900309447543151","-1,76150438974823","0,144580295060846"
"1351","-2,00193282124837","-1,7460477481955","-29,0046996746925","-0,387018271866792","-0,672834805551682","0,0494531954652768"
"1351","-2,00043787664223","0,156440361683464","-29,0011331863711","-3,30662351408358","1,36103396184308","1,67486871635055"
"1363","-0,226647124535512","0,740866536692841","-30,7591530619093","-2,56168151492924","1,13790270233102","1,23083653639687"
"1363","-0,824798511164349","0,920396675284783","-30,1830471170013","0,898803566166619","-2,1833938323498","1,0789568478205"
"1371","-0,960308466336545","0,975546619009197","-28,2852565245527","0,386370934876636","-1,45201622188063","1,02700691976694"
"1371","-0,991007965428678","0,99248815493548","-28,827660930133","-2,97416476327176","2,0634131442077","2,66719104451352"
"1379","-0,997962873230915","-0,695117118935393","-27,1995657459833","-2,41876664098528","1,40618767700395","2,22821041500243"
"1383","-0,999538493158539","-0,213533339258975","-27,8069991548498","-2,18001626235497","2,77318387555404","-1,23784824796141"
"1387","-0,999895446582929","-0,0655954021747035","-27,9534636029858","-2,0773840405148","2,29532996090827","-0,423401759811207"
"1388","-0,999976313640364","-0,0201502809884066","-27,9887791359391","1,10698973163318","-1,12326197032901","1,51313029604803"
"1400","-0,999994633904386","6,76504823368888","-31,5150540789584","0,475864442031664","-0,429047894395505","1,17551446287296"
"1404","-0,999998784322176","4,84939640596967","-30,3653101003859","-1,36556646448235","-0,163881712857507","-2,25587271816871"
"1412","-4,54690387560865","2,56811691069423","-30,0880836343055","-1,15714696954753","-0,0625972441770171","-1,42956696820247"
"1412","-3,35044786240627","2,86732964026237","-30,0212387410703","0,502574340775521","-0,0239100196735441","-1,14693191236747"
"1420","0,467510915147477","-0,426374171027222","-30,0051210889038","0,216042887678585","-0,00913281484361518","-1,05025755812255"
"1420","-0,667538448005405","0,561831479220838","-30,0012347978383","3,23312589845725","-0,00348842485730144","0,640762994093626"
"1432","0,848770550086411","2,5582083676353","-21,2058985955854","2,53008691124752","-0,00133245972828915","0,219170790739446"
"1433","0,192287206491188","2,17147627859608","-24,0851656160855","0,657742283848055","3,23555902317222","-1,58298680055522"
"1437","0,043562267536757","2,05267587486322","-24,779414975831","0,852872820340084","2,47194155174517","-1,19940864133249"
"1441","0,00986894129657535","2,01618152560414","-24,9468125009913","0,936754071645031","0,562231643313393","2,24769979614401"
"1453","-3,54466836285027","0,312161258217695","-26,7460552488974","0,972812314742062","0,832787366944904","1,42677144817507"
"1453","-2,34994141163069","0,788702508680241","-26,1798889700726","-0,581814739443616","-2,29993751997847","-0,511977705667407"
"1461","-0,305826424989426","2,62790098083951","-34,8377739985198","-0,250106155856266","-1,49653194938053","-0,175120223275093"
"1461","-0,842736417344835","2,19288518367666","-31,9253647273249","-1,67764125941804","-2,80769231691302","1,59805414650478"
"1469","0,80907981375752","2,0592524860086","-20,6698451354869","-1,29129934144453","-2,30851101260862","1,20456237548466"
"1473","0,183295352554357","2,01820179772898","-23,9559123134869","-2,69534907703848","5,97232922283663","1,06996986093732"
"1482","-3,5053789693279","2,00559141840089","-33,5426485363351","-2,2989114452525","4,13532873736903","1,02393295163878"
"1482","-2,34104048107368","2,00171763032417","-30,8542040250671","-0,558366308630261","1,81562300052057","-0,649767235712031"
"1490","-2,07726201315467","2,00052763962898","-30,2059658216041","-0,810153821557141","1,92957425294258","-0,222250660790784"
"1490","-2,01750354872219","2,00016208585407","-30,0496625143691","2,22186465359896","-1,26296821919262","-0,0760200784328739"
"1502","-2,00396539263424","3,69285934310999","-31,7708544618321","1,52524601178121","-0,482410933020654","-0,0260024078415695"
"1502","-2,00089835147108","3,21283977209142","-31,1858685605655","-5,05472118944112","-0,184264579869341","1,64905938529535"
"1510","-0,226751444152268","3,0653823449657","-31,0448166593271","-3,8832681319469","-0,0703828065873685","1,22200854297658"
"1510","-0,824822144557009","3,0200848318489","-31,0108062006136","-0,239437676456461","-1,64491782864266","-0,582016157107534"
"1523","-2,73376589594157","-0,379449235271687","-29,2437257651362","-0,673055173520541","-1,24633669059072","-0,199076636060779"
"1523","-2,16623314078786","0,576246371263402","-29,8176470262716","-2,42958291173319","-1,09409224312949","-1,72604690249854"
"1531","-2,03765977302712","0,869826932897558","-24,6793915361272","-2,18466587968857","-1,03594003879775","-1,24834185994093"
"1531","-2,0085317434161","0,960012077184146","-26,4404544876203","-2,07938278313625","0,604306115486146","-1,08494448387106"
"1539","-2,00193284876321","0,987716092070964","-26,8650822897104","-2,03412447534479","0,230824396506289","-1,0290549702005"
"1539","-2,00043788287566","0,996226500818662","-26,9674686184644","-0,444541672238656","0,0881670740327198","0,648015266780144"
"1551","-2,00009920145665","4,38445992086321","-30,5099156833155","-0,761223740691769","0,0336768255918707","0,221651405809314"
"1552","-2,00002247388411","3,42529286348883","-29,3640711295438","-4,03761165526107","0,0128634027428923","-3,2400917346243"
"1559","3,3203511351151","-1,9477827503358","-32,6055445490755","-3,44604071498287","0,00491338263680624","-2,42416913675159"
"1563","1,52567073375074","-0,598340255908572","-31,3871291781215","3,08876936829034","1,61991073391742","1,17082123736008"
"1572","-2,42781453732103","1,50900514054536","-24,0578253428204","1,89790450766682","1,23678483036556","0,400475400065393"
"1572","-1,3234684199882","1,15636151721755","-26,2905823400666","2,95611195559926","-2,14562422032052","0,136981240978475"
"1580","-2,84673317469569","6,12646142019372","-25,0700652638704","2,41100623544159","-1,43758951382734","0,0468539650049395"
"1584","-2,19182564332501","4,65322863657102","-25,7757739763049","2,17668027743256","0,450889667588392","0,0160262384907803"
"1588","-2,04345770135944","4,20066559759056","-25,9459345825586","2,0759499923404","0,172224527842624","0,00548172006651501"
"1588","-2,00984525204613","4,06164255484534","-25,9869637372374","2,03264881298768","0,0657839159394798","3,31778184354163"
"1600","-2,00223042141714","-1,05949265160557","-31,2734961775272","2,01403482682035","0,0251272199758153","2,45074277280891"
"1601","-2,00050529734279","0,367343529461356","-29,5481857897841","-5,84460432015747","3,24566572148776","0,496221603942388"
"1613","-2,00011447406426","-0,887155576572196","-29,1321786520214","-4,2228171670712","2,47580196698766","0,827684322535544"
"1613","-2,00002593386167","-0,272525719115959","-29,0318709393344","-3,52565547112762","-5,90842976427424","2,59901343180784"
"1621","-0,226553799753566","3,30190180598928","-29,00768472638","-3,2259648308571","-4,11092131606092","2,20489049574185"
"1621","-0,824777368628696","2,39993179918508","-29,0018529425479","-3,09713606647096","-0,188266206408716","0,412128673379034"
"1633","-0,960303676538974","0,430045676723721","-23,723807298377","-3,04175612361296","-0,689945280665021","0,798920623231656"
"1633","-0,99100688030998","0,82491547602702","-25,4511640238616","-3,01794980919577","3,97253233066334","0,931221486861844"
"1637","-0,997962627399527","0,946215706622536","-25,8676645749329","-3,00771612933113","2,75344030640535","0,976474544801552"
"1641","-0,999538437465948","0,983477978815766","-25,9680912595218","0,136938050696643","-2,56631337769698","-2,32395364143447"
"1650","-0,999895433965888","2,68773414479248","-33,0278254702673","-0,511261599219057","-1,59827847324659","-1,4528538151708"
"1654","-0,999976310782","2,21126536012358","-30,7300697987328","-3,93015980491241","-2,8465560307927","2,16100974120753"
"1662","-0,999994633256829","0,37208914876394","-31,9349143833929","-3,3998501195778","-2,32335563038161","1,39711941136144"
"1662","-0,999998784175473","0,807111784231798","-31,2254267171006","3,10862543495603","2,73059110589756","-0,522120083450428"
"1670","-0,999999724557477","0,94074658256184","-24,0188356175765","1,90644008465982","1,6610269818246","-0,178589388909147"
"1674","-0,999999937599068","0,981797916144758","-26,2811811308024","-3,3207288395763","-0,365544149173657","1,59686753026409"
"1682","-0,999999985863198","2,6872180455877","-30,344437926123","-2,56774500644453","-0,139625440595675","1,20415649745773"
"1683","-0,999999996797337","2,2111068193776","-29,324171104237","0,896197037917771","-1,67136616136326","-0,588122388223797"
"1691","-0,999999999274443","2,06484999844498","-29,0781641924706","0,385250460065232","-1,25643905474422","-0,201165251530969"
"1691","-0,999999999835627","2,01992130008265","-29,0188469635471","-1,40451892333227","0,520082985880498","-0,0688078863070232"
"1703","-2,77345207547173","0,3133100812156","-27,2456645552792","-1,17389156036593","0,198654023635818","-0,0235355021904037"
"1703","-2,1752239623914","0,789055416131774","-27,8181145076847","0,495376301679806","0,0758790850269577","1,64990318193658"
"1711","1,50720752601707","0,935199838753844","-29,7150235665916","0,212948648626385","0,0289832314450546","1,22229716073196"
"1711","0,34145473679643","0,980094009428794","-29,1724066054919","1,66166826893767","0,0110706093082061","1,07603598357872"
"1723","-3,46954828908907","0,993885069836235","-25,523811054769","1,28443299211417","0,00422859647956378","1,02600784814231"
"1723","-2,33292311483248","0,998121551862794","-26,6440610673504","-0,447857580198399","-1,61641880861941","-0,649057524459081"
"1732","-2,07542304068039","0,999422958674969","-28,6730557710891","-0,192521657085599","-1,2354510335879","-0,222007906483904"
"1732","-2,01708693332494","0,999822738416782","-28,1622873234142","1,4873677354509","5,3822016628553","-1,73389046512251"
"1740","-2,00387100928068","0,999945546934818","-28,0391307473648","1,20950598625013","3,9099200671542","-1,25102472371171"
"1740","-2,00087696911822","0,999983272538506","-28,0094352125423","1,09006086181317","3,34755853860732","-1,08586214824854"
"1752","1,54670547548436","0,999994861483608","-31,5200346757056","1,03871468770752","3,13275554866775","-1,02936885416243"
"1752","0,350402915269896","0,999998421496847","-30,3665110227312","-3,69374012419609","1,43267411864605","-1,01004551612566"
"1760","-1,69406902231897","2,69280906698275","-28,3294933730917","-2,7280922994273","1,78330079602028","-1,00343603443542"
"1764","-1,15723989645988","2,21282432774537","-28,8383273266696","2,39739564766136","1,91722826941479","-1,0011752838275"
"1773","2,51128177882777","2,06537760061012","-34,2376569406184","1,60070195880751","1,9683840122241","-1,00040200181376"
"1773","1,34237775031454","2,02008337442818","-32,5395442268097","-0,311902249207733","-7,72028016524186","-1,00013750334556"
"1781","-4,24279125780124","0,313359868906433","-23,3356958577871","-0,134078199233777","-5,42102057545032","-1,00004703254909"
"1785","-2,5080997045215","0,789070710434831","-26,1164623542965","3,08261847195992","-2,92474757235919","0,65793733264753"
"1789","-2,11510893349385","0,935204537017653","-26,7869612507373","2,46538790773815","-2,97125613037715","0,225045214506084"
"1789","-2,02607768997341","0,980095452690559","-26,948632060096","-4,08045254219677","-1,37098683002237","1,734929365944"
"1801","-2,005907846539","4,37950461696015","-30,5053738091184","-2,89432933285228","-1,75973834843986","1,25138007618469"
"1801","-2,00133841037162","3,4237706414623","-29,3629759920553","0,75580741747113","4,56390773970237","1,08598369534663"
"1813","1,54660093692613","1,43736874136543","-30,8464006615193","0,324900823124774","2,97932561254739","1,02941042893165"
"1814","0,350379232276499","1,82716505153589","-30,2040842732419","0,139665928683728","-0,861998879559998","1,01005973663328"
"1822","-3,46752646316093","-1,43871234903651","-28,2903290072876","0,0600385417540076","-0,329254273727592","1,00344089851142"
"1822","-2,33246507436477","-0,441958691210773","-28,8288840080435","1,59593641921178","-0,125763941622779","-2,31472989237213"
"1834","-0,301867197054128","4,94266316724967","-28,9587404825561","1,2561766776248","-0,0480375511407439","-1,44969886334897"
"1834","-0,841839462473506","3,59676756888618","-28,9900514980497","1,11012330853295","-0,0183487117994529","0,504135461718246"
"1838","-0,964169058486987","3,18332129690733","-28,9976012154968","1,04733898181007","-0,00700858425761476","0,172437810552522"
"1842","-0,991882574567667","3,0563145513462","-28,9994216046676","-3,69003277734024","1,6153569477765","0,0589817633673347"
"1850","2,54874313690184","3,0172992922635","-34,276500020667","-2,72649861297063","1,23504543883723","0,0201745104439299"
"1854","1,35086454323484","3,00531417734252","-32,5489100769592","-2,31230177409867","2,70781335748508","0,00690062230112377"
"1863","-0,693964441461621","-0,383986639248472","-23,3379541531878","-2,13424994399696","2,27036064486812","0,00236033425817747"
"1863","-0,157216203883708","0,57485252410249","-26,1170068748724","-2,05771035888349","-2,7508333891304","1,65876076423083"
"1871","-1,80906908019518","4,25501786013128","-28,5459723734487","-2,02480809617721","-1,66875884600964","1,22532686646304"
"1875","-1,18329292088809","3,38552949884751","-28,1316449526934","-2,01066431829302","0,362590839851368","-0,580881135907558"
"1883","-1,04152463080109","1,42562142762912","-31,5495019092933","-2,00458429715212","0,138497376813853","-0,198688405941066"
"1883","-1,00940731892324","1,82355638896507","-30,3736161671676","-2,00197066327181","3,28896926808998","3,24794615019646"
"1891","-1,00213120857709","1,94579820805895","-30,090086394558","-2,00084713394486","2,4923424499563","2,42685571273618"
"1891","-1,0004828208798","1,98334972724493","-30,0217216469672","2,71001834415373","-2,66604388447077","0,488051116737541"
"1904","0,773342693440749","0,302075643367269","-28,2463576994405","1,73508985851575","-1,63637213711893","0,824889635329948"
"1904","0,175199182119306","0,785604304134812","-28,8182816387242","-0,25413258695791","-4,47914050438581","-2,37580274130337"
"1912","-5,28066521544525","4,31975879388069","-34,2328235208894","-0,109244610170298","-3,56498139853872","-1,47058862245858"
"1912","-3,51667997101801","3,40541729529745","-32,5383787918125","-1,61708875479572","1,63829827501934","2,15494361102725"
"1924","-1,34360069955125","-1,95388833503507","-28,612054331349","-1,26526948497675","0,625774257347067","1,39504451227926"
"1924","-1,85129410084597","-0,600215833208353","-29,6653383013934","0,456095444896443","1,85705848577175","-2,18078321555549"
"1932","1,58059316383085","3,201238532998","-31,6781861414251","0,196062888567741","1,32736721121829","-1,40388286063747"
"1932","0,358080100730593","2,36900900324605","-31,163524359193","-1,48584545742501","1,12504314788312","-2,79610017118384"
"1941","0,0811223036220555","2,11335604106605","-31,0394290216448","-1,20885160079135","1,04776223243107","-2,27230334091465"
"1941","0,018378089515508","2,03482189305175","-31,009507132488","0,480347941745609","1,0182435494101","1,22276641344962"
"1953","0,00416351803584872","2,01069695293082","-27,4845327057897","0,206488369989304","1,00696841579922","0,418243069895873"
"1953","0,000943236369602505","2,0032860017643","-28,6345902650814","3,22901867406377","9,09283164173703","-1,51489480829101"
"1961","0,000213688241837903","0,30819987647064","-34,188531825248","2,52832132843455","7,18135656566241","-1,17611800825109"
"1965","4,84106276765147E-05","0,787485610046204","-32,5276991705331","0,656983308352489","3,2151700777504","-1,06024056240396"
"1973","-1,77344110818174","0,934717609318962","-23,3328397757781","0,852546557647312","3,70022164508859","-1,02060507834935"
"1974","-1,17522147777462","0,979945873152598","-26,1157736953107","-0,633513680960422","-0,968607108734314","-1,00704789658064"
"1981","-2,81314813762506","4,37945866755486","-28,5456750289804","-0,272330109029009","0,248058994958152","-1,00241070892181"
"1982","-2,1842170228827","3,42375652624389","-28,1315732569441","1,45306027679234","-0,905249895141125","0,657128845227943"
"1990","-2,04173398418999","3,13017395718901","-28,0317249663691","1,19475815327069","-0,345774691631631","0,224768674149217"
"1990","-2,00945474749898","3,03998819624194","-28,0076495293534","2,65384867524556","1,48595980899613","-1,5810720636795"
"2002","-0,228689877913514","-2,06614466372861","-29,7607242836512","2,2810715638345","1,18562012987011","-1,19875371213249"
"2002","-0,825261292702382","-0,634699905123596","-29,1834259702582","-2,58955756826528","-0,547133408135681","-1,06798302750317"
"2014","-4,50731745955142","1,49783580360965","-30,803107529348","-1,6833070837828","-0,208986365527262","-1,02325336205754"
"2014","-3,34147964201047","1,15293040359911","-30,1936454257583","3,41664758021768","-0,0798256884461048","0,649999687004119"
"2022","0,469542646864525","4,43259786297989","-31,8055716462178","2,60897783516133","-0,0304906998110522","0,222330169960267"
"2023","-0,667078163401785","3,44008037949904","-31,1942395740423","0,691655322439859","-1,62968039973695","0,0760472742723763"
"2035","-2,6980293244099","3,13518848898544","-25,7701955960888","0,867451102979868","-1,24051651064989","0,0260117100854624"
"2035","-2,15813709467894","3,04152861251158","-27,4623491781932","0,94302087443093","3,76223283403695","3,32480405641566"
"2039","-2,03582563058456","3,01275719308708","-27,8703615412713","0,975506240914832","2,67311304651106","2,45314469670672"
"2039","-2,00811622225251","3,00391888786112","-27,9687415525097","4,12972580907111","-0,978961672003553","2,15499659376722"
"2051","-0,228386637797046","-0,384415258849513","-31,5102226133917","3,48563805645176","-0,373930085021931","2,05301605481436"
"2055","-0,825192594283374","0,574720856255175","-30,3641451365766","-7,7821300639085","3,09323939443755","-2,95572629967436"
"2063","0,813054330459732","4,25497741302626","-31,8466825658476","-5,62583370118323","2,41758029083479","-1,66894949227815"
"2064","0,184195771064098","3,38551707388319","-31,204152246062","4,72186381179342","-1,07656649943297","-4,54471872598668"
"2072","-5,27862705689231","3,11842716268261","-29,2903453969058","3,17005439804247","-0,411211811633898","-3,52836575733189"
"2072","-3,51621823042806","3,0363796931736","-29,828887959911","2,50297420776408","1,46096505328117","-1,52277228033019"
"2084","-1,34349609317894","1,31836594236448","-22,9232221241655","2,21621477950013","1,1760729827275","-1,83676589059147"
"2084","-1,85127040248944","1,79060852838371","-25,2581267888081","2,09294478753117","1,06725389490133","3,0296939287777"
"2088","-1,9663056183736","1,93567694000249","-25,821119403579","2,03995440806214","1,0256887019765","1,69424986684587"
"2092","-1,99236660777553","1,98024057037516","-25,9568682797907","-4,26333470375596","-0,60822177772174","-2,07844104729935"
"2104","-3,77172274634369","1,99393009195903","-31,2662395556457","-2,97294534461917","-0,232320046391821","-1,36887707199261"
"2104","-3,17483218646668","1,99813538222887","-29,5464360718666","3,86226755854378","-1,70677235020362","-1,12617314092652"
"2112","-1,26615579346929","1,99942720723132","-34,408396243185","2,80053760873887","-1,26996301546914","-1,04315709134555"
"2113","-1,8337491181107","1,99982404353271","-32,5807129168431","-0,796125900278164","0,514917292546098","2,30114510444141"
"2121","-0,188884132254207","0,307136395970121","-25,1045022872329","-0,342232630074985","0,196680904357536","1,44505223309684"
"2125","-0,816243383640448","0,787158918994687","-27,3018370929404","-1,71724389709179","0,0751254205265116","-0,505724825704652"
"2133","-2,73182239546122","2,6274268048323","-29,590538667454","-1,30832342625857","0,0286953572219984","-0,172981447068495"
"2133","-2,16579284478779","2,19273952133652","-29,1423907851776","-2,70266726291649","-1,60707333761041","-1,7171211323485"
"2141","-2,03756002488214","2,05920773992906","-29,0343332906394","-2,30205733210222","-1,23188138130334","-1,24528883078698"
"2141","-2,00850914568088","2,01818805216075","-29,0082784489506","-2,12984614011761","-1,0885708062996","-1,08390020569022"
"2154","-0,228475653784227","0,312777644009778","-29,0019961010364","-2,05581728470586","-1,03383103759546","-1,02869777842015"
"2154","-0,825212760670517","0,788891856507923","-29,0004813002256","5,82664319058216","0,605111682263103","0,64813744300703"
"2162","-0,960402313702388","6,01357825045123","-32,517875706826","4,21509617142023","0,231132095634879","0,221693195769881"
"2165","-0,991029226354629","4,61855200507306","-31,3659904517832","3,52233642743427","-3,14778337285826","-1,58212402054111"
"2174","0,775484385659406","-2,58122493991384","-25,8116081973023","3,22453806525117","-2,43841423670986","-1,19911353037934"
"2174","0,175684378046341","-0,792927645980729","-27,4723345917283","3,0965227391748","2,68664262897836","-1,06810610210393"
"2182","-1,73365114429707","-0,243579798892509","-26,1138893980858","3,04149247107561","1,64424015739526","-1,02329545930382"
"2182","-1,16620714404097","-0,0748253875738328","-26,7863408590927","-0,122418530272192","-0,371956145542489","2,3079387077551"
"2190","-1,03765388351806","-0,0229856443392707","-26,9484824711558","0,517503141744619","-0,142074605272828","1,44737596187636"
"2191","-1,00853040916004","-0,00706097038481915","-26,9875780845746","0,792587869901027","-6,52640362527557","1,1530234177474"
"2203","-2,77538462199924","1,6906404892272","-30,5147644812466","0,91083922936256","-4,96500031555432","1,05234113670498"
"2203","-2,17566177679619","1,21215816137286","-29,3652402725358","-0,608455264511169","3,7215726223621","1,01790310680482"
"2211","1,50710834007235","2,75798251254747","-30,8469466252186","-0,261558184935161","2,03954823889114","1,0061236964545"
"2215","0,341432266426516","2,23284498769367","-30,204215916103","-0,112436670527518","-3,45702987193836","-2,31381225051079"
"2223","-3,46955337970474","5,45714685987891","-30,0492405768534","-0,0483334325111925","-2,55653588845655","-1,44938498708861"
"2223","-2,33292426810089","4,44762159685725","-30,0118728963693","-0,0207772134069218","2,6415241728184","0,504242822019657"
"2231","-2,07542330195095","0,751885975157359","-24,7262233113677","-0,00893155264436901","1,62700644066207","0,172474532776451"
"2235","-2,01708699251525","1,61659129340853","-26,4517465733299","-3,14409443134591","-0,378538839582077","3,37490116401863"
"2239","-2,00387102269012","1,88222050761053","-26,8678050393611","-2,49181473201267","-0,144588970658409","2,47028024103171"
"2239","-2,00087697215611","1,96381926495399","-26,9681251283289","0,928837374718833","-4,90933003864284","0,502904328130437"
"2251","-2,0001986762218","0,296076071904199","-28,7511941532707","0,399281643206062","-3,72929917902041","0,829970125489349"
"2255","-2,0000450096857","0,783761293088566","-28,18112806358","0,171640197671409","-1,66053350966851","-2,37406497701948"
"2263","-0,226558121341908","0,933573534723819","-31,5614332855105","0,0737834006595597","-1,87033533873501","-1,46999422612838"
"2263","-0,824778347675565","0,979594424365038","-30,3764930626555","-3,10853754768486","-5,1865404840363","0,497193502289084"
"2271","-0,96030389834001","0,993731602076628","-30,0907800720934","-2,47652980558541","-4,45321813587412","0,170063337071071"
"2271","-0,991006930558544","0,998074408032949","-30,021888906614","-0,634719557011078","2,29902203141353","1,71612300280373"
"2283","-0,997962638783235","0,999408476540753","-24,7286383734825","-0,842975983226553","0,878148275115142","1,24494742398976"
"2284","-0,999538440044903","0,999818289643483","-26,4523288935229","-4,0727546960382","1,95345678268179","-2,23212341127736"
"2288","-0,999895434550145","0,999944180314154","-26,8679454485062","-3,46114774173554","1,36418808418032","-1,4214435990022"
"2292","-0,999976310914362","0,999982852725691","-26,9681589838062","1,51214777170498","-3,71499449639051","-2,80210676168429"
"2300","0,773457442222153","0,999994732521121","-28,7512023165092","0,650030741107414","-2,65506960710217","-2,27435787465297"
"2304","0,175225178217571","0,999998381880803","-28,1811300319014","0,279430338946459","-0,632180336166093","2,88001708718097"
"2312","-3,50720725057417","2,69280905481308","-26,2847942766633","0,120119418030462","-0,859505390146008","1,64305341506803"
"2312","-2,34145467439541","2,21282432400696","-26,8275494728424","-1,51849146686889","-2,56436982302183","1,21995422140057"
"2320","-2,07735584779204","-1,32024150430597","-33,9939380104642","-1,22288522244532","-2,21557009016958","1,07523458919321"
"2324","-2,01752480676453","-0,405565579329299","-31,7218988485902","-2,66593972875427","4,38979550751268","1,02573373393349"
"2333","-0,230518133090643","3,26103323171303","-25,897424891222","-2,28626917521885","2,91282065770804","1,00880213568335"
"2333","-0,825675480118201","2,38737736353929","-27,4930267277425","2,58732325807194","-4,12346948938814","-2,31289609953274"
"2341","-0,960507141832883","2,11899862589569","-27,8777585173008","1,68234661527699","-2,81109317087289","-1,44907162077977"
"2341","-0,991052974950021","2,0365552412141","-27,9705251126436","-1,84693295796778","-0,691776034480622","2,16230342786399"
"2353","-0,997973070044558","0,318419869045711","-27,9928930100855","-1,36407318691834","-0,882268921318873","1,39756191245791"
"2353","-0,999540803225506","0,790625094145084","-27,9982863613681","-1,15650505058975","2,28103724802379","1,13598469250638"
"2361","-2,77334804543277","0,935682028846151","-27,999586807158","-1,06727721716456","1,48931268789046","1,04651309900822"
"2362","-2,17520039460199","0,980242133619327","-27,9999003708708","3,68146187828767","-3,6672011506021","1,01590964644236"
"2370","-0,266239210258122","2,68674012405655","-31,51773563304","2,72281421917834","-2,63681417344707","1,00544184015509"
"2374","-0,833768016011077","2,21096000644827","-30,3659566771678","0,740590453286319","-0,625207380989215","-2,31404547712607"
"2382","-0,962340489043283","3,75761445079928","-28,3293597091941","0,888486969953667","-0,85684195827047","-1,44946476145474"
"2382","-0,991468315955409","3,23273192264031","-28,8382950976076","2,52219111637687","0,672715494927699","0,504215535470548"
"2390","-0,998067164687285","3,07149302360681","-28,9610096860922","2,22447560002382","0,256954454303674","0,172465199505647"
"2390","-0,999562120171521","3,02196197395896","-28,9905986487971","2,09649588709144","0,0981478679833217","0,0589911316650816"
"2402","-2,77335287474265","1,31393695673812","-25,4799734889464","2,04148092810344","0,0374891496462913","0,0201777148381349"
"2402","-2,17520148867212","1,78924798630445","-26,6334909459311","-1,12242349227848","-1,60371440779434","1,6648551383233"
"2411","-2,03969153362641","1,93525899447148","-25,1527474459597","-0,482498991285424","-1,23059838427942","1,22741142627879"
"2411","-2,00899203456293","1,9801121815002","-25,7957103182868","-1,77754054827639","-1,08808074504393","1,07778530061838"
"2423","-2,00203712676718","3,68670020400684","-31,2273811202192","-1,33424329836977","-1,03364385085237","1,02660619605312"
"2423","-2,00046150684103","3,21094774339032","-29,5370665192258","1,99657300063109","-2,63088479626307","-2,30680628157262"
"2431","-2,00010455341697","-0,320817971946525","-29,1294975715898","1,4283993259716","-2,24097654918694","-1,44698861937351"
"2435","-2,00002368635961","0,594257335317875","-29,0312244767591","1,18415708871974","-2,09204485129775","0,5050624914011"
"2439","-2,00000536609561","0,875359729016455","-29,0075288512125","1,07916406789113","-2,03515800470631","0,172754897885129"
"2439","-2,00000121567782","0,961711699303246","-29,0018153579007","-5,24647954930999","-2,01342916282118","-1,59886319796507"
"2451","-2,00000027540929","2,6810477516352","-27,2415578915932","-3,96569977726061","-2,00512948375724","-1,20483910876972"
"2452","-2,0000000623934","2,20921136401332","-27,8171243082297","-0,274872773803831","-3,61999327720042","-1,07006451661106"
"2460","-0,226547938626128","3,75707728454609","-31,4736646373449","-0,68828774736083","-3,23681635909412","-1,02396532828826"
"2464","-0,824776040802439","3,23256691029828","-30,3553302710975","2,27425152742702","-3,09045580008195","0,649756161389803"
"2472","-0,960303375722691","1,37863278150767","-33,6034369517819","1,54776568813557","-3,03455104115174","0,22224687285674"
"2472","-0,991006812160676","1,80912192570665","-32,3866209938992","-1,90478559740264","-1,39516333462337","-3,2398880571572"
"2480","-0,997962611960443","0,248554526938434","-25,0577028093532","-1,38894244559168","-1,76897295146828","-2,42409946957054"
"2480","-0,999538433968255","0,769163128395361","-27,2905527947759","3,54318684278157","-3,52978950853135","2,82879848675119"
"2488","-2,77334750868246","2,62189866985388","-29,5878177955376","2,6633735841501","-3,20236158537587","1,62553426795711"
"2488","-2,17520027300232","2,19104133107526","-29,1417347280726","-3,99534394476015","3,39484070740331","-3,75989840286405"
"2501","-2,03969125821894","3,75149562398556","-27,2752952742209","-2,85774348740679","1,91474775258622","-2,60196722989974"
"2501","-2,00899197216994","3,23085227748945","-27,8252590717379","-0,798592834974669","-5,12273340464422","-0,547947412307183"
"2509","-5,54894126365012","-0,314703489197068","-33,2345059207391","-0,913420598703695","-3,81081201151931","-0,845376958386004"
"2509","-4,35090942843845","0,596135646013679","-31,5387844523539","-5,67316440016356","-1,69166864116381","0,710841702547985"
"2521","-0,532593651679128","4,26155583188849","-31,1299117999214","-4,71924736152377","-1,88222790072202","0,243140973299172"
"2521","-1,66756213740294","3,38753790132138","-31,0313243555657","0,40119784321927","-0,336981072252342","1,74111895835222"
"2529","-1,9246868922064","1,42623838968506","-27,4897932783748","-0,397663581887263","-0,746749304784906","1,2534972050997"
"2530","-1,98293797174239","1,82374591381551","-28,6358586952489","0,82905536239084","2,33280113539742","2,74466127202159"
"2538","-1,99613463291063","3,63866598016653","-32,429957841532","0,356388100235971","1,50908473347736","2,2547088413757"
"2538","-1,99912430910851","3,1961920886439","-31,3447916809655","-4,55718106056492","-2,04161491246512","2,08712228809594"
"2550","-1,99980161404604","-2,01816032002417","-25,8064967460327","-3,66938931351673","-1,39786149337293","2,0297998806876"
"2550","-1,99995505607388","-0,619959573078469","-27,4711021177181","-0,147497054347429","-1,15196956765367","-4,6216207326059"
"2558","-0,226537742537851","4,88798299658366","-31,3902317071894","-0,633532428557577","-1,05804720958807","-2,89671640572334"
"2558","-0,824773730899802","3,57997034275622","-30,3352129086126","7,0081718368804","-4,25824003861034","-0,648765359864278"
"2566","-2,73375492792801","1,48535179760152","-31,8397064220592","5,2931303441998","-3,48060492874317","-0,879861392553542"
"2570","-2,16623065600716","1,84190498808304","-31,2024701570706","-1,72462883271065","0,0524932298806196","0,699046419776713"
"2578","1,50924494091273","0,258625170560455","-25,7721801556857","-0,741370505739727","-0,59798335911476","0,239106437166773"
"2579","0,341916308912369","0,772256733922428","-27,4628276955449","1,25143270944195","2,38962467027489","1,73973895906613"
"2587","-3,4694437208842","-0,762770107845651","-33,1471164049067","1,10808400707618","1,53078939243964","1,25302518106345"
"2587","-2,3328994251227","-0,234315691238714","-31,5177130772494","2,6165898434436","-2,03332447045575","-0,571407022125897"
"2599","-0,301965598316836","3,31363956157542","-29,3659512385117","2,26505501670715","-1,39469482630711","-0,195447817723234"
"2599","-0,84186175507534","2,40353752558346","-29,8471180534571","-1,02631514015386","3,7033419577841","-1,72480567759664"
"2607","-2,73762618433863","2,12396287331567","-24,6864975952766","-0,441184653806527","2,65061873340974","-1,24791730320819"
"2607","-2,16710768111216","2,03808021060361","-26,4421679018259","1,38047435170293","0,630480253695219","-1,0847992656926"
"2615","-2,03785789832247","2,01169787695968","-33,9010147397043","1,16355546027817","0,858856016425812","-1,0290052988192"
"2619","-2,00857662829055","2,00359347606525","-31,6994931735447","1,07030799439456","-5,52604815941736","-1,00992116326385"
"2628","-0,228490941829387","-1,38451522224491","-29,40978208663","1,03022347323274","-3,96486453967832","-1,00339349996432"
"2628","-0,825216224145417","-0,425309851545053","-29,8576865551024","2,58311974120603","-0,132477482117807","2,31474610488307"
"2636","-2,73385517385441","1,5621584279995","-26,4479257020295","2,25066714022475","-0,668635884174891","1,44970440878289"
"2636","-2,16625336651372","1,17268969940944","-27,6257635780316","-1,0325000925691","-0,873430170406865","-2,16208698489164"
"2648","-2,03766435512333","2,74585817803047","-29,668643877314","-0,443843394755941","-0,951654627045705","-1,39748787887945"
"2648","-2,00853278148048","2,22912050794028","-29,1612235268275","-0,19079606915899","-4,21760168823004","-1,13595936957406"
"2656","1,5449710670834","-1,31523547226091","-30,7977540723651","-0,0820179830017278","-3,46508246014462","-1,04650443738583"
"2657","0,350009988646438","-0,404027774102093","-30,1923545992888","-1,60538477654214","-1,55961170345393","3,95795357614625"
"2669","-3,46761011453896","4,95431518267374","-31,8052604019172","-1,26023826659952","-1,83178663896707","2,66971132457815"
"2669","-2,33248402541085","3,60034695672575","-31,1941645267629","5,16864073105142","6,1544217303022","2,22907246817925"
"2677","-2,07532356588325","-0,201198253105934","-32,8056968119414","3,93223900995577","4,20488188612418","2,07835345431972"
"2677","-2,01706439751611","0,631003370352045","-32,1942697540231","-1,30963859109417","-1,39387803817933","-2,9470597288267"
"2685","-2,00386590383997","4,27226686375278","-26,7702028730909","-0,562977613617715","-0,532414034412479","-1,66598512135912"
"2689","-2,00087581249123","3,39082822799955","-28,4623509328252","-4,95239109724754","3,03270391244168","3,7460623267986"
"2697","-2,00019841350213","1,42724914661178","-30,6292417921648","-3,83927923951796","2,39445779423773","2,59723464740052"
"2698","-2,0000449501671","1,82405640868876","-30,1517228892719","2,91972694114229","2,1506694702715","2,20428206861871"
"2706","1,54689396765087","-1,43966729442575","-28,277703621369","1,82523781711332","2,05755061657677","2,06987398293246"
"2709","0,350445617779003","-0,442252041312821","-28,8258397728169","-1,7855079599845","-1,21408559804098","-2,94996010301517"
"2718","0,0793927273548105","1,55695394913267","-27,1991266282177","-1,33766826954933","-0,46373943319991","-1,6669771844311"
"2718","0,0179862576019147","1,17109093321413","-27,8068932746986","0,424973198465506","3,05893527594104","0,429816155077466"
"2726","-1,76937732617989","1,05255750044266","-31,4711977287783","0,182684290727651","2,40447728352323","0,14701714588585"
"2726","-1,17430083639651","1,01614516211285","-30,3547354496792","0,0785309525381131","0,53646258587875","-1,60766670801408"
"2738","-2,81293956823165","2,6977691914682","-26,5677742170735","0,0337582967970542","0,822944462862918","-1,20785031927425"
"2738","-2,18416977191952","2,21434803060876","-27,654661472615","-7,83612574283449","-0,685663186039891","-4,38700133080607"
"2747","-0,268271204073385","2,06584566757552","-26,1578520869989","-6,2191724598515","-0,261900032232696","-3,47441906169914"
"2747","-0,834228359992504","2,02022716012903","-26,7969411502131","-3,9539612104814","-0,100036910658197","3,4695402623252"
"2759","-2,7358968545258","3,699023142268","-26,951038415176","-3,98020919051005","-0,0382106997418946","1,84469780097449"
"2759","-2,1667159050323","3,21473323231687","-26,9881943742369","0,718890028467184","1,60343880018241","-2,02698084595809"
"2767","-0,264317066755743","1,37315444597701","-34,0326727367488","-0,261096448380271","1,23049311153922","-1,35127528611618"
"2767","-0,833332558390039","1,80743903336006","-31,7312385724614","0,887761817319099","1,08804053443526","0,537800909705031"
"2775","-0,962241837023033","1,9408471103682","-27,6585567148664","0,381624390708943","1,03362849176657","0,183952961901577"
"2779","-0,991445966544974","1,98182879732664","-28,676550964114","-4,54633267332003","-2,22322303663536","1,7208739014749"
"2788","-2,77151417698371","-1,39120112365973","-28,9220099127746","-3,66472589018432","-1,46722962417285","1,2465724526323"
"2788","-2,17478493551106","-0,427363696596731","-28,9811950167396","-1,71561987815324","3,6756361303665","-0,573614155817632"
"2796","-0,266145088863362","-0,131282045466127","-27,2365859113819","-1,8777528064259","2,64003604902265","-0,196202760254161"
"2799","-0,833746693004444","-0,040328590376345","-27,815925463505","5,90318821279961","-2,60962994954823","1,59084293683273"
"2808","-2,73578773386935","3,37323054601809","-27,9556159160657","4,24800077138799","-1,61482393141764","1,20209580587846"
"2808","-2,16669118397406","2,42184330679809","-27,9892981020396","0,396226207549976","2,00122613279508","-0,588827240730982"
"2816","-2,03776354176028","2,12958623445011","-29,7562993843375","0,740454251157608","1,38243435230311","-0,201406343920477"
"2816","-2,00855525200722","2,03980765343041","-29,1823590377738","-2,25182658208866","1,14607692411424","-0,0688903511343256"
"2828","-0,228486099076765","2,01222853089574","-25,5262107869545","-1,53812582084855","1,0557964200396","-0,0235637090025553"
"2828","-0,825215127029862","2,00375648788567","-26,6446396911881","-5,94170799499135","1,02131233600456","-1,66601330604724"
"2837","0,813049225712782","2,00115395719694","-26,9143154611521","-4,83468686765666","1,00814058797408","-1,22780757358787"
"2837","0,184194614594271","2,00035448462844","-26,9793397292395","5,06195607800244","-0,614924560832203","3,89593945845965"
"2849","-1,73172316787021","0,307299342408015","-34,0305377032224","3,31625071032449","-0,234880281720799","2,64849960770987"
"2849","-1,165770364983","0,787208974583962","-31,7307237728099","-2,14456252190607","1,5283177044197","-2,7520431869424"
"2857","-1,03755493212902","2,6274421814312","-25,8995527584694","-1,49201595127142","1,20179940623001","-1,59928038015834"
"2857","-1,00850799192823","2,19274424488083","-27,4935397994596","-1,21150412639964","-0,54095347447958","0,452971615457917"
"2865","0,771524607596041","0,366399639072907","-29,6367620570579","-1,0909198073121","-0,206625840918851","0,154937391918001"
"2869","0,174787298544641","0,805364021200248","-29,1535361768378","3,67129857898394","4,77517791797271","-1,60495761494579"
"2878","-5,28075852681422","2,63301923833682","-30,7959004972119","2,71844529631107","3,6780576285873","-1,20692368325526"
"2878","-3,51670111051499","2,19445746349084","-30,1919076649288","-3,97167013024288","0,0229269902894078","2,24512930175554"
"2886","2,20329866235752","3,75254502723313","-26,5285131535782","-2,84756676560522","0,62679131978071","1,4258922193605"
"2886","0,499152738990964","3,23117464414333","-27,6451948382249","0,775909359101751","-2,37862100844707","2,8036283970637"
"2898","0,113082017022416","-0,314604461240207","-31,4322089739339","0,333542095003326","-1,52658636762212","2,27487834483055"
"2898","0,025618496253688","0,596166066456124","-30,3453344743979","0,14338057381857","-2,8191720831692","-1,22188564216662"
"2906","-1,76764825835411","-0,816863478893697","-33,6010267635605","0,0616353655401049","-2,31289589313558","-0,417941805090735"
"2906","-1,17390911966928","-0,250932658131077","-32,3860398489003","-4,68388715514307","2,73458637001215","3,17295127485738"
"2918","0,734053325397831","1,61572543618558","-30,3342021670202","-3,72385677900034","1,66255303692234","2,40120397210668"
"2919","0,166298257334618","1,18914497265836","-30,8394627118724","1,39921638141082","2,87110672950476","2,1372304465535"
"2927","-3,5092296259723","2,75091308079369","-27,443531565812","0,601484642173954","2,33273316284206","2,0469392049196"
"2927","-2,3419128393444","2,2306733257853","-28,6247040631502","3,39881670858612","-4,34504319597817","-1,29985144542812"
"2935","-2,07745964411031","2,07086064231643","-23,6328690956378","2,60131283381812","-2,89572679577698","-0,444609741455615"
"2939","-2,017548321605","2,02176771246698","-25,429236988759","-2,45189465333342","-2,34213719135277","3,16382959842732"
"2947","-2,00397553583792","-1,37893227042049","-25,8623775244535","-1,62412958255534","-2,13068477828133","2,39808393387964"
"2947","-2,00090064939282","-0,423594822072299","-25,9668164449999","0,301831358047395","1,18615083400857","0,478209828178285"
"2955","-2,00020404025064","4,94830437243946","-34,7863979145867","0,129749000086007","0,453069302807237","0,821523456235167"
"2959","-2,00004622489529","3,59850049323634","-31,9129769171208","1,62590302812421","0,173057074413146","-0,719000711380415"
"2968","-0,226558396645121","1,49104408283117","-32,9790169792722","1,26905849867716","0,0661019204322022","-0,245931734366739"
"2968","-0,824778410044936","1,84365360373354","-32,2360607426128","2,68578835038369","-1,59278530186643","1,57383331130913"
"2976","0,813148163039307","1,95197188046956","-26,7802795234554","2,2948015517955","-1,22642383728161","1,19627772164052"
"2976","0,18421702864025","1,98524622043927","-28,4647806164961","0,556599578460292","-1,0864862099784","1,0671361234232"
"2988","0,0417339854943536","0,302658227961488","-28,8709478100935","0,809394352844353","-1,03303479265359","1,02296368141337"
"2988","0,00945474779448463","0,785783268557375","-28,9688829137491","-2,22219112831226","0,605415820767529","2,66580806866244"
"2996","-3,54476219752851","2,62700421815801","-30,7513768706217","-1,525386354282","0,231248266206282","2,2277373728423"
"2997","-2,34996266968229","2,19260970674668","-30,1811721204191","0,344278356320248","-1,52970501089858","-1,23801005041449"
"3009","-2,07928331646586","0,366358310243189","-30,0436842528703","0,147995797298146","-1,20232931015212","-0,423457103786924"
"3009","-2,01796147079211","0,805351325378527","-30,0105331545738","-1,50650817805689","5,39485303544179","-1,80279547410978"
"3017","-0,23061705841979","2,63301533830166","-28,2436599282281","-1,21773393614042","3,91475246147791","-1,27459344638274"
"3017","-0,825697891446199","2,19445626543729","-28,817631151665","0,476529670054338","-3,12273160600765","0,564029670736257"
"3025","0,812939856436242","3,75254465920252","-27,1971473640721","0,204846999996457","-1,81081132450127","0,192924419910729"
"3029","0,184169837211668","3,23117453108784","-27,806416034187","1,6581855929971","1,92636561000362","-1,59196428193538"
"3037","-3,50518085664378","3,07101460779792","-27,9533230008312","1,28293588550524","1,35384017701235","-1,20247935813585"
"3037","-2,34099559905628","3,02181500919224","-27,9887452339234","2,69175385733565","1,13515492103344","0,588696047993078"
"3045","-2,07725184522678","1,31389181056558","-27,9972862488657","2,29736595917527","1,05162458608797","0,201361469893152"
"3049","-2,01750124519923","1,78923411783148","-27,9993456598592","2,12782944791492","-2,21634914026933","0,068875002126747"
"3058","-0,230512795266926","0,24244518232521","-27,9998422253926","2,05495036418947","-1,46460402939617","0,0235584589270061"
"3058","-0,825674270845316","0,767286396085929","-27,9999619573595","-4,2568883546243","5,2946730070804","1,66601151027685"
"3066","-4,50741101889256","4,3141317074986","-29,7588706549684","-2,97017423641011","3,87648709563778","1,22780695935075"
"3066","-3,34150083768502","3,40368870811014","-29,1829790229911","-3,98717872447838","1,71675429108306","-2,23798624858726"
"3078","-1,30391423048052","4,81681886702763","-27,2852401057132","-3,42436098500785","1,89180976636129","-1,42344896245332"
"3078","-1,84230321364762","4,25091895379195","-27,8276569712196","1,52796138674055","-2,89542695824888","0,513114150545727"
"3087","-3,73772619586193","-1,00134874979535","-27,9584446192258","0,65682857931708","-1,72398867485824","0,175508940359115"
"3087","-3,16713033851519","0,385204780713659","-27,9899801594326","0,28235254264377","-1,27653906632585","1,7179856527846"
"3099","-3,0378630313101","0,811140781087759","-27,9975840143171","0,121375593035693","-1,10562852411931","1,24558453704551"
"3099","-3,00857779115824","0,941984251911482","-27,9994174571162","-1,51795147178052","0,577687482717805","1,08400135100464"
"3107","2,31841294574329","-0,71063143553695","-26,2409797093432","-1,22265309340736","0,220656983522834","1,02873237482903"
"3107","0,525231640971281","-0,218299189128023","-26,816984896826","0,474415059628233","-1,5337505208992","4,3257346504866"
"3115","-3,42791401287887","6,70417878180375","-32,2325108502597","0,203937987128698","-1,20387455747053","3,45346300322608"
"3119","-2,32349095596937","4,83069789176849","-30,5383034006164","-1,48246016912868","-2,69590714026229","-3,47670821045682"
"3127","1,47361794635146","-0,823246198030024","-28,3709159808273","-1,2073963584524","-2,26581287456646","-1,84714957311874"
"3128","0,333845087238659","0,43991618340108","-28,8483151529791","2,0511010116526","-0,483497494687179","-1,28976461425906"
"3136","-1,69782016389352","-0,864861950487473","-25,4456660679359","1,45183941832148","-0,802713598244975","-1,09911299532099"
"3140","-1,15808970979807","-0,265677330128859","-26,6252187346699","1,1942333397892","2,31142467745204","-2,69185468105616"
"3148","-2,80926697114711","3,3040055656711","-23,3918730211396","1,08349557111643","1,50091965310131","-2,23664652753294"
"3148","-2,18333775267252","2,40057805406447","-24,6122481459641","-2,10436255270225","2,80936827060179","1,2349627045216"
"3156","-7,36189101387571","2,12305375193356","-33,7009043452723","-1,47473509005995","2,30915116995416","0,422414769546093"
"3156","-5,53508150706756","2,03780093719885","-30,8923626929671","-2,77420306065652","0,5000512505108","1,80243894724746"
"3168","1,97258669717618","2,01161208683732","-30,2151666461785","-2,33280860422706","0,809036570328132","1,27447149758879"
"3169","-0,326566653385085","2,00356712215912","-30,0518810187747","0,997189736187161","-0,690975528276298","1,09388203706593"
"3177","-0,847435073041341","0,308286233970701","-22,9769902489145","0,428664443626157","-0,263929166407132","1,03211202970464"
"3177","-0,96543673244739","0,787512138245346","-25,2710913683055","3,32452605800129","-1,71884595969499","-2,3049230300019"
"3189","-2,7656218389813","0,934725758528344","-32,8597647364853","2,56937732621719","-1,27457472392795","-1,44634445961441"
"3189","-2,17345003856622","0,97994837651188","-30,6895469656659","-5,60587785227771","-2,72291220083875","0,505282824043693"
"3197","-2,03929474624007","2,68664988467907","-24,8896241996409","-4,12019522380513","-2,27612788983841","0,172830261911996"
"3197","-2,00890214320409","2,21093228577347","-26,4911458236453","-0,341286117455966","2,7486304975732","-3,25679083992752"
"3205","1,54488738895153","0,371986831505073","-30,3950646490138","-0,716837017347151","1,66791741630832","-2,42988100861012"
"3209","0,349991031539338","0,807080353347197","-29,3363782283775","-0,878276021092515","1,25512175135177","1,1688675111253"
"3218","-3,46761440923222","2,63354647917816","-34,3577470597944","-0,947674209028816","1,09744783774698","0,399807134688473"
"3218","-2,33248499836469","2,19461942684115","-32,568500377023","-2,54763408273242","1,03722176188916","0,136752663091747"
"3226","-0,301871710794957","0,366975677059599","-30,3781970809778","-2,23541283154679","1,0142174479205","0,0467757807205137"
"3230","-0,841840485052123","0,805540974567512","-30,8500707731011","-0,531070000889202","2,62346457062225","1,67395291579378"
"3238","-0,96416929015005","0,940264044837163","-25,6872095555456","-0,798419889541747","2,23814227519634","1,23052328994844"
"3238","-0,991882627050453","0,981649685164882","-27,4423395698085","-0,913346254218296","2,09096225496677","1,07884970294411"
"3246","-0,998161026005961","2,68717251044657","-26,1066569932359","-0,962749937774465","2,03474448970397","1,02697027122841"
"3246","-0,999583384258457","2,21109283141719","-26,78459698039","-2,55411472391885","-2,84083075210454","-3,96463517087414"
"3258","-0,999905616568443","0,37203614959331","-26,9480619868228","-2,23819868096712","-1,7031347797679","-2,67199674120396"
"3259","-0,999978617629474","0,807095503392822","-26,9874766973198","2,60798744155225","0,349460401550728","1,08605265282014"
"3267","-2,7734472313773","2,63355113312746","-35,7913795181834","1,69122957946438","0,133481995670192","0,371480595629532"
"3267","-2,17522286497186","2,19462085648992","-32,9141780822378","-3,41324191720268","-1,56704840329005","-1,53088975268754"
"3279","-0,26624430087378","2,05978566811789","-23,4260276375137","-2,60751383429116","-1,21659321679044","-1,1815890242797"
"3279","-0,833769169279489","2,01836558618006","-26,1382431685778","-2,26115348997408","-1,08273124708127","-1,06211190472584"
"3287","0,81111132519512","3,69845128453241","-26,7922130444271","-2,11226270329337","-1,03160052445338","-1,02124516459062"
"3287","0,183755587254125","3,21455756308282","-26,9498983734948","4,2322513562043","0,605963662471025","0,650686584079704"
"3295","-3,50527470411188","1,37310048206628","-28,7467993150068","2,95958346833752","0,231457523116563","0,222565120755803"
"3299","-2,3410168600054","1,80742245616214","-28,180068379421","-0,727756459196087","-1,52962508187123","1,73408105835856"
"3308","1,46964748916726","1,94084201801134","-28,0434181186508","-0,31284248759865","-1,20229877998037","1,25108991547628"
"3308","0,3329455884043","1,98182723300326","-28,010468984245","-1,70460988310677","0,540762730680032","-0,572068973101438"
"3316","-1,69802394348753","0,301607947678916","-33,2791637667329","-1,30289241109754","0,206552983270567","-0,195674235790566"
"3320","-1,15813587564214","0,785460632486724","-31,5495523598693","3,5801773861274","-1,53913776961823","-1,72488312312222"
"3328","-1,0358253544143","2,62690510743888","-27,6147485040028","2,67927480144842","-1,20593230337535","-1,24794379318535"
"3328","-1,00811615968672","2,19257926088046","-28,6659879207676","-3,9885084487469","0,539374848242065","2,2310985134415"
"3336","-2,77529077464083","2,05915850944775","-30,6783427777605","-2,85480509565535","0,206022859351652","1,42109303620256"
"3337","-2,17564051587192","2,01817292902714","-30,1635621273731","0,772797800076299","1,69672771856279","1,1440334329075"
"3349","-0,26633891881835","0,312772998327585","-31,7983179561313","0,332204521350036","1,26612630758681","1,04926614313598"
"3349","-0,833790604778451","0,788890429398729","-31,1924905630396","1,71293308893642","1,10165120419765","2,67480473574102"
"3357","-2,73579768199062","-0,757660395478458","-24,0108940464383","1,30647032838518","1,03882730500615","2,2308146520482"
"3357","-2,16669343770029","-0,232746036406891","-26,2792662578021","1,13174316585675","1,01483071082079","-1,23695747758631"
"3369","-0,264311976828307","5,00693129643044","-35,6206156950647","1,05663276390054","1,00566482745622","-0,423097074850815"
"3369","-0,833331405277543","3,6165101242888","-32,8730034798047","-0,545782633517215","1,00216377154787","3,17118793246682"
"3377","-2,73569365129676","-0,196233082419264","-28,6927390937346","-0,234616944446332","1,0008264871874","2,40060082687257"
"3377","-2,16666986976251","0,632528623360256","-29,6847930251924","1,4692721290874","-0,617718298735575","2,13702414278891"
"3386","-2,03775871306989","-0,805693248743668","-28,1651174121445","1,20172718272619","-0,235947394644229","2,04686863942248"
"3389","-2,00855415807744","-0,247501270125729","-28,7986929666632","-3,62366553563436","3,14594409230268","0,358077837855016"
"3398","-2,00193792675821","-0,0760300260792403","-27,1925809856437","-2,69796916094315","2,43771169405248","0,780432719792907"
"3398","-2,00043903328489","-0,0233556977815648","-27,8053149882341","-0,72991024602108","0,549157001104856","-0,7330556572514"
"3406","-3,77355153758844","5,07125400838395","-33,2296969998906","-0,883895842569353","0,827793298011986","-0,250739180534414"
"3410","-3,17524649532751","3,63626944699785","-31,5376249245309","-0,950090015729614","2,552256881681","1,5721889407888"
"3418","-1,26624965428181","-0,1901632072218","-31,1296322143731","-0,978545070348939","2,21094335828111","1,19571527032774"
"3418","-1,83377038208297","0,634393231042174","-31,0312569418502","0,579350385466144","-2,77352877308735","-2,24896310106496"
"3427","-1,96234102507196","2,58049864469339","-31,0075366792008","0,249046797854157","-1,67742771129347","-1,42720355730281"
"3427","-1,99146843739159","2,17832363879418","-31,0018172453866","0,107058369300134","-2,87678834954295","-1,14612351575204"
"3439","-1,9980671921984","2,05477931851089","-29,2415583467041","0,0460214487235277","-2,33490334858548","-1,04998104882493"
"3439","-1,99956212640411","2,01682768340086","-29,8171244179661","0,0197833551590407","1,10814628128629","3,95676441309342"
"3447","-0,226448725136693","3,69797885548851","-28,1970251803554","0,00850432031594554","0,423274214944561","2,66930457542282"
"3447","-0,824753564192326","3,21441243739312","-28,8063865732282","1,57378327467088","1,77971035229729","-1,08697349891845"
"3455","0,813153791815648","4,75867500460831","-27,1944360693833","1,24665365002576","1,29782285319741","-0,371795567888194"
"3459","0,184218303827847","4,23305771464015","-27,8057622863448","-3,60435288287613","5,96786017354462","-0,127171402466432"
"3467","-3,50516987663248","-2,69964510373814","-31,4709250246717","-2,68966718264441","4,75165570118678","-0,0434985432912496"
"3468","-2,34099311155751","-0,829305189171905","-30,354669695218","-2,29646895511166","1,05103895251593","-0,0148785279690546"
"3476","-2,07725128168909","4,82367402296476","-30,0855180179793","-2,1274438505367","1,63752913386079","-0,0050891496076944"
"3480","-2,01750111753094","3,56021524033234","-30,02062011922","-2,05478460648098","1,86154844906643","3,31416611372162"
"3488","1,54293930916503","1,47928321883535","-21,2105727876148","-2,02355039568121","1,94711621333851","2,44950602478967"
"3488","0,349549698106964","1,84004077865243","-24,0862926580724","1,13013133505481","-2,87430177530057","2,15375199848214"
"3496","0,0791897586125993","0,258052503230084","-28,2974463840218","0,485812380919682","-1,71591957299055","2,05259034525358"
"3496","0,0179402754546302","0,77208081598859","-27,3128404955143","-6,0716726228745","0,344577045078816","-2,95587191217371"
"3509","-3,54283981884889","2,62279495561311","-32,3520716375936","-4,89055508699436","0,131616719477103","-1,66899929853557"
"3509","-2,34952715878234","2,19131666149927","-30,5671319182448","-1,24257013803102","-1,5677608753974","0,429124497863602"
"3517","-0,305732576866417","3,75158020286189","-26,6189872901452","-1,67440173260485","-1,21686535691941","0,146780566901295"
"3517","-0,84271515624735","3,23087825931238","-27,6670099776121","-1,86003425920502","3,77126677088885","-1,60774762904666"
"3529","-2,73781952060291","1,3781140440546","-29,6785892162828","-1,93983257726457","2,67656370333627","-1,20787799803669"
"3529","-2,16715148104156","1,80896257451599","-29,163621548672","1,16611932284776","0,640390350370058","-1,07110395829191"
"3537","-0,264415745596599","0,248505575774766","-27,2805726281724","0,501282627157352","0,862641336523803","-1,02432086576034"
"3537","-0,833354913876626","0,769148091065458","-27,8265315482313","0,215487615517869","-0,670500329548543","2,3075879709835"
"3545","-2,73569897712109","0,929084498645928","-27,9581732570411","0,0926321997331082","-0,256108336419538","1,44725599356315"
"3549","-2,16667107631696","0,978215435360661","-27,9899147285359","-3,10043496732861","-0,097824679710071","4,46888922293634"
"3558","-0,264306910903325","2,68611754171027","-31,5153278932408","-2,47304672912132","-0,0373657027106749","3,50242853514816"
"3558","-0,833330257602752","2,21076875509833","-30,3653761225329","2,50703272426481","-0,0142724284219537","1,51390054218677"
"3566","-2,73569339129342","3,75755570021139","-31,8469793813933","1,64783192288307","-0,0054515825551863","1,83373134290059"
"3570","-2,16666981085929","3,23271387502088","-31,2042238142775","-0,291642373784407","1,61595166950629","-1,37277846546721"
"3578","-2,03775869972549","-2,00694117610102","-25,7726029978134","-0,125369035961117","1,23527260232416","-0,469554179251758"
"3578","-2,00855415505429","-0,616513159229237","-27,4629296513115","-3,19414770324785","-3,76423582878349","-0,160609401151812"
"3586","-2,00193792607332","3,19623215011455","-26,1116216772331","-2,51333125707595","-2,67387812242495","-0,0549358963846281"
"3586","-2,00043903312973","2,36747109024464","-26,7857940658503","-0,650539488921073","4,21473741650821","1,63916278449086"
"3598","-3,77355153755329","2,11288360888198","-32,2249901117242","-0,849776536886813","2,84595441695","1,21862344451749"
"3599","-3,17524649531954","2,03467676639743","-30,5364899988458","2,2048319379528","-5,76704410940767","1,07477940151156"
"3607","0,507202421228966","-1,37496673235884","-26,6115989052637","1,51792411574584","-4,05691680142355","1,02557803854371"
"3607","-0,65854641968272","-0,42237664665812","-27,6652284889773","-0,347486167446081","-0,167638317363183","-2,30715795933244"
"3619","-0,922644400069088","1,56305948052314","-33,1959193190692","-0,149374747082337","-0,682066128165789","-1,44710890954853"
"3619","-0,982475249387893","1,17296649413795","-31,5294804443153","3,07604290671396","0,739473921615711","3,82092818649832"
"3627","-2,76948187963057","2,74594320672716","-29,3687885880848","2,46256125307515","0,282453904263026","2,6228422586718"
"3627","-2,17432452276376","2,22914662794372","-29,8478021956747","2,19884236168598","0,107887791173367","-4,4187726154036"
"3635","-0,266040783311052","0,377582103438493","-24,686662555766","2,08547686287601","0,0412094692570753","-2,82733290096879"
"3639","-0,833723062798055","0,808799167439756","-26,4422076771275","0,466616651383662","1,63377460534775","-0,625032969352495"
"3648","0,811121770522794","-0,751544621318208","-26,8655050190663","0,770713167136765","1,24208035803629","-0,871743809543053"
"3648","0,18375795362143","-0,230867329002027","-26,9675705470394","-3,80894660751359","1,09246646876112","-2,61408382865663"
"3656","-1,73182209250731","-0,0709202382515126","-23,4744209490855","-2,7776163982836","1,03531904824707","-2,21004527344367"
"3660","-1,16579277615422","-0,0217860197689867","-24,6321521165638","-0,764148402955438","1,01349067598008","4,55996841244753"
"3668","-2,81101208484231","6,76454575035988","-35,4645834219068","-0,898613884643441","1,00515297969318","2,87562844046226"
"3668","-2,18373310455817","4,84924204789066","-32,0765011234183","5,32409310773308","-3,85213370315023","-2,67435454647326"
"3676","-2,04162435349795","-0,817549610400918","-24,2240468249689","3,9990637115571","-2,70745212289418","-1,5727072463787"
"3677","-2,00942991089324","0,441666120707598","-26,3306616924629","0,289215011608111","-0,652188676782414","-2,85384597495227"
"3689","-0,228684251232031","0,828485165421735","-32,1152485154867","0,694453080963474","-0,867147896202958","-2,29205509560472"
"3689","-0,825260017989371","0,947312281107335","-30,5100290862653","0,868653782427323","2,28681296567333","2,87396381327839"
"3697","-2,73386509525886","2,67662438790699","-26,6052186454661","0,943537873250208","1,49151881572316","1,64098291343167"
"3697","-2,16625561418731","2,20785254892747","-27,6636900796363","5,68611098822851","2,80577747024605","2,877199433367"
"3709","1,50923928668882","0,37104076576327","-29,6777887219112","4,72481274368559","2,30777960626508","2,30004306618735"
"3709","0,341915027959677","0,806789730988025","-29,1634285333313","1,17132206276361","0,499527359799307","-4,52918497522932"
"3717","-3,46944401108138","-0,752161901002276","-29,0394059160966","1,64377414445826","0,808836461882732","-2,8650990710402"
"3717","-2,33289949086626","-0,231056951424789","-29,0095015612743","0,276740800111196","0,92698202584889","4,33590950124404"
"3725","-0,301965613210905","3,31464061531916","-27,2434111902741","0,689090760497315","0,972109615663937","2,79898985615988"
"3729","-0,84186175844956","2,40384503973159","-27,8175711759267","0,866348668329418","4,22541479864271","2,27329174777807"
"3738","-2,73762618510305","2,12405733872463","-33,2326522139774","0,942546968093029","3,46806680276441","2,09347850767788"
"3738","-2,16710768128533","2,03810922947492","-31,5383374862603","4,11555752410611","-0,0572823678492793","0,374020583887423"
"3746","1,50904625265624","2,01170679127976","-25,8531645439308","3,4795475003908","0,596154071187544","0,785885881549577"
"3746","0,341871296500239","2,00359621445923","-27,4823546651827","0,0658892797710853","-0,772289407337982","-0,731190421922181"
"3758","-5,24290599386172","-1,38451438103644","-29,6340650955552","0,598451490582729","-0,294988304451597","-0,250101183169104"
"3758","-3,50812569773787","-0,425309593133844","-29,1528858850159","-3,88299716485335","3,12339247148298","3,23036058557577"
"3767","-1,3416627466941","3,2549680592648","-27,2779840431031","-2,80944869640134","2,42909774140075","2,42084063049978"
"3767","-1,85085506164842","2,38551420049702","-27,8259073881537","3,93255027125101","-2,69020121353041","0,485993678429982"
"3779","-1,96621152376811","0,425616728121976","-33,2346622429049","2,8307502140695","-1,6455994157423","0,824185895593225"
"3779","-1,99234529083795","0,823554945321366","-31,5388221447814","0,786989169115631","0,371436955053411","-0,718090033103455"
"3787","1,54863830949118","-0,747011787298453","-27,6121612326933","0,908432501866169","0,141876292152636","-0,245620239976597"
"3787","0,350840794802527","-0,229474885688262","-28,6653640774639","4,10089265326552","0,054191921404497","-1,74196698304022"
"3799","0,0794822538892965","1,62231705891786","-28,9193125287393","3,47324347571866","0,0206994720608549","-1,25378726904401"
"3799","0,0180065396524894","1,19116985619931","-28,9805446230366","6,34368935791891","-3,22816148272172","3,88705319247866"
"3807","-3,5428248068324","2,75153510567601","-27,2364290883403","5,57761510183714","-2,46911594272623","2,64546009082184"
"3808","-2,34952375784116","2,23086440588764","-27,8158876503062","0,537918343405127","4,29294960954261","0,562823996641303"
"3816","-2,07918388189922","2,07091934029869","-29,7144866263571","1,37149130489785","2,87582881635448","0,850465443180016"
"3820","-2,01793894409741","2,02178574392646","-29,1722771383701","1,72982139674811","0,716502850770925","2,60680563621353"
"3828","-2,00406403055283","0,313882820555468","-32,5592991488999","1,88385764871037","0,891713724708195","2,20755579260971"
"3828","-2,00092069768681","0,789231356186242","-31,3759784792685","-4,33043640774583","-0,659395665396237","0,41304032905745"
"3836","-2,00020858215003","0,935253885858017","-27,5728963400258","-3,00179052178392","-0,251866732147009","0,799232451938623"
"3840","-2,00004725385318","0,980110612182945","-28,6558965197832","5,41999531140544","-3,33227250854458","0,931328146804617"
"3848","-2,00001070526236","2,68669972192757","-28,9170297096011","4,04028943148571","-2,50888281598695","0,976511027470204"
"3849","-2,00000242525497","2,21094759530017","-28,9799941892929","1,8770643160932","1,04169203808353","-3,98189458263252"
"3857","-2,00000054943648","2,06480108632928","-30,754056023294","1,94715333037301","0,39789095273776","-2,67790026396925"
"3857","-2,00000012447369","2,01990627474791","-30,1818181181727","-2,73309983366274","-1,46605316862015","6,05789363295843"
"3869","1,54690412281868","0,313305465576289","-31,8027198437763","-1,74501195608595","-1,17801646984831","4,04594205924865"
"3869","0,350447918411192","0,789053998251465","-31,1935519469465","4,96024985382192","-1,06799624092478","0,0418540643352414"
"3877","-3,46751090245968","0,935199403194556","-32,8055491065906","3,84265750284369","-1,02597225292604","0,672269459536318"
"3877","-2,3324615491202","0,980093875629142","-32,1942341392835","0,22198028384791","0,608113470896556","2,54585430943314"
"3889","1,47158567709168","0,99388502873426","-25,0113144578424","0,665550720538182","0,232278676865814","2,18670759973619"
"3889","0,33338468085585","0,99812153923666","-27,2793676274723","-0,713898048715033","0,0887225597008872","-2,90999756395493"
"3898","-3,47137654351294","-0,693386597087503","-26,0673611704386","-0,306885138056407","0,0338890022368472","-1,65330813461623"
"3898","-2,33333730207764","-0,213001739477046","-26,775121964831","1,43820602011983","0,0129444470096544","-1,2234618131512"
"3906","-2,07551687394113","5,01299655585206","-28,7046571972561","1,18837271683775","0,00494433879211605","-1,07643434895565"
"3910","-2,01710819105541","3,61837331404847","-28,1699070647328","-0,489151250762423","-3,2341794081331","-1,02614410765709"
"3918","1,54302832584254","-0,195660728322066","-31,5587276763364","-0,210272670433662","-2,47141458569161","-1,00894250261204"
"3918","0,349569864650498","0,632704445071856","-30,3758406857056","3,04986456423403","2,67403761730794","-1,00305875243536"
"3926","-5,24116189922572","-0,805639237993293","-26,5728631152182","2,45130790358008","1,63942547136574","-1,00104623580967"
"3930","-3,50773057671797","-0,247484678539118","-27,6558885086118","0,623877354972727","-3,60986316946039","0,657595558589493"
"3939","-1,34157323284712","5,00240372634922","-27,9170277779461","0,838315218744336","-2,61491301349724","0,22492831185839"
"3939","-1,85083478247218","3,61511929800668","-27,9799937235319","-0,639631342175253","1,00119210646847","0,0769359598230619"
"3947","-1,96620692956282","-0,196660330968123","-24,4774164275405","-0,274959923341956","0,382421355402851","0,0263156819387964"
"3951","-1,99234425003028","0,632397376687075","-25,6328743868446","-3,25845271179701","-1,47196202900981","0,00900118900831999"
"3959","-0,224813530224969","2,57988553729967","-31,1881180923921","-2,54097421178335","-1,18027345368238","0,00307882591649861"
"3959","-0,824383114178937","2,17813529805916","-29,5275994111957","0,907705066312389","3,78524363421234","1,65900652184534"
"3967","0,813237716497309","5,44034056580379","-32,6449745165042","0,390197444986953","2,68190239006973","1,2254109270146"
"3967","0,184237316790291","4,44245886384914","-31,3966365386572","3,30799015317671","0,642429547246954","1,07710103668671"
"3979","-3,5051655692853","-0,942509518992749","-29,3367572426789","2,5622689954911","0,863420240421025","1,02637214591545"
"3980","-2,34099213573695","0,403279630390719","-29,8400787921552","-2,46867852567598","-2,28823680348367","1,00902050231843"
"3988","-2,07725106061897","2,50950275414353","-24,6848002873795","-1,631344507698","-1,49206267337224","1,00308543196817"
"3988","-2,01750106744796","2,15651437936177","-26,4417586466535","1,86885736139446","0,430082772116836","1,00105536145263"
"3996","1,54293932051122","0,355270170448919","-28,6242765765775","1,37349788500304","0,164277000972856","1,00036098277557"
"4000","0,349549700677421","0,801945154746351","-28,1505256756346","4,30081147159834","1,68078221955163","1,00012347292383"
"4008","-1,69426231631404","2,6319689952188","-29,7951746046434","3,55918307770325","1,26003566893213","1,00004223349132"
"4008","-1,15728368681328","2,19413483883678","-29,1917326375877","-1,47000507686639","1,09932478724476","-2,31589239411892"
"4016","-1,03563229280385","-1,32598273563046","-25,5284709509556","-0,631914755572945","1,03793869280215","-1,45009649309574"
"4020","-1,00807242197957","-0,407329230752607","-26,6451846623212","-0,271642774977373","-0,603542697588216","-1,15395396614685"
"4029","-2,77528086595406","3,26049145484199","-33,9499661759511","-0,116771758447869","-0,230532796816899","-1,05265942760257"
"4029","-2,1756382710795","2,38721093485949","-31,7112963522811","-1,62032446883429","3,14801228463731","2,2978948628224"
"4037","1,50711366524368","2,11894750059496","-29,4126280711192","-1,26666042945576","2,43850167322903","1,44394049906678"
"4041","0,341433472833028","2,03653953601006","-29,8583727793724","2,02562501736408","0,549458746299896","1,15184832944256"
"4049","-3,46955310639585","0,318415044557044","-29,9658508201764","1,44088798899844","0,82790855442055","1,05193920176908"
"4049","-2,33292420618333","0,790623612108248","-29,991765943881","2,75965312274764","2,55230090571165","1,0177656263346"
"4057","-0,301971212414689","0,935681573578591","-22,9624952917053","2,32655398606146","2,2109601739645","1,00607667172984"
"4057","-0,841863026937557","0,980241993765481","-25,2675963417274","-2,57000592577322","0,462545627431953","-2,31382833515704"
"4069","-2,73762647247638","2,68674008109478","-31,1000421872586","-1,67490237037","0,794710697081255","-1,44939048878685"
"4070","-2,16710774638916","2,21095999325083","-29,5063625337846","9,70077054035959","0,921586463811812","0,504240940182589"
"4078","-0,264405837601871","0,37199534297746","-32,6398538769663","7,59085947949786","0,970048694354182","0,172473889100518"
"4078","-0,833352669240985","0,807082967990213","-31,3954018491701","5,11373923837104","-0,629474369499161","5,03285436382158"
"4090","-2,73569846860354","0,940737730487675","-25,8186998785044","5,04889337060488","-0,240437814101769","3,69533088284404"
"4090","-2,16667096111336","0,981795196872129","-27,4740445391209","0,310635411655019","1,52619491594375","-3,39397812941441"
"4098","1,50914519070478","0,994407658369283","-27,8731815287119","1,2737886231024","1,20098857318312","-1,81885203183258"
"4098","0,34189371070979","0,998282086068441","-27,969421508367","-1,45243330170314","1,07677080360561","0,377867882931224"
"4106","-1,69599676495113","6,07790092890107","-26,2337470810159","-0,624361132675982","1,0293238376337","0,129248417059765"
"4110","-1,15767662255215","4,6383113174901","-26,8152409642384","-0,268395680228014","1,01120070929549","-1,61374444094053"
"4119","-1,03572131157995","-0,882345515994136","-33,9909701807502","-0,115375921714272","1,00427829025277","-1,20992918703607"
"4119","-1,00809258899853","0,421761437432325","-31,7211832449785","3,09065806672962","2,61966815021272","-1,07180556047415"
"4127","-4,54873751025931","0,822370636846794","-27,6561321725724","2,46884390843076","2,23669217163548","-1,02456084638731"
"4131","-3,35086326853066","0,94543395633438","-28,6759663580586","2,20154310244251","-1,14565961280606","-1,00840095350942"
"4139","2,24086888126115","-0,709571719289412","-28,9218689524618","2,0866378370535","-0,43760303255387","-1,00287351741689"
"4139","0,507664194106253","-0,217973654419065","-28,9811610283647","6,74762572724018","1,45088450389434","0,656970543164994"
"4147","-3,43189388150475","3,31865967918918","-28,9954575439155","5,7512562382547","1,172222555487","0,224714527469974"
"4148","-2,32439258694631","2,40507965776283","-28,9989047222068","-0,957565608643113","-2,17028481493312","0,0768628356041404"
"4160","-2,07349046729296","2,1244366015909","-27,2408560786135","0,158496380338594","-1,44700902278657","0,0262906700497969"
"4160","-2,0166491128351","2,03822573540476","-27,8169550869632","-4,07212176743338","-2,78877624217649","1,66694605374732"
"4168","3,3165844045695","0,318933028904714","-31,473623834684","-2,89074816188819","-2,301285714993","1,22812661674871"
"4168","1,52481738876351","0,790782731952126","-30,3553204327529","-0,812780636864535","-5,3511488803023","-0,579923490897407"
"4180","-2,42800786085676","0,935730453674736","-31,8445547517421","-0,919519544553911","-4,51609294841412","-0,198360846740461"
"4180","-1,32351221703398","0,98025700926412","-31,2036391871585","5,31510633946928","0,656972001309639","1,59010477073069"
"4188","-2,84674309682551","4,37955424559638","-24,0135822046054","3,99520054702782","-0,367093013906653","1,20184331868776"
"4189","-2,19182789116293","3,4237858869053","-26,2799144269623","-2,85270065907411","-0,758251043029598","1,06903981685903"
"4197","-0,270006135093484","-0,255436127263948","-32,1030123260914","-1,79642506175852","-0,907660115182143","1,02361483324252"
"4201","-0,834621405014242","0,614342013484577","-30,5070786941714","-4,482616233861","2,27133867498296","-2,30782946699161"
"4209","0,810918252958235","-0,811280001581091","-30,1222669020493","-3,63733594514239","1,48560816263124","-1,44733859644681"
"4209","0,183711847139582","-0,249217467233371","-30,0294810164745","4,5766643109485","2,80351980166064","-1,15301063703001"
"4217","-1,73183253783508","5,00187143021374","-35,2837479512176","3,1076371257965","2,30691725360079","-1,05233676510431"
"4221","-1,16579514252154","3,61495578171829","-33,5506576992216","2,47614273897833","-2,73687000710795","-1,01790161151376"
"4229","-1,03756054542895","4,88171809404151","-29,6150150236178","2,20468066896797","-1,66342530867497","-1,00612318499531"
"4230","-1,00850926360968","4,27085537642073","-30,666052184023","2,08798659061581","-2,87143990766684","-1,00209441448653"
"4238","-1,00192775600972","-0,995224471194178","-25,6428389616621","2,03782301556482","-2,33286042557566","-1,00071638731228"
"4241","-1,00043672912293","0,387086100601541","-27,4316409245715","-2,69412342952814","4,34499458593943","3,97361522208015"
"4250","-1,00009894007636","-0,881090847296677","-29,6218369896869","-1,72825707184818","2,89570822839438","2,67506833700747"
"4250","-1,00002241466895","-0,27066269221211","-29,1499374420235","1,82719731528261","-0,893937878256092","-1,08500202398031"
"4258","-2,7734571535057","3,30247411005873","-29,0361529418375","1,35558937688276","-0,341453885662862","-0,371121231627989"
"4258","-2,17522511280946","2,40010760552863","-29,0087172035608","-1,98739690852212","4,72367818751719","1,53101267191526"
"4270","-2,03969688562569","3,81571878652087","-30,7609817214399","-1,42445477632792","3,65838648196475","1,18163106838116"
"4270","-2,00899324704726","3,25058101956811","-30,1834880437022","5,09804856967789","-4,83868868537241","1,06212628576695"
"4279","-0,228585325944023","-0,308643008077157","-33,5620023243239","3,90189338115372","-3,0842825943325","1,02125008357655"
"4279","-0,825237606670693","0,597997367924704","-32,3766302693922","-2,89281084362002","-2,4141590976251","-3,96659174149758"
"4291","-2,73386001802113","2,56931818319276","-23,2964140163234","-1,81366732701473","-2,1581946985428","-2,6726659794943"
"4291","-2,16625446394964","2,17488910781566","-26,1069907099191","1,79048179547499","-2,06042499800331","1,0858237421517"
"4299","-2,03766460374516","0,360914711516683","-30,3024371018469","1,33980638464002","-2,02308029546712","0,371402297518262"
"4299","-2,00853283780524","0,803679103846367","-29,3140438582556","-1,99418158283531","-0,390781899648154","5,10089714559166"
"4307","-2,0019330966948","0,939692095936","-27,3168424813594","-1,42737132122816","-0,767299392227239","3,71860468364421"
"4311","-2,00043793904405","0,981473987925634","-27,8352769414769","0,386412323494509","-2,52915026578346","-1,72806398547632"
"4319","-0,226647138672514","6,0727376417006","-33,2369214312155","0,166108031049745","-2,20211741637324","-0,591078376305018"
"4320","-0,824798514367057","4,63672520498123","-31,5393668806559","-1,49872222687608","1,15886599416353","-1,86012975711486"
"4328","0,813143608446857","-2,57564230649034","-27,6122925795011","-1,21438696985115","0,44264742136403","-1,29420444180309"
"4331","0,184215996806784","-0,791212714317697","-28,6653957478288","-4,23241406492304","-4,68502569632112","-1,10063162314835"
"4340","-1,73171832377435","3,14256611550124","-27,1604403372867","-3,52978091358747","-3,64362254407771","-1,03442070254075"
"4340","-1,16576926756313","2,35098539702316","-27,7975652295682","-1,65761074386932","-0,00977395841221806","-2,66972690355639"
"4348","-4,58445883452876","2,10781936139377","-26,1923090654811","-1,85281627492074","-0,621767308658734","-2,22907779691548"
"4348","-3,35895586040397","2,03312107794215","-26,8052494227977","2,77365273941506","3,9985739986857","4,55345840288466"
"4360","-1,30786862964944","0,317364926891295","-33,9885610185577","1,76244453501341","2,76338733846615","2,87340171395532"
"4360","-1,84319907457195","0,790301025991932","-31,7206023473758","1,32775393742719","-5,79858192703673","-1,01716277068952"
"4369","-0,191025000277034","-0,757227073678881","-27,6559921064424","1,14089240405814","-4,06896317582685","-0,347917047048091"
"4369","-0,816728392847629","-0,232612924089101","-28,6759325852893","1,06056576978787","4,68186234330565","-0,119003836076903"
"4377","-0,958480197781495","1,6213530834953","-32,4396204647986","1,02603555879764","3,02438026199432","-0,0407048551405438"
"4381","-0,990593774982119","1,19087373215728","-31,3471215343513","-0,558935530529675","0,773244453927412","-0,0139229564914356"
"4389","-6,31822526577181","2,75144413919884","-24,0481786928659","-0,240271013150926","0,913387088537814","-0,0047622996518007"
"4389","-4,52518912246327","2,23083646185475","-26,2882563381686","1,46684160044523","-0,651117177063864","1,65632449166112"
"4397","1,20137572086758","3,76372030804255","-30,3461439013414","1,20068236530549","-0,248704630979513","1,22449354776255"
"4401","-0,5012828994125","3,234607583663","-29,3245824492754","4,22652283232256","-1,71303070462457","-0,581166169719136"
"4409","-0,887016675953717","-2,00635944689465","-25,5605037204243","3,52724843470877","-1,2723534941443","-0,198785900781509"
"4410","-0,974403862435217","-0,616334457573649","-26,652908409211","0,0863945995992275","0,514004210941568","1,58995938244962"
"4418","0,779250827349257","1,50347749367237","-35,7107083549474","0,607266163654993","0,196332138219109","1,20179358912345"
"4418","0,176537657593893","1,15466347689761","-32,8947266374681","-2,30908047806761","0,0749922037157572","2,72697622700173"
"4430","-3,50690991109553","1,04751114277538","-26,9390971574344","-1,5627376961764","0,0286444729281631","2,24865973220899"
"4430","-2,34138731275366","1,01459496923968","-28,5030747517469","-1,24190545959816","-1,60709277368116","-4,54676046888715"
"4438","-2,07734058715191","1,00448343514098","-28,8801812985788","-1,10398850437958","-1,23188880522176","-2,8711107085382"
"4438","-2,01752134949818","1,00137726845006","-28,9711092940825","3,66568070552009","2,14749433551568","1,01794640125728"
"4450","-0,230517349854127","4,38604218748004","-30,7519136958311","2,71603032700748","1,43830383426902","0,348185085203799"
"4450","-0,825675302677594","3,42577892067989","-30,181301559806","5,44805674834694","-2,06865081020843","-1,53885790235872"
"4458","-2,73395917714305","-0,25482388632562","-33,5614751189504","4,62247977274882","-1,40818828739451","-1,18431450262389"
"4458","-2,1662769282429","0,614530088052777","-32,3765031495417","-2,01292306965077","3,69818791427459","2,25286269466778"
"4470","-0,264217617475206","2,57439687689748","-28,5730228486124","-0,865300269749421","2,6486500639686","1,42853739995816"
"4470","-0,833310028361941","2,17644923401066","-29,6559270235553","-1,94209629037576","-0,988305699868577","-2,1693270878696"
"4478","-4,50914088390986","2,05420351926549","-26,3992774090432","-1,40498128641027","-0,377499186074544","-1,39996433134212"
"4478","-3,34189273501434","2,01665080337264","-27,6140334932503","0,396037183708858","-0,144191858355055","0,521146988300577"
"4486","2,24290113701084","-1,38050413601815","-27,9069356894354","0,170245493760241","-0,0550763889906204","0,178256545041096"
"4490","0,508124597428382","-0,424077684169623","-27,9775603174125","1,64331135705071","-1,6390712973667","0,0609720415992534"
"4499","-3,4317895780877","3,25534648993156","-29,7534691676872","1,27654186053192","-1,24410351435959","0,0208552783064656"
"4499","-2,32436895722366","2,38563045078312","-29,1816766154478","-0,451249760649654","5,37889670928751","4,98099373653059"
"4507","-0,300033038519372","-1,26715711278439","-29,0438058967985","-0,193979862172403","3,90865768722255","3,67759213264095"
"4511","-0,84142393766427","-0,38925856130981","-29,0105624853787","4,62699589567947","-3,12505960261944","-1,74209218828529"
"4519","-2,73752699771285","1,57323304000203","-29,0025468282932","3,69940079113748","-1,81170054008128","-0,595876675099792"
"4519","-2,16708521058795","1,17609171443321","-29,0006140916766","0,16039816322355","-2,9280760063743","1,45413584113262"
"4527","-0,264400732162878","2,74690324455012","-27,2412682420744","0,639078260466847","-2,35449349029172","1,15533561132842"
"4528","-0,833351512614377","2,22944154239276","-27,8170544678878","0,84484966997241","-2,13540446450086","2,71108543458184"
"4540","-0,962246131063217","0,377672698340251","-31,4736477974297","0,933305139948604","-2,05171990321085","2,2432243410078"
"4540","-0,991446939350865","0,808826997328224","-30,3553262106542","-0,598797787390773","-0,401721256381794","-2,89066620588855"
"4548","-0,998062321861893","0,941273479641546","-28,3267964892779","-0,257406701113762","-0,77147785468443","-1,64669590970229"
"4548","-0,99956102303948","0,981959773894784","-28,8376770535801","-0,110652061803678","0,7053216810784","0,436753295737101"
"4560","-0,999900550680695","0,994458214858622","-25,4431010075771","-0,047566278299778","0,269408909169735","0,149389971123664"
"4560","-0,999977469963119","0,998297616539057","-26,6246002468745","-0,0204474349091318","-3,13316293106898","-1,60685509125648"
"4568","0,773457179642062","-0,693332507822077","-33,9450028581543","-0,00878978993748882","-2,4328297248769","-1,20757270853801"
"4568","0,175225118730596","-0,212985123771362","-31,7100995962394","-4,71416099270333","2,68877572268798","2,24490730487722"
"4576","-1,73375518854186","1,62738255627044","-32,9300991647291","-3,73687066919923","1,64505492669114","1,4258162860875"
"4580","-1,16623071504868","1,19272592860098","-32,2242656707473","2,96374956915898","-1,98967892011435","-0,512304415592833"
"4589","-2,81111129898991","2,75201311625438","-25,0185556658799","1,84416193422056","-1,37802370953439","-0,175231973287747"
"4589","-2,18375558131739","2,23101124617141","-27,2811136288011","4,50313700250893","2,09167576901097","1,59801592279513"
"4597","-0,268177370052129","0,378154896347423","-34,8621813056616","3,64615725923742","1,41698303906751","1,2045493011955"
"4601","-0,834207102089741","0,808975123950128","-32,6901296492418","-1,43261726812326","-2,07679462930823","1,06996538892143"
"4609","-0,962439963083077","2,63412853460875","-23,3720050407723","-0,615842764805612","-1,4112989494924","1,02393142200104"
"4609","-0,991490851592665","2,1947982287097","-26,1252172307497","-1,83486136939274","-1,15710221916897","1,00818566105071"
"4617","-2,7715243455981","0,367030603285723","-33,8245915393207","-1,35888394297366","-1,06000770801451","1,00279987736768"
"4618","-2,17478723918955","0,805557847379529","-31,6810659983094","-1,15427433732861","2,21314707262523","-0,656995731491979"
"4630","-2,03959768626591","6,01869788365538","-27,646459095148","-1,066318294881","1,4633809483904","-0,224723143051076"
"4630","-2,00897077363819","4,62012470749123","-28,6736339839645","-1,02850841113357","-0,441038216203923","1,58108763743591"
"4638","-2,00203231014881","-0,887932268869402","-28,9213065700186","-1,01225498192948","-0,168461608252274","1,19875903908261"
"4638","-2,00046041564614","0,420045240313058","-28,9810254266132","3,70511442403518","1,553687380197","-0,589968570401861"
"4650","1,5467998448089","0,821843437484671","-25,4776651919651","2,7329817981207","1,21148976009337","-0,201796731831088"
"4650","0,350424294444507","0,945272005726082","-26,6329343689655","-0,825166285393914","-2,15528607741668","-0,0690238819840351"
"4658","-1,69406417891133","2,67599763479834","-32,1881325552915","-0,354716292989458","-1,44128001484363","-0,0236093827730269"
"4659","-1,15723879919593","2,20766001635916","-30,5276028984924","1,41764472203049","-2,7865879558641","-0,00807550863413075"
"4667","-2,80907419911627","0,370981621597336","-31,8860955295455","1,17953398025047","-2,30044986399879","-0,00276220011030638"
"4671","-2,18329408056903","0,806771562465188","-31,2136555066551","-2,06307828179148","2,73934033011743","1,65700861886901"
"4679","1,50537925749353","-0,752167482198948","-25,7748771691035","-1,45698811736432","1,6643688881014","1,22472755113431"
"4679","0,34104054635701","-0,231058665915095","-27,4634779998846","3,51393587982731","-0,364267654563137","-0,581086129666109"
"4687","-1,6961900475645","1,62183053676027","-27,8706337229519","2,650799399614","-0,139137863040913","-0,198758523355106"
"4691","-1,15772041032705","1,1910204012397","-27,9688071810034","2,27976076409937","-0,0531459345596008","-1,7259380931355"
"4699","-2,80918330711844","1,05867964265615","-31,5102384377454","2,1202614587166","-0,0202999406378898","-1,24830464207043"
"4700","-2,18331879876047","1,01802582572284","-30,3641489521475","2,05169709376225","4,84634807889562","-1,08493175362574"
"4708","-0,268078417870406","4,39115646524915","-26,5700440024095","2,02222315887387","3,70524221107505","-1,02905061586363"
"4708","-0,834184684678348","3,42734997795957","-27,655208763646","-2,70082937890407","-1,58472341192014","0,648016756166181"
"4720","0,811017191043914","-0,254341272535858","-33,1935033611721","-1,73113977506292","-0,605310480585794","0,221651915248714"
"4720","0,183734261357545","0,614678342399121","-31,5288979081311","0,255830619202062","-0,23120802983724","-1,5821381404022"
"4728","-1,73182745994052","-0,811176684551118","-29,3686481268597","0,109974547534055","-0,0883136089259259","-1,19911836002954"
"4728","-1,16579399213507","-0,249185729228635","-29,84776832764","6,3277850385336","1,58430119180936","2,24779908587093"
"4740","-1,03756028481128","5,00188117982564","-28,2044140451324","5,00065077107554","1,2231831956041","1,42680540988659"
"4740","-1,00850920456729","3,61495877670594","-28,8081681775755","1,28989724484898","2,70328238375285","-2,16991950915022"
"4749","0,77152433287518","3,18890946218926","-27,1948656501303","1,69474635427146","2,26862996690454","-1,4001669670151"
"4749","0,1747872363072","3,0580311823433","-27,8058658669285","0,298652351310582","-2,75149444928891","-1,13687574250845"
"4757","0,0395976856129196","1,32501707302491","-31,4709500000399","0,698509933762961","-1,66901134852158","-1,04681787961407"
"4761","0,00897077349025533","1,79265169219177","-30,3546757172831","-0,699729789369147","1,98052838122395","0,641939524363852"
"4769","0,00203231011529651","1,93630458040826","-30,0855194700206","-0,300794593008403","1,37452851469363","0,219573218894678"
"4769","0,000460415638542554","1,98043337551267","-30,0206204693364","4,58107918043131","1,14305716285695","0,0751042685890821"
"4777","-1,77334776930165","1,99398931985562","-26,4872123554841","3,6796624580192","1,05464297387723","0,0256891582165428"
"4781","-1,17520033204506","1,99815357647296","-27,6352363826771","-1,4182143046017","1,02087175877473","-1,64916653125828"
"4790","-1,03969127159495","3,69224234821316","-29,6709279616012","-0,609651326887144","1,00797230244696","-1,22204519188677"
"4790","-1,00899197520025","3,21265023715258","-29,1617742656241","4,448310164482","-0,614988840183751","5,55586388138343"
"4798","-1,00203711331869","1,37251456975906","-30,7978868665985","3,62258870937603","-0,234904834248316","3,87422449964916"
"4798","-1,0004615037943","1,80724246949793","-30,1923866186573","0,127378761702289","1,5283083261887","1,64107208031325"
"4810","-1,00010455272674","-1,44483237594038","-24,7697488111673","0,624884127827556","1,20179582406452","1,8772299325939"
"4810","-1,00002368620324","-0,443838705017856","-26,462241449336","-2,3015069997858","-2,15898883149494","0,300053498343606"
"4818","0,773446709448784","3,24927609308196","-28,6292153934871","-1,55948206614315","-1,44269434104954","0,760585692904536"
"4818","0,17522274673004","2,38376568285465","-28,1517165240182","6,61013155245156","-1,16909419165369","-0,739844264922329"
"4830","-3,50720780142263","5,50350825585541","-29,7954617422108","5,1220237725278","-1,06458823391152","-0,253061200571421"
"4831","-2,34145479918899","4,46186337486256","-29,1918018722473","1,34207216026448","-1,02467051008087","1,57139470177638"
"4839","-0,303903800554799","-0,936548638559062","-25,5284876448286","1,71717491553337","-1,0094232963311","1,19544360358982"
"4839","-0,842300850769594","0,405110755922311","-26,6451886875508","-2,83196122950923","2,23246859858737","-2,24905602374358"
"4851","-2,73772566055682","2,51006525841614","-35,7088469743315","-1,78750975134874","1,47076111459343","-1,42723534118724"
"4851","-2,16713021724292","2,15668717530134","-32,8942778210535","0,231598716641401","4,41588272269269","2,16977245261919"
"4859","-2,03786300383612","2,04813280359487","-28,6978687665596","0,0995579190307518","3,54081907598487","1,40011666683159"
"4859","-2,00857778493407","2,0147859375054","-29,6860298927872","4,75317971516384","-3,26556144973767","-3,83700172240758"
"4867","-0,228491203864575","-1,38107700499959","-31,6831753015047","3,7536437449215","-1,8653674701983","-2,62834015665856"
"4871","-0,825216283508945","-0,424253664048742","-31,1647273463304","-1,38641178394001","-1,33054096085724","-0,556968181710416"
"4880","0,813048963714846","1,56248287870979","-29,2808392582941","-0,595980297863642","-1,12625541237342","-0,848462481709618"
"4880","0,184194555239182","1,17278936756853","-29,8265958381322","-0,256195539850522","2,18784270123678","2,36773972981764"
"4888","0,0417288941919855","1,05307924325308","-31,7170685864495","-0,110131416885056","1,45371553858396","1,46783069695515"
"4892","0,00945359437050018","1,01630543652058","-31,1728997010322","-0,0473424673676465","1,17330391451511","-0,497933530043583"
"4900","-3,54476245883432","2,69781842623533","-24,0061702944178","-0,0203512247444881","1,06619620496137","-0,170316461033625"
"4900","-2,34996272888058","2,21436315505894","-26,2781272659016","1,56137906941285","1,02528470036899","-0,0582561630193476"
"4907","1,46762082114082","3,75865986554599","-28,5848217498759","1,24132142331644","1,0096578961456","-0,0199263213264324"
"4907","0,332486450969277","3,23305306406482","-28,1410123210268","1,1037374432438","4,23975696556759","1,65113768990781"
"4919","-3,47158003562946","-0,314027428582774","-31,5517605707588","1,04459387394152","3,47354502305739","1,22271941996154"
"4920","-2,33338340279429","0,596343325376738","-30,3741607760091","2,5892971812668","-3,29125785139501","-2,23972642403611"
"4928","-0,302075242453836","2,56881007712125","-26,5724580551029","2,25332265181958","-1,87518262224284","-1,42404418351425"
"4928","-0,84188659472701","2,17473302248386","-27,6557908404471","5,24915144382148","-1,3342900153335","0,512910557217474"
"4940","-2,73763181171016","0,360866763593664","-29,6758840559978","4,53697585247713","-1,12768742375768","0,175439301957469"
"4940","-2,1671089559815","0,803664374702409","-29,1629692799583","-2,04967885351119","0,569261732810374","-3,25589842670281"
"4948","-2,03785818714147","-0,753121980600177","-25,5215355252114","-0,881100570401144","0,217438633438902","-2,42957576171863"
"4948","-2,00857669372189","-0,231351878706695","-26,6435123912716","-0,378760903851508","0,083054167506331","-2,1469349201596"
"4956","-0,228490956652722","-0,0710690872924242","-26,9140436464021","-0,162818896168796","0,0317238690800913","-2,05025858692756"
"4960","-0,825216227503613","-0,021831744772566","-26,9792741892202","3,07026363675255","0,012117439733943","1,29871606216449"
"4969","-4,50730725012417","5,07172215219169","-32,2716420723853","2,46007690385587","0,00462845012173776","0,444221387493266"
"4969","-3,34147732908591","3,63641325630393","-30,5477387276331","-0,942480594213609","3,23783588813106","3,4678512463084"
"4977","-1,30390890465619","-0,190119030376621","-28,3731910285021","-0,405146488061324","2,47281123677165","2,50207349879242"
"4981","-1,84230200709317","0,634406801747041","-28,8488637128662","-3,31441633567707","-2,67350414406579","-2,80212773672469"
"4989","-1,96427384701056","-0,805116290283389","-27,2046781646067","-2,56503143461997","-1,63922170271933","-1,61641162912371"
"4989","-1,99190631419019","-0,247324033997771","-27,8082318621086","0,897363527818539","-1,2441609640922","2,10506535030777"
"4997","1,54873775873963","3,30964352293402","-24,4360011779395","0,385751901993646","-1,09326118955728","1,37798382378232"
"4998","0,350863324823356","2,40230998068252","-25,6228883347298","3,30607913650186","0,582411384170261","-0,528665345738729"
"5010","-3,46741679299918","7,202014438899","-36,462349737236","2,56144750197792","0,222461353318167","-0,180828173490259"
"5010","-2,33244022881725","5,67643780224363","-33,0759625369858","6,95173334433357","-3,15109530171555","-1,71980507828549"
"5018","-0,301861568346904","0,129366575942395","-30,5005564443647","5,83899648962927","-2,43967928096502","-1,24620686531571"
"5018","-0,841838187301567","1,42535928020269","-30,8795740838692","-2,48997598878993","-2,16794254117952","-1,08421421626112"
"5030","0,809283305909538","-1,56214324398802","-29,2120830545508","-1,07037220013744","-2,06414834257355","-1,02880518466202"
"5030","0,183341453279046","-0,479875483142304","-29,8100173304469","1,11000392897706","1,21156549095867","3,96400754500952"
"5038","-5,27882060081337","3,23820593906125","-26,4364316903727","1,04728766382207","0,462776837949757","2,67178206392343"
"5038","-3,51626207740167","2,38036503728031","-27,6229921399618","-3,69005483753197","1,7947990116405","-1,08612608244975"
"5046","-1,34350602661981","3,8096540581337","-27,909095799873","-2,72650809604037","1,30358620822185","-0,371505711983215"
"5050","-1,85127265288985","3,24871799293716","-27,9780811636132","-2,31230585060955","1,11595961302504","-0,127072258245433"
"5059","-0,192854052688169","-0,309215312062773","-20,9591956151308","-2,13425169637688","1,04429263085328","-0,043464631349527"
"5059","-0,817142760875157","0,597821561606904","-23,2668007231437","-0,487583610936968","2,6349522682847","-0,0148669285053662"
"5067","-2,73202614750707","0,876454625287369","-43,1708889700998","-0,779726286431209","2,24253018525091","-0,0050851820508096"
"5071","-2,16583900439089","0,962048040979349","-36,9701661553636","0,664817112907999","2,09263828746804","4,97212089078098"
"5079","1,50933366877352","2,6811510725854","-26,6806476635296","0,285786593539875","2,03538467715321","3,67455720609716"
"5080","0,341936410025075","2,20924310322231","-29,1996371930922","1,69297929832171","-1,22255223350821","-3,40108369450033"
"5088","-3,46943916701884","0,371467930760232","-24,5303768987399","1,29789274255403","-0,466973400178037","-1,8212824660694"
"5091","-2,33289839345395","0,806920951994861","-26,4045240525955","1,12805589760224","-1,7964019557758","-1,28091685875756"
"5100","1,47148671091455","2,63349751260531","-26,8564187370306","1,0550477086824","-1,30419847839946","-1,09608665081077"
"5100","0,333362260273825","2,19460438477769","-26,9653796611505","1,02366349608196","-1,11619347942259","-1,03286611029635"
"5108","-3,47138162284926","-1,32583849560246","-34,0271716492011","1,01017228619","-1,04438195986832","-1,01124174062575"
"5108","-2,33333845279075","-0,407284921593769","-31,7299121492847","1,00437278608253","-1,01695240018236","2,31206164100557"
"5120","-0,302065059123827","1,5676955143085","-29,4171167152981","1,00187974047981","-1,00647524067877","1,44878619709438"
"5120","-0,841884287714732","1,17439063943396","-29,8594550820297","-2,13944695375586","2,23359465564583","1,15350578388076"
"5129","-2,73763128906132","4,43919024244267","-29,9661117851795","-1,48981690920814","1,47119123011649","1,05250612839122"
"5129","-2,16710883757649","3,44210549550036","-29,9918288678075","-1,21055881869304","-0,43805495404627","1,01795954164683"
"5141","-2,03785816031706","3,13581058527737","-26,480270119566","-1,09051344552617","-0,167322103505402","1,0061429997992"
"5141","-2,00857668764488","3,04171971455027","-27,6335624695572","0,531218260247335","3,17215662102985","-0,655852227897655"
"5145","-2,00194303078496","3,01281589780798","-27,9116445195651","0,228356120916029","2,44772398909517","-0,224332011557386"
"5145","-2,00044018959155","3,00393692139064","-27,9786957113442","0,0981640163038387","2,17101534625567","-0,0767319973444325"
"5157","-2,00009972403835","-0,384409719121498","-31,5126227618838","0,0421980109762142","2,06532204967183","-0,0262459172705268"
"5161","-2,00002259227391","0,574722558006706","-30,3647238607943","-4,69224273931861","0,406916814009937","1,64897609372797"
"5169","-0,226553042723795","2,56216838390423","-30,0879422801142","-3,72744861484842","0,773462381107871","1,22198005338082"
"5170","-0,824777197125172","2,17269275776828","-30,0212046577234","-3,31271015377969","0,913470329313677","1,07592751809376"
"5178","0,813148437823762","2,05304956564525","-30,0051128707214","-3,13442549519088","0,96694860683316","1,02597074789413"
"5181","0,184217090892098","2,01629631984293","-30,0012328162687","-4,62791332476035","0,987375491185803","-3,96497705441228"
"5190","-3,50517015142056","-1,38061302997249","-26,4825376012382","-4,26992266991537","0,995177866724249","-2,67211368129896"
"5190","-2,34099317381018","-0,424111135352254","-27,6341092051284","-4,11603233258675","-3,85594385726274","-0,571940766109519"
"5198","-0,303799220283337","3,25533621404778","-29,6706561763566","-4,04987910874527","-2,70890747226278","-0,853583802997541"
"5198","-0,842277158326152","2,38562729412978","-29,1617087327191","-4,02144165711193","-2,27077855952561","-0,949918840554324"
"5210","-2,73772029308293","-1,26715808247814","-30,7978710652932","-4,00921717872012","-2,10342820631405","-0,982869910687674"
"5211","-2,16712900125285","-0,389258859190469","-30,1923828086438","-2,43383471040142","1,19656191808326","2,32176612840508"
"5219","-0,264410652847125","3,26604250037979","-33,5641470315781","-2,75662111225274","0,457045983064038","1,45210558382032"
"5219","-0,833353760124803","2,38891616302576","-32,3771474015746","-2,89537810938023","0,174576031108854","1,15464116875816"
"5231","-2,73569871574101","2,1194713303995","-25,0554185351407","-2,95502592645496","0,0666821102625231","1,05289448290556"
"5231","-2,16667101710184","2,03670045152246","-27,2900020101845","1,72971562111332","0,0254702996787157","1,0180923769803"
"5239","-0,264306897488263","-1,37434507561844","-27,8288051624457","0,74355717618101","0,00972878877362386","1,00618843567072"
"5239","-0,833330254563598","-0,422185679645461","-27,958721471292","-1,25049271995541","3,23978404414195","4,3180235731971"
"5247","-0,962241315095935","-0,129691408118513","-27,9900469140504","-1,1076799314468","2,47355536615242","3,45082545561086"
"5247","-0,991445848303473","-0,0398399617767412","-27,9976001102021","-1,04628864119665","2,18088205431532","3,15420330528212"
"5260","-0,99806207468737","3,37338064805656","-31,5171809937915","-1,01989821385511","2,06909079679355","3,05274471320106"
"5260","-0,999560967042605","2,42188941671055","-30,3658229424567","2,1317013075823","-1,20967764143447","1,36008772879498"
"5268","0,773551537514249","0,436790847090934","-31,8470871186903","1,48648726893305","-0,462055743597158","1,78112019611516"
"5272","0,1752464953107","0,826987527934744","-31,2042497919131","-3,50125500583135","-0,176489589357008","1,92513291164357"
"5280","0,0397017297869663","0,94685222117659","-25,7726092615454","-2,64534824062298","-0,0674130244738653","1,97439196847089"
"5280","0,00899434448194099","0,983673510006859","-27,4629311616236","-2,2774174607628","-0,025749484064588","1,99124086039417"
"5288","-3,5448665009434","6,07341331387438","-31,388261524849","-2,11925413705597","-0,00983542771989884","1,99700396625382"
"5288","-2,34998629940445","4,63693276501907","-30,3347378579075","-0,481136572636484","-3,2398247765949","-4,63283846297692"
"5296","-2,07928866973037","4,19565966150607","-30,080712049935","-0,77695488196742","-2,47357092456501","-2,90055339203244"
"5300","-2,01796268356307","4,06010477909631","-30,0194613033776","-4,04437404026948","1,05517998039967","4,32378247200136"
"5309","-0,230617333170535","-2,75277459351086","-26,4869328571885","-3,44894767832397","0,403042888264226","2,7948418472815"
"5309","-0,82569795369041","-0,84562606094337","-27,6351689899999","-6,33324526278365","5,00805065064269","-2,701987324383"
"5321","-0,960512233174023","1,43304130328395","-34,9475511953164","-5,57312547256412","3,76700709741417","-1,58215894355945"
"5321","-0,991054128382789","1,1330261520086","-32,7107140517347","1,0341391259954","4,91100463034971","-1,19912547567833"
"5329","-0,997973331352358","1,04086436324669","-25,135848183262","-0,125579531096017","4,34797280488505","-1,0681101879526"
"5329","-0,999540862424245","1,01255314205773","-27,3093952207881","-2,19423818931747","-5,57529014819391","2,29260998308581"
"5337","-2,77334805884413","1,00385620533398","-31,3512409123584","-2,08349765579526","-3,36563931696743","1,44213282402701"
"5341","-2,1752003976403","1,00118458944457","-30,3258114414494","1,10436165655615","3,95050815229121","-0,506723399592694"
"5346","-2,03969128645541","1,00036389456231","-30,0785597108617","0,47473470483139","2,74502781884149","-0,173323005851807"
"5346","-2,00899197856685","1,00011178493366","-30,0189423310097","1,77420289505735","-0,951492673266541","-3,37519138133231"
"5358","-2,00203711408139","2,69284389114771","-28,2456875502982","1,33280853304053","-0,36343786114132","-2,47037950887131"
"5362","-2,00046150396709","2,21283502539621","-28,8181200522477","-0,42706226554183","-1,75685489890731","4,47092197755481"
"5370","-2,00010455276589","5,45099999059396","-27,1972652478648","-0,183582323211814","-1,28909284683073","2,84517041194335"
"5370","-2,00002368621211","4,4457333373271","-27,8064444583474","-0,0789169920060421","-2,72845763033477","-4,3427260309327"
"5378","-2,00000536606219","-0,941503632017712","-31,4710895101024","-0,0339242445477503","-2,27824605542367","-2,80132142682756"
"5379","-2,00000121567025","0,403588629261335","-30,3547093559734","1,55554440147439","4,36585541906332","1,04181758638914"
"5391","-0,226548199898604","-0,876021428122625","-26,5677679253547","1,23881326003034","2,90367635761406","0,356350142439415"
"5391","-0,824776099993176","-0,269105415064344","-27,6546599555546","1,10265925282472","0,727139665028972","1,77984176748467"
"5399","-0,96030338913223","-0,0826666130440999","-27,9167315490214","1,04413038953193","0,895776626222749","1,26674220953261"
"5399","-0,991006815198579","-0,0253943939052619","-27,9799222967626","-5,26153956416679","2,57822420238917","1,09123826052025"
"5411","0,775489462860295","3,37781818852429","-27,9951588607383","-3,97217366347837","2,22086199219486","1,03120773497883"
"5411","0,175685528275665","2,42325258675537","-27,9988327036677","-0,277655719448904","2,08436177419542","-0,647278920950109"
"5419","-3,50710295922397","0,437209599907859","-33,2763580247565","-0,689484059159173","2,03222333039141","-0,221399541236431"
"5419","-2,34143104740648","0,827116164800225","-31,5488758388808","2,27373726588498","-2,84179374927088","4,89813130401018"
"5427","-0,30389841963777","0,946891737192942","-29,373465208962","1,54754462124147","-1,70350261195438","3,64924932098438"
"5432","-0,84229963173401","0,983685648949629","-29,8489298233059","1,23537437451213","-1,26871408659224","1,56412008985935"
"5440","-2,73772538438684","6,07341704284165","-29,9635739329837","1,10118097051408","-1,10263964782235","1,85090876743265"
"5440","-2,16713015467719","4,6369339105222","-29,9912169404491","1,0434949166212","2,19686312062497","0,291050433817798"
"5448","-2,03786298966198","4,19566001339369","-29,9978822271688","1,01869726849103","1,45716103219747","0,757506225473694"
"5448","-2,00857778172295","4,06010488719282","-29,9994893622503","-2,13221756096682","-0,443414012782445","-2,39885100619546"
"5460","-2,00194327864607","0,632844543463045","-28,2409970471215","-1,48670919206544","-0,169369081794914","-1,47847220264055"
"5460","-2,00044024574398","1,58002290266197","-28,8169890773141","5,07128710842636","-0,064693232602296","2,15224705938762"
"5469","1,54680441425837","0,178177495386363","-34,2325118582597","3,89038936493523","-0,0247106160119743","1,39412216601305"
"5469","0,3504253296438","0,747543976535795","-32,5383036436655","-1,3276286025711","-1,62747260418352","1,13480813899874"
"5481","-3,46751601989805","2,61525747290625","-28,6120362116149","-0,570711024803908","-1,2396732077887","1,04611066290472"
"5481","-2,33246270846524","2,18900121880889","-29,66533393236","-3,38558797679157","3,76255494706712","-3,95808826536082"
"5489","-2,07531873657347","2,0580593691004","-29,9193052601466","-2,59562616582625","2,67323608274037","-2,66975739456335"
"5489","-2,01706330344601","2,01783528361129","-29,9805428704322","-0,685915806980259","3,87518728990388","1,08681861368006"
"5497","-2,00386565598065","2,00547882876483","-29,9953084935684","-0,864983843127615","3,33429179822137","0,371742589922105"
"5497","-2,00087575633921","2,00168304386342","-29,9988687831614","-2,51208776851963","-0,108379872739547","-1,53080013843578"
"5509","-2,00019840078101","0,307707463114759","-28,2408474129847","-2,22013244863466","0,576636561059776","-1,18155837203136"
"5510","-2,00004494728516","0,787334345366753","-28,8169529975052","1,04562611674161","2,45632354466877","-1,06210142022912"
"5518","-2,00001018271416","4,32029024602199","-34,2325031586899","0,449485911565674","2,17430008419664","-1,02124157840437"
"5522","-2,00000230687276","3,40558055231888","-32,5383015460238","-1,37690586928721","-2,78752525832854","0,650687810722444"
"5530","-2,00000052261724","3,12459047161404","-25,0942760501984","-1,16202146782537","-1,68277389293257","0,222565540324757"
"5530","-2,00000011839785","3,03827300280612","-27,2993713409058","-4,20990357571873","1,97527155703063","0,0761277819005907"
"5538","-0,226547951313819","-2,06667155476877","-27,8310642970824","-3,52010427334505","1,37252058652467","0,0260392474443594"
"5542","-0,824776043676809","-0,634861761018331","-27,9592661942246","-0,083323521102308","1,14229020254338","1,66686005550499"
"5546","-0,960303376373874","-0,195023468859033","-27,9901782577377","-0,605945991467654","1,05435002110546","1,22809720134403"
"5546","-0,9910068123082","-0,0599093467919734","-27,9976317798146","-0,830607018708352","-0,597274127976882","-3,89584039227617"
"5559","-2,77141468750283","3,36721552468032","-35,0349482856067","-0,927182615860848","-0,228138416286214","-2,64846572246062"
"5559","-2,17476239637566","2,41999554969791","-32,7317872531938","0,601429692119055","-0,0871411208817613","6,06796161721621"
"5571","1,50731209283995","-1,2566004826492","-30,4175688406755","0,25853808457579","-0,0332849463590696","4,04938577883182"
"5571","0,341478426193124","-0,386015665367984","-30,8595640985786","0,111138412439548","-1,63074770694534","-1,61492144312885"
"5579","-3,46954292230542","1,5742292266596","-29,2072582434521","0,04777534706289","-1,24092418572706","-0,552378356639179"
"5579","-2,33292189899878","1,17639773345896","-29,808853971164","-6,2599726971651","0,526009138514049","-1,84689254774107"
"5591","3,24493346129112","2,74699725067178","-28,1950310087985","-4,97150011044514","0,200917612519315","-1,28967669960764"
"5591","1,50858501627597","2,2294704201754","-28,805905738239","3,43301632621592","0,0767436990438971","-1,09908292441514"
"5595","1,11521887986456","2,07049112120308","-28,9531999581843","2,04588680765859","0,0293134846123759","-1,03389097543556"
"5599","1,0261025980955","2,02165419911059","-28,9887155658592","-3,26078452831782","3,24726473229302","0,646361127728485"
"5612","-4,31444273710455","2,00665196312838","-36,0327984065625","-2,54197659557778","2,4764127347669","0,2210856132038"
"5612","-2,52433219844438","2,00204341953426","-33,7312688739885","-0,662853332160497","2,18197347200767","-4,89823868202012"
"5620","-0,345334295792425","3,69343727084626","-26,1408043655431","-0,855069919449403","2,0695076812561","-3,64928604926545"
"5620","-0,851686843476314","3,21301730597171","-28,3105902563131","0,632428957117298","-1,20951840573915","1,75177418729792"
"5628","0,807052113294123","1,3726273297941","-30,5926492317136","0,271863816080107","-0,461994920973771","0,599188369749915"
"5632","0,182835981222885","1,80727710830362","-30,1428996847953","0,116866777939028","-0,176466357182159","1,86290375263675"
"5641","-3,50548303894961","0,247987816653704","-26,51669634097","0,050237813853925","-0,0674041505727055","1,29515327748437"
"5641","-2,34106405783049","0,768989040409043","-27,6423455663341","-1,54853164667316","3,21032188296383","1,10095616914815"
"5648","-2,07726735441999","0,929035639803511","-27,9137623013723","-1,23579866960078","2,46230182196441","1,03453171239004"
"5649","-2,01750475877476","0,978200426390964","-27,9792063512582","2,03889163918887","0,558549594179508","2,66976487409569"
"5661","-0,23051359126017","2,68611293109814","-27,994986231835","1,44659094487228","0,831380949324006","2,22909078460859"
"5661","-0,825674451175934","2,21076733876233","-27,9987910793568","-3,51840533834643","0,935593253792511","-1,23754712054846"
"5669","-2,73395898423712","2,06474571324265","-33,2763479882955","-2,65272069691569","0,975398812053528","-0,423298760209455"
"5669","-2,16627688454046","2,01988926466461","-31,5488734188876","2,42979582676808","-2,24546479513172","3,17111894667965"
"5681","-2,03766968308348","3,69891934400887","-32,8912242810856","1,61462990476018","-1,47572521994889","2,40057723052"
"5682","-2,0085339885188","3,21470134648313","-32,2148921521096","-3,44617001077148","-7,65384681971454","-2,83684418817307"
"5690","-0,228481281877595","-0,319664900930392","-26,7751753492684","-2,62166871615277","-6,01367928419514","-1,6282862726124"
"5690","-0,825214035703388","0,594611547720031","-28,4635498971373","2,44314421932989","1,0849449221287","2,10100366911339"
"5698","-0,960402602558439","0,875468539683001","-28,8706510588298","1,62036801162506","-0,203621904418339","1,37659453962061"
"5698","-0,991029291794368","0,961745124900662","-28,9688113610333","1,26667914730403","0,922223353366177","1,12881287433517"
"5710","-0,997967704674799","2,68105801965945","-30,7513596178186","1,11463803141705","0,352257975766975","1,04406000313017"
"5710","-0,999539587712123","2,20921451825229","-30,1811679604202","4,18953473951036","-1,48348341481515","-0,642882846583317"
"5718","-2,77334777006074","-1,32135040215336","-30,0436832498107","3,51134827082746","-1,18467423146252","-0,219895879033713"
"5722","-2,17520033221703","-0,405906222155954","-30,0105329127159","0,0795595564209766","0,547494709177477","-0,0752146333861507"
"5731","-2,03969127163391","1,56811903760662","-31,761419525544","0,60432796656487","0,209124370245057","-0,0257269081179358"
"5731","-2,00899197520907","1,1745207417457","-31,1835936071031","-2,31034352819258","0,0798784015576947","1,64915361903361"
"5739","-0,228585037811722","2,74642065674627","-27,5265084665237","-1,56328064668967","0,0305108344280268","1,22204077530448"
"5743","-0,825237541394918","2,22929329602904","-28,6447114677371","-1,242138859092","-1,60637988702351","-2,23995855212011"
"5747","-0,960407927724069","2,07043671035719","-28,9143327679259","-1,10408883640321","-1,23161650674866","-1,42412358213151"
"5747","-0,991030498199589","2,02163748461845","-28,9793439022518","-1,044744928197","0,529564355527426","-2,80302344074821"
"5759","-0,997967977983398","0,313837276712205","-27,2361395703379","-1,01923461409059","0,202275584581044","-2,27467142159177"
"5760","-0,999539649629619","0,789217365552621","-27,8158178416756","-1,00826843162168","0,0772623982157045","-2,09395042038742"
"5772","-2,77334778408802","0,935249588069006","-33,2322294497209","-1,00355437136199","0,0295116100660699","-2,03213541998589"
"5772","-2,17520033539488","0,980109291943212","-31,53823554927","5,27898207848697","-4,84282953426718","2,96286844940629"
