Timer,AX,AY,AZ,GX,GY,GZ
"1007","8.19960079840319","1.19960079840319","-16.8003992015968","-4.1187624750499","-0.00898203592814371","-4.04590818363273"
"1011","8.19960079840319","1.19960079840319","-16.8003992015968","-3.1187624750499","0.991017964071856","0.954091816367265"
"1019","2.19960079840319","9.19960079840319","-35.8003992015968","-3.1187624750499","0.991017964071856","0.954091816367265"
"1019","2.19960079840319","9.19960079840319","-35.8003992015968","-6.1187624750499","0.991017964071856","1.95409181636727"
"1027","8.19960079840319","1.19960079840319","-28.8003992015968","-6.1187624750499","0.991017964071856","1.95409181636727"
"1031","8.19960079840319","1.19960079840319","-28.8003992015968","-6.1187624750499","2.99101796407186","-0.0459081836327345"
"1039","-1.80039920159681","9.19960079840319","-34.8003992015968","-6.1187624750499","2.99101796407186","-0.0459081836327345"
"1039","-1.80039920159681","9.19960079840319","-34.8003992015968","-4.1187624750499","0.991017964071856","-2.04590818363273"
"1048","10.1996007984032","0.199600798403194","-17.8003992015968","-4.1187624750499","0.991017964071856","-2.04590818363273"
"1051","10.1996007984032","0.199600798403194","-17.8003992015968","-2.1187624750499","0.991017964071856","0.954091816367265"
"1060","9.19960079840319","-1.80039920159681","-18.8003992015968","-2.1187624750499","0.991017964071856","0.954091816367265"
"1060","9.19960079840319","-1.80039920159681","-18.8003992015968","-5.1187624750499","-1.00898203592814","-0.0459081836327345"
"1068","6.19960079840319","7.19960079840319","-32.8003992015968","-5.1187624750499","-1.00898203592814","-0.0459081836327345"
"1069","6.19960079840319","7.19960079840319","-32.8003992015968","-6.1187624750499","0.991017964071856","-2.04590818363273"
"1080","1.19960079840319","0.199600798403194","-25.8003992015968","-6.1187624750499","0.991017964071856","-2.04590818363273"
"1081","1.19960079840319","0.199600798403194","-25.8003992015968","-3.1187624750499","-1.00898203592814","-2.04590818363273"
"1089","11.1996007984032","3.19960079840319","-24.8003992015968","-3.1187624750499","-1.00898203592814","-2.04590818363273"
"1089","11.1996007984032","3.19960079840319","-24.8003992015968","-2.1187624750499","1.99101796407186","-0.0459081836327345"
"1101","16.1996007984032","0.199600798403194","-17.8003992015968","-2.1187624750499","1.99101796407186","-0.0459081836327345"
"1101","16.1996007984032","0.199600798403194","-17.8003992015968","-4.1187624750499","0.991017964071856","-2.04590818363273"
"1109","-4.80039920159681","4.19960079840319","-38.8003992015968","-4.1187624750499","0.991017964071856","-2.04590818363273"
"1109","-4.80039920159681","4.19960079840319","-38.8003992015968","-5.1187624750499","1.99101796407186","-0.0459081836327345"
"1117","15.1996007984032","0.199600798403194","-13.8003992015968","-5.1187624750499","1.99101796407186","-0.0459081836327345"
"1121","15.1996007984032","0.199600798403194","-13.8003992015968","-2.1187624750499","-1.00898203592814","-1.04590818363273"
"1130","15.1996007984032","1.19960079840319","-17.8003992015968","-2.1187624750499","-1.00898203592814","-1.04590818363273"
"1130","15.1996007984032","1.19960079840319","-17.8003992015968","-2.1187624750499","2.99101796407186","-1.04590818363273"
"1138","1.19960079840319","10.1996007984032","-41.8003992015968","-2.1187624750499","2.99101796407186","-1.04590818363273"
"1138","1.19960079840319","10.1996007984032","-41.8003992015968","0.8812375249501","0.991017964071856","1.95409181636727"
"1150","7.19960079840319","-5.80039920159681","-12.8003992015968","0.8812375249501","0.991017964071856","1.95409181636727"
"1150","7.19960079840319","-5.80039920159681","-12.8003992015968","-2.1187624750499","-0.00898203592814371","0.954091816367265"
"1158","12.1996007984032","1.19960079840319","-17.8003992015968","-2.1187624750499","-0.00898203592814371","0.954091816367265"
"1158","12.1996007984032","1.19960079840319","-17.8003992015968","1.8812375249501","-1.00898203592814","-1.04590818363273"
"1170","4.19960079840319","7.19960079840319","-36.8003992015968","1.8812375249501","-1.00898203592814","-1.04590818363273"
"1170","4.19960079840319","7.19960079840319","-36.8003992015968","2.8812375249501","-2.00898203592814","3.95409181636727"
"1179","7.19960079840319","1.19960079840319","-16.8003992015968","2.8812375249501","-2.00898203592814","3.95409181636727"
"1179","7.19960079840319","1.19960079840319","-16.8003992015968","-0.1187624750499","-4.00898203592814","-0.0459081836327345"
"1187","2.19960079840319","6.19960079840319","-36.8003992015968","-0.1187624750499","-4.00898203592814","-0.0459081836327345"
"1191","2.19960079840319","6.19960079840319","-36.8003992015968","-0.1187624750499","0.991017964071856","-1.04590818363273"
"1199","8.19960079840319","6.19960079840319","-34.8003992015968","-0.1187624750499","0.991017964071856","-1.04590818363273"
"1199","8.19960079840319","6.19960079840319","-34.8003992015968","-1.1187624750499","0.991017964071856","0.954091816367265"
"1207","4.19960079840319","2.19960079840319","-19.8003992015968","-1.1187624750499","0.991017964071856","0.954091816367265"
"1211","4.19960079840319","2.19960079840319","-19.8003992015968","-3.1187624750499","-5.00898203592814","-1.04590818363273"
"1220","9.19960079840319","2.19960079840319","-30.8003992015968","-3.1187624750499","-5.00898203592814","-1.04590818363273"
"1220","9.19960079840319","2.19960079840319","-30.8003992015968","-3.1187624750499","-0.00898203592814371","-0.0459081836327345"
"1228","7.19960079840319","5.19960079840319","-38.8003992015968","-3.1187624750499","-0.00898203592814371","-0.0459081836327345"
"1228","7.19960079840319","5.19960079840319","-38.8003992015968","-0.1187624750499","-0.00898203592814371","-0.0459081836327345"
"1240","5.19960079840319","0.199600798403194","-17.8003992015968","-0.1187624750499","-0.00898203592814371","-0.0459081836327345"
"1240","5.19960079840319","0.199600798403194","-17.8003992015968","2.8812375249501","-4.00898203592814","-2.04590818363273"
"1248","5.19960079840319","7.19960079840319","-34.8003992015968","2.8812375249501","-4.00898203592814","-2.04590818363273"
"1249","5.19960079840319","7.19960079840319","-34.8003992015968","-0.1187624750499","2.99101796407186","1.95409181636727"
"1261","13.1996007984032","-1.80039920159681","-17.8003992015968","-0.1187624750499","2.99101796407186","1.95409181636727"
"1261","13.1996007984032","-1.80039920159681","-17.8003992015968","-0.1187624750499","-3.00898203592814","-0.0459081836327345"
"1269","20.1996007984032","-5.80039920159681","-13.8003992015968","-0.1187624750499","-3.00898203592814","-0.0459081836327345"
"1269","20.1996007984032","-5.80039920159681","-13.8003992015968","-2.1187624750499","-4.00898203592814","1.95409181636727"
"1281","-11.8003992015968","10.1996007984032","-40.8003992015968","-2.1187624750499","-4.00898203592814","1.95409181636727"
"1281","-11.8003992015968","10.1996007984032","-40.8003992015968","4.8812375249501","1.99101796407186","1.95409181636727"
"1289","27.1996007984032","-3.80039920159681","-15.8003992015968","4.8812375249501","1.99101796407186","1.95409181636727"
"1290","27.1996007984032","-3.80039920159681","-15.8003992015968","-2.1187624750499","-6.00898203592814","-2.04590818363273"
"1298","29.1996007984032","-4.80039920159681","-17.8003992015968","-2.1187624750499","-6.00898203592814","-2.04590818363273"
"1302","29.1996007984032","-4.80039920159681","-17.8003992015968","0.8812375249501","-2.00898203592814","0.954091816367265"
"1310","29.1996007984032","-4.80039920159681","-17.8003992015968","0.8812375249501","-2.00898203592814","0.954091816367265"
"1310","29.1996007984032","-4.80039920159681","-17.8003992015968","0.8812375249501","-2.00898203592814","0.954091816367265"
"1318","26.1996007984032","-2.80039920159681","-15.8003992015968","0.8812375249501","-2.00898203592814","0.954091816367265"
"1322","26.1996007984032","-2.80039920159681","-15.8003992015968","-3.1187624750499","-4.00898203592814","0.954091816367265"
"1330","22.1996007984032","-1.80039920159681","-20.8003992015968","-3.1187624750499","-4.00898203592814","0.954091816367265"
"1331","22.1996007984032","-1.80039920159681","-20.8003992015968","-1.1187624750499","1.99101796407186","-1.04590818363273"
"1339","-3.80039920159681","6.19960079840319","-38.8003992015968","-1.1187624750499","1.99101796407186","-1.04590818363273"
"1342","-3.80039920159681","6.19960079840319","-38.8003992015968","-4.1187624750499","-5.00898203592814","-1.04590818363273"
"1351","11.1996007984032","0.199600798403194","-12.8003992015968","-4.1187624750499","-5.00898203592814","-1.04590818363273"
"1351","11.1996007984032","0.199600798403194","-12.8003992015968","-0.1187624750499","-0.00898203592814371","0.954091816367265"
"1359","11.1996007984032","0.199600798403194","-12.8003992015968","-0.1187624750499","-0.00898203592814371","0.954091816367265"
"1359","11.1996007984032","0.199600798403194","-12.8003992015968","-0.1187624750499","-0.00898203592814371","0.954091816367265"
"1371","-5.80039920159681","1.19960079840319","-43.8003992015968","-0.1187624750499","-0.00898203592814371","0.954091816367265"
"1371","-5.80039920159681","1.19960079840319","-43.8003992015968","-1.1187624750499","-5.00898203592814","-0.0459081836327345"
"1380","23.1996007984032","-2.80039920159681","-16.8003992015968","-1.1187624750499","-5.00898203592814","-0.0459081836327345"
"1380","23.1996007984032","-2.80039920159681","-16.8003992015968","-3.1187624750499","-1.00898203592814","0.954091816367265"
"1388","-13.8003992015968","7.19960079840319","-35.8003992015968","-3.1187624750499","-1.00898203592814","0.954091816367265"
"1392","-13.8003992015968","7.19960079840319","-35.8003992015968","2.8812375249501","0.991017964071856","1.95409181636727"
"1400","-3.80039920159681","4.19960079840319","-24.8003992015968","2.8812375249501","0.991017964071856","1.95409181636727"
"1400","-3.80039920159681","4.19960079840319","-24.8003992015968","-3.1187624750499","-2.00898203592814","0.954091816367265"
"1408","13.1996007984032","-2.80039920159681","-32.8003992015968","-3.1187624750499","-2.00898203592814","0.954091816367265"
"1412","13.1996007984032","-2.80039920159681","-32.8003992015968","-4.1187624750499","0.991017964071856","0.954091816367265"
"1420","4.19960079840319","5.19960079840319","-21.8003992015968","-4.1187624750499","0.991017964071856","0.954091816367265"
"1421","4.19960079840319","5.19960079840319","-21.8003992015968","-0.1187624750499","-2.00898203592814","-1.04590818363273"
"1429","8.19960079840319","1.19960079840319","-34.8003992015968","-0.1187624750499","-2.00898203592814","-1.04590818363273"
"1429","8.19960079840319","1.19960079840319","-34.8003992015968","1.8812375249501","1.99101796407186","1.95409181636727"
"1441","5.19960079840319","3.19960079840319","-19.8003992015968","1.8812375249501","1.99101796407186","1.95409181636727"
"1441","5.19960079840319","3.19960079840319","-19.8003992015968","0.8812375249501","-4.00898203592814","2.95409181636727"
"1449","1.19960079840319","1.19960079840319","-30.8003992015968","0.8812375249501","-4.00898203592814","2.95409181636727"
"1449","1.19960079840319","1.19960079840319","-30.8003992015968","-3.1187624750499","0.991017964071856","0.954091816367265"
"1457","1.19960079840319","1.19960079840319","-30.8003992015968","-3.1187624750499","0.991017964071856","0.954091816367265"
"1457","1.19960079840319","1.19960079840319","-30.8003992015968","-3.1187624750499","0.991017964071856","0.954091816367265"
"1470","5.19960079840319","2.19960079840319","-35.8003992015968","-3.1187624750499","0.991017964071856","0.954091816367265"
"1470","5.19960079840319","2.19960079840319","-35.8003992015968","0.8812375249501","0.991017964071856","-0.0459081836327345"
"1478","9.19960079840319","2.19960079840319","-23.8003992015968","0.8812375249501","0.991017964071856","-0.0459081836327345"
"1482","9.19960079840319","2.19960079840319","-23.8003992015968","1.8812375249501","-3.00898203592814","1.95409181636727"
"1490","-2.80039920159681","3.19960079840319","-30.8003992015968","1.8812375249501","-3.00898203592814","1.95409181636727"
"1490","-2.80039920159681","3.19960079840319","-30.8003992015968","-0.1187624750499","0.991017964071856","0.954091816367265"
"1498","1.19960079840319","3.19960079840319","-29.8003992015968","-0.1187624750499","0.991017964071856","0.954091816367265"
"1502","1.19960079840319","3.19960079840319","-29.8003992015968","-3.1187624750499","-3.00898203592814","-0.0459081836327345"
"1506","1.19960079840319","3.19960079840319","-29.8003992015968","-3.1187624750499","-3.00898203592814","-0.0459081836327345"
"1507","1.19960079840319","3.19960079840319","-29.8003992015968","-3.1187624750499","-3.00898203592814","-0.0459081836327345"
"1519","4.19960079840319","2.19960079840319","-30.8003992015968","-3.1187624750499","-3.00898203592814","-0.0459081836327345"
"1523","4.19960079840319","2.19960079840319","-30.8003992015968","-0.1187624750499","-1.00898203592814","-1.04590818363273"
"1531","10.1996007984032","2.19960079840319","-23.8003992015968","-0.1187624750499","-1.00898203592814","-1.04590818363273"
"1531","10.1996007984032","2.19960079840319","-23.8003992015968","-1.1187624750499","0.991017964071856","0.954091816367265"
"1539","9.19960079840319","1.19960079840319","-26.8003992015968","-1.1187624750499","0.991017964071856","0.954091816367265"
"1539","9.19960079840319","1.19960079840319","-26.8003992015968","-1.1187624750499","1.99101796407186","0.954091816367265"
"1551","6.19960079840319","1.19960079840319","-28.8003992015968","-1.1187624750499","1.99101796407186","0.954091816367265"
"1552","6.19960079840319","1.19960079840319","-28.8003992015968","-0.1187624750499","-3.00898203592814","-2.04590818363273"
"1556","6.19960079840319","1.19960079840319","-28.8003992015968","-0.1187624750499","-3.00898203592814","-2.04590818363273"
"1560","6.19960079840319","1.19960079840319","-28.8003992015968","-0.1187624750499","-3.00898203592814","-2.04590818363273"
"1568","7.19960079840319","1.19960079840319","-29.8003992015968","-0.1187624750499","-3.00898203592814","-2.04590818363273"
"1572","7.19960079840319","1.19960079840319","-29.8003992015968","-1.1187624750499","-0.00898203592814371","1.95409181636727"
"1580","6.19960079840319","3.19960079840319","-29.8003992015968","-1.1187624750499","-0.00898203592814371","1.95409181636727"
"1580","6.19960079840319","3.19960079840319","-29.8003992015968","-1.1187624750499","-0.00898203592814371","1.95409181636727"
"1588","5.19960079840319","1.19960079840319","-26.8003992015968","-1.1187624750499","-0.00898203592814371","1.95409181636727"
"1592","5.19960079840319","1.19960079840319","-26.8003992015968","-0.1187624750499","-1.00898203592814","-1.04590818363273"
"1601","3.19960079840319","5.19960079840319","-32.8003992015968","-0.1187624750499","-1.00898203592814","-1.04590818363273"
"1601","3.19960079840319","5.19960079840319","-32.8003992015968","1.8812375249501","-0.00898203592814371","-0.0459081836327345"
"1609","3.19960079840319","5.19960079840319","-32.8003992015968","1.8812375249501","-0.00898203592814371","-0.0459081836327345"
"1609","3.19960079840319","5.19960079840319","-32.8003992015968","-3.1187624750499","-1.00898203592814","1.95409181636727"
"1621","4.19960079840319","1.19960079840319","-26.8003992015968","-3.1187624750499","-1.00898203592814","1.95409181636727"
"1621","4.19960079840319","1.19960079840319","-26.8003992015968","-0.1187624750499","2.99101796407186","0.954091816367265"
"1629","3.19960079840319","3.19960079840319","-28.8003992015968","-0.1187624750499","2.99101796407186","0.954091816367265"
"1630","3.19960079840319","3.19960079840319","-28.8003992015968","2.8812375249501","-1.00898203592814","-1.04590818363273"
"1642","2.19960079840319","-0.800399201596806","-26.8003992015968","2.8812375249501","-1.00898203592814","-1.04590818363273"
"1642","2.19960079840319","-0.800399201596806","-26.8003992015968","2.8812375249501","0.991017964071856","-0.0459081836327345"
"1650","-3.80039920159681","1.19960079840319","-28.8003992015968","2.8812375249501","0.991017964071856","-0.0459081836327345"
"1650","-3.80039920159681","1.19960079840319","-28.8003992015968","0.8812375249501","-1.00898203592814","-4.04590818363273"
"1658","-3.80039920159681","1.19960079840319","-28.8003992015968","0.8812375249501","-1.00898203592814","-4.04590818363273"
"1658","-3.80039920159681","1.19960079840319","-28.8003992015968","-1.1187624750499","1.99101796407186","-1.04590818363273"
"1670","-2.80039920159681","2.19960079840319","-25.8003992015968","-1.1187624750499","1.99101796407186","-1.04590818363273"
"1671","-2.80039920159681","2.19960079840319","-25.8003992015968","-1.1187624750499","-3.00898203592814","-3.04590818363273"
"1678","-13.8003992015968","4.19960079840319","-36.8003992015968","-1.1187624750499","-3.00898203592814","-3.04590818363273"
"1682","-13.8003992015968","4.19960079840319","-36.8003992015968","-2.1187624750499","-3.00898203592814","-0.0459081836327345"
"1691","-9.80039920159681","1.19960079840319","-34.8003992015968","-2.1187624750499","-3.00898203592814","-0.0459081836327345"
"1691","-9.80039920159681","1.19960079840319","-34.8003992015968","-1.1187624750499","-2.00898203592814","-1.04590818363273"
"1699","-3.80039920159681","-3.80039920159681","-29.8003992015968","-1.1187624750499","-2.00898203592814","-1.04590818363273"
"1703","-3.80039920159681","-3.80039920159681","-29.8003992015968","-1.1187624750499","-0.00898203592814371","-0.0459081836327345"
"1707","-3.80039920159681","-3.80039920159681","-29.8003992015968","-1.1187624750499","-0.00898203592814371","-0.0459081836327345"
"1707","-3.80039920159681","-3.80039920159681","-29.8003992015968","-2.1187624750499","-6.00898203592814","-0.0459081836327345"
"1719","10.1996007984032","7.19960079840319","-18.8003992015968","-2.1187624750499","-6.00898203592814","-0.0459081836327345"
"1720","10.1996007984032","7.19960079840319","-18.8003992015968","0.8812375249501","-10.0089820359281","-0.0459081836327345"
"1732","1.19960079840319","10.1996007984032","-31.8003992015968","0.8812375249501","-10.0089820359281","-0.0459081836327345"
"1732","1.19960079840319","10.1996007984032","-31.8003992015968","4.8812375249501","-7.00898203592814","-1.04590818363273"
"1740","6.19960079840319","-4.80039920159681","-32.8003992015968","4.8812375249501","-7.00898203592814","-1.04590818363273"
"1740","6.19960079840319","-4.80039920159681","-32.8003992015968","0.8812375249501","-3.00898203592814","-3.04590818363273"
"1752","31.1996007984032","-7.80039920159681","-22.8003992015968","0.8812375249501","-3.00898203592814","-3.04590818363273"
"1752","31.1996007984032","-7.80039920159681","-22.8003992015968","-2.1187624750499","-3.00898203592814","-4.04590818363273"
"1756","31.1996007984032","-7.80039920159681","-22.8003992015968","-2.1187624750499","-3.00898203592814","-4.04590818363273"
"1760","31.1996007984032","-7.80039920159681","-22.8003992015968","-2.1187624750499","-9.00898203592814","-3.04590818363273"
"1769","34.1996007984032","8.19960079840319","-27.8003992015968","-2.1187624750499","-9.00898203592814","-3.04590818363273"
"1773","34.1996007984032","8.19960079840319","-27.8003992015968","4.8812375249501","-6.00898203592814","-3.04590818363273"
"1781","30.1996007984032","-13.8003992015968","-29.8003992015968","4.8812375249501","-6.00898203592814","-3.04590818363273"
"1781","30.1996007984032","-13.8003992015968","-29.8003992015968","2.8812375249501","-2.00898203592814","-2.04590818363273"
"1789","28.1996007984032","-16.8003992015968","-26.8003992015968","2.8812375249501","-2.00898203592814","-2.04590818363273"
"1793","28.1996007984032","-16.8003992015968","-26.8003992015968","1.8812375249501","4.99101796407186","-0.0459081836327345"
"1801","24.1996007984032","3.19960079840319","-23.8003992015968","1.8812375249501","4.99101796407186","-0.0459081836327345"
"1802","24.1996007984032","3.19960079840319","-23.8003992015968","-4.1187624750499","5.99101796407186","-0.0459081836327345"
"1809","24.1996007984032","3.19960079840319","-23.8003992015968","-4.1187624750499","5.99101796407186","-0.0459081836327345"
"1810","24.1996007984032","3.19960079840319","-23.8003992015968","4.8812375249501","4.99101796407186","-0.0459081836327345"
"1822","0.199600798403194","-2.80039920159681","-36.8003992015968","4.8812375249501","4.99101796407186","-0.0459081836327345"
"1822","0.199600798403194","-2.80039920159681","-36.8003992015968","1.8812375249501","6.99101796407186","-1.04590818363273"
"1830","4.19960079840319","-12.8003992015968","-35.8003992015968","1.8812375249501","6.99101796407186","-1.04590818363273"
"1830","4.19960079840319","-12.8003992015968","-35.8003992015968","-0.1187624750499","8.99101796407186","-1.04590818363273"
"1842","30.1996007984032","4.19960079840319","-11.8003992015968","-0.1187624750499","8.99101796407186","-1.04590818363273"
"1842","30.1996007984032","4.19960079840319","-11.8003992015968","-3.1187624750499","4.99101796407186","0.954091816367265"
"1851","13.1996007984032","26.1996007984032","-23.8003992015968","-3.1187624750499","4.99101796407186","0.954091816367265"
"1851","13.1996007984032","26.1996007984032","-23.8003992015968","5.8812375249501","0.991017964071856","-1.04590818363273"
"1859","13.1996007984032","26.1996007984032","-23.8003992015968","5.8812375249501","0.991017964071856","-1.04590818363273"
"1859","13.1996007984032","26.1996007984032","-23.8003992015968","10.8812375249501","8.99101796407186","-1.04590818363273"
"1871","-14.8003992015968","2.19960079840319","-35.8003992015968","10.8812375249501","8.99101796407186","-1.04590818363273"
"1871","-14.8003992015968","2.19960079840319","-35.8003992015968","5.8812375249501","14.9910179640719","-0.0459081836327345"
"1879","-2.80039920159681","13.1996007984032","-20.8003992015968","5.8812375249501","14.9910179640719","-0.0459081836327345"
"1883","-2.80039920159681","13.1996007984032","-20.8003992015968","-2.1187624750499","11.9910179640719","-0.0459081836327345"
"1891","-7.80039920159681","17.1996007984032","-37.8003992015968","-2.1187624750499","11.9910179640719","-0.0459081836327345"
"1892","-7.80039920159681","17.1996007984032","-37.8003992015968","-0.1187624750499","5.99101796407186","-1.04590818363273"
"1900","-24.8003992015968","1.19960079840319","-39.8003992015968","-0.1187624750499","5.99101796407186","-1.04590818363273"
"1903","-24.8003992015968","1.19960079840319","-39.8003992015968","3.8812375249501","7.99101796407186","-1.04590818363273"
"1908","-24.8003992015968","1.19960079840319","-39.8003992015968","3.8812375249501","7.99101796407186","-1.04590818363273"
"1908","-24.8003992015968","1.19960079840319","-39.8003992015968","-0.1187624750499","6.99101796407186","-1.04590818363273"
"1920","58.1996007984032","6.19960079840319","-7.80039920159681","-0.1187624750499","6.99101796407186","-1.04590818363273"
"1920","58.1996007984032","6.19960079840319","-7.80039920159681","-4.1187624750499","3.99101796407186","0.954091816367265"
"1932","76.1996007984032","-36.8003992015968","20.1996007984032","-4.1187624750499","3.99101796407186","0.954091816367265"
"1933","76.1996007984032","-36.8003992015968","20.1996007984032","2.8812375249501","-3.00898203592814","-5.04590818363273"
"1941","-56.8003992015968","42.1996007984032","-79.8003992015968","2.8812375249501","-3.00898203592814","-5.04590818363273"
"1941","-56.8003992015968","42.1996007984032","-79.8003992015968","-3.1187624750499","-1.00898203592814","-3.04590818363273"
"1953","-49.8003992015968","-30.8003992015968","-73.8003992015968","-3.1187624750499","-1.00898203592814","-3.04590818363273"
"1953","-49.8003992015968","-30.8003992015968","-73.8003992015968","0.8812375249501","16.9910179640719","-1.04590818363273"
"1957","-49.8003992015968","-30.8003992015968","-73.8003992015968","0.8812375249501","16.9910179640719","-1.04590818363273"
"1961","-49.8003992015968","-30.8003992015968","-73.8003992015968","9.8812375249501","16.9910179640719","-6.04590818363273"
"1969","8.19960079840319","94.1996007984032","-9.80039920159681","9.8812375249501","16.9910179640719","-6.04590818363273"
"1973","8.19960079840319","94.1996007984032","-9.80039920159681","-14.1187624750499","-4.00898203592814","-14.0459081836327"
"1982","-34.8003992015968","-13.8003992015968","-60.8003992015968","-14.1187624750499","-4.00898203592814","-14.0459081836327"
"1982","-34.8003992015968","-13.8003992015968","-60.8003992015968","40.8812375249501","-11.0089820359281","-13.0459081836327"
"1990","22.1996007984032","-48.8003992015968","-17.8003992015968","40.8812375249501","-11.0089820359281","-13.0459081836327"
"1994","22.1996007984032","-48.8003992015968","-17.8003992015968","22.8812375249501","2.99101796407186","-17.0459081836327"
"2002","22.1996007984032","72.1996007984032","-17.8003992015968","22.8812375249501","2.99101796407186","-17.0459081836327"
"2002","22.1996007984032","72.1996007984032","-17.8003992015968","-34.1187624750499","-4.00898203592814","-14.0459081836327"
"2010","22.1996007984032","72.1996007984032","-17.8003992015968","-34.1187624750499","-4.00898203592814","-14.0459081836327"
"2010","22.1996007984032","72.1996007984032","-17.8003992015968","16.8812375249501","-12.0089820359281","-10.0459081836327"
"2023","14.1996007984032","-37.8003992015968","-26.8003992015968","16.8812375249501","-12.0089820359281","-10.0459081836327"
"2023","14.1996007984032","-37.8003992015968","-26.8003992015968","2.8812375249501","-6.00898203592814","-5.04590818363273"
"2031","19.1996007984032","-57.8003992015968","-44.8003992015968","2.8812375249501","-6.00898203592814","-5.04590818363273"
"2031","19.1996007984032","-57.8003992015968","-44.8003992015968","-25.1187624750499","7.99101796407186","-4.04590818363273"
"2043","-11.8003992015968","37.1996007984032","-29.8003992015968","-25.1187624750499","7.99101796407186","-4.04590818363273"
"2043","-11.8003992015968","37.1996007984032","-29.8003992015968","-12.1187624750499","1.99101796407186","-13.0459081836327"
"2051","41.1996007984032","-12.8003992015968","-46.8003992015968","-12.1187624750499","1.99101796407186","-13.0459081836327"
"2052","41.1996007984032","-12.8003992015968","-46.8003992015968","-3.1187624750499","2.99101796407186","-11.0459081836327"
"2060","41.1996007984032","-12.8003992015968","-46.8003992015968","-3.1187624750499","2.99101796407186","-11.0459081836327"
"2060","41.1996007984032","-12.8003992015968","-46.8003992015968","20.8812375249501","10.9910179640719","-20.0459081836327"
"2068","35.1996007984032","-80.8003992015968","18.1996007984032","20.8812375249501","10.9910179640719","-20.0459081836327"
"2068","35.1996007984032","-80.8003992015968","18.1996007984032","-18.1187624750499","-2.00898203592814","-24.0459081836327"
"2080","-15.8003992015968","-14.8003992015968","-17.8003992015968","-18.1187624750499","-2.00898203592814","-24.0459081836327"
"2084","-15.8003992015968","-14.8003992015968","-17.8003992015968","17.8812375249501","11.9910179640719","-22.0459081836327"
"2092","-75.8003992015968","-31.8003992015968","-2.80039920159681","17.8812375249501","11.9910179640719","-22.0459081836327"
"2093","-75.8003992015968","-31.8003992015968","-2.80039920159681","20.8812375249501","14.9910179640719","-23.0459081836327"
"2100","-149.800399201597","86.1996007984032","-170.800399201597","20.8812375249501","14.9910179640719","-23.0459081836327"
"2104","-149.800399201597","86.1996007984032","-170.800399201597","-17.1187624750499","7.99101796407186","-17.0459081836327"
"2109","-149.800399201597","86.1996007984032","-170.800399201597","-17.1187624750499","7.99101796407186","-17.0459081836327"
"2109","-149.800399201597","86.1996007984032","-170.800399201597","18.8812375249501","13.9910179640719","-12.0459081836327"
"2117","91.1996007984032","-10.8003992015968","8.19960079840319","18.8812375249501","13.9910179640719","-12.0459081836327"
"2117","91.1996007984032","-10.8003992015968","8.19960079840319","1.8812375249501","-50.0089820359281","-18.0459081836327"
"2133","90.1996007984032","105.199600798403","-14.8003992015968","1.8812375249501","-50.0089820359281","-18.0459081836327"
"2133","90.1996007984032","105.199600798403","-14.8003992015968","-21.1187624750499","-45.0089820359281","-25.0459081836327"
"2142","164.199600798403","-5.80039920159681","53.1996007984032","-21.1187624750499","-45.0089820359281","-25.0459081836327"
"2142","164.199600798403","-5.80039920159681","53.1996007984032","12.8812375249501","-19.0089820359281","-14.0459081836327"
"2154","90.1996007984032","-66.8003992015968","-19.8003992015968","12.8812375249501","-19.0089820359281","-14.0459081836327"
"2154","90.1996007984032","-66.8003992015968","-19.8003992015968","-16.1187624750499","-13.0089820359281","-17.0459081836327"
"2158","90.1996007984032","-66.8003992015968","-19.8003992015968","-16.1187624750499","-13.0089820359281","-17.0459081836327"
"2162","90.1996007984032","-66.8003992015968","-19.8003992015968","-37.1187624750499","11.9910179640719","-15.0459081836327"
"2170","10.1996007984032","-40.8003992015968","5.19960079840319","-37.1187624750499","11.9910179640719","-15.0459081836327"
"2174","10.1996007984032","-40.8003992015968","5.19960079840319","16.8812375249501","19.9910179640719","-13.0459081836327"
"2182","-127.800399201597","146.199600798403","-166.800399201597","16.8812375249501","19.9910179640719","-13.0459081836327"
"2183","-127.800399201597","146.199600798403","-166.800399201597","4.8812375249501","29.9910179640719","-21.0459081836327"
"2190","1.19960079840319","45.1996007984032","-90.8003992015968","4.8812375249501","29.9910179640719","-21.0459081836327"
"2194","1.19960079840319","45.1996007984032","-90.8003992015968","13.8812375249501","36.9910179640719","-13.0459081836327"
"2203","74.1996007984032","-143.800399201597","-30.8003992015968","13.8812375249501","36.9910179640719","-13.0459081836327"
"2203","74.1996007984032","-143.800399201597","-30.8003992015968","20.8812375249501","-13.0089820359281","-7.04590818363273"
"2211","74.1996007984032","-143.800399201597","-30.8003992015968","20.8812375249501","-13.0089820359281","-7.04590818363273"
"2211","74.1996007984032","-143.800399201597","-30.8003992015968","-53.1187624750499","-44.0089820359281","-16.0459081836327"
"2215","160.199600798403","27.1996007984032","60.1996007984032","-53.1187624750499","-44.0089820359281","-16.0459081836327"
"2219","160.199600798403","27.1996007984032","60.1996007984032","-15.1187624750499","-48.0089820359281","-12.0459081836327"
"2232","-48.8003992015968","-22.8003992015968","-45.8003992015968","-15.1187624750499","-48.0089820359281","-12.0459081836327"
"2232","-48.8003992015968","-22.8003992015968","-45.8003992015968","40.8812375249501","-8.00898203592814","0.954091816367265"
"2244","-82.8003992015968","5.19960079840319","-133.800399201597","40.8812375249501","-8.00898203592814","0.954091816367265"
"2244","-82.8003992015968","5.19960079840319","-133.800399201597","0.8812375249501","24.9910179640719","-6.04590818363273"
"2252","209.199600798403","6.19960079840319","4.19960079840319","0.8812375249501","24.9910179640719","-6.04590818363273"
"2252","209.199600798403","6.19960079840319","4.19960079840319","2.8812375249501","6.99101796407186","-8.04590818363273"
"2260","209.199600798403","6.19960079840319","4.19960079840319","2.8812375249501","6.99101796407186","-8.04590818363273"
"2260","209.199600798403","6.19960079840319","4.19960079840319","15.8812375249501","-41.0089820359281","-11.0459081836327"
"2268","165.199600798403","15.1996007984032","41.1996007984032","15.8812375249501","-41.0089820359281","-11.0459081836327"
"2268","165.199600798403","15.1996007984032","41.1996007984032","12.8812375249501","-32.0089820359281","-13.0459081836327"
"2281","119.199600798403","26.1996007984032","-92.8003992015968","12.8812375249501","-32.0089820359281","-13.0459081836327"
"2285","119.199600798403","26.1996007984032","-92.8003992015968","13.8812375249501","6.99101796407186","-9.04590818363273"
"2293","268.199600798403","-74.8003992015968","-2.80039920159681","13.8812375249501","6.99101796407186","-9.04590818363273"
"2293","268.199600798403","-74.8003992015968","-2.80039920159681","3.8812375249501","29.9910179640719","5.95409181636727"
"2301","165.199600798403","-99.8003992015968","92.1996007984032","3.8812375249501","29.9910179640719","5.95409181636727"
"2305","165.199600798403","-99.8003992015968","92.1996007984032","-13.1187624750499","-44.0089820359281","-6.04590818363273"
"2309","165.199600798403","-99.8003992015968","92.1996007984032","-13.1187624750499","-44.0089820359281","-6.04590818363273"
"2310","165.199600798403","-99.8003992015968","92.1996007984032","-22.1187624750499","-17.0089820359281","-2.04590818363273"
"2318","-156.800399201597","144.199600798403","-123.800399201597","-22.1187624750499","-17.0089820359281","-2.04590818363273"
"2318","-156.800399201597","144.199600798403","-123.800399201597","35.8812375249501","58.9910179640719","11.9540918163673"
"2334","114.199600798403","-22.8003992015968","16.1996007984032","35.8812375249501","58.9910179640719","11.9540918163673"
"2334","114.199600798403","-22.8003992015968","16.1996007984032","0.8812375249501","-19.0089820359281","-10.0459081836327"
"2342","2.19960079840319","85.1996007984032","-165.800399201597","0.8812375249501","-19.0089820359281","-10.0459081836327"
"2342","2.19960079840319","85.1996007984032","-165.800399201597","-30.1187624750499","-22.0089820359281","-4.04590818363273"
"2354","-4.80039920159681","-100.800399201597","57.1996007984032","-30.1187624750499","-22.0089820359281","-4.04590818363273"
"2354","-4.80039920159681","-100.800399201597","57.1996007984032","17.8812375249501","24.9910179640719","3.95409181636727"
"2358","-4.80039920159681","-100.800399201597","57.1996007984032","17.8812375249501","24.9910179640719","3.95409181636727"
"2362","-4.80039920159681","-100.800399201597","57.1996007984032","-53.1187624750499","-5.00898203592814","-4.04590818363273"
"2367","-10.8003992015968","166.199600798403","-141.800399201597","-53.1187624750499","-5.00898203592814","-4.04590818363273"
"2367","-10.8003992015968","166.199600798403","-141.800399201597","33.8812375249501","21.9910179640719","-2.04590818363273"
"2383","127.199600798403","-97.8003992015968","0.199600798403194","33.8812375249501","21.9910179640719","-2.04590818363273"
"2383","127.199600798403","-97.8003992015968","0.199600798403194","47.8812375249501","-12.0089820359281","2.95409181636727"
"2391","30.1996007984032","102.199600798403","-60.8003992015968","47.8812375249501","-12.0089820359281","2.95409181636727"
"2395","30.1996007984032","102.199600798403","-60.8003992015968","-61.1187624750499","-4.00898203592814","-4.04590818363273"
"2404","-15.8003992015968","12.1996007984032","-72.8003992015968","-61.1187624750499","-4.00898203592814","-4.04590818363273"
"2404","-15.8003992015968","12.1996007984032","-72.8003992015968","4.8812375249501","6.99101796407186","-2.04590818363273"
"2412","-15.8003992015968","12.1996007984032","-72.8003992015968","4.8812375249501","6.99101796407186","-2.04590818363273"
"2412","-15.8003992015968","12.1996007984032","-72.8003992015968","13.8812375249501","24.9910179640719","3.95409181636727"
"2416","135.199600798403","-77.8003992015968","9.19960079840319","13.8812375249501","24.9910179640719","3.95409181636727"
"2420","135.199600798403","-77.8003992015968","9.19960079840319","-22.1187624750499","-14.0089820359281","-5.04590818363273"
"2432","-26.8003992015968","-46.8003992015968","-42.8003992015968","-22.1187624750499","-14.0089820359281","-5.04590818363273"
"2432","-26.8003992015968","-46.8003992015968","-42.8003992015968","14.8812375249501","-6.00898203592814","-1.04590818363273"
"2444","38.1996007984032","-21.8003992015968","-63.8003992015968","14.8812375249501","-6.00898203592814","-1.04590818363273"
"2444","38.1996007984032","-21.8003992015968","-63.8003992015968","-5.1187624750499","23.9910179640719","-1.04590818363273"
"2453","155.199600798403","-20.8003992015968","16.1996007984032","-5.1187624750499","23.9910179640719","-1.04590818363273"
"2453","155.199600798403","-20.8003992015968","16.1996007984032","-5.1187624750499","11.9910179640719","-3.04590818363273"
"2461","155.199600798403","-20.8003992015968","16.1996007984032","-5.1187624750499","11.9910179640719","-3.04590818363273"
"2461","155.199600798403","-20.8003992015968","16.1996007984032","28.8812375249501","-14.0089820359281","-1.04590818363273"
"2473","104.199600798403","-15.8003992015968","-11.8003992015968","28.8812375249501","-14.0089820359281","-1.04590818363273"
"2473","104.199600798403","-15.8003992015968","-11.8003992015968","-15.1187624750499","1.99101796407186","-2.04590818363273"
"2481","131.199600798403","-5.80039920159681","1.19960079840319","-15.1187624750499","1.99101796407186","-2.04590818363273"
"2485","131.199600798403","-5.80039920159681","1.19960079840319","4.8812375249501","11.9910179640719","-2.04590818363273"
"2494","115.199600798403","36.1996007984032","-1.80039920159681","4.8812375249501","11.9910179640719","-2.04590818363273"
"2494","115.199600798403","36.1996007984032","-1.80039920159681","14.8812375249501","6.99101796407186","-0.0459081836327345"
"2502","81.1996007984032","27.1996007984032","-33.8003992015968","14.8812375249501","6.99101796407186","-0.0459081836327345"
"2506","81.1996007984032","27.1996007984032","-33.8003992015968","10.8812375249501","-11.0089820359281","-1.04590818363273"
"2510","81.1996007984032","27.1996007984032","-33.8003992015968","10.8812375249501","-11.0089820359281","-1.04590818363273"
"2510","81.1996007984032","27.1996007984032","-33.8003992015968","12.8812375249501","10.9910179640719","6.95409181636727"
"2522","47.1996007984032","-31.8003992015968","-29.8003992015968","12.8812375249501","10.9910179640719","6.95409181636727"
"2523","47.1996007984032","-31.8003992015968","-29.8003992015968","-12.1187624750499","6.99101796407186","5.95409181636727"
"2535","97.1996007984032","23.1996007984032","-29.8003992015968","-12.1187624750499","6.99101796407186","5.95409181636727"
"2535","97.1996007984032","23.1996007984032","-29.8003992015968","7.8812375249501","-0.00898203592814371","5.95409181636727"
"2543","85.1996007984032","6.19960079840319","-27.8003992015968","7.8812375249501","-0.00898203592814371","5.95409181636727"
"2543","85.1996007984032","6.19960079840319","-27.8003992015968","8.8812375249501","7.99101796407186","7.95409181636727"
"2551","76.1996007984032","34.1996007984032","-18.8003992015968","8.8812375249501","7.99101796407186","7.95409181636727"
"2555","76.1996007984032","34.1996007984032","-18.8003992015968","-14.1187624750499","2.99101796407186","6.95409181636727"
"2559","76.1996007984032","34.1996007984032","-18.8003992015968","-14.1187624750499","2.99101796407186","6.95409181636727"
"2559","76.1996007984032","34.1996007984032","-18.8003992015968","3.8812375249501","8.99101796407186","10.9540918163673"
"2572","106.199600798403","-19.8003992015968","6.19960079840319","3.8812375249501","8.99101796407186","10.9540918163673"
"2575","106.199600798403","-19.8003992015968","6.19960079840319","-16.1187624750499","9.99101796407186","11.9540918163673"
"2584","57.1996007984032","18.1996007984032","-51.8003992015968","-16.1187624750499","9.99101796407186","11.9540918163673"
"2584","57.1996007984032","18.1996007984032","-51.8003992015968","-21.1187624750499","3.99101796407186","8.95409181636727"
"2592","57.1996007984032","18.1996007984032","-51.8003992015968","-21.1187624750499","3.99101796407186","8.95409181636727"
"2592","57.1996007984032","18.1996007984032","-51.8003992015968","-5.1187624750499","18.9910179640719","4.95409181636727"
"2604","33.1996007984032","-22.8003992015968","-43.8003992015968","-5.1187624750499","18.9910179640719","4.95409181636727"
"2605","33.1996007984032","-22.8003992015968","-43.8003992015968","-15.1187624750499","16.9910179640719","-3.04590818363273"
"2608","33.1996007984032","-22.8003992015968","-43.8003992015968","-15.1187624750499","16.9910179640719","-3.04590818363273"
"2612","33.1996007984032","-22.8003992015968","-43.8003992015968","-7.1187624750499","22.9910179640719","-5.04590818363273"
"2621","35.1996007984032","10.1996007984032","-38.8003992015968","-7.1187624750499","22.9910179640719","-5.04590818363273"
"2621","35.1996007984032","10.1996007984032","-38.8003992015968","13.8812375249501","10.9910179640719","-9.04590818363273"
"2633","35.1996007984032","5.19960079840319","-52.8003992015968","13.8812375249501","10.9910179640719","-9.04590818363273"
"2633","35.1996007984032","5.19960079840319","-52.8003992015968","10.8812375249501","8.99101796407186","-10.0459081836327"
"2641","41.1996007984032","-14.8003992015968","0.199600798403194","10.8812375249501","8.99101796407186","-10.0459081836327"
"2645","41.1996007984032","-14.8003992015968","0.199600798403194","4.8812375249501","12.9910179640719","-8.04590818363273"
"2654","29.1996007984032","54.1996007984032","-21.8003992015968","4.8812375249501","12.9910179640719","-8.04590818363273"
"2654","29.1996007984032","54.1996007984032","-21.8003992015968","-5.1187624750499","-5.00898203592814","-10.0459081836327"
"2662","29.1996007984032","54.1996007984032","-21.8003992015968","-5.1187624750499","-5.00898203592814","-10.0459081836327"
"2662","29.1996007984032","54.1996007984032","-21.8003992015968","-2.1187624750499","-5.00898203592814","-5.04590818363273"
"2670","28.1996007984032","111.199600798403","-79.8003992015968","-2.1187624750499","-5.00898203592814","-5.04590818363273"
"2670","28.1996007984032","111.199600798403","-79.8003992015968","22.8812375249501","0.991017964071856","2.95409181636727"
"2682","104.199600798403","24.1996007984032","-32.8003992015968","22.8812375249501","0.991017964071856","2.95409181636727"
"2682","104.199600798403","24.1996007984032","-32.8003992015968","-3.1187624750499","-9.00898203592814","3.95409181636727"
"2694","-4.80039920159681","8.19960079840319","-34.8003992015968","-3.1187624750499","-9.00898203592814","3.95409181636727"
"2695","-4.80039920159681","8.19960079840319","-34.8003992015968","-55.1187624750499","-0.00898203592814371","8.95409181636727"
"2703","79.1996007984032","88.1996007984032","-0.800399201596806","-55.1187624750499","-0.00898203592814371","8.95409181636727"
"2703","79.1996007984032","88.1996007984032","-0.800399201596806","-28.1187624750499","12.9910179640719","3.95409181636727"
"2711","79.1996007984032","88.1996007984032","-0.800399201596806","-28.1187624750499","12.9910179640719","3.95409181636727"
"2711","79.1996007984032","88.1996007984032","-0.800399201596806","49.8812375249501","4.99101796407186","-4.04590818363273"
"2719","37.1996007984032","17.1996007984032","-70.8003992015968","49.8812375249501","4.99101796407186","-4.04590818363273"
"2723","37.1996007984032","17.1996007984032","-70.8003992015968","12.8812375249501","4.99101796407186","-6.04590818363273"
"2731","27.1996007984032","-34.8003992015968","-25.8003992015968","12.8812375249501","4.99101796407186","-6.04590818363273"
"2735","27.1996007984032","-34.8003992015968","-25.8003992015968","-37.1187624750499","2.99101796407186","-10.0459081836327"
"2740","14.1996007984032","82.1996007984032","-31.8003992015968","-37.1187624750499","2.99101796407186","-10.0459081836327"
"2743","14.1996007984032","82.1996007984032","-31.8003992015968","22.8812375249501","18.9910179640719","-7.04590818363273"
"2752","39.1996007984032","48.1996007984032","-34.8003992015968","22.8812375249501","18.9910179640719","-7.04590818363273"
"2756","39.1996007984032","48.1996007984032","-34.8003992015968","42.8812375249501","13.9910179640719","-7.04590818363273"
"2760","39.1996007984032","48.1996007984032","-34.8003992015968","42.8812375249501","13.9910179640719","-7.04590818363273"
"2760","39.1996007984032","48.1996007984032","-34.8003992015968","-2.1187624750499","-0.00898203592814371","-4.04590818363273"
"2768","37.1996007984032","-49.8003992015968","-5.80039920159681","-2.1187624750499","-0.00898203592814371","-4.04590818363273"
"2768","37.1996007984032","-49.8003992015968","-5.80039920159681","-27.1187624750499","-0.00898203592814371","-0.0459081836327345"
"2785","27.1996007984032","-6.80039920159681","-18.8003992015968","-27.1187624750499","-0.00898203592814371","-0.0459081836327345"
"2785","27.1996007984032","-6.80039920159681","-18.8003992015968","-15.1187624750499","1.99101796407186","-2.04590818363273"
"2793","44.1996007984032","58.1996007984032","-34.8003992015968","-15.1187624750499","1.99101796407186","-2.04590818363273"
"2793","44.1996007984032","58.1996007984032","-34.8003992015968","17.8812375249501","2.99101796407186","-5.04590818363273"
"2801","41.1996007984032","-30.8003992015968","6.19960079840319","17.8812375249501","2.99101796407186","-5.04590818363273"
"2805","41.1996007984032","-30.8003992015968","6.19960079840319","-1.1187624750499","5.99101796407186","-11.0459081836327"
"2809","84.1996007984032","-62.8003992015968","6.19960079840319","-1.1187624750499","5.99101796407186","-11.0459081836327"
"2809","84.1996007984032","-62.8003992015968","6.19960079840319","-26.1187624750499","-1.00898203592814","-15.0459081836327"
"2817","78.1996007984032","-20.8003992015968","7.19960079840319","-26.1187624750499","-1.00898203592814","-15.0459081836327"
"2818","78.1996007984032","-20.8003992015968","7.19960079840319","-2.1187624750499","5.99101796407186","-16.0459081836327"
"2834","-7.80039920159681","-65.8003992015968","-34.8003992015968","-2.1187624750499","5.99101796407186","-16.0459081836327"
"2834","-7.80039920159681","-65.8003992015968","-34.8003992015968","10.8812375249501","18.9910179640719","-18.0459081836327"
"2842","12.1996007984032","-25.8003992015968","-29.8003992015968","10.8812375249501","18.9910179640719","-18.0459081836327"
"2842","12.1996007984032","-25.8003992015968","-29.8003992015968","2.8812375249501","16.9910179640719","-22.0459081836327"
"2850","48.1996007984032","67.1996007984032","-28.8003992015968","2.8812375249501","16.9910179640719","-22.0459081836327"
"2850","48.1996007984032","67.1996007984032","-28.8003992015968","36.8812375249501","7.99101796407186","-25.0459081836327"
"2858","129.199600798403","106.199600798403","24.1996007984032","36.8812375249501","7.99101796407186","-25.0459081836327"
"2859","129.199600798403","106.199600798403","24.1996007984032","37.8812375249501","1.99101796407186","-25.0459081836327"
"2867","40.1996007984032","5.19960079840319","-33.8003992015968","37.8812375249501","1.99101796407186","-25.0459081836327"
"2870","40.1996007984032","5.19960079840319","-33.8003992015968","-4.1187624750499","24.9910179640719","-15.0459081836327"
"2879","9.19960079840319","-73.8003992015968","-29.8003992015968","-4.1187624750499","24.9910179640719","-15.0459081836327"
"2879","9.19960079840319","-73.8003992015968","-29.8003992015968","-51.1187624750499","30.9910179640719","-9.04590818363273"
"2887","87.1996007984032","-115.800399201597","42.1996007984032","-51.1187624750499","30.9910179640719","-9.04590818363273"
"2887","87.1996007984032","-115.800399201597","42.1996007984032","-49.1187624750499","20.9910179640719","-8.04590818363273"
"2899","33.1996007984032","-106.800399201597","-20.8003992015968","-49.1187624750499","20.9910179640719","-8.04590818363273"
"2899","33.1996007984032","-106.800399201597","-20.8003992015968","-12.1187624750499","35.9910179640719","-13.0459081836327"
"2907","-34.8003992015968","-86.8003992015968","-68.8003992015968","-12.1187624750499","35.9910179640719","-13.0459081836327"
"2908","-34.8003992015968","-86.8003992015968","-68.8003992015968","7.8812375249501","33.9910179640719","-21.0459081836327"
"2915","3.19960079840319","-34.8003992015968","-57.8003992015968","7.8812375249501","33.9910179640719","-21.0459081836327"
"2920","3.19960079840319","-34.8003992015968","-57.8003992015968","32.8812375249501","34.9910179640719","-30.0459081836327"
"2932","-40.8003992015968","170.199600798403","-79.8003992015968","32.8812375249501","34.9910179640719","-30.0459081836327"
"2932","-40.8003992015968","170.199600798403","-79.8003992015968","81.8812375249501","31.9910179640719","-38.0459081836327"
"2940","-122.800399201597","170.199600798403","-79.8003992015968","81.8812375249501","31.9910179640719","-38.0459081836327"
"2940","-122.800399201597","170.199600798403","-79.8003992015968","72.8812375249501","21.9910179640719","-33.0459081836327"
"2948","-62.8003992015968","-0.800399201596806","18.1996007984032","72.8812375249501","21.9910179640719","-33.0459081836327"
"2949","-62.8003992015968","-0.800399201596806","18.1996007984032","-21.1187624750499","7.99101796407186","-30.0459081836327"
"2957","5.19960079840319","-142.800399201597","37.1996007984032","-21.1187624750499","7.99101796407186","-30.0459081836327"
"2961","5.19960079840319","-142.800399201597","37.1996007984032","-74.1187624750499","-29.0089820359281","-27.0459081836327"
"2969","36.1996007984032","-70.8003992015968","-50.8003992015968","-74.1187624750499","-29.0089820359281","-27.0459081836327"
"2969","36.1996007984032","-70.8003992015968","-50.8003992015968","-36.1187624750499","-13.0089820359281","-11.0459081836327"
"2977","47.1996007984032","175.199600798403","12.1996007984032","-36.1187624750499","-13.0089820359281","-11.0459081836327"
"2977","47.1996007984032","175.199600798403","12.1996007984032","56.8812375249501","-22.0089820359281","-11.0459081836327"
"2989","-50.8003992015968","306.199600798403","-37.8003992015968","56.8812375249501","-22.0089820359281","-11.0459081836327"
"2989","-50.8003992015968","306.199600798403","-37.8003992015968","104.88123752495","-9.00898203592814","-11.0459081836327"
"2998","-46.8003992015968","-91.8003992015968","-57.8003992015968","104.88123752495","-9.00898203592814","-11.0459081836327"
"2998","-46.8003992015968","-91.8003992015968","-57.8003992015968","-43.1187624750499","-5.00898203592814","-14.0459081836327"
"3006","65.1996007984032","-129.800399201597","-38.8003992015968","-43.1187624750499","-5.00898203592814","-14.0459081836327"
"3010","65.1996007984032","-129.800399201597","-38.8003992015968","-111.11876247505","-42.0089820359281","-12.0459081836327"
"3018","81.1996007984032","-132.800399201597","-31.8003992015968","-111.11876247505","-42.0089820359281","-12.0459081836327"
"3018","81.1996007984032","-132.800399201597","-31.8003992015968","-55.1187624750499","-49.0089820359281","-10.0459081836327"
"3026","54.1996007984032","-104.800399201597","0.199600798403194","-55.1187624750499","-49.0089820359281","-10.0459081836327"
"3030","54.1996007984032","-104.800399201597","0.199600798403194","-12.1187624750499","-29.0089820359281","-9.04590818363273"
"3039","81.1996007984032","179.199600798403","1.19960079840319","-12.1187624750499","-29.0089820359281","-9.04590818363273"
"3039","81.1996007984032","179.199600798403","1.19960079840319","41.8812375249501","-25.0089820359281","-7.04590818363273"
"3047","-0.800399201596806","158.199600798403","-66.8003992015968","41.8812375249501","-25.0089820359281","-7.04590818363273"
"3051","-0.800399201596806","158.199600798403","-66.8003992015968","58.8812375249501","-13.0089820359281","-10.0459081836327"
"3059","-20.8003992015968","-175.800399201597","-89.8003992015968","58.8812375249501","-13.0089820359281","-10.0459081836327"
"3059","-20.8003992015968","-175.800399201597","-89.8003992015968","-91.1187624750499","-0.00898203592814371","-13.0459081836327"
"3067","71.1996007984032","-66.8003992015968","95.1996007984032","-91.1187624750499","-0.00898203592814371","-13.0459081836327"
"3067","71.1996007984032","-66.8003992015968","95.1996007984032","-97.1187624750499","-19.0089820359281","-14.0459081836327"
"3079","-73.8003992015968","213.199600798403","-56.8003992015968","-97.1187624750499","-19.0089820359281","-14.0459081836327"
"3080","-73.8003992015968","213.199600798403","-56.8003992015968","94.8812375249501","-8.00898203592814","-16.0459081836327"
"3088","50.1996007984032","174.199600798403","-23.8003992015968","94.8812375249501","-8.00898203592814","-16.0459081836327"
"3088","50.1996007984032","174.199600798403","-23.8003992015968","81.8812375249501","-1.00898203592814","-21.0459081836327"
"3096","68.1996007984032","-9.80039920159681","54.1996007984032","81.8812375249501","-1.00898203592814","-21.0459081836327"
"3100","68.1996007984032","-9.80039920159681","54.1996007984032","-55.1187624750499","-21.0089820359281","-29.0459081836327"
"3108","101.199600798403","-24.8003992015968","32.1996007984032","-55.1187624750499","-21.0089820359281","-29.0459081836327"
"3108","101.199600798403","-24.8003992015968","32.1996007984032","-33.1187624750499","-8.00898203592814","-20.0459081836327"
"3116","-26.8003992015968","-221.800399201597","-132.800399201597","-33.1187624750499","-8.00898203592814","-20.0459081836327"
"3120","-26.8003992015968","-221.800399201597","-132.800399201597","-36.1187624750499","37.9910179640719","-6.04590818363273"
"3129","21.1996007984032","-525.800399201597","-99.8003992015968","-36.1187624750499","37.9910179640719","-6.04590818363273"
"3129","21.1996007984032","-525.800399201597","-99.8003992015968","-117.11876247505","30.9910179640719","-13.0459081836327"
"3137","152.199600798403","-167.800399201597","109.199600798403","-117.11876247505","30.9910179640719","-13.0459081836327"
"3141","152.199600798403","-167.800399201597","109.199600798403","21.8812375249501","22.9910179640719","-16.0459081836327"
"3149","-20.8003992015968","474.199600798403","-23.8003992015968","21.8812375249501","22.9910179640719","-16.0459081836327"
"3149","-20.8003992015968","474.199600798403","-23.8003992015968","280.88123752495","51.9910179640719","-36.0459081836327"
"3157","-45.8003992015968","796.199600798403","-147.800399201597","280.88123752495","51.9910179640719","-36.0459081836327"
"3158","-45.8003992015968","796.199600798403","-147.800399201597","360.88123752495","62.9910179640719","-61.0459081836327"
"3170","-4.80039920159681","-162.800399201597","-83.8003992015968","360.88123752495","62.9910179640719","-61.0459081836327"
"3170","-4.80039920159681","-162.800399201597","-83.8003992015968","-30.1187624750499","41.9910179640719","-57.0459081836327"
"3178","-131.800399201597","-114.800399201597","-21.8003992015968","-30.1187624750499","41.9910179640719","-57.0459081836327"
"3178","-131.800399201597","-114.800399201597","-21.8003992015968","-210.11876247505","42.9910179640719","-37.0459081836327"
"3186","-92.8003992015968","149.199600798403","4.19960079840319","-210.11876247505","42.9910179640719","-37.0459081836327"
"3190","-92.8003992015968","149.199600798403","4.19960079840319","12.8812375249501","32.9910179640719","1.95409181636727"
"3198","-93.8003992015968","235.199600798403","-9.80039920159681","12.8812375249501","32.9910179640719","1.95409181636727"
"3199","-93.8003992015968","235.199600798403","-9.80039920159681","43.8812375249501","15.9910179640719","33.9540918163673"
"3207","-166.800399201597","-47.8003992015968","-146.800399201597","43.8812375249501","15.9910179640719","33.9540918163673"
"3210","-166.800399201597","-47.8003992015968","-146.800399201597","-71.1187624750499","-2.00898203592814","38.9540918163673"
"3219","-56.8003992015968","-159.800399201597","-68.8003992015968","-71.1187624750499","-2.00898203592814","38.9540918163673"
"3219","-56.8003992015968","-159.800399201597","-68.8003992015968","-100.11876247505","-22.0089820359281","35.9540918163673"
"3227","69.1996007984032","-90.8003992015968","-14.8003992015968","-100.11876247505","-22.0089820359281","35.9540918163673"
"3227","69.1996007984032","-90.8003992015968","-14.8003992015968","-33.1187624750499","-55.0089820359281","17.9540918163673"
"3239","61.1996007984032","-14.8003992015968","-24.8003992015968","-33.1187624750499","-55.0089820359281","17.9540918163673"
"3239","61.1996007984032","-14.8003992015968","-24.8003992015968","18.8812375249501","-47.0089820359281","-3.04590818363273"
"3247","143.199600798403","-3.80039920159681","32.1996007984032","18.8812375249501","-47.0089820359281","-3.04590818363273"
"3248","143.199600798403","-3.80039920159681","32.1996007984032","11.8812375249501","-25.0089820359281","-24.0459081836327"
"3260","94.1996007984032","-82.8003992015968","-11.8003992015968","11.8812375249501","-25.0089820359281","-24.0459081836327"
"3260","94.1996007984032","-82.8003992015968","-11.8003992015968","1.8812375249501","-18.0089820359281","-40.0459081836327"
"3268","142.199600798403","-100.800399201597","101.199600798403","1.8812375249501","-18.0089820359281","-40.0459081836327"
"3268","142.199600798403","-100.800399201597","101.199600798403","-20.1187624750499","-6.00898203592814","-43.0459081836327"
"3276","1.19960079840319","155.199600798403","-47.8003992015968","-20.1187624750499","-6.00898203592814","-43.0459081836327"
"3280","1.19960079840319","155.199600798403","-47.8003992015968","63.8812375249501","18.9910179640719","-43.0459081836327"
"3288","-51.8003992015968","215.199600798403","-137.800399201597","63.8812375249501","18.9910179640719","-43.0459081836327"
"3289","-51.8003992015968","215.199600798403","-137.800399201597","123.88123752495","42.9910179640719","-28.0459081836327"
"3297","-29.8003992015968","60.1996007984032","-51.8003992015968","123.88123752495","42.9910179640719","-28.0459081836327"
"3301","-29.8003992015968","60.1996007984032","-51.8003992015968","-5.1187624750499","27.9910179640719","-22.0459081836327"
"3309","-27.8003992015968","129.199600798403","-77.8003992015968","-5.1187624750499","27.9910179640719","-22.0459081836327"
"3309","-27.8003992015968","129.199600798403","-77.8003992015968","-22.1187624750499","13.9910179640719","-12.0459081836327"
"3317","-82.8003992015968","25.1996007984032","-77.8003992015968","-22.1187624750499","13.9910179640719","-12.0459081836327"
"3317","-82.8003992015968","25.1996007984032","-77.8003992015968","0.8812375249501","17.9910179640719","0.954091816367265"
"3329","-18.8003992015968","-148.800399201597","-21.8003992015968","0.8812375249501","17.9910179640719","0.954091816367265"
"3329","-18.8003992015968","-148.800399201597","-21.8003992015968","-79.1187624750499","1.99101796407186","5.95409181636727"
"3338","-0.800399201596806","35.1996007984032","-10.8003992015968","-79.1187624750499","1.99101796407186","5.95409181636727"
"3338","-0.800399201596806","35.1996007984032","-10.8003992015968","-19.1187624750499","-0.00898203592814371","6.95409181636727"
"3346","54.1996007984032","4.19960079840319","53.1996007984032","-19.1187624750499","-0.00898203592814371","6.95409181636727"
"3350","54.1996007984032","4.19960079840319","53.1996007984032","26.8812375249501","-20.0089820359281","-1.04590818363273"
"3358","75.1996007984032","-21.8003992015968","40.1996007984032","26.8812375249501","-20.0089820359281","-1.04590818363273"
"3358","75.1996007984032","-21.8003992015968","40.1996007984032","-6.1187624750499","-19.0089820359281","-16.0459081836327"
"3366","16.1996007984032","-0.800399201596806","-41.8003992015968","-6.1187624750499","-19.0089820359281","-16.0459081836327"
"3370","16.1996007984032","-0.800399201596806","-41.8003992015968","-0.1187624750499","-0.00898203592814371","-28.0459081836327"
"3379","34.1996007984032","-89.8003992015968","-44.8003992015968","-0.1187624750499","-0.00898203592814371","-28.0459081836327"
"3379","34.1996007984032","-89.8003992015968","-44.8003992015968","-11.1187624750499","-2.00898203592814","-34.0459081836327"
"3387","92.1996007984032","-11.8003992015968","68.1996007984032","-11.1187624750499","-2.00898203592814","-34.0459081836327"
"3387","92.1996007984032","-11.8003992015968","68.1996007984032","7.8812375249501","-5.00898203592814","-35.0459081836327"
"3399","42.1996007984032","83.1996007984032","-13.8003992015968","7.8812375249501","-5.00898203592814","-35.0459081836327"
"3399","42.1996007984032","83.1996007984032","-13.8003992015968","43.8812375249501","9.99101796407186","-29.0459081836327"
"3407","24.1996007984032","-11.8003992015968","-54.8003992015968","43.8812375249501","9.99101796407186","-29.0459081836327"
"3407","24.1996007984032","-11.8003992015968","-54.8003992015968","11.8812375249501","18.9910179640719","-22.0459081836327"
"3419","29.1996007984032","-71.8003992015968","-45.8003992015968","11.8812375249501","18.9910179640719","-22.0459081836327"
"3420","29.1996007984032","-71.8003992015968","-45.8003992015968","-18.1187624750499","14.9910179640719","-18.0459081836327"
"3428","-36.8003992015968","-18.8003992015968","-42.8003992015968","-18.1187624750499","14.9910179640719","-18.0459081836327"
"3428","-36.8003992015968","-18.8003992015968","-42.8003992015968","-8.1187624750499","21.9910179640719","-9.04590818363273"
"3436","-20.8003992015968","105.199600798403","-5.80039920159681","-8.1187624750499","21.9910179640719","-9.04590818363273"
"3440","-20.8003992015968","105.199600798403","-5.80039920159681","43.8812375249501","14.9910179640719","-9.04590818363273"
"3448","-3.80039920159681","-102.800399201597","-22.8003992015968","43.8812375249501","14.9910179640719","-9.04590818363273"
"3448","-3.80039920159681","-102.800399201597","-22.8003992015968","0.8812375249501","5.99101796407186","-8.04590818363273"
"3456","40.1996007984032","-180.800399201597","-48.8003992015968","0.8812375249501","5.99101796407186","-8.04590818363273"
"3460","40.1996007984032","-180.800399201597","-48.8003992015968","-73.1187624750499","0.991017964071856","-13.0459081836327"
"3469","59.1996007984032","-6.80039920159681","-29.8003992015968","-73.1187624750499","0.991017964071856","-13.0459081836327"
"3469","59.1996007984032","-6.80039920159681","-29.8003992015968","21.8812375249501","-1.00898203592814","-13.0459081836327"
"3477","13.1996007984032","92.1996007984032","-32.8003992015968","21.8812375249501","-1.00898203592814","-13.0459081836327"
"3477","13.1996007984032","92.1996007984032","-32.8003992015968","71.8812375249501","5.99101796407186","-9.04590818363273"
"3489","34.1996007984032","-91.8003992015968","20.1996007984032","71.8812375249501","5.99101796407186","-9.04590818363273"
"3490","34.1996007984032","-91.8003992015968","20.1996007984032","-31.1187624750499","20.9910179640719","-4.04590818363273"
"3497","1.19960079840319","-129.800399201597","15.1996007984032","-31.1187624750499","20.9910179640719","-4.04590818363273"
"3498","1.19960079840319","-129.800399201597","15.1996007984032","-51.1187624750499","18.9910179640719","-2.04590818363273"
"3509","-4.80039920159681","-16.8003992015968","-79.8003992015968","-51.1187624750499","18.9910179640719","-2.04590818363273"
"3510","-4.80039920159681","-16.8003992015968","-79.8003992015968","8.8812375249501","19.9910179640719","-1.04590818363273"
"3518","28.1996007984032","-9.80039920159681","-57.8003992015968","8.8812375249501","19.9910179640719","-1.04590818363273"
"3518","28.1996007984032","-9.80039920159681","-57.8003992015968","20.8812375249501","13.9910179640719","-5.04590818363273"
"3526","-17.8003992015968","10.1996007984032","-46.8003992015968","20.8812375249501","13.9910179640719","-5.04590818363273"
"3530","-17.8003992015968","10.1996007984032","-46.8003992015968","22.8812375249501","16.9910179640719","-9.04590818363273"
"3538","23.1996007984032","56.1996007984032","12.1996007984032","22.8812375249501","16.9910179640719","-9.04590818363273"
"3538","23.1996007984032","56.1996007984032","12.1996007984032","26.8812375249501","9.99101796407186","-7.04590818363273"
"3546","8.19960079840319","9.19960079840319","-51.8003992015968","26.8812375249501","9.99101796407186","-7.04590818363273"
"3550","8.19960079840319","9.19960079840319","-51.8003992015968","16.8812375249501","14.9910179640719","-4.04590818363273"
"3559","34.1996007984032","-118.800399201597","-35.8003992015968","16.8812375249501","14.9910179640719","-4.04590818363273"
"3559","34.1996007984032","-118.800399201597","-35.8003992015968","-38.1187624750499","-0.00898203592814371","-2.04590818363273"
"3567","64.1996007984032","-135.800399201597","-11.8003992015968","-38.1187624750499","-0.00898203592814371","-2.04590818363273"
"3571","64.1996007984032","-135.800399201597","-11.8003992015968","-33.1187624750499","3.99101796407186","-1.04590818363273"
"3579","-10.8003992015968","182.199600798403","-33.8003992015968","-33.1187624750499","3.99101796407186","-1.04590818363273"
"3579","-10.8003992015968","182.199600798403","-33.8003992015968","60.8812375249501","16.9910179640719","-5.04590818363273"
"3588","-37.8003992015968","109.199600798403","-85.8003992015968","60.8812375249501","16.9910179640719","-5.04590818363273"
"3588","-37.8003992015968","109.199600798403","-85.8003992015968","68.8812375249501","21.9910179640719","-6.04590818363273"
"3600","10.1996007984032","-77.8003992015968","-51.8003992015968","68.8812375249501","21.9910179640719","-6.04590818363273"
"3600","10.1996007984032","-77.8003992015968","-51.8003992015968","-44.1187624750499","12.9910179640719","-3.04590818363273"
"3608","87.1996007984032","-33.8003992015968","31.1996007984032","-44.1187624750499","12.9910179640719","-3.04590818363273"
"3608","87.1996007984032","-33.8003992015968","31.1996007984032","-42.1187624750499","-0.00898203592814371","-0.0459081836327345"
"3616","17.1996007984032","9.19960079840319","15.1996007984032","-42.1187624750499","-0.00898203592814371","-0.0459081836327345"
"3620","17.1996007984032","9.19960079840319","15.1996007984032","22.8812375249501","17.9910179640719","1.95409181636727"
"3628","7.19960079840319","61.1996007984032","-6.80039920159681","22.8812375249501","17.9910179640719","1.95409181636727"
"3629","7.19960079840319","61.1996007984032","-6.80039920159681","31.8812375249501","24.9910179640719","1.95409181636727"
"3637","16.1996007984032","73.1996007984032","-36.8003992015968","31.8812375249501","24.9910179640719","1.95409181636727"
"3640","16.1996007984032","73.1996007984032","-36.8003992015968","23.8812375249501","23.9910179640719","2.95409181636727"
"3649","46.1996007984032","-73.8003992015968","-45.8003992015968","23.8812375249501","23.9910179640719","2.95409181636727"
"3649","46.1996007984032","-73.8003992015968","-45.8003992015968","-24.1187624750499","19.9910179640719","0.954091816367265"
"3657","1.19960079840319","13.1996007984032","-34.8003992015968","-24.1187624750499","19.9910179640719","0.954091816367265"
"3657","1.19960079840319","13.1996007984032","-34.8003992015968","-2.1187624750499","22.9910179640719","1.95409181636727"
"3669","-57.8003992015968","49.1996007984032","-44.8003992015968","-2.1187624750499","22.9910179640719","1.95409181636727"
"3669","-57.8003992015968","49.1996007984032","-44.8003992015968","32.8812375249501","34.9910179640719","1.95409181636727"
"3678","-2.80039920159681","-21.8003992015968","-0.800399201596806","32.8812375249501","34.9910179640719","1.95409181636727"
"3678","-2.80039920159681","-21.8003992015968","-0.800399201596806","-12.1187624750499","17.9910179640719","-3.04590818363273"
"3690","110.199600798403","77.1996007984032","80.1996007984032","-12.1187624750499","17.9910179640719","-3.04590818363273"
"3690","110.199600798403","77.1996007984032","80.1996007984032","15.8812375249501","-2.00898203592814","-5.04590818363273"
"3698","68.1996007984032","139.199600798403","-4.80039920159681","15.8812375249501","-2.00898203592814","-5.04590818363273"
"3698","68.1996007984032","139.199600798403","-4.80039920159681","39.8812375249501","7.99101796407186","-6.04590818363273"
"3706","-35.8003992015968","-19.8003992015968","-115.800399201597","39.8812375249501","7.99101796407186","-6.04590818363273"
"3710","-35.8003992015968","-19.8003992015968","-115.800399201597","-8.1187624750499","24.9910179640719","-5.04590818363273"
"3719","-2.80039920159681","-29.8003992015968","-17.8003992015968","-8.1187624750499","24.9910179640719","-5.04590818363273"
"3719","-2.80039920159681","-29.8003992015968","-17.8003992015968","-46.1187624750499","27.9910179640719","-4.04590818363273"
"3727","-104.800399201597","45.1996007984032","-27.8003992015968","-46.1187624750499","27.9910179640719","-4.04590818363273"
"3731","-104.800399201597","45.1996007984032","-27.8003992015968","-2.1187624750499","17.9910179640719","0.954091816367265"
"3739","-276.800399201597","-238.800399201597","-23.8003992015968","-2.1187624750499","17.9910179640719","0.954091816367265"
"3739","-276.800399201597","-238.800399201597","-23.8003992015968","-35.1187624750499","26.9910179640719","6.95409181636727"
"3747","-167.800399201597","-1110.8003992016","255.199600798403","-35.1187624750499","26.9910179640719","6.95409181636727"
"3751","-167.800399201597","-1110.8003992016","255.199600798403","-174.11876247505","-14.0089820359281","17.9540918163673"
"3759","-105.800399201597","-442.800399201597","-351.800399201597","-174.11876247505","-14.0089820359281","17.9540918163673"
"3760","-105.800399201597","-442.800399201597","-351.800399201597","21.8812375249501","-37.0089820359281","13.9540918163673"
"3768","125.199600798403","402.199600798403","-516.800399201597","21.8812375249501","-37.0089820359281","13.9540918163673"
"3768","125.199600798403","402.199600798403","-516.800399201597","494.88123752495","-64.0089820359281","-19.0459081836327"
"3780","183.199600798403","417.199600798403","298.199600798403","494.88123752495","-64.0089820359281","-19.0459081836327"
"3780","183.199600798403","417.199600798403","298.199600798403","414.88123752495","-53.0089820359281","-49.0459081836327"
"3788","64.1996007984032","443.199600798403","550.199600798403","414.88123752495","-53.0089820359281","-49.0459081836327"
"3788","64.1996007984032","443.199600798403","550.199600798403","54.8812375249501","-35.0089820359281","-69.0459081836327"
"3796","26.1996007984032","909.199600798403","-45.8003992015968","54.8812375249501","-35.0089820359281","-69.0459081836327"
"3800","26.1996007984032","909.199600798403","-45.8003992015968","124.88123752495","10.9910179640719","3.95409181636727"
"3809","8.19960079840319","449.199600798403","-375.800399201597","124.88123752495","10.9910179640719","3.95409181636727"
"3809","8.19960079840319","449.199600798403","-375.800399201597","-59.1187624750499","3.99101796407186","32.9540918163673"
"3817","-52.8003992015968","-964.800399201597","4.19960079840319","-59.1187624750499","3.99101796407186","32.9540918163673"
"3821","-52.8003992015968","-964.800399201597","4.19960079840319","-520.11876247505","0.991017964071856","64.9540918163673"
"3829","325.199600798403","-284.800399201597","296.199600798403","-520.11876247505","0.991017964071856","64.9540918163673"
"3829","325.199600798403","-284.800399201597","296.199600798403","-146.11876247505","-19.0089820359281","80.9540918163673"
"3837","-280.800399201597","936.199600798403","1.19960079840319","-146.11876247505","-19.0089820359281","80.9540918163673"
"3838","-280.800399201597","936.199600798403","1.19960079840319","449.88123752495","43.9910179640719","126.954091816367"
"3849","-295.800399201597","153.199600798403","-390.800399201597","449.88123752495","43.9910179640719","126.954091816367"
"3850","-295.800399201597","153.199600798403","-390.800399201597","273.88123752495","8.99101796407186","108.954091816367"
"3858","123.199600798403","-1209.8003992016","56.1996007984032","273.88123752495","8.99101796407186","108.954091816367"
"3858","123.199600798403","-1209.8003992016","56.1996007984032","-537.11876247505","18.9910179640719","89.9540918163673"
"3866","122.199600798403","-751.800399201597","-7.80039920159681","-537.11876247505","18.9910179640719","89.9540918163673"
"3870","122.199600798403","-751.800399201597","-7.80039920159681","-361.11876247505","-62.0089820359281","54.9540918163673"
"3878","-155.800399201597","643.199600798403","-43.8003992015968","-361.11876247505","-62.0089820359281","54.9540918163673"
"3878","-155.800399201597","643.199600798403","-43.8003992015968","367.88123752495","1.99101796407186","34.9540918163673"
"3886","3.19960079840319","99.1996007984032","23.1996007984032","367.88123752495","1.99101796407186","34.9540918163673"
"3890","3.19960079840319","99.1996007984032","23.1996007984032","199.88123752495","34.9910179640719","18.9540918163673"
"3899","-83.8003992015968","-419.800399201597","-78.8003992015968","199.88123752495","34.9910179640719","18.9540918163673"
"3899","-83.8003992015968","-419.800399201597","-78.8003992015968","-206.11876247505","-17.0089820359281","-13.0459081836327"
"3907","309.199600798403","-250.800399201597","49.1996007984032","-206.11876247505","-17.0089820359281","-13.0459081836327"
"3911","309.199600798403","-250.800399201597","49.1996007984032","-83.1187624750499","-30.0089820359281","-8.04590818363273"
"3919","-103.800399201597","168.199600798403","-141.800399201597","-83.1187624750499","-30.0089820359281","-8.04590818363273"
"3919","-103.800399201597","168.199600798403","-141.800399201597","137.88123752495","3.99101796407186","-2.04590818363273"
"3927","13.1996007984032","21.1996007984032","40.1996007984032","137.88123752495","3.99101796407186","-2.04590818363273"
"3928","13.1996007984032","21.1996007984032","40.1996007984032","32.8812375249501","67.9910179640719","10.9540918163673"
"3940","-164.800399201597","96.1996007984032","-22.8003992015968","32.8812375249501","67.9910179640719","10.9540918163673"
"3940","-164.800399201597","96.1996007984032","-22.8003992015968","-6.1187624750499","34.9910179640719","13.9540918163673"
"3948","85.1996007984032","-107.800399201597","-91.8003992015968","-6.1187624750499","34.9910179640719","13.9540918163673"
"3948","85.1996007984032","-107.800399201597","-91.8003992015968","-0.1187624750499","10.9910179640719","16.9540918163673"
"3960","-0.800399201596806","-92.8003992015968","-97.8003992015968","-0.1187624750499","10.9910179640719","16.9540918163673"
"3960","-0.800399201596806","-92.8003992015968","-97.8003992015968","-49.1187624750499","15.9910179640719","19.9540918163673"
"3968","-104.800399201597","36.1996007984032","-101.800399201597","-49.1187624750499","15.9910179640719","19.9540918163673"
"3969","-104.800399201597","36.1996007984032","-101.800399201597","6.8812375249501","30.9910179640719","25.9540918163673"
"3977","-212.800399201597","199.199600798403","-89.8003992015968","6.8812375249501","30.9910179640719","25.9540918163673"
"3980","-212.800399201597","199.199600798403","-89.8003992015968","61.8812375249501","34.9910179640719","29.9540918163673"
"3989","101.199600798403","-89.8003992015968","100.199600798403","61.8812375249501","34.9910179640719","29.9540918163673"
"3989","101.199600798403","-89.8003992015968","100.199600798403","1.8812375249501","-19.0089820359281","24.9540918163673"
"3997","131.199600798403","-277.800399201597","-10.8003992015968","1.8812375249501","-19.0089820359281","24.9540918163673"
"4001","131.199600798403","-277.800399201597","-10.8003992015968","-109.11876247505","-36.0089820359281","13.9540918163673"
"4009","-69.8003992015968","-173.800399201597","-130.800399201597","-109.11876247505","-36.0089820359281","13.9540918163673"
"4010","-69.8003992015968","-173.800399201597","-130.800399201597","-43.1187624750499","10.9910179640719","11.9540918163673"
"4017","-4.80039920159681","275.199600798403","-73.8003992015968","-43.1187624750499","10.9910179640719","11.9540918163673"
"4018","-4.80039920159681","275.199600798403","-73.8003992015968","98.8812375249501","-8.00898203592814","4.95409181636727"
"4030","111.199600798403","102.199600798403","41.1996007984032","98.8812375249501","-8.00898203592814","4.95409181636727"
"4030","111.199600798403","102.199600798403","41.1996007984032","83.8812375249501","5.99101796407186","-0.0459081836327345"
"4038","121.199600798403","-139.800399201597","15.1996007984032","83.8812375249501","5.99101796407186","-0.0459081836327345"
"4038","121.199600798403","-139.800399201597","15.1996007984032","-73.1187624750499","-11.0089820359281","-9.04590818363273"
"4050","-25.8003992015968","151.199600798403","-46.8003992015968","-73.1187624750499","-11.0089820359281","-9.04590818363273"
"4050","-25.8003992015968","151.199600798403","-46.8003992015968","-22.1187624750499","26.9910179640719","-4.04590818363273"
"4058","-110.800399201597","129.199600798403","-92.8003992015968","-22.1187624750499","26.9910179640719","-4.04590818363273"
"4059","-110.800399201597","129.199600798403","-92.8003992015968","67.8812375249501","25.9910179640719","0.954091816367265"
"4067","-29.8003992015968","-79.8003992015968","-35.8003992015968","67.8812375249501","25.9910179640719","0.954091816367265"
"4071","-29.8003992015968","-79.8003992015968","-35.8003992015968","-38.1187624750499","19.9910179640719","6.95409181636727"
"4079","16.1996007984032","-128.800399201597","0.199600798403194","-38.1187624750499","19.9910179640719","6.95409181636727"
"4079","16.1996007984032","-128.800399201597","0.199600798403194","-68.1187624750499","-12.0089820359281","6.95409181636727"
"4087","-38.8003992015968","8.19960079840319","-79.8003992015968","-68.1187624750499","-12.0089820359281","6.95409181636727"
"4091","-38.8003992015968","8.19960079840319","-79.8003992015968","27.8812375249501","-6.00898203592814","4.95409181636727"
"4100","-55.8003992015968","-77.8003992015968","-78.8003992015968","27.8812375249501","-6.00898203592814","4.95409181636727"
"4100","-55.8003992015968","-77.8003992015968","-78.8003992015968","9.8812375249501","13.9910179640719","1.95409181636727"
"4108","-7.80039920159681","-25.8003992015968","-27.8003992015968","9.8812375249501","13.9910179640719","1.95409181636727"
"4111","-7.80039920159681","-25.8003992015968","-27.8003992015968","-5.1187624750499","-7.00898203592814","-0.0459081836327345"
"4120","64.1996007984032","75.1996007984032","-10.8003992015968","-5.1187624750499","-7.00898203592814","-0.0459081836327345"
"4120","64.1996007984032","75.1996007984032","-10.8003992015968","-5.1187624750499","-7.00898203592814","-0.0459081836327345"
"4128","-6.80039920159681","-57.8003992015968","-54.8003992015968","-5.1187624750499","-7.00898203592814","-0.0459081836327345"
"4128","-6.80039920159681","-57.8003992015968","-54.8003992015968","1.8812375249501","-9.00898203592814","-2.04590818363273"
"4140","-8.80039920159681","-114.800399201597","-33.8003992015968","1.8812375249501","-9.00898203592814","-2.04590818363273"
"4140","-8.80039920159681","-114.800399201597","-33.8003992015968","-52.1187624750499","-4.00898203592814","2.95409181636727"
"4148","59.1996007984032","71.1996007984032","-4.80039920159681","-52.1187624750499","-4.00898203592814","2.95409181636727"
"4149","59.1996007984032","71.1996007984032","-4.80039920159681","17.8812375249501","-4.00898203592814","2.95409181636727"
"4157","10.1996007984032","-35.8003992015968","-0.800399201596806","17.8812375249501","-4.00898203592814","2.95409181636727"
"4161","10.1996007984032","-35.8003992015968","-0.800399201596806","36.8812375249501","-16.0089820359281","4.95409181636727"
"4169","10.1996007984032","-35.8003992015968","-0.800399201596806","36.8812375249501","-16.0089820359281","4.95409181636727"
"4169","10.1996007984032","-35.8003992015968","-0.800399201596806","36.8812375249501","-16.0089820359281","4.95409181636727"
"4177","-36.8003992015968","-17.8003992015968","-13.8003992015968","36.8812375249501","-16.0089820359281","4.95409181636727"
"4181","-36.8003992015968","-17.8003992015968","-13.8003992015968","8.8812375249501","-3.00898203592814","5.95409181636727"
"4190","-26.8003992015968","-4.80039920159681","-60.8003992015968","8.8812375249501","-3.00898203592814","5.95409181636727"
"4190","-26.8003992015968","-4.80039920159681","-60.8003992015968","26.8812375249501","-2.00898203592814","4.95409181636727"
"4198","-51.8003992015968","55.1996007984032","-127.800399201597","26.8812375249501","-2.00898203592814","4.95409181636727"
"4201","-51.8003992015968","55.1996007984032","-127.800399201597","9.8812375249501","-15.0089820359281","-5.04590818363273"
"4210","0.199600798403194","59.1996007984032","-80.8003992015968","9.8812375249501","-15.0089820359281","-5.04590818363273"
"4210","0.199600798403194","59.1996007984032","-80.8003992015968","19.8812375249501","-21.0089820359281","-4.04590818363273"
"4218","28.1996007984032","-54.8003992015968","54.1996007984032","19.8812375249501","-21.0089820359281","-4.04590818363273"
"4218","28.1996007984032","-54.8003992015968","54.1996007984032","19.8812375249501","-21.0089820359281","-4.04590818363273"
"4230","133.199600798403","14.1996007984032","148.199600798403","19.8812375249501","-21.0089820359281","-4.04590818363273"
"4230","133.199600798403","14.1996007984032","148.199600798403","-14.1187624750499","-26.0089820359281","2.95409181636727"
"4238","45.1996007984032","95.1996007984032","-47.8003992015968","-14.1187624750499","-26.0089820359281","2.95409181636727"
"4239","45.1996007984032","95.1996007984032","-47.8003992015968","34.8812375249501","-29.0089820359281","8.95409181636727"
"4251","-5.80039920159681","-8.80039920159681","-147.800399201597","34.8812375249501","-29.0089820359281","8.95409181636727"
"4251","-5.80039920159681","-8.80039920159681","-147.800399201597","-4.1187624750499","-5.00898203592814","8.95409181636727"
"4259","30.1996007984032","-73.8003992015968","-9.80039920159681","-4.1187624750499","-5.00898203592814","8.95409181636727"
"4259","30.1996007984032","-73.8003992015968","-9.80039920159681","-48.1187624750499","-13.0089820359281","4.95409181636727"
"4267","30.1996007984032","-73.8003992015968","-9.80039920159681","-48.1187624750499","-13.0089820359281","4.95409181636727"
"4271","30.1996007984032","-73.8003992015968","-9.80039920159681","-48.1187624750499","-13.0089820359281","4.95409181636727"
"4280","45.1996007984032","66.1996007984032","22.1996007984032","-48.1187624750499","-13.0089820359281","4.95409181636727"
"4280","45.1996007984032","66.1996007984032","22.1996007984032","57.8812375249501","-9.00898203592814","-1.04590818363273"
"4288","47.1996007984032","-77.8003992015968","-59.8003992015968","57.8812375249501","-9.00898203592814","-1.04590818363273"
"4292","47.1996007984032","-77.8003992015968","-59.8003992015968","-7.1187624750499","7.99101796407186","-2.04590818363273"
"4300","-21.8003992015968","55.1996007984032","-109.800399201597","-7.1187624750499","7.99101796407186","-2.04590818363273"
"4300","-21.8003992015968","55.1996007984032","-109.800399201597","2.8812375249501","5.99101796407186","-4.04590818363273"
"4308","-50.8003992015968","112.199600798403","-38.8003992015968","2.8812375249501","5.99101796407186","-4.04590818363273"
"4312","-50.8003992015968","112.199600798403","-38.8003992015968","47.8812375249501","14.9910179640719","5.95409181636727"
"4320","-26.8003992015968","80.1996007984032","12.1996007984032","47.8812375249501","14.9910179640719","5.95409181636727"
"4321","-26.8003992015968","80.1996007984032","12.1996007984032","17.8812375249501","6.99101796407186","10.9540918163673"
"4329","11.1996007984032","-31.8003992015968","-62.8003992015968","17.8812375249501","6.99101796407186","10.9540918163673"
"4329","11.1996007984032","-31.8003992015968","-62.8003992015968","-15.1187624750499","-10.0089820359281","7.95409181636727"
"4341","-51.8003992015968","-187.800399201597","-188.800399201597","-15.1187624750499","-10.0089820359281","7.95409181636727"
"4341","-51.8003992015968","-187.800399201597","-188.800399201597","-60.1187624750499","-15.0089820359281","8.95409181636727"
"4349","-175.800399201597","-379.800399201597","-184.800399201597","-60.1187624750499","-15.0089820359281","8.95409181636727"
"4349","-175.800399201597","-379.800399201597","-184.800399201597","-82.1187624750499","-1.00898203592814","9.95409181636727"
"4357","974.199600798403","32.1996007984032","507.199600798403","-82.1187624750499","-1.00898203592814","9.95409181636727"
"4362","974.199600798403","32.1996007984032","507.199600798403","27.8812375249501","-79.0089820359281","-7.04590818363273"
"4370","974.199600798403","32.1996007984032","507.199600798403","27.8812375249501","-79.0089820359281","-7.04590818363273"
"4370","974.199600798403","32.1996007984032","507.199600798403","27.8812375249501","-79.0089820359281","-7.04590818363273"
"4378","-100.800399201597","370.199600798403","-333.800399201597","27.8812375249501","-79.0089820359281","-7.04590818363273"
"4378","-100.800399201597","370.199600798403","-333.800399201597","258.88123752495","6.99101796407186","-27.0459081836327"
"4390","-344.800399201597","503.199600798403","-200.800399201597","258.88123752495","6.99101796407186","-27.0459081836327"
"4391","-344.800399201597","503.199600798403","-200.800399201597","-111.11876247505","68.9910179640719","-20.0459081836327"
"4398","279.199600798403","725.199600798403","140.199600798403","-111.11876247505","68.9910179640719","-20.0459081836327"
"4402","279.199600798403","725.199600798403","140.199600798403","20.8812375249501","155.991017964072","28.9540918163673"
"4411","-462.800399201597","510.199600798403","121.199600798403","20.8812375249501","155.991017964072","28.9540918163673"
"4411","-462.800399201597","510.199600798403","121.199600798403","-43.1187624750499","86.9910179640719","41.9540918163673"
"4419","-462.800399201597","510.199600798403","121.199600798403","-43.1187624750499","86.9910179640719","41.9540918163673"
"4419","-462.800399201597","510.199600798403","121.199600798403","-43.1187624750499","86.9910179640719","41.9540918163673"
"4427","-207.800399201597","-544.800399201597","291.199600798403","-43.1187624750499","86.9910179640719","41.9540918163673"
"4431","-207.800399201597","-544.800399201597","291.199600798403","-410.11876247505","112.991017964072","83.9540918163673"
"4439","-234.800399201597","426.199600798403","-465.800399201597","-410.11876247505","112.991017964072","83.9540918163673"
"4439","-234.800399201597","426.199600798403","-465.800399201597","183.88123752495","-58.0089820359281","53.9540918163673"
"4451","-109.800399201597","82.1996007984032","-117.800399201597","183.88123752495","-58.0089820359281","53.9540918163673"
"4452","-109.800399201597","82.1996007984032","-117.800399201597","72.8812375249501","58.9910179640719","46.9540918163673"
"4460","-192.800399201597","-568.800399201597","158.199600798403","72.8812375249501","58.9910179640719","46.9540918163673"
"4460","-192.800399201597","-568.800399201597","158.199600798403","-287.11876247505","-29.0089820359281","-11.0459081836327"
"4468","-192.800399201597","-568.800399201597","158.199600798403","-287.11876247505","-29.0089820359281","-11.0459081836327"
"4468","-192.800399201597","-568.800399201597","158.199600798403","-287.11876247505","-29.0089820359281","-11.0459081836327"
"4480","88.1996007984032","-24.8003992015968","114.199600798403","-287.11876247505","-29.0089820359281","-11.0459081836327"
"4480","88.1996007984032","-24.8003992015968","114.199600798403","26.8812375249501","-61.0089820359281","-46.0459081836327"
"4488","108.199600798403","-263.800399201597","-61.8003992015968","26.8812375249501","-61.0089820359281","-46.0459081836327"
"4492","108.199600798403","-263.800399201597","-61.8003992015968","-2.1187624750499","-71.0089820359281","-97.0459081836327"
"4501","64.1996007984032","-29.8003992015968","25.1996007984032","-2.1187624750499","-71.0089820359281","-97.0459081836327"
"4501","64.1996007984032","-29.8003992015968","25.1996007984032","-29.1187624750499","-45.0089820359281","-94.0459081836327"
"4509","-39.8003992015968","326.199600798403","69.1996007984032","-29.1187624750499","-45.0089820359281","-94.0459081836327"
"4513","-39.8003992015968","326.199600798403","69.1996007984032","174.88123752495","-14.0089820359281","-82.0459081836327"
"4517","-39.8003992015968","326.199600798403","69.1996007984032","174.88123752495","-14.0089820359281","-82.0459081836327"
"4521","-39.8003992015968","326.199600798403","69.1996007984032","174.88123752495","-14.0089820359281","-82.0459081836327"
"4529","94.1996007984032","236.199600798403","212.199600798403","174.88123752495","-14.0089820359281","-82.0459081836327"
"4530","94.1996007984032","236.199600798403","212.199600798403","125.88123752495","-41.0089820359281","-70.0459081836327"
"4542","104.199600798403","-30.8003992015968","-187.800399201597","125.88123752495","-41.0089820359281","-70.0459081836327"
"4542","104.199600798403","-30.8003992015968","-187.800399201597","-37.1187624750499","-23.0089820359281","-22.0459081836327"
"4550","127.199600798403","-77.8003992015968","29.1996007984032","-37.1187624750499","-23.0089820359281","-22.0459081836327"
"4550","127.199600798403","-77.8003992015968","29.1996007984032","-16.1187624750499","-7.00898203592814","-3.04590818363273"
"4558","-1.80039920159681","183.199600798403","75.1996007984032","-16.1187624750499","-7.00898203592814","-3.04590818363273"
"4562","-1.80039920159681","183.199600798403","75.1996007984032","33.8812375249501","27.9910179640719","6.95409181636727"
"4566","-1.80039920159681","183.199600798403","75.1996007984032","33.8812375249501","27.9910179640719","6.95409181636727"
"4570","-1.80039920159681","183.199600798403","75.1996007984032","33.8812375249501","27.9910179640719","6.95409181636727"
"4579","-24.8003992015968","51.1996007984032","34.1996007984032","33.8812375249501","27.9910179640719","6.95409181636727"
"4579","-24.8003992015968","51.1996007984032","34.1996007984032","66.8812375249501","10.9910179640719","0.954091816367265"
"4591","-108.800399201597","-107.800399201597","-185.800399201597","66.8812375249501","10.9910179640719","0.954091816367265"
"4591","-108.800399201597","-107.800399201597","-185.800399201597","-41.1187624750499","17.9910179640719","-17.0459081836327"
"4599","-152.800399201597","169.199600798403","-101.800399201597","-41.1187624750499","17.9910179640719","-17.0459081836327"
"4603","-152.800399201597","169.199600798403","-101.800399201597","68.8812375249501","-7.00898203592814","-28.0459081836327"
"4611","-22.8003992015968","49.1996007984032","74.1996007984032","68.8812375249501","-7.00898203592814","-28.0459081836327"
"4612","-22.8003992015968","49.1996007984032","74.1996007984032","25.8812375249501","-15.0089820359281","-35.0459081836327"
"4619","-22.8003992015968","49.1996007984032","74.1996007984032","25.8812375249501","-15.0089820359281","-35.0459081836327"
"4620","-22.8003992015968","49.1996007984032","74.1996007984032","25.8812375249501","-15.0089820359281","-35.0459081836327"
"4628","-73.8003992015968","69.1996007984032","2.19960079840319","25.8812375249501","-15.0089820359281","-35.0459081836327"
"4628","-73.8003992015968","69.1996007984032","2.19960079840319","-12.1187624750499","-38.0089820359281","-40.0459081836327"
"4640","144.199600798403","-97.8003992015968","10.1996007984032","-12.1187624750499","-38.0089820359281","-40.0459081836327"
"4640","144.199600798403","-97.8003992015968","10.1996007984032","-43.1187624750499","-53.0089820359281","-38.0459081836327"
"4648","43.1996007984032","-43.8003992015968","22.1996007984032","-43.1187624750499","-53.0089820359281","-38.0459081836327"
"4652","43.1996007984032","-43.8003992015968","22.1996007984032","-52.1187624750499","-31.0089820359281","-29.0459081836327"
"4661","55.1996007984032","150.199600798403","-9.80039920159681","-52.1187624750499","-31.0089820359281","-29.0459081836327"
"4661","55.1996007984032","150.199600798403","-9.80039920159681","40.8812375249501","-18.0089820359281","-30.0459081836327"
"4669","55.1996007984032","150.199600798403","-9.80039920159681","40.8812375249501","-18.0089820359281","-30.0459081836327"
"4669","55.1996007984032","150.199600798403","-9.80039920159681","40.8812375249501","-18.0089820359281","-30.0459081836327"
"4677","1.19960079840319","-75.8003992015968","-119.800399201597","40.8812375249501","-18.0089820359281","-30.0459081836327"
"4681","1.19960079840319","-75.8003992015968","-119.800399201597","17.8812375249501","-13.0089820359281","-27.0459081836327"
"4689","25.1996007984032","-136.800399201597","-21.8003992015968","17.8812375249501","-13.0089820359281","-27.0459081836327"
"4693","25.1996007984032","-136.800399201597","-21.8003992015968","-34.1187624750499","-13.0089820359281","-23.0459081836327"
"4701","2.19960079840319","15.1996007984032","5.19960079840319","-34.1187624750499","-13.0089820359281","-23.0459081836327"
"4702","2.19960079840319","15.1996007984032","5.19960079840319","58.8812375249501","4.99101796407186","-17.0459081836327"
"4710","2.19960079840319","5.19960079840319","-5.80039920159681","58.8812375249501","4.99101796407186","-17.0459081836327"
"4710","2.19960079840319","5.19960079840319","-5.80039920159681","23.8812375249501","-15.0089820359281","-30.0459081836327"
"4718","2.19960079840319","5.19960079840319","-5.80039920159681","23.8812375249501","-15.0089820359281","-30.0459081836327"
"4718","2.19960079840319","5.19960079840319","-5.80039920159681","23.8812375249501","-15.0089820359281","-30.0459081836327"
"4730","12.1996007984032","-24.8003992015968","-53.8003992015968","23.8812375249501","-15.0089820359281","-30.0459081836327"
"4730","12.1996007984032","-24.8003992015968","-53.8003992015968","2.8812375249501","-10.0089820359281","-32.0459081836327"
"4738","-55.8003992015968","-46.8003992015968","-30.8003992015968","2.8812375249501","-10.0089820359281","-32.0459081836327"
"4742","-55.8003992015968","-46.8003992015968","-30.8003992015968","14.8812375249501","-14.0089820359281","-30.0459081836327"
"4751","-48.8003992015968","-93.8003992015968","-21.8003992015968","14.8812375249501","-14.0089820359281","-30.0459081836327"
"4751","-48.8003992015968","-93.8003992015968","-21.8003992015968","-9.1187624750499","-19.0089820359281","-30.0459081836327"
"4759","130.199600798403","36.1996007984032","82.1996007984032","-9.1187624750499","-19.0089820359281","-30.0459081836327"
"4763","130.199600798403","36.1996007984032","82.1996007984032","34.8812375249501","-41.0089820359281","-33.0459081836327"
"4767","130.199600798403","36.1996007984032","82.1996007984032","34.8812375249501","-41.0089820359281","-33.0459081836327"
"4771","130.199600798403","36.1996007984032","82.1996007984032","34.8812375249501","-41.0089820359281","-33.0459081836327"
"4779","-7.80039920159681","177.199600798403","-138.800399201597","34.8812375249501","-41.0089820359281","-33.0459081836327"
"4779","-7.80039920159681","177.199600798403","-138.800399201597","76.8812375249501","-17.0089820359281","-28.0459081836327"
"4791","-7.80039920159681","-185.800399201597","37.1996007984032","76.8812375249501","-17.0089820359281","-28.0459081836327"
"4791","-7.80039920159681","-185.800399201597","37.1996007984032","-96.1187624750499","-16.0089820359281","-22.0459081836327"
"4800","-22.8003992015968","0.199600798403194","-46.8003992015968","-96.1187624750499","-16.0089820359281","-22.0459081836327"
"4800","-22.8003992015968","0.199600798403194","-46.8003992015968","6.8812375249501","-26.0089820359281","-21.0459081836327"
"4812","70.1996007984032","-39.8003992015968","-52.8003992015968","6.8812375249501","-26.0089820359281","-21.0459081836327"
"4812","70.1996007984032","-39.8003992015968","-52.8003992015968","34.8812375249501","-11.0089820359281","-29.0459081836327"
"4816","70.1996007984032","-39.8003992015968","-52.8003992015968","34.8812375249501","-11.0089820359281","-29.0459081836327"
"4820","70.1996007984032","-39.8003992015968","-52.8003992015968","34.8812375249501","-11.0089820359281","-29.0459081836327"
"4828","37.1996007984032","-31.8003992015968","-70.8003992015968","34.8812375249501","-11.0089820359281","-29.0459081836327"
"4828","37.1996007984032","-31.8003992015968","-70.8003992015968","5.8812375249501","-19.0089820359281","-38.0459081836327"
"4840","8.19960079840319","13.1996007984032","27.1996007984032","5.8812375249501","-19.0089820359281","-38.0459081836327"
"4841","8.19960079840319","13.1996007984032","27.1996007984032","40.8812375249501","1.99101796407186","-33.0459081836327"
"4849","27.1996007984032","-223.800399201597","29.1996007984032","40.8812375249501","1.99101796407186","-33.0459081836327"
"4853","27.1996007984032","-223.800399201597","29.1996007984032","-74.1187624750499","-7.00898203592814","-30.0459081836327"
"4861","41.1996007984032","-154.800399201597","-26.8003992015968","-74.1187624750499","-7.00898203592814","-30.0459081836327"
"4861","41.1996007984032","-154.800399201597","-26.8003992015968","-47.1187624750499","-0.00898203592814371","-33.0459081836327"
"4869","41.1996007984032","-154.800399201597","-26.8003992015968","-47.1187624750499","-0.00898203592814371","-33.0459081836327"
"4869","41.1996007984032","-154.800399201597","-26.8003992015968","-47.1187624750499","-0.00898203592814371","-33.0459081836327"
"4877","-47.8003992015968","143.199600798403","-110.800399201597","-47.1187624750499","-0.00898203592814371","-33.0459081836327"
"4877","-47.8003992015968","143.199600798403","-110.800399201597","80.8812375249501","-1.00898203592814","-28.0459081836327"
"4890","-60.8003992015968","-21.8003992015968","-39.8003992015968","80.8812375249501","-1.00898203592814","-28.0459081836327"
"4890","-60.8003992015968","-21.8003992015968","-39.8003992015968","-29.1187624750499","2.99101796407186","-23.0459081836327"
"4902","-21.8003992015968","-85.8003992015968","16.1996007984032","-29.1187624750499","2.99101796407186","-23.0459081836327"
"4902","-21.8003992015968","-85.8003992015968","16.1996007984032","-25.1187624750499","-5.00898203592814","-19.0459081836327"
"4910","21.1996007984032","-48.8003992015968","47.1996007984032","-25.1187624750499","-5.00898203592814","-19.0459081836327"
"4910","21.1996007984032","-48.8003992015968","47.1996007984032","-2.1187624750499","-7.00898203592814","-31.0459081836327"
"4918","21.1996007984032","-48.8003992015968","47.1996007984032","-2.1187624750499","-7.00898203592814","-31.0459081836327"
"4918","21.1996007984032","-48.8003992015968","47.1996007984032","-2.1187624750499","-7.00898203592814","-31.0459081836327"
"4926","70.1996007984032","77.1996007984032","-6.80039920159681","-2.1187624750499","-7.00898203592814","-31.0459081836327"
"4930","70.1996007984032","77.1996007984032","-6.80039920159681","35.8812375249501","-13.0089820359281","-32.0459081836327"
"4939","-168.800399201597","50.1996007984032","-186.800399201597","35.8812375249501","-13.0089820359281","-32.0459081836327"
"4943","-168.800399201597","50.1996007984032","-186.800399201597","-8.1187624750499","15.9910179640719","-31.0459081836327"
"4951","-361.800399201597","187.199600798403","-247.800399201597","-8.1187624750499","15.9910179640719","-31.0459081836327"
"4952","-361.800399201597","187.199600798403","-247.800399201597","-25.1187624750499","27.9910179640719","-21.0459081836327"
"4959","60.1996007984032","256.199600798403","379.199600798403","-25.1187624750499","27.9910179640719","-21.0459081836327"
"4963","60.1996007984032","256.199600798403","379.199600798403","25.8812375249501","-40.0089820359281","-16.0459081836327"
"4967","60.1996007984032","256.199600798403","379.199600798403","25.8812375249501","-40.0089820359281","-16.0459081836327"
"4968","60.1996007984032","256.199600798403","379.199600798403","25.8812375249501","-40.0089820359281","-16.0459081836327"
"4980","-261.800399201597","-582.800399201597","-159.800399201597","25.8812375249501","-40.0089820359281","-16.0459081836327"
"4980","-261.800399201597","-582.800399201597","-159.800399201597","-71.1187624750499","-78.0089820359281","-3.04590818363273"
"4992","179.199600798403","-377.800399201597","-202.800399201597","-71.1187624750499","-78.0089820359281","-3.04590818363273"
"4992","179.199600798403","-377.800399201597","-202.800399201597","-48.1187624750499","-52.0089820359281","-40.0459081836327"
"5000","-340.800399201597","968.199600798403","-182.800399201597","-48.1187624750499","-52.0089820359281","-40.0459081836327"
"5000","-340.800399201597","968.199600798403","-182.800399201597","539.88123752495","-18.0089820359281","-37.0459081836327"
"5013","12.1996007984032","-59.8003992015968","516.199600798403","539.88123752495","-18.0089820359281","-37.0459081836327"
"5013","12.1996007984032","-59.8003992015968","516.199600798403","163.88123752495","-32.0089820359281","-44.0459081836327"
"5017","12.1996007984032","-59.8003992015968","516.199600798403","163.88123752495","-32.0089820359281","-44.0459081836327"
"5021","12.1996007984032","-59.8003992015968","516.199600798403","163.88123752495","-32.0089820359281","-44.0459081836327"
"5029","250.199600798403","-309.800399201597","245.199600798403","163.88123752495","-32.0089820359281","-44.0459081836327"
"5030","250.199600798403","-309.800399201597","245.199600798403","-387.11876247505","-115.008982035928","-32.0459081836327"
"5042","152.199600798403","-560.800399201597","-124.800399201597","-387.11876247505","-115.008982035928","-32.0459081836327"
"5042","152.199600798403","-560.800399201597","-124.800399201597","-52.1187624750499","-42.0089820359281","-8.04590818363273"
"5049","212.199600798403","-219.800399201597","233.199600798403","-52.1187624750499","-42.0089820359281","-8.04590818363273"
"5053","212.199600798403","-219.800399201597","233.199600798403","-102.11876247505","52.9910179640719","-2.04590818363273"
"5062","-9.80039920159681","618.199600798403","98.1996007984032","-102.11876247505","52.9910179640719","-2.04590818363273"
"5062","-9.80039920159681","618.199600798403","98.1996007984032","289.88123752495","50.9910179640719","-1.04590818363273"
"5070","-9.80039920159681","618.199600798403","98.1996007984032","289.88123752495","50.9910179640719","-1.04590818363273"
"5070","-9.80039920159681","618.199600798403","98.1996007984032","289.88123752495","50.9910179640719","-1.04590818363273"
"5078","-8.80039920159681","-140.800399201597","-191.800399201597","289.88123752495","50.9910179640719","-1.04590818363273"
"5079","-8.80039920159681","-140.800399201597","-191.800399201597","239.88123752495","76.9910179640719","-3.04590818363273"
"5090","-161.800399201597","-411.800399201597","-147.800399201597","239.88123752495","76.9910179640719","-3.04590818363273"
"5094","-161.800399201597","-411.800399201597","-147.800399201597","-226.11876247505","58.9910179640719","-23.0459081836327"
"5103","-179.800399201597","337.199600798403","-32.8003992015968","-226.11876247505","58.9910179640719","-23.0459081836327"
"5103","-179.800399201597","337.199600798403","-32.8003992015968","290.88123752495","56.9910179640719","-7.04590818363273"
"5111","-62.8003992015968","9.19960079840319","-3.80039920159681","290.88123752495","56.9910179640719","-7.04590818363273"
"5111","-62.8003992015968","9.19960079840319","-3.80039920159681","133.88123752495","6.99101796407186","-19.0459081836327"
"5119","-62.8003992015968","9.19960079840319","-3.80039920159681","133.88123752495","6.99101796407186","-19.0459081836327"
"5119","-62.8003992015968","9.19960079840319","-3.80039920159681","133.88123752495","6.99101796407186","-19.0459081836327"
"5127","18.1996007984032","-281.800399201597","-53.8003992015968","133.88123752495","6.99101796407186","-19.0459081836327"
"5131","18.1996007984032","-281.800399201597","-53.8003992015968","-152.11876247505","-1.00898203592814","-18.0459081836327"
"5140","5.19960079840319","97.1996007984032","95.1996007984032","-152.11876247505","-1.00898203592814","-18.0459081836327"
"5144","5.19960079840319","97.1996007984032","95.1996007984032","49.8812375249501","7.99101796407186","-2.04590818363273"
"5152","-5.80039920159681","80.1996007984032","45.1996007984032","49.8812375249501","7.99101796407186","-2.04590818363273"
"5152","-5.80039920159681","80.1996007984032","45.1996007984032","49.8812375249501","7.99101796407186","-2.04590818363273"
"5160","8.19960079840319","-61.8003992015968","-13.8003992015968","49.8812375249501","7.99101796407186","-2.04590818363273"
"5164","8.19960079840319","-61.8003992015968","-13.8003992015968","-28.1187624750499","11.9910179640719","7.95409181636727"
"5168","8.19960079840319","-61.8003992015968","-13.8003992015968","-28.1187624750499","11.9910179640719","7.95409181636727"
"5168","8.19960079840319","-61.8003992015968","-13.8003992015968","-28.1187624750499","11.9910179640719","7.95409181636727"
"5176","21.1996007984032","-90.8003992015968","-77.8003992015968","-28.1187624750499","11.9910179640719","7.95409181636727"
"5180","21.1996007984032","-90.8003992015968","-77.8003992015968","-59.1187624750499","1.99101796407186","1.95409181636727"
"5193","-95.8003992015968","146.199600798403","-47.8003992015968","-59.1187624750499","1.99101796407186","1.95409181636727"
"5193","-95.8003992015968","146.199600798403","-47.8003992015968","76.8812375249501","21.9910179640719","-2.04590818363273"
"5201","-23.8003992015968","30.1996007984032","-12.8003992015968","76.8812375249501","21.9910179640719","-2.04590818363273"
"5201","-23.8003992015968","30.1996007984032","-12.8003992015968","11.8812375249501","14.9910179640719","0.954091816367265"
"5213","63.1996007984032","-122.800399201597","-31.8003992015968","11.8812375249501","14.9910179640719","0.954091816367265"
"5213","63.1996007984032","-122.800399201597","-31.8003992015968","-41.1187624750499","-2.00898203592814","-1.04590818363273"
"5221","6.19960079840319","-16.8003992015968","-68.8003992015968","-41.1187624750499","-2.00898203592814","-1.04590818363273"
"5221","6.19960079840319","-16.8003992015968","-68.8003992015968","2.8812375249501","4.99101796407186","-4.04590818363273"
"5230","-4.80039920159681","68.1996007984032","-31.8003992015968","2.8812375249501","4.99101796407186","-4.04590818363273"
"5234","-4.80039920159681","68.1996007984032","-31.8003992015968","2.8812375249501","4.99101796407186","-4.04590818363273"
"5242","11.1996007984032","83.1996007984032","-7.80039920159681","2.8812375249501","4.99101796407186","-4.04590818363273"
"5242","11.1996007984032","83.1996007984032","-7.80039920159681","45.8812375249501","16.9910179640719","-1.04590818363273"
"5250","4.19960079840319","52.1996007984032","-19.8003992015968","45.8812375249501","16.9910179640719","-1.04590818363273"
"5250","4.19960079840319","52.1996007984032","-19.8003992015968","36.8812375249501","11.9910179640719","0.954091816367265"
"5262","-50.8003992015968","38.1996007984032","-78.8003992015968","36.8812375249501","11.9910179640719","0.954091816367265"
"5262","-50.8003992015968","38.1996007984032","-78.8003992015968","-17.1187624750499","13.9910179640719","7.95409181636727"
"5271","-53.8003992015968","-80.8003992015968","-78.8003992015968","-17.1187624750499","13.9910179640719","7.95409181636727"
"5271","-53.8003992015968","-80.8003992015968","-78.8003992015968","-17.1187624750499","13.9910179640719","7.95409181636727"
"5283","-70.8003992015968","-121.800399201597","-13.8003992015968","-17.1187624750499","13.9910179640719","7.95409181636727"
"5283","-70.8003992015968","-121.800399201597","-13.8003992015968","-18.1187624750499","13.9910179640719","8.95409181636727"
"5291","105.199600798403","-44.8003992015968","103.199600798403","-18.1187624750499","13.9910179640719","8.95409181636727"
"5291","105.199600798403","-44.8003992015968","103.199600798403","-43.1187624750499","-9.00898203592814","8.95409181636727"
"5303","46.1996007984032","147.199600798403","-4.80039920159681","-43.1187624750499","-9.00898203592814","8.95409181636727"
"5303","46.1996007984032","147.199600798403","-4.80039920159681","-16.1187624750499","-26.0089820359281","7.95409181636727"
"5312","-54.8003992015968","-23.8003992015968","-165.800399201597","-16.1187624750499","-26.0089820359281","7.95409181636727"
"5312","-54.8003992015968","-23.8003992015968","-165.800399201597","65.8812375249501","-23.0089820359281","4.95409181636727"
"5320","-54.8003992015968","-23.8003992015968","-165.800399201597","65.8812375249501","-23.0089820359281","4.95409181636727"
"5320","-54.8003992015968","-23.8003992015968","-165.800399201597","30.8812375249501","-11.0089820359281","0.954091816367265"
"5328","95.1996007984032","-166.800399201597","9.19960079840319","30.8812375249501","-11.0089820359281","0.954091816367265"
"5328","95.1996007984032","-166.800399201597","9.19960079840319","-75.1187624750499","9.99101796407186","4.95409181636727"
"5340","6.19960079840319","6.19960079840319","-70.8003992015968","-75.1187624750499","9.99101796407186","4.95409181636727"
"5344","6.19960079840319","6.19960079840319","-70.8003992015968","-33.1187624750499","-14.0089820359281","3.95409181636727"
"5353","75.1996007984032","-137.800399201597","-80.8003992015968","-33.1187624750499","-14.0089820359281","3.95409181636727"
"5353","75.1996007984032","-137.800399201597","-80.8003992015968","49.8812375249501","15.9910179640719","12.9540918163673"
"5361","18.1996007984032","-123.800399201597","-105.800399201597","49.8812375249501","15.9910179640719","12.9540918163673"
"5365","18.1996007984032","-123.800399201597","-105.800399201597","6.8812375249501","3.99101796407186","9.95409181636727"
"5369","18.1996007984032","-123.800399201597","-105.800399201597","6.8812375249501","3.99101796407186","9.95409181636727"
"5369","18.1996007984032","-123.800399201597","-105.800399201597","-42.1187624750499","1.99101796407186","5.95409181636727"
"5377","1.19960079840319","69.1996007984032","-4.80039920159681","-42.1187624750499","1.99101796407186","5.95409181636727"
"5377","1.19960079840319","69.1996007984032","-4.80039920159681","58.8812375249501","15.9910179640719","10.9540918163673"
"5393","62.1996007984032","-195.800399201597","-7.80039920159681","58.8812375249501","15.9910179640719","10.9540918163673"
"5394","62.1996007984032","-195.800399201597","-7.80039920159681","85.8812375249501","13.9910179640719","8.95409181636727"
"5402","48.1996007984032","-203.800399201597","-45.8003992015968","85.8812375249501","13.9910179640719","8.95409181636727"
"5402","48.1996007984032","-203.800399201597","-45.8003992015968","-48.1187624750499","2.99101796407186","6.95409181636727"
"5414","-59.8003992015968","188.199600798403","-77.8003992015968","-48.1187624750499","2.99101796407186","6.95409181636727"
"5414","-59.8003992015968","188.199600798403","-77.8003992015968","-75.1187624750499","-8.00898203592814","4.95409181636727"
"5418","-59.8003992015968","188.199600798403","-77.8003992015968","-75.1187624750499","-8.00898203592814","4.95409181636727"
"5422","-59.8003992015968","188.199600798403","-77.8003992015968","61.8812375249501","5.99101796407186","8.95409181636727"
"5426","1.19960079840319","160.199600798403","6.19960079840319","61.8812375249501","5.99101796407186","8.95409181636727"
"5430","1.19960079840319","160.199600798403","6.19960079840319","93.8812375249501","9.99101796407186","8.95409181636727"
"5443","4.19960079840319","-112.800399201597","-62.8003992015968","93.8812375249501","9.99101796407186","8.95409181636727"
"5443","4.19960079840319","-112.800399201597","-62.8003992015968","0.8812375249501","-8.00898203592814","8.95409181636727"
"5451","98.1996007984032","-45.8003992015968","78.1996007984032","0.8812375249501","-8.00898203592814","8.95409181636727"
"5455","98.1996007984032","-45.8003992015968","78.1996007984032","-60.1187624750499","-10.0089820359281","8.95409181636727"
"5463","21.1996007984032","57.1996007984032","7.19960079840319","-60.1187624750499","-10.0089820359281","8.95409181636727"
"5463","21.1996007984032","57.1996007984032","7.19960079840319","-22.1187624750499","-11.0089820359281","11.9540918163673"
"5467","21.1996007984032","57.1996007984032","7.19960079840319","-22.1187624750499","-11.0089820359281","11.9540918163673"
"5471","21.1996007984032","57.1996007984032","7.19960079840319","45.8812375249501","-13.0089820359281","15.9540918163673"
"5479","35.1996007984032","52.1996007984032","-33.8003992015968","45.8812375249501","-13.0089820359281","15.9540918163673"
"5480","35.1996007984032","52.1996007984032","-33.8003992015968","40.8812375249501","3.99101796407186","12.9540918163673"
"5492","-37.8003992015968","19.1996007984032","-87.8003992015968","40.8812375249501","3.99101796407186","12.9540918163673"
"5492","-37.8003992015968","19.1996007984032","-87.8003992015968","-7.1187624750499","-7.00898203592814","1.95409181636727"
"5500","-17.8003992015968","114.199600798403","-3.80039920159681","-7.1187624750499","-7.00898203592814","1.95409181636727"
"5504","-17.8003992015968","114.199600798403","-3.80039920159681","-5.1187624750499","21.9910179640719","6.95409181636727"
"5513","0.199600798403194","-54.8003992015968","-19.8003992015968","-5.1187624750499","21.9910179640719","6.95409181636727"
"5513","0.199600798403194","-54.8003992015968","-19.8003992015968","40.8812375249501","20.9910179640719","13.9540918163673"
"5520","0.199600798403194","-54.8003992015968","-19.8003992015968","40.8812375249501","20.9910179640719","13.9540918163673"
"5521","0.199600798403194","-54.8003992015968","-19.8003992015968","13.8812375249501","7.99101796407186","17.9540918163673"
"5529","-11.8003992015968","-166.800399201597","-64.8003992015968","13.8812375249501","7.99101796407186","17.9540918163673"
"5529","-11.8003992015968","-166.800399201597","-64.8003992015968","-52.1187624750499","3.99101796407186","17.9540918163673"
"5541","65.1996007984032","53.1996007984032","4.19960079840319","-52.1187624750499","3.99101796407186","17.9540918163673"
"5545","65.1996007984032","53.1996007984032","4.19960079840319","-43.1187624750499","-1.00898203592814","16.9540918163673"
"5553","61.1996007984032","31.1996007984032","30.1996007984032","-43.1187624750499","-1.00898203592814","16.9540918163673"
"5553","61.1996007984032","31.1996007984032","30.1996007984032","61.8812375249501","-2.00898203592814","13.9540918163673"
"5561","-59.8003992015968","-186.800399201597","-115.800399201597","61.8812375249501","-2.00898203592814","13.9540918163673"
"5565","-59.8003992015968","-186.800399201597","-115.800399201597","76.8812375249501","16.9910179640719","10.9540918163673"
"5570","-59.8003992015968","-186.800399201597","-115.800399201597","76.8812375249501","16.9910179640719","10.9540918163673"
"5570","-59.8003992015968","-186.800399201597","-115.800399201597","-39.1187624750499","30.9910179640719","0.954091816367265"
"5578","-190.800399201597","-350.800399201597","-249.800399201597","-39.1187624750499","30.9910179640719","0.954091816367265"
"5578","-190.800399201597","-350.800399201597","-249.800399201597","-75.1187624750499","36.9910179640719","-8.04590818363273"
"5594","441.199600798403","1263.1996007984","243.199600798403","-75.1187624750499","36.9910179640719","-8.04590818363273"
"5594","441.199600798403","1263.1996007984","243.199600798403","0.8812375249501","4.99101796407186","-14.0459081836327"
"5602","191.199600798403","1536.1996007984","-81.8003992015968","0.8812375249501","4.99101796407186","-14.0459081836327"
"5603","191.199600798403","1536.1996007984","-81.8003992015968","298.88123752495","-52.0089820359281","-7.04590818363273"
"5615","-276.800399201597","-1409.8003992016","8.19960079840319","298.88123752495","-52.0089820359281","-7.04590818363273"
"5615","-276.800399201597","-1409.8003992016","8.19960079840319","454.88123752495","22.9910179640719","-11.0459081836327"
"5619","-276.800399201597","-1409.8003992016","8.19960079840319","454.88123752495","22.9910179640719","-11.0459081836327"
"5623","-276.800399201597","-1409.8003992016","8.19960079840319","-409.11876247505","98.9910179640719","7.95409181636727"
"5627","-419.800399201597","-859.800399201597","75.1996007984032","-409.11876247505","98.9910179640719","7.95409181636727"
"5631","-419.800399201597","-859.800399201597","75.1996007984032","-801.11876247505","62.9910179640719","48.9540918163673"
"5643","-350.800399201597","634.199600798403","-375.800399201597","-801.11876247505","62.9910179640719","48.9540918163673"
"5643","-350.800399201597","634.199600798403","-375.800399201597","169.88123752495","-9.00898203592814","58.9540918163673"
"5652","-3.80039920159681","-607.800399201597","16.1996007984032","169.88123752495","-9.00898203592814","58.9540918163673"
"5655","-3.80039920159681","-607.800399201597","16.1996007984032","355.88123752495","-30.0089820359281","77.9540918163673"
"5664","381.199600798403","-54.8003992015968","189.199600798403","355.88123752495","-30.0089820359281","77.9540918163673"
"5664","381.199600798403","-54.8003992015968","189.199600798403","-263.11876247505","-113.008982035928","26.9540918163673"
"5672","381.199600798403","-54.8003992015968","189.199600798403","-263.11876247505","-113.008982035928","26.9540918163673"
"5672","381.199600798403","-54.8003992015968","189.199600798403","-150.11876247505","-92.0089820359281","5.95409181636727"
"5680","170.199600798403","391.199600798403","-33.8003992015968","-150.11876247505","-92.0089820359281","5.95409181636727"
"5680","170.199600798403","391.199600798403","-33.8003992015968","242.88123752495","-82.0089820359281","-9.04590818363273"
"5693","93.1996007984032","-486.800399201597","0.199600798403194","242.88123752495","-82.0089820359281","-9.04590818363273"
"5693","93.1996007984032","-486.800399201597","0.199600798403194","-38.1187624750499","-17.0089820359281","-22.0459081836327"
"5701","202.199600798403","157.199600798403","62.1996007984032","-38.1187624750499","-17.0089820359281","-22.0459081836327"
"5705","202.199600798403","157.199600798403","62.1996007984032","-238.11876247505","-3.00898203592814","-31.0459081836327"
"5713","-27.8003992015968","507.199600798403","-126.800399201597","-238.11876247505","-3.00898203592814","-31.0459081836327"
"5713","-27.8003992015968","507.199600798403","-126.800399201597","160.88123752495","-5.00898203592814","-37.0459081836327"
"5721","-27.8003992015968","507.199600798403","-126.800399201597","160.88123752495","-5.00898203592814","-37.0459081836327"
"5721","-27.8003992015968","507.199600798403","-126.800399201597","296.88123752495","39.9910179640719","-14.0459081836327"
"5729","-182.800399201597","-87.8003992015968","-108.800399201597","296.88123752495","39.9910179640719","-14.0459081836327"
"5730","-182.800399201597","-87.8003992015968","-108.800399201597","-16.1187624750499","31.9910179640719","-13.0459081836327"
"5742","-99.8003992015968","-28.8003992015968","-89.8003992015968","-16.1187624750499","31.9910179640719","-13.0459081836327"
"5746","-99.8003992015968","-28.8003992015968","-89.8003992015968","-128.11876247505","39.9910179640719","10.9540918163673"
"5754","-68.8003992015968","63.1996007984032","-58.8003992015968","-128.11876247505","39.9910179640719","10.9540918163673"
"5754","-68.8003992015968","63.1996007984032","-58.8003992015968","1.8812375249501","0.991017964071856","18.9540918163673"
"5762","-24.8003992015968","27.1996007984032","-30.8003992015968","1.8812375249501","0.991017964071856","18.9540918163673"
"5762","-24.8003992015968","27.1996007984032","-30.8003992015968","60.8812375249501","-10.0089820359281","29.9540918163673"
"5771","-24.8003992015968","27.1996007984032","-30.8003992015968","60.8812375249501","-10.0089820359281","29.9540918163673"
"5771","-24.8003992015968","27.1996007984032","-30.8003992015968","5.8812375249501","-16.0089820359281","35.9540918163673"
"5779","-21.8003992015968","63.1996007984032","-1.80039920159681","5.8812375249501","-16.0089820359281","35.9540918163673"
"5779","-21.8003992015968","63.1996007984032","-1.80039920159681","-1.1187624750499","-28.0089820359281","29.9540918163673"
"5791","175.199600798403","-109.800399201597","64.1996007984032","-1.1187624750499","-28.0089820359281","29.9540918163673"
"5795","175.199600798403","-109.800399201597","64.1996007984032","-6.1187624750499","-39.0089820359281","23.9540918163673"
"5803","-44.8003992015968","-75.8003992015968","-11.8003992015968","-6.1187624750499","-39.0089820359281","23.9540918163673"
"5804","-44.8003992015968","-75.8003992015968","-11.8003992015968","-39.1187624750499","-21.0089820359281","15.9540918163673"
"5811","-29.8003992015968","0.199600798403194","-34.8003992015968","-39.1187624750499","-21.0089820359281","15.9540918163673"
"5815","-29.8003992015968","0.199600798403194","-34.8003992015968","-23.1187624750499","-29.0089820359281","4.95409181636727"
"5820","-29.8003992015968","0.199600798403194","-34.8003992015968","-23.1187624750499","-29.0089820359281","4.95409181636727"
"5820","-29.8003992015968","0.199600798403194","-34.8003992015968","35.8812375249501","7.99101796407186","5.95409181636727"
"5828","108.199600798403","-158.800399201597","0.199600798403194","35.8812375249501","7.99101796407186","5.95409181636727"
"5828","108.199600798403","-158.800399201597","0.199600798403194","-5.1187624750499","-24.0089820359281","-7.04590818363273"
