Timer,AX,AY,AZ,GX,GY,GZ
"1005","-2,0699989857005","-0,0699999153001023","-32,0699538192665","-0,856998765921777","2,0259970825642","0,890999429760365"
"1005","-2,06999972234256","-0,0699999794202998","-32,0699884748215","0,862298478559611","-1,3789592907506","0,890999853432359"
"1013","-2,06999991783625","-5,29535275697314","-39,005424671478","0,362178160750563","-0,432598945308664","0,890999959663208"
"1014","-2,0699999755257","-3,64689187565702","-36,8547047661602","5,28940824139243","-0,12511854300942","-2,55581326304455"
"1021","-2,06999999270554","-1,47889553803663","-24,1516822321067","3,80230875778547","-0,0238479670191077","-1,50933220867753"
"1025","-2,0699999978258","-1,91672108482118","-27,7547792140624","-6,8113378218044","0,00955531571845295","-1,21977488616645"
"1034","-2,06999999935195","-2,03025329624605","-40,8464005166993","-4,07173403065473","0,0205748856607802","-1,13965229995461"
"1034","-2,06999999980684","-2,05969329483766","-37,3472725125082","-1,53734509827784","0,0242102481303226","-2,84077366643671"
"1042","-2,06999999994243","-2,06732737153412","-36,4115595235269","-1,75880506805664","0,0254095585798105","-2,31148768333542"
"1042","-2,06999999998284","-2,06930696155496","-36,161337523542","-3,51964500691872","5,03610137809994","1,28155387003165"
"1054","-2,06999999999488","-2,06982028841926","-29,1640776399137","-3,06055821660697","3,68913501502203","0,275777486421751"
"1054","-2,06999999999848","-2,06995339904665","-31,2929180166116","-2,91953113977692","4,91486781067416","-3,44911280923257"
"1062","-2,06999999999955","-2,06998791592147","-35,3273716334184","-2,87620896884928","4,31923862742794","-2,47982003752191"
"1062","-2,06999999999986","-2,06999686648141","-34,4062377660786","2,21552784390291","0,782542355789839","1,23497494806794"
"1075","-0,368062726593437","-3,81068950265297","-32,4273276106083","0,779660757101743","1,6157817330371","0,262888722529624"
"1075","-0,860778662390848","-3,26206796146414","-32,8981409228694","-3,04704300049563","1,89066846914039","1,71719653668344"
"1083","-1,00763891765068","0,36157554786283","-33,024042615056","-2,22256984259975","1,98135395490698","1,11961525434481"
"1083","-1,05141248576164","-0,698778595923012","-33,0577103888479","1,41631954000172","-1,32892622976272","-0,769032236407727"
"1091","-1,06445975482552","-0,973738694719522","-33,0667135958137","0,534151600088185","-0,420991895883115","-0,291636250459061"
"1091","-1,0683486594173","-1,04503851126973","-33,0691211721557","7,03439624284782","-1,79156191926315","-1,88282884919412"
"1103","-1,06950779692339","-2,80421755943002","-31,3371781850638","5,03120930752179","-1,24371472266595","-1,32312469227724"
"1104","-1,06985329260895","-2,26038972390698","-31,8740337769368","1,03023031143087","2,27721821047339","-2,89154195535658"
"1111","-2,77189354540153","1,36201073111479","-32,0175960461344","1,80116778071837","1,43877848769739","-2,32553567912241"
"1116","-2,27920830392074","0,301334251308882","-32,0559864912543","-3,0404362482732","-3,84812001263559","-0,445625247569473"
"1124","-2,13235719749261","0,0262905676606099","-32,06625260285","-1,5277307595401","-2,5922745887997","-0,925438848362133"
"1124","-2,08858635630738","-0,0450309232511653","-32,0689978965543","0,629767469295431","1,1622278648963","0,66508477682011"
"1132","-0,373602626631893","-7,02628653739738","-32,0697320243156","0,292530317021231","0,400843025641448","0,105195509518312"
"1136","-0,862429900101365","-4,83659373017714","-32,069928339766","-1,50387526679114","1,81975991470619","-1,77302229625999"
"1140","-1,00813109006493","-4,2687851785383","-32,0699808371079","-1,05571390308083","1,28786241092452","-1,29274033224526"
"1140","-1,05155918401339","-4,12154692198875","-32,0699948755898","-2,61085256481815","1,11238874423457","-4,60642628120086"
"1153","-2,76644075351294","1,13870432952099","-33,8025854344394","-2,0885763072","1,05449975719721","-3,52334994573271"
"1153","-2,27758302990288","-0,497261576505868","-33,2659030117993","4,84310017795352","1,03540210634495","3,66951371822277"
"1165","-3,83381003729391","-2,66217369513826","-38,3201474646624","2,97244498362406","1,02910176690664","1,65983718605495"
"1165","-3,29766330231529","-2,22355637423038","-36,6717191232544","-2,68063107944436","-2,31317416552397","-2,34284038854686"
"1173","-1,43592067122685","-2,10981865499999","-31,033147219055","-1,41720204849306","-1,41579526974695","-1,45041360042594"
"1173","-1,88100458638931","-2,08032536287702","-32,5253186896431","2,35653038545552","3,89054733913067","0,519820023049233"
"1185","-3,71560478511206","-2,07267746659304","-31,1917582256434","1,51578494291065","2,64111655156886","0,0649995789423048"
"1185","-3,2624307225523","-2,07069429301829","-31,8351465609386","1,25751597366368","0,558829015779251","-1,78414483488639"
"1189","-3,12735642584429","-2,07018003690373","-32,0071970914508","1,1781782132662","0,871879694885689","-1,2958180285126"
"1193","-3,08709581267481","-2,07004668531276","-32,0532056735554","-2,23181269267052","0,975155514253205","-1,16069405729543"
"1206","-1,37315835113266","-3,81070242115842","-32,0655089755038","-1,27932932713724","1,00922633913203","-1,12330416315245"
"1206","-1,86229747813471","-3,26207131135772","-32,0687990407896","4,09169312039565","-3,98982981576009","-1,11295807746957"
"1214","1,39578292680055","-1,37911563600171","-37,2674392619831","2,74161991289521","-2,63902483406946","-1,11009523200261"
"1214","0,366895255756342","-1,89084699334159","-35,6576242543613","0,634080767409689","-0,523293821999085","-4,55588690685971"
"1222","0,0602221911664904","-2,02354389031328","-35,2271384794509","0,986664872885652","-0,825311455512864","-3,50936529267932"
"1222","-0,0311856186379386","-2,05795348084032","-35,1120209028829","1,09497534224545","2,41524998336275","3,67338338466746"
"1234","-1,76036815306671","-2,06687622091382","-31,6160633343576","1,12824728386375","1,4843153460891","1,66090795401294"
"1235","-1,27577301405637","-2,06918997382979","-32,6811981505847","2,83127765840302","-0,49289990242645","-2,34254409840499"
"1243","-1,131333265629","-2,06978995236913","-32,9660292551382","2,35443232231316","-0,145185741381493","-1,45033161455075"
"1243","-1,08828116038426","-2,06994553261505","-33,0421968509065","-4,56328821769776","-1,70057311619119","-2,92674113811607"
"1255","-1,07544893250943","-2,06998587607958","-34,7951518758379","-2,68834589032605","-1,21369740017571","-2,33527557727254"
"1255","-1,07162412368078","-2,06999633753065","-34,2639151801417","-2,11238151658878","-1,05307647884384","-5,61819612702903"
"1263","-1,07048409073262","-2,06999905028623","-34,1218554779245","-1,93545076252149","-1,00008743149386","-4,52660675713065"
"1263","-1,07014428940368","-2,06999975373002","-34,0838668390417","-0,188289773010187","-0,982606277010523","-0,777971315113272"
"1275","-1,07004300729308","-2,06999993613981","-32,3411213709615","-0,651578605711143","-0,976839221791508","-1,74069361305105"
"1276","-1,07001281887104","-2,06999998344043","-32,8750882368771","-0,793896509835761","2,36526077949319","1,43949719915566"
"1284","-2,77194109423418","-3,81069031091063","-29,5527044130877","-0,837615210578754","1,46782384380616","0,319481681196923"
"1284","-2,27922247645545","-3,26206817105318","-30,6642551390019","4,22738347780048","-2,16843919131549","1,73285626541068"
"1292","-2,13236142179695","-3,11980513689501","-30,9614984702741","2,78330269459144","-1,36804701666799","1,12394842775694"
"1292","-2,08858761541505","-3,08291495434943","-31,0409852592491","-2,73873378397001","2,23620082768555","-2,49112513598797"
"1304","-0,373603001924957","-1,33265865753681","-34,5274146850157","-1,43505064433306","1,42524680066251","-1,491445187641"
"1304","-0,86243001196224","-1,87880024889932","-33,4597319176889","2,35104746730118","1,15771203009676","-2,93811759583736"
"1312","-2,71006839681301","-5,50180068321851","-33,1742194573906","1,51410064282584","1,06945196716273","-2,33842353500417"
"1316","-2,2607805315604","-4,44127978385511","-33,0978696581055","-5,51423963476952","1,04033485953351","-2,17248334503823"
"1321","-2,12686456541785","-4,16627644372234","-33,0774527143238","-3,67327863415686","1,03072908849157","-2,12656635428518"
"1321","-2,086949207415","-4,09496541427485","-33,0719929541504","-1,41494344753044","1,02756013234095","-2,11386075210257"
"1333","-0,37311465356919","-0,595093143297023","-31,337946137463","-1,72120444955419","1,02651468965438","-2,11034500936387"
"1337","-0,862284453519792","-1,6875423678859","-31,8742391375417","1,57033419976132","1,02616979677517","-0,386080251294177"
"1341","-1,00808773786025","-1,97082503196893","-32,0176509622699","0,581463432436193","1,02605601617326","-0,908962266987097"
"1341","-1,05154626233706","-2,04428297030028","-32,0560011765536","0,277691778292622","1,02601847980719","-4,50023179102162"
"1353","-2,76643690204286","-2,06333132513469","-28,6010829203442","0,184376027731272","1,02600609651203","-3,49396507263726"
"1357","-2,27758188192321","-2,06827074802268","-29,6771921902076","-4,9227183351515","1,02600201124711","-1,49223102104815"
"1361","-2,13187242171744","-2,06955158821483","-29,9649580084738","-3,49156894105695","1,02600066351299","-1,93833504228778"
"1365","-2,08844186271804","-2,06988372248133","-30,0419103854131","0,33368558640381","2,69609894009029","-2,06177562785273"
"1374","-2,0754968318852","-2,06996984811328","-35,2602488807335","-0,491232761147166","2,24706649726065","-2,09593263482674"
"1374","-2,07163840069933","-2,06999218132376","-33,6557014515365","-2,43744934987443","-1,24126732224612","-0,382092230860511"
"1382","-2,07048834617969","-0,329307657336842","-36,6917979061523","-2,03530849589666","-0,392073110194871","-0,907858749524491"
"1382","-2,07014555779384","-0,877931302093714","-35,5036901600946","-0,218965114873568","4,89837330990289","-1,05334259150821"
"1390","-0,368106111946387","-6,24226567210093","-31,7208008619003","-0,661001777724271","3,64369834933449","-1,09359914556214"
"1390","-0,860791593947443","-4,63328952672417","-32,709206347485","-0,796791218269149","1,55968075416374","-1,1047384591945"
"1402","-2,70958004547222","-0,734685799213973","-32,9735190165638","-0,838504437359572","1,87216068446794","-1,10782079724146"
"1403","-2,26063497222823","-1,72374009549147","-33,0441997119408","0,841491212059518","3,64534693427223","0,614618218586489"
"1411","-0,424883906199896","-0,239521138099951","-33,0631006625323","0,35756982843776","3,23032334563943","0,0912310052699639"
"1415","-0,877714938112607","-0,854648788091528","-33,0681550261228","-6,56232440578538","-0,246790909377162","-3,50017831102715"
"1419","-2,71462426357717","-2,75484766032441","-34,8020934344147","-4,68804981651278","0,606104651347016","-2,49395027429087"
"1419","-2,26213846563012","-2,24758763093153","-34,2657714445006","0,966138090110123","2,55757470871225","-0,492226926226192"
"1431","1,27660523186384","-3,85674050780509","-27,1920046484107","-0,296949393121439","2,20136717618376","-0,938333909217469"
"1435","0,33137282705438","-3,27400943309464","-29,3003860671868","-4,07057690687294","0,413755134486673","-4,50835916164214"
"1439","-1,65230299419416","0,358479008618331","-33,3293686886847","-3,22979923384572","0,824019635926282","-3,49621398172737"
"1439","-1,24356281815306","-0,699581558538459","-32,4067718050084","2,10690829194911","-4,05092974399064","1,95373053496278"
"1452","-4,52560715362699","-2,71463722590692","-32,1600572244392","0,74629386826288","-2,65918177852752","0,461774198338238"
"1452","-3,50386223705903","-2,23716067585725","-32,0940824901405","5,40675476938894","2,81025381864045","-3,39764601687219"
"1460","0,204556385469282","-2,11334638216672","-32,0764399756374","3,83840384203367","1,6146276164795","-2,46557876041247"
"1464","-0,690102248549897","-2,08124013669667","-32,0717221344624","-1,72180723779551","-0,449909717780872","2,96220754812108"
"1472","-0,956766640376051","-2,07291467630387","-37,268220935802","-0,429850971028654","-0,131003224490918","1,46411985634239"
"1472","-1,03624935608915","-2,07075580379364","-35,6578332842549","-1,72578389837791","-0,0257955645358256","-4,12028887801767"
"1480","-6,16575201127121","-0,329505672038808","-35,2271943768026","-1,12388211505881","0,00891257702328239","-2,66553987640119"
"1480","-4,69466555874326","-0,877982649223666","-35,1120358505723","-4,32460274028679","0,0203628373085247","2,90687669237296"
"1488","-0,852314972835011","-2,76089835649964","-29,8834805267927","-3,3078335434452","0,024140292819259","1,44880936168605"
"1489","-1,70705348067115","-2,24915663504952","-31,4852958412464","-1,30268220635288","-1,64471224097364","1,04535035543684"
"1501","-1,96181917084123","-2,11645705056368","-26,7158819783231","-1,68671886857078","-1,19526882600636","0,93370998993539"
"1501","-2,03775532709579","-2,08204676313819","-28,4404777778849","-0,111881711046688","2,29320057373417","-5,9903494954827"
"1509","-2,06038906487606","-2,07312384235217","-39,2971782797643","-0,628106778916889","1,44405108977542","-3,90629267615952"
"1513","-2,06713533847184","-2,07081004257569","-36,2004032505805","5,98455201869065","-7,18657801686044","5,28684229559738"
"1517","-2,06914615117415","-2,07021005188497","-37,1048715499056","4,01589763796695","-5,03383359601824","2,83065698917026"
"1521","-2,06974549949087","-2,07005446848808","-36,3467383078084","3,4111458165666","2,35675442614071","0,427718754233592"
"1529","-3,77186141629085","-0,329323809001789","-32,6788298655839","3,22537183355157","0,794918865760719","0,762806337679374"
"1530","-3,27919872743041","-0,877935490376861","-33,6979827492532","3,16830384046086","-3,06053012528243","0,855527778300224"
"1538","0,27152020371525","-2,76088612775394","-32,2379308735244","3,15077309809023","-2,33244767778919","0,881184549769933"
"1538","-0,670142830300394","-2,24915346401733","-32,8474937362405","3,14538782148559","-0,422153626090287","-0,835007938011136"
"1550","-2,65275475515791","-5,5978368586937","-29,5453252795018","3,14373351595218","-0,791945175544116","-0,309892259934951"
"1550","-2,24369747125768","-4,46618289424652","-30,6622818613117","-1,93520332655748","4,09635628298987","3,28199533652083"
"1558","-2,12177274188546","1,0493368841857","-30,9609707897819","-0,495404211161679","2,7090131853372","2,2758996437672"
"1558","-2,0854315246096","-0,520435420586725","-31,0408441505226","-0,0531116757059969","3,9214256444789","1,99750484001094"
"1570","-3,77653683570715","-0,927492582137675","-36,2599637554546","0,0827563664590646","3,32140206518703","1,92047074940037"
"1571","-3,2805922956896","-1,03304644639313","-34,6556252052746","1,81730328310026","-6,89713880811266","1,89915479437489"
"1579","-1,4308324404463","-2,80110790086682","-30,7614302977986","1,35013952770176","-4,26824850971997","1,89325649746443"
"1579","-1,87948797444932","-2,25958335932514","-31,7200711947588","1,20663128433727","1,6093219251434","-1,55495945624647"
"1587","-2,01321546621552","-2,11916080114904","-26,7786640057661","1,16254692274977","0,548339927862412","-0,50910865960423"
"1591","-2,05307464703186","-2,08274787185024","-28,4572665204462","4,53462373172648","0,198320610171933","-0,219713297526239"
"1599","-3,76689245655228","-2,0733056466313","-32,3713205919593","3,57049351775814","0,0828487896599186","-0,139635263583792"
"1599","-3,2777176657424","-2,07085718618601","-31,4179902975089","-3,4969162822485","-1,62534423278927","-0,117477024854454"
"1607","-1,42997562040629","-2,0702222766797","-34,628230806913","-1,66795706573305","-1,18887929533846","-0,111345661240566"
"1611","-1,879232588332","-2,07005763849575","-33,4866914789757","-2,79892781630934","0,625209766875958","3,33693478390949"
"1620","-2,01313934513305","-2,07001494622017","-31,4488419950419","-2,14635122798514","0,22368006836392","2,29110183256933"
"1620","-2,05305195817447","-2,07000387569964","-31,9038941531541","-0,253076381503871","0,0912149073472189","0,278419484770984"
"1628","-2,06494842044306","1,41137962540292","-37,2233415190721","-0,671480433006244","0,0475144813308987","0,721494024027343"
"1628","-2,06849431242365","0,314136083725431","-35,6458319360273","2,58560894268682","0,0330976549038573","0,844096327460397"
"1640","-2,0695512106556","3,51099083719872","-28,2936378388289","1,58615568756034","0,0283415254292884","0,878021374998264"
"1640","-2,06986623262434","2,33996623565828","-30,3275641233775","1,27913319424688","-1,64332624896304","2,61070063330178"
"1648","-2,06996012893128","-4,92645304547348","-39,5343968738536","1,18481881694418","-1,19481158546965","2,09014697778193"
"1648","-2,06998811592055","-2,81070593885434","-36,9964254375672","-2,22977276265092","-1,04684602442106","1,94610557713105"
"1660","-0,368059184392353","-7,4841431691444","-27,6548043625268","-1,27870268012039","-0,998031996612259","1,90624815824356"
"1661","-0,860777606592735","-5,69601070424159","-30,1567316222624","-2,67935258716181","-0,981928186414586","0,171927364875752"
"1669","-2,70957587636314","-0,0102596927813186","-36,0235403993334","-2,10961885975972","-0,976615518836764","0,692026794385718"
"1669","-2,26063372957221","-1,53588939017492","-34,5924024801883","-0,241792548848335","-0,974862863008983","-2,61064134028794"
"1677","-2,12682080921698","-1,93149994612043","-37,6748709259696","-0,668014147396322","-0,974284659610096","-1,52451628662436"
"1681","-2,08693616532246","-2,03408559468435","-36,4991636622384","0,893864200632782","2,36610353282362","2,22260713495917"
"1689","-2,07504803961405","-2,06068704687799","-29,2544168070968","0,373658310266763","1,46810186920759","1,25946644875576"
"1689","-2,07150463245132","-2,06758506106142","-31,3170759019619","0,213856029692562","2,84194869320951","-0,73033428142836"
"1697","-0,368511201444438","-2,06937378294504","-33,6012449659555","0,16476629551299","2,29518251732785","-0,280928213778411"
"1701","-0,860912336027746","-2,06983761585286","-33,2120619137937","1,84249594995631","2,114803656698","1,56671799835629"
"1710","-2,70961603418589","3,15211305339607","-34,8405760350617","1,35787847432251","2,0552964399071","1,07797662747378"
"1710","-2,26064569912235","1,50621543545569","-34,2760621997002","1,20900861481765","-4,6447299517963","-2,50384590441023"
"1718","-0,424887103487207","-4,14265270267185","-37,5902773607856","1,16327721596536","-2,85507722643638","-1,4949651270007"
"1718","-0,87771589110478","-2,60745891901999","-36,476542226677","-0,543580584824897","1,07552893866702","2,23078417949226"
"1730","0,689249999184428","-7,43143924849556","-32,7135411462813","-0,0679109975202124","0,372240939007521","1,26172910301866"
"1730","0,156304124923007","-5,68234406719067","-33,7072650037349","-3,30740894760855","-3,19997211384031","-0,729708186719849"
"1738","-3,40642172229914","1,73397451376926","-28,7752394613057","-2,30255177456755","-2,37844976813334","-0,280754968316012"
"1738","-2,46833750242723","-0,342902252660402","-30,4563507520699","4,77736895824702","-0,437329774522456","-0,156525986884637"
"1750","-2,1887295620779","0,8592338028827","-36,103662508186","2,95225298078719","-0,7969518063192","-0,122150824407029"
"1751","-2,10538885700019","0,170959324526663","-34,6138281893248","-0,994024317960336","-2,58569029569136","-1,83593086298352"
"1759","-2,0805480992085","-8,71096848953193","-34,2154268337612","-0,206283009753202","-2,17579741078027","-1,31014764072867"
"1759","-2,07314399521046","-6,01413839137019","-34,1088890542876","-1,65710595616929","4,63982166091039","7,45180044157135"
"1767","-2,07093710778483","-0,0927532830552984","-32,3478126414921","-1,10278490721605","2,8883031084986","4,8763022404194"
"1771","-2,07027931690146","-1,5572807770665","-32,8768775709098","-0,932502775787886","-1,0297225441831","-1,0062346834183"
"1779","-0,36814598055071","-0,19635662470793","-34,7509433189415","-0,880193731528294","-0,322284217387681","0,366019840384957"
"1779","-0,860803477292353","-0,8434558117295","-34,2520932286858","0,828684659102182","1,58119931249324","0,745733749916024"
"1787","-2,70958358745441","-2,75194521315205","-32,3861073273375","0,353635777695973","1,20916096318234","0,850803655382074"
"1791","-2,2606360279611","-2,24683499827013","-32,8871180752119","-1,48510425294412","1,08642503598073","-0,843414576854703"
"1800","-2,12682149428104","-3,85654534286689","-33,0210949601434","-1,04994762692557","1,04593429664179","-0,312218444797844"
"1800","-2,08693636951452","-3,27395882493604","-33,0569221470293","-4,3018907717459","1,03257634995417","3,28135166238221"
"1808","-0,373110827069571","-1,3821981834007","-26,1361555904533","-3,30085664365152","1,02816954625974","2,27572153393452"
"1808","-0,862283312982882","-1,89164632773599","-28,285451292148","0,392270582505045","-2,31348170630751","-1,44912829173736"
"1820","-2,71002467131524","-0,283060850258446","-35,7905485423202","-0,473236009941944","-1,41589672784473","-0,479824321656044"
"1820","-2,26076749861931","-0,865939057127426","-33,7975105784685","-0,739111367923222","-1,11978229561505","1,51168183895387"
"1829","-2,12686068078389","-7,97984628204343","-38,4623063426716","-0,820785738284534","-1,02209376575032","1,06274767767637"
"1829","-2,08694804955041","-5,82455132219949","-36,7097342830526","4,2325533309361","2,35033124756951","-2,50805987781335"
"1841","1,32882296495361","-3,52497215031675","-31,0433129744037","2,78489082409287","1,46289857213261","-1,49613116747482"
"1841","0,346936986955646","-3,92866900009397","-32,5280371467628","0,647373178010892","-5,51026148713207","-2,93941424430295"
"1849","-3,34960117166337","2,92940975785619","-31,1924851769479","0,99074817445478","-3,81071590798491","-2,33878232810677"
"1849","-2,45140141417819","0,707775998881675","-31,8353409573097","1,09622969348426","0,09016379435357","1,27400122133167"
"1857","-0,481744272030039","-3,34969578129801","-30,2746622708313","1,1286326085829","-0,622931003386382","0,273687607531166"
"1861","-0,894662893787042","-2,40183750968228","-30,8573161965594","2,83139602647617","-0,858181889068909","-0,00310724828072565"
"1870","-2,71967581745568","-5,63742931044835","-34,4782991540978","2,35446868385459","-0,935791457095228","-0,0796986203733637"
"1870","-2,26364414555269","-4,4764496004313","-33,446597776631","-1,17765794401186","-0,961394952834498","-0,100892071609392"
"1878","-2,1277181020123","2,78736494304573","-31,4381204099895","-0,262693505629165","-0,969841578820722","-0,106756470731929"
"1881","-2,08720361485959","0,670942402726366","-31,9010270598374","-1,67443472167588","-0,972628131535153","-0,108379197332019"
"1890","-0,37319048294579","-3,35924708950692","-35,489988015713","-1,10810813845732","-0,973547418839097","-0,108828218887956"
"1890","-0,862307055430538","-2,40431425640331","-34,449723532464","4,14429063407322","-2,64394941409276","-1,83224439043849"
"1898","0,693842798759124","-2,15669092445052","-28,9737826687958","2,75777736669162","-2,19501716844285","-1,30912756400225"
"1898","0,157673067286938","-2,09247979629388","-30,5094438255751","-2,74657492088587","1,29328359588619","2,28220693406136"
"1910","-3,4060136916056","-3,81651954409592","-30,9200998822935","-1,43745936669598","0,444078478889542","1,2759581945156"
"1910","-2,46821588368618","-3,26357974767305","-31,0299147305594","-2,7281211248524","1,83402334602239","-2,44906280584322"
"1919","-2,18869331206433","0,361183527057518","-37,9896278891145","-2,12460008870686","1,29256793515586","-1,47980620118025"
"1919","-2,10537805222231","-0,69888025071447","-35,8507470226982","4,83203401636959","-2,22625633969709","2,23497877669543"
"1931","-2,08054487870695","-4,45514568520083","-31,8136084464541","2,96904556448816","-1,38712096785585","1,26288978194177"
"1931","-2,07314303529899","-3,42918169102501","-32,7340243202117","2,39675330711948","-1,11028913559618","-0,729387017487786"
"1939","-2,070936821671","-1,42244897587926","-32,9801556699497","2,22095059212499","-1,0189619601202","-0,280666098195629"
"1939","-2,07027923162159","-1,90208374804637","-33,0459744406283","0,474136125441951","-0,988833008141166","-0,156501395804582"
"1947","-2,07008322853848","-2,02645768963389","-29,5984016388528","0,937531406645805","-0,978893428354273","-0,122144019856572"
"1951","-2,07002480732511","-2,05870905722371","-30,6764751801567","2,77269156261757","0,694484372924701","-0,112637056449893"
"1960","-0,36807012073244","1,41430848122174","-36,1625266848479","2,33643523329545","0,246533849488009","-0,110006402893791"
"1960","-0,86078086630808","0,314895564404619","-34,6295692468903","-6,26162630342174","5,10905056255508","1,61401344385079"
"1968","-2,70957684796278","-3,4515734829245","-29,0218757859381","-3,90286867981617","3,71320104439925","1,09106365921623"
"1972","-2,26063401916985","-2,42825538437871","-30,5223045596986","-3,17828086842338","-0,0874889390506095","-0,776932693372207"
"1980","-0,424883622128717","-3,90358940600415","-34,388712621847","-2,95569441394213","0,658658575073661","-0,293822370707913"
"1980","-0,877714853441577","-3,28615780611965","-33,4226411557926","2,19111067440609","-9,11577873301975","-0,160141842663266"
"1988","-4,41656151174641","-1,38536149736625","-33,1643008982386","0,772160035862289","-6,34037810054432","-0,123151360903858"
"1988","-3,47135979571697","-1,89246660568331","-33,0952173045106","5,41470060900485","1,25562500208738","-0,112915795853306"
"2000","-1,48769312164988","3,19810707413496","-31,3441566351999","3,84084472806594","-0,238443860559137","-0,11008353233791"
"2001","-1,89643602412483","1,51814213047596","-31,8758999065854","1,66456168284623","-4,07153653135972","-3,55588366946799"
"2009","-0,316329774705719","-4,1395599951455","-30,2855082690521","1,99602831895759","-3,33607870522912","-2,50936439686689"
"2009","-0,845358997696466","-2,60665695000617","-30,8602165595991","-4,67338650409518","1,91684593570693","-2,21978406209224"
"2017","-2,70498016375524","3,01291060106475","-34,4790747494455","-2,72216703226129","0,649792492210099","-2,13965484471072"
"2021","-2,25926391894166","1,47011889141892","-33,4468051810611","4,64846715919971","-3,10840750150489","3,05239332786826"
"2029","-0,424475246318996","-2,41132257092354","-34,9033494822194","2,91265557937487","-2,34824248543074","1,48907498996949"
"2029","-0,877593131834256","-1,41781793307502","-34,29284864778","5,76504994609095","-0,427364353329688","1,05649217998179"
"2037","-2,71458795766573","-2,90088287379653","-27,1992454498575","4,64127824980647","-0,793664201123891","0,936793022772146"
"2041","-2,26212764419117","-2,285455976106","-29,3023223530376","0,910447215076893","-0,914506989336722","-0,819620624418465"
"2050","-2,1272660894816","-0,385179506046627","-35,0624732818453","1,76437155767265","-0,954373179702315","-0,305634465990676"
"2050","-2,08706888677223","-0,89241941357158","-33,6028136467001","5,41230806289963","-2,63762380808146","-3,60999419214563"
"2058","-2,07508759893125","-2,76464194931217","-36,6776550092725","4,53291931263959","-2,19293034293052","-2,52433721550679"
"2058","-2,07151642360926","-2,25012738492174","-35,4999081628502","0,877160384611209","-0,376126678905155","4,66924053270276"
"2070","1,3334225574574","-5,59808940581643","-29,9872027011585","1,75414616130553","-0,77676082680832","2,65976159341522"
"2070","0,348307954038544","-4,46624838216132","-31,5130325193093","-3,05488084061177","2,4312668978591","0,380430618018779"
"2079","-1,64725526407005","-0,69137041266953","-37,1188199606745","-1,53216800033344","1,48959934666393","0,749721328473649"
"2080","-1,24205827794916","-1,71250799625984","-35,6178814921262","2,32121394319157","2,8490407385134","-2,59467679674511"
"2090","-2,82322143286503","-0,236608545988608","-30,0187503260917","1,50493606918572","2,29752219214294","-1,52009876849097"
"2091","-2,2945072340084","-0,853893524749198","-31,5214687704945","-2,13143580048513","-2,89472064517804","0,5005375742445"
"2099","-2,1369172383085","-2,75465181322518","-28,4581419016883","-1,2484945046463","-1,6076481970685","0,0596639696264141"
"2099","-2,08994553450634","-2,24753684588196","-29,63896787568","-0,977263372317309","-4,52323879291744","-1,78562124107629"
"2111","-0,374007746991801","-0,375346708340518","-33,4199099319392","-0,893943759234114","-3,48509585895544","-1,2962265620293"
"2111","-0,862550651380438","-0,889869673897753","-32,4309837281668","5,90288943758115","-3,14261117746057","2,28577674550016"
"2119","-1,00816708152041","-1,02329046191635","-33,8991186169479","3,9908116730816","-3,0296250430648","1,27694599017173"
"2119","-1,05156991172474","-1,05788776440259","-33,2917172585792","0,0178205440043555","2,01794539074895","2,72108629617128"
"2127","-1,06450667763732","-2,80754949520976","-34,8618769253276","0,797355618701606","0,683145331714798","2,12069158221012"
"2131","-1,06836264535852","-2,26125372712378","-34,2817583388274","-5,73441685991526","3,58299052768547","3,67784943952451"
"2140","-4,4733865124242","-2,1195939436964","-34,1266269740015","-3,74091497461435","2,53965316616836","3,10872759478038"
"2140","-3,48829721035767","-2,08286018990767","-34,0851428000537","0,257088866619326","-1,14474260601261","-5,66521263437989"
"2148","0,209195739767391","-2,07333477179137","-34,074049384547","-0,514762541821989","-0,360229482873293","-3,09303275711683"
"2148","-0,68871942995817","-2,07086473862208","-34,0710828588604","-5,8302965775117","3,23877984208151","-2,38128981127778"
"2160","-2,65829174710274","1,41115639530985","-34,0702895707478","-4,46317785991189","2,42609762080979","-2,18434478988578"
"2160","-2,24534784217388","0,31407819800036","-34,0700774350389","-2,35040249654058","-4,52240216803465","3,04002725910711"
"2169","-2,12226465594063","-3,45178543394915","-34,0700207071512","-2,70137808589778","-2,81472113414022","1,4856531988707"
"2169","-2,08557814585413","-2,42831034533211","-34,0700055373655","3,96204377306513","-2,25135497726998","1,0555453427492"
"2181","-2,07464326462855","-2,16291334270697","-30,604827871216","2,00898331990694","-2,06549976168388","0,93653102526291"
"2181","-2,07138398411548","-2,09409332961062","-31,6781936394862","-0,283787747780516","-2,00418588838973","-0,819693121245252"
"2189","3,03539930614054","-2,076247633707","-33,6978126139995","0,0118948805088184","-1,98395836318159","-0,305654526448157"
"2189","1,55754105775627","-2,07162007192728","-33,2378853771126","-1,59008379229066","1,36291216564462","1,55987602794245"
"2197","-3,98876522149538","-3,8111104155455","-33,1148947651254","-1,08219633866046","0,467049033094105","1,07608339900219"
"2201","-2,64191239361165","-3,26217710825363","-33,0820054525911","-0,926178164187224","-1,49859608116372","2,66550599496001"
"2209","-2,24046576741249","0,361547245043251","-34,8057972212118","-0,878250871256526","-1,14706491803121","2,10531206397952"
"2210","-2,12080949142582","-0,698785935118235","-34,2667618859624","0,829281487219693","0,639004383421991","0,227009955300764"
"2218","-2,08514441555121","-0,973740597843923","-30,6574431150753","0,353819117592839","0,22823093000306","0,707268592022071"
"2221","-2,07451398579186","-1,04503900476832","-31,6922636499642","5,28619027485633","-3,24748119997139","2,56345195919467"
"2230","-0,369408177506403","-1,0635273721943","-35,4341619252326","3,8013675809313","-2,39412307640277","2,07707288806012"
"2230","-0,861179691158464","-1,06832158492391","-34,4347948992317","-0,0403748715562526","-3,78269786135664","-4,95067982372401"
"2238","-2,70969572278512","-1,06956477071566","-27,2372037505085","0,779478542917237","-3,2407904586272","-2,89531575759811"
"2238","-2,26066945132352","-1,06988714083146","-29,3124729035","-0,661479871184936","0,278182928919334","1,12000392663797"
"2250","-0,424894183133049","-2,81066104972927","-35,0651876729777","-0,104128532129728","-0,560903250453611","0,23107531235484"
"2251","-0,877718001283323","-2,26206058334546","-33,6035395107059","-3,31853462829491","-4,1779162964481","-1,73819033816698"
"2258","-2,71462517659419","-2,11980316932892","-31,4800887005628","-2,30596947740319","-3,37117352577059","-1,28310204812618"
"2259","-2,26213873776647","-2,08291444414049","-31,9122499345177","1,39069996881373","0,235169388334409","0,566116480835634"
"2271","-0,42533212265638","-2,07334884043938","-33,7604023557166","0,526281512534402","-0,575093472498443","0,0778101827177564"
"2271","-0,877848534731731","-2,07086838675876","-33,2546226999335","3,64635952335777","-0,842400226454176","3,38927573361975"
"2279","0,689210463063314","-2,0702251810967","-36,584544155649","2,60481768565996","-0,930585066416983","2,30558499607749"
"2279","0,156292340678949","-2,07005839163921","-35,4750090919725","-1,10075312196184","-2,6297760790883","0,282427093084651"
"2287","-3,40642523474306","-0,32932482631287","-33,4457179706056","-0,239069078881325","-2,19034136709997","0,722602961614544"
"2291","-2,46833854935584","-0,877935754175476","-33,9030587477976","1,71844158033096","-2,04537129366438","2,56769510310649"
"2299","-0,486792600721772","-1,02019588095479","-32,2927709015593","1,31977015692654","-1,99754548104974","2,07824700024959"
"2300","-0,89616761240164","-1,05708530958888","-32,8621586833636","-0,495507448164018","1,35842975808467","-1,50377109007954"
"2308","-4,42206159139522","-2,80734141090495","-31,281833684644","-0,0531433891270078","0,465570281107958","-0,494944425271168"
"2312","-3,47299916445358","-2,26119976884829","-31,8592339272414","-1,61006292748479","-3,16918264453149","-0,215793939491102"
"2320","-1,4881817563654","-0,378889636588301","-32,0136383710384","-1,08833373815372","-2,36829228283468","-0,1385507455614"
"2320","-1,89658166792044","-0,890788389504938","-32,0549281567113","0,764746037196019","1,23611991406351","1,60611499370084"
"2328","-2,01831045909907","-2,76421900897555","-35,5311431997768","0,333994443780689","0,425220107155123","1,08887809426917"
"2328","-2,0545932745027","-2,25001771239636","-34,4607289717346","-1,49113788311116","-3,18249421851848","0,945754466815133"
"2340","-0,363470555983877","-0,375990021054388","-32,4418992780245","-1,05180110048035","-2,37268378811587","0,906151003183462"
"2341","-0,85940990749798","-0,890036491114811","-32,902037579013","4,16158761830146","-0,435427570341137","0,895192404945524"
"2349","-2,7091682162418","-4,5047143496457","-29,5599110227774","2,76309083502775","-0,796324266727238","0,892160072307716"
"2349","-2,26051222128492","-3,44203532577794","-30,6661822815258","0,640676429601051","2,42481289401205","-2,55526284594243"
"2361","-0,424847318719041","-1,42578204785551","-34,4271874231626","0,988690997309839","1,48747016254139","-1,50919260998338"
"2361","-0,877704032748304","-1,90294804588993","-33,4329298253481","2,7884073001991","-2,16195784564096","-1,21973652727416"
"2369","-2,71462101309455","3,19538913517878","-36,6322258337876","2,3412629577656","-1,36590881244159","-1,13964169144265"
"2369","-2,26213749678241","1,51743734258194","-35,4877598018773","3,89671403872469","0,56680750279767","0,605813120164645"
"2377","-2,12726902617181","-0,658362123062768","-28,2513672643597","3,37453375330728","0,204413086759474","0,0887945634236672"
"2381","-2,08706976209012","-0,222567996676908","-30,3162604139946","1,52131540554863","-3,25533873691579","3,39231520047468"
"2390","-2,07508785983088","-1,85025267433283","-32,6010268937125","1,95202443084357","-2,39671528788897","2,30642604110401"
"2390","-2,07151650137372","-1,27232707504195","-32,2120035983984","0,391524577447756","2,89684184954517","0,282659817036056"
"2398","-0,368514739127811","-1,12246537005468","-33,8405604407556","0,912153928197899","1,64319311860404","0,722667358211455"
"2402","-0,860913390479298","-1,08360477857155","-33,276058029577","-2,31353281201043","-2,11058464329683","-0,878870925154172"
"2410","-2,7096163484786","-2,81421816604779","-36,5902762456397","-1,30443296721737","-1,34896072729203","-0,322029502729846"
"2410","-2,26064579280129","-2,2629829780568","-35,4765419284723","4,08398152195009","2,24249741895829","6,7252207107341"
"2418","-2,12682440481593","-2,12004235521077","-31,7135410665374","2,73925098351303","1,42732405417549","4,67525176079147"
"2418","-2,08693723703649","-2,08297646735612","-32,7072649824103","-1,05945649695262","-0,511701402509414","-4,50845082220259"
"2431","-0,373111085645533","1,4080157067495","-31,2404130651518","-0,226383150139059","-0,151388380302287","-2,04965549762561"
"2431","-0,862283390054739","0,313263787039736","-31,8481575070347","-3,35609007918546","-3,37271809589962","0,354004950412518"
"2439","-2,71002469428748","0,029384011810732","-35,4758499996679","-2,31750615319147","-2,43543888852287","0,0191172091647489"
"2439","-2,26076750546648","-0,0442287632236653","-34,4459428404193","3,0799655640924","-0,456130558216847","-1,79684085716548"
"2451","-2,12686068282478","-7,02607852953349","-27,2401848570816","1,73801731961911","-0,803154208902488","-1,29933112041462"
"2451","-2,08694805015872","-4,83653979172352","-29,3132700907341","-3,75264501860087","4,09265840855079","2,28491768912147"
"2459","-2,07505158204075","2,69399006904386","-33,3328140465889","-2,43932404273316","2,70779325183089","1,27670828233371"
"2460","-2,07150568831668","0,646729393581139","-32,4076931391743","4,73535382389937","-6,09956914032394","-4,17214717414554"
"2468","3,0353630306545","-1,62483544207163","-32,1603036013524","2,93934633283928","-4,0051292563816","-2,67988948576503"
"2471","1,55753024538599","-1,21387420359686","-32,094148374578","-7,76922732446251","-1,64407213909547","1,17961411591009"
"2480","-2,28683117085342","-4,58868860479425","-37,2742180083283","-5,05879886493391","-1,8651563767747","0,24756993315862"
"2480","-1,43269201658851","-3,46381066341143","-35,6594369805811","4,23786662755469","-0,267993628311858","-1,7336261433744"
"2488","-2,88004224478458","2,04995202661581","-30,0298628120386","2,09371346617826","-0,741087595136669","-1,28183909856508"
"2492","-2,31144340013639","0,479724091802931","-31,5244403958684","-0,257759456178481","0,772936821410118","4,01304979649832"
"2500","-0,440028004756132","3,55392941137918","-31,9241101630731","0,0198905230697456","0,272415412568613","2,47818831708767"
"2500","-0,882228829420079","2,35110062379457","-32,0309871325564","11,9548488078014","-1,56280596147323","-1,39310409764821"
"2508","0,687904860485222","-1,44218516038609","-32,059567444462","8,62115399153569","-1,16824783965714","-0,464321974681113"
"2508","0,155903189214675","-0,425820901420524","-32,0672101969892","-0,86697297237469","-2,70818133190421","-0,207320460095498"
"2521","-0,00266667947651142","-5,384338751405","-37,2670143841857","1,2183650537987","-2,21620736026885","-0,136206065377932"
"2521","-0,0499304468941763","-3,67013045213641","-35,657510636432","-4,91227723100281","-0,383805796691803","-1,83982006167508"
"2529","-3,46789256109281","0,255760992029813","-31,7619344869688","-2,79555198171084","-0,779294177586218","-1,31122381341711"
"2529","-2,48665966824406","-0,726217335042827","-32,7202060215958","-3,8381237557259","2,43043114219781","4,0049188085778"
"2537","-2,19419071677836","-2,72154414071655","-32,9764604745642","-3,15839184617885","1,48932362980251","2,47593840706144"
"2541","-2,10701662366056","-2,23895170575944","-33,0449862966233","-6,33520380005392","1,17885105797172","-1,39372666592351"
"2549","-2,08103327577755","-2,11381081356611","-29,5981373961071","-5,31109008774557","1,07642575949134","-0,464494244350961"
"2550","-2,07328860826151","-2,08136056825645","-30,6764045181597","-4,99649213753967","-3,9676606410487","-0,207368128504453"
"2558","-2,07098021154512","-3,81363622057836","-32,697334179349","-4,89985065223949","-2,63171119498215","-0,136219255611677"
"2562","-2,07029216452578","-3,26283207396055","-32,237757437374","-4,87016331106352","1,14921767808503","-1,83982371151929"
"2570","1,33378746345788","-1,37931290911245","-35,5800341618996","-4,86104364342429","0,396550948374941","-1,31122482335848"
"2570","0,348416718915997","-1,89089814816976","-34,4738030601336","3,60580559078369","0,148245231730739","5,72821045277843"
"2578","-3,34916011872064","3,19851379035842","-34,1779822665522","1,20674080117197","0,0663288582756","3,67607904656131"
"2578","-2,45126995273551","1,51824759593166","-34,0988758829265","2,1625805652753","0,0393045419178052","3,10823771274917"
"2590","-0,481705088273991","-7,62091327734079","-28,8799613777955","1,45620541073744","0,0303891853925786","2,95111142960342"
"2591","-0,894651214569876","-4,99078620268273","-30,4843547743686","1,23921371047684","0,0274479978739173","-0,538950529267483"
"2599","-1,01773506290984","-0,827388149572159","-30,9133907389452","1,1725559328363","0,02647769635031","0,4953211397844"
"2599","-1,05442177034567","-1,74777871274264","-31,0281206170994","2,84488885213632","1,69625631383336","4,22809631106028"
"2611","2,33851783641931","1,49493573084242","-36,2565613147273","2,35861355101549","1,24711841505974","3,26098534811539"
"2611","1,34982666677869","0,335802991089671","-34,6547153477282","2,20923442335636","2,76904596909172","-3,89978976068708"
"2619","-4,05067713922286","-1,70546166949623","-35,9589474042078","2,16334658219156","2,27113181541314","-1,88123406615032"
"2619","-2,66036602861814","-1,23478136521657","-35,3077162657468","2,14925027570106","-1,2333281430128","0,400608520730547"
"2627","-2,24596610817808","0,627960911330237","-31,6683948566319","2,14492002499346","-0,389453964813149","0,0320127934580474"
"2631","-2,1224489379916","0,110988023916493","-32,6951922901671","7,22201846898967","-0,111058794275839","-0,0699806211828318"
"2640","-0,383695800058187","1,7176222626382","-34,7023582774926","5,7816546151307","-0,0192158715028638","-0,0982030227475025"
"2640","-0,865438298892788","1,13423808066248","-34,2391009475117","0,260759941761918","-3,32911421622403","-0,10601238919417"
"2648","0,692909491795138","-2,49841971808958","-35,8478066294641","1,56479383304766","-2,4210539128571","-0,108173303961065"
"2652","0,157394883268504","-1,44040306685322","-35,2779957560527","-4,80585761906499","-0,451384936349152","-1,83206317018891"
"2660","-3,40609660789263","-1,16604910251293","-28,1952735906223","-2,76286089343131","-0,801588622179617","-1,30907741889559"
"2660","-2,46824059794077","-1,0949064624975","-30,3012602254686","-0,442462261900222","0,752977455219725","2,28222080961736"
"2668","-3,89063795186897","0,664231828265094","-32,5970156453697","-0,729657966472072","0,265830792138295","1,27596203399401"
"2672","-3,31460158548015","0,120393423954108","-32,2109309376623","-4,20350084742422","3,44531792741589","-0,725769819768973"
"2680","0,260967931315742","-3,50200977165673","-35,572860401895","-3,27063219870903","2,49423479928322","-0,279665190373113"
"2681","-0,673288069383549","-2,44133400251212","-34,4718847020489","0,401555243290991","-6,17002234691871","3,2903594107927"
"2689","-2,65369223369482","-0,425600187940512","-27,2471220531901","-0,470383850834503","-4,02837185933302","2,27821405066934"
"2689","-2,24397689866652","-0,902900887852695","-29,3151251885114","-0,738235211888909","0,0183588176646403","-3,17173051588598"
"2701","-2,12185602878082","-7,98943084271825","-31,6007233194387","-0,820516591519734","-0,646619557020515","-1,67977419305953"
"2701","-2,08545634932872","-5,82703669160699","-31,2119224186319","2,53982645836755","-0,865996773205814","-1,26693782898627"
"2709","3,03120485859547","-0,0442360002650339","-34,5731255369891","1,57209174568643","-0,938369597365695","-1,15270267284018"
"2709","1,55629084928443","-1,54469977575903","-33,4719556026716","-3,80361577001118","0,707853236589849","-1,12109288253254"
"2721","-3,9891378620413","-1,93378456442917","-38,3752486463721","-2,45498177069971","0,250944254707291","-1,11234619826299"
"2721","-2,64202346386881","-2,03467801833787","-36,6864539063161","-0,347884736222691","1,77030811848394","0,613366003575154"
"2730","-2,24049887331618","-5,54222129847822","-29,3045006897002","-0,700604653977474","1,27154820011167","0,0908845072630127"
"2730","-2,12081935906174","-4,45176124085734","-31,3304689930382","4,26947181207947","-0,563092055971772","1,66960158115456"
"2738","-2,08514735672567","-2,4283040718291","-31,8722396504599","2,79623182885907","-0,168342222598066","1,10644534575691"
"2742","-2,07451486244634","-2,90360203113157","-32,0171162730405","-1,04195252553674","1,63198497343589","-0,772676456478665"
"2750","-3,77328298561747","0,454529235267227","-32,0558581935983","-0,221006097316","1,2259152176722","-0,292644635584652"
"2750","-3,27962244425995","-0,674674804541615","-32,0662182943639","6,80241901138386","1,09195228596234","1,56347596981669"
"2758","-1,43054336388479","-2,70817866337873","-33,8015755267867","4,95994811783563","1,04775774347899","1,07707953199315"
"2762","-1,87940181150121","-2,23548590804383","-33,265632949167","-0,684469997245955","1,0331779073976","0,942489709344154"
"2771","1,39068476256077","1,36846853175646","-34,8549016368024","0,581618672627185","1,0283680008296","0,905247618423949"
"2771","0,365375683022411","0,303008821557745","-34,2798930546352","0,970549018480303","4,36697864889491","0,894942431086524"
"2779","-1,64216801023236","-1,71396551526068","-34,1261281723957","1,09002470570889","3,46839057111861","0,892090902522057"
"2779","-1,24054195719942","-1,2369864947813","-34,0850094139225","2,81953604749147","-0,168252227250382","-0,831990062121206"
"2791","-2,82276947416797","-2,8539915305315","-32,3414269105612","2,35082541159564","0,632014663016181","-0,309057189302815"
"2791","-2,29437252196684","-2,27329659666432","-32,8751699421977","0,514032429434145","-2,4441737088938","-0,164357440010057"
"2799","-3,83881435907661","-2,12271677640098","-27,8201394573942","0,949787170147345","-1,45901218662734","-0,124317850736314"
"2799","-3,29915490411059","-2,08366997067196","-29,4683576034895","1,08364686421577","2,20619130178938","3,3333452743082"
"2811","-3,13830253553147","3,14852618982795","-33,3742864939144","1,12476728362134","1,41534661969307","2,29010858627255"
"2812","-3,09035843997376","1,50528532699443","-32,4187834188274","-3,94102957196627","2,82454466893107","0,27814464549887"
"2820","2,0297437280918","-4,14289388880376","-39,0936165075675","-2,49719397809964","2,28944090746207","0,721417973781054"
"2820","0,555855340742596","-2,60752146091984","-36,8785549514259","-2,05366147501369","-4,56748539252515","-2,60250856357608"
"2828","-3,28733039749822","-2,20938452060184","-27,6232842392049","-1,91741252663664","-2,82959414755222","-1,52226588162511"
"2832","-2,43284081744344","-2,10614375610261","-30,148302725371","3,20287050452219","-0,586162882217752","-2,94664593078118"
"2840","-2,1781493233666","-0,338682110797599","-32,5561127915349","1,77577254334542","-0,846052038876176","-2,34078339416086"
"2840","-2,10223528220189","-0,880362188665751","-32,1999929748244","-0,355427870737964","0,738308917191558","2,99673943385277"
"2848","-2,0796081361056","-2,76151539412233","-35,5699354463033","-0,0101122809655764","0,260991622684625","1,47367510801561"
"2852","-2,07286382724512","-2,24931663888097","-34,4711025303283","-3,28965373396959","-3,23667340556125","-2,39435293904866"
"2861","-2,07085360015717","-2,11649854110678","-30,7120864996996","-2,2970975425334","-2,39055757120582","-1,46466753918269"
"2861","-2,07025442639027","-2,08205752203784","-31,7068760120445","1,39342534246203","1,22877456695694","-1,20741608058398"
"2869","-2,0700758350236","-0,332436317034358","-33,705482658892","0,52711872128671","0,422796867751411","-1,13623252433936"
"2869","-2,07002260359391","-0,878742593853709","-33,2399364483248","0,260997602121869","-1,5131949271001","0,606756464235721"
"2881","1,33386780952421","-2,76109541750212","-33,1154432486319","0,179247736272449","-1,15188109597468","0,0890555943469018"
"2881","0,348440667083601","-2,24920773487596","-33,0821521243181","-1,53867459353511","-1,03268320103701","3,39238742983931"
"2890","1,75665883955505","-3,85716061644825","-36,5384232479412","-1,06640392385745","-0,993359663066393","2,30644602755255"
"2890","1,17639618768038","-3,27411837133448","-35,4626757526757","-0,921326885207052","2,35981066479021","-3,16391849987133"
"2901","-0,698495753884269","2,09914107508238","-26,5120726538393","-0,876760604692671","1,46602584399603","-1,67761254513578"
"2902","-0,257331158055169","0,49247928845618","-29,1185632799822","-4,24868937277828","-3,83913107494865","2,18024416377155"
"2910","-3,52971098255888","-3,40552430341591","-38,4785072905164","-3,28451368206225","-2,58930912676169","1,24774427249037"
"2910","-2,50508543549994","-2,41631438615526","-35,9814798255071","5,47571963985073","-0,506892546581632","-0,73357790227328"
"2918","-0,497745477799702","-2,159802674314","-38,7789153420712","3,16677963961126","-0,819900653778638","-0,281825749862787"
"2922","-0,899432256807531","-2,09328670317014","-37,5269865119935","-0,928123777503309","4,08713373497074","-1,88011420444619"
"2930","-2,72109738680168","-2,07603846765897","-26,7966833947015","-0,186038993199111","2,70597065495186","-1,32237352815109"
"2930","-2,264067862388","-2,07156583314529","-29,927258752366","-3,34369673953621","-2,75997297497206","-1,16804217851666"
"2938","-3,82978166961406","1,41097459471003","-34,2295895212025","-2,31369903763096","-1,56319476835176","-1,12533744764029"
"2942","-3,29646259606091","0,314031055344124","-33,380089539015","-1,99729358202407","0,501722613652937","0,609771219950701"
"2951","-1,43556278544683","-1,71110734329179","-29,6877484248855","-1,90009684832979","0,182941498599843","0,0898898016014302"
"2951","-1,88089791397791","-1,23624534310895","-30,7003676896929","-0,177429388266979","1,74787392228193","-0,0539655855951363"
"2959","1,3902388301773","-6,33517997313433","-34,4363290523907","-0,648242399255163","1,2641471300957","-0,0937715330575075"
"2963","0,365242767200318","-4,65738310483812","-33,4353744176295","4,28555699657199","-2,23563239963106","-1,82807808386629"
"2971","-1,6422076274847","-0,740933497360292","-33,167705940472","2,80117304389135","-1,39021414201821","-1,30797471332521"
"2971","-1,24055376562568","-1,72536018412849","-33,0961278577342","-4,42605373524442","0,558789143488605","0,55923401349495"
"2979","-2,8227729938197","3,24143938763562","-31,3444001291468","-2,64618876816422","0,201767819769508","0,0759057484194396"
"2980","-2,29437357104383","1,52937861903126","-31,8759650200798","4,67180695619478","0,0839860285144621","-0,0578350860505674"
"2992","-0,434940124954319","-0,655265634430639","-35,4832860955825","2,91982534207272","0,0451296649596568","-0,0948422550849283"
"2992","-0,880712322093771","-0,221765047185738","-34,4479313505878","7,46006198059084","-1,63778782026324","1,61820948602033"
"3000","0,688356874793801","-1,85004446175337","-28,9733034157138","5,85477930813061","-1,19298445075902","1,09222473797321"
"3000","0,156037917831949","-1,2722730835036","-30,5093156669772","-3,10239595479477","3,96405291324604","-0,776611413502884"
"3008","-3,40650106871054","-1,12245136952589","-36,1178260253162","-0,853954637667765","2,6653661344687","-0,293733469973306"
"3012","-2,46836115263496","-1,08360114809884","-34,6176157006962","-1,85606449378048","-2,77336845820466","1,56317468054755"
"3020","-0,486799337916775","-2,81421722463105","-34,2164396642789","-1,16390306954137","-1,56761395540038","1,07699616281906"
"3021","-0,896169620508352","-2,26298273393832","-34,1091598985326","0,741531860423208","3,84046216058734","2,66575856407993"
"3029","0,683749630282582","-3,86073260711317","-30,6152982640428","0,326863270415202","2,62459338711831","2,10538195189484"
"3033","0,154664669970852","-3,27504462310789","-31,6809935606873","-4,87894761522059","-1,11672071849937","0,22702929385137"
"3041","-3,40691038271231","0,358210573822292","-30,2333877403257","-3,478122993987","-0,350985026348188","0,707273943155209"
"3041","-2,46848315388236","-0,699651166280808","-30,8462788424755","-4,74061260274196","-0,0983678422820349","-2,60642233108226"
"3049","-3,89071024875427","-2,71465527586865","-32,7427608152011","-4,12843735139739","-0,0150291102108742","-1,52334885270299"
"3053","-3,31462313448691","-2,23716535638714","-32,2499051192156","1,13804569404031","1,68256316526977","3,94622209701337"
"3062","-1,44097576504649","-0,372657280668757","-35,5832826123155","-0,244141019235551","1,24260102783777","2,45969655291694"
"3062","-1,88251132143638","-0,889172279255909","-34,4746717386388","1,02407397681689","-0,572641765122679","0,325071005519526"
"3070","-2,01411661326192","-4,50449025114097","-32,4456277578727","0,413657509761863","-0,171492683859151","0,734402876592028"
"3070","-2,05334324537757","-3,44197721486531","-32,9030346237225","3,61176250547744","3,30104435343355","-2,59891553609779"
"3082","-2,06503524230104","2,0556136512763","-33,0253512552376","2,59418981223382","2,4466387627289","-1,52127166190335"
"3082","-2,06852019078337","0,481192205909072","-33,0580603365003","-6,18244655881367","-2,84552689785094","2,22350494882416"
"3090","-3,77149619743658","0,0729294771759149","-34,7993939812079","-3,8785454185883","-1,59141911691616","1,25971488110325"
"3090","-3,2790898693029","-0,0329370023255545","-34,2650495750932","5,29323876451208","-6,18798351981789","-0,730265538191384"
"3102","-1,43038462314097","-3,54176983616484","-28,9243984157802","3,11072325774335","-4,70439599443778","-0,280909191969546"
"3102","-1,87935449680228","-2,45164417230716","-30,4962378246824","0,747465789314761","2,46543631218807","3,29001518550399"
"3111","-2,0131756815041","-0,42827371482025","-30,9165684233987","1,02149566857433","0,830773158950515","2,27811880075187"
"3111","-2,0530627886923","-0,903594159265171","-31,0289703718525","-0,587134521902549","1,96159441548101","0,27482697501171"
"3119","-3,76688892202326","-1,02684935389095","-37,9893753551353","-0,0812903509683192","1,33465379410859","0,72049994756262"
"3123","-3,27771661223104","-1,05881061955875","-35,8506794917799","0,0741001465779122","-7,22266832459857","-0,879470665185451"
"3131","-3,13191257980034","-2,80778880048941","-31,8135903877955","0,121834623152131","-5,04573983469346","-0,322195455640206"
"3131","-3,08845383234573","-2,26131578130042","-32,7340194910881","1,8293077502854","0,682727821579511","-3,61457675173384"
"3139","0,328374147227977","-2,11961003494538","-31,247567573804","1,35382718535576","-0,427443373031597","-2,52560524675516"
"3143","-0,653196788879399","-2,08286436252437","-31,8500707170537","-2,17785500622318","2,54650717256842","2,94559773455572"
"3152","-2,647703771847","-2,07333585379129","-28,5460143981751","-1,26275404125817","1,5276172606602","1,45952378678234"
"3152","-2,24219196140005","-2,07086501919514","-29,662466140738","-4,36726286952673","4,53168161815472","1,04831512339432"
"3160","1,28255054130067","-2,07022430785483","-29,9610200685321","-3,32093832766311","3,52272629130015","0,934530365173703"
"3160","0,333144902195561","-2,07005816519913","-30,0408573283107","0,386101680994599","-5,16062296726731","2,62633712726917"
"3172","-3,35371207805237","-3,81070539800414","-30,0622068650461","-0,475131037561323","-3,02527099196606","2,09447372194836"
"3172","-2,45262672214527","-3,26207208328264","-30,0679160128812","-5,81812215795834","1,0193817977744","-1,49928102513296"
"3180","-2,18404676407014","-1,37911583616931","-40,4649635429914","-4,45943799451375","0,353717925425886","-0,493701988037157"
"3180","-2,10399308945791","-1,89084704524699","-37,2452712439319","-2,34925364561303","0,134114562684827","-0,215450147074105"
"3192","-0,378194799522639","-0,282853588568162","-27,7213490147253","-2,70102516986652","0,0616671324870046","-0,138455615423033"
"3193","-0,86379865567417","-0,865885312163848","-30,174526540332","0,576533081731233","3,37796407501173","1,60614131697843"
"3201","-2,71047633848952","-2,7577613998398","-32,5631253856846","-0,416632330233649","2,47201467724275","1,08888537813267"
"3201","-2,26090212376879","-2,24834319180684","-32,2018682350328","0,971086293695237","0,503042091191001","0,945756482318992"
"3209","-2,12690080752301","-2,11624611685282","-30,3726765013046","0,397380199639086","0,853475517123512","0,906151560889658"
"3213","-2,08696000983568","-2,08199206598411","-30,8835264951079","-1,47166638436484","-4,04121221111539","-0,828099364392227"
"3221","-2,07505514677467","-2,07310965885039","-32,7527213290061","-1,04581964205497","-2,65597595200516","-0,307980601818607"
"3221","-2,07150675083099","-2,07080636465631","-32,2525686920383","2,47061551331169","2,8113114249098","-1,88735146321785"
"3229","1,33342544055206","-2,07020909816486","-32,1188212772861","1,55083080446018","1,61497652214022","-1,32437613610378"
"3233","0,348308813381601","-2,07005422117922","-32,0830554537541","-2,11733737618999","-2,11989333455373","2,27798753100821"
"3242","-3,34919228133844","-2,07001406007689","-32,0734912006035","-1,24416360336934","-1,35203167644167","1,27479065161346"
"3242","-2,45127953921307","-2,07000364591411","-32,0709335931086","-6,05436161646483","0,571385587710174","-4,17267779805327"
"3250","-2,18364521905215","-0,329310630216151","-32,0702496551162","-4,53200849963507","0,20592340282658","-2,6800363136858"
"3250","-2,103873403855","-0,877932072990111","-32,0700667610723","4,39969159593411","1,75545568187567","2,90286541109814"
"3262","-0,3781591257055","0,72049538881691","-35,5351914623402","2,14342455073112","1,26664836228126","1,44769940776084"
"3262","-0,863788022638966","0,134983110106262","-34,4618115305618","6,52874952169703","-0,564708518737956","1,04504322222136"
"3270","-2,71047316917806","-6,97960715514873","-32,4421887685395","4,87587946466301","-0,168875495731768","0,933625003694157"
"3271","-2,26090117911518","-4,8244893142798","-32,9021149925966","-4,09591418825426","-1,70838839644588","0,902794682776214"
"3283","-0,424963252550458","0,956424559346733","-31,2925185289655","-1,8519635008996","-1,21627567112594","0,894263683982052"
"3283","-0,877738588302201","-0,544528486254317","-31,8620911956019","-1,16264328370057","-1,05392705372742","-0,831388835943103"
"3291","-2,71463131281716","-2,67443046260638","-32,0144024423003","-0,950890697283671","-1,00036803723567","-0,308890825163626"
"3291","-2,26214056674582","-2,22673467273915","-32,0551324794488","-5,96427098102404","0,687399871992923","-0,16431140570913"
"3303","-0,425332667806952","-3,85133313378917","-35,5311978383729","-4,50433351696295","0,244196663570931","-0,124305112673459"
"3303","-0,877848697220797","-3,272607248643","-34,4607435828162","1,02257398249508","1,76808207953921","1,61005687537351"
"3311","-2,71466413218166","-3,12253802178286","-30,7093163804463","-0,27961282604987","1,27081382701714","1,08996884476397"
"3311","-2,26215034897508","-3,08362361786828","-31,7061352456038","2,70598692846995","-2,23343304779129","-0,777235637373241"
"3319","-2,1272728569314","-1,33284242085051","-33,7052845681712","1,62313465495638","-1,38948857303372","-0,293906197759678"
"3323","-2,08707090389677","-1,87884790050627","-33,2398834762522","-0,402316772071699","0,559028509624446","-1,88345696194506"
"3332","-2,07508820016089","-2,02043240933232","-29,6502554736521","-0,0245161035779607","0,201846786963824","-1,32329849614828"
"3332","-2,07151660281341","-2,0571466436879","-30,6903415798051","-1,60126889880863","0,0840120798928505","-1,16829812463184"
"3340","-2,07045204276972","-2,06666700022615","-30,9684743287613","-1,08563229654394","0,0451382593427017","-1,12540826999747"
"3344","-2,07013473710048","-2,06913572087922","-31,0428506958566","4,15119499802237","0,0323137362312301","4,0563354701516"
"3352","-3,77197743351406","-2,06977588405362","-32,7953267226052","2,75989832134712","0,0280829096567108","2,49016581257737"
"3352","-3,27923330784029","-2,06994188456459","-32,2639619364744","2,33250527177672","-3,31351028783364","0,333502095747683"
"3360","1,97344716999052","1,41139570030461","-33,8544547859591","2,20121420935747","-2,41590615692675","0,736735827350514"
"3361","0,5390754351371","0,314140252103122","-33,2797735608234","-1,22473625470844","1,22041203611175","2,57160578119747"
"3373","-3,29233186191497","-6,93314997312869","-33,1260962181737","-0,277155512988598","0,420038058131547","2,07932911646133"
"3373","-2,43433156756446","-4,81244251705371","-33,0850008689419","-3,37168686408113","0,155993659274842","0,219820263875352"
"3381","-2,17859366041234","-0,781141904666463","-29,6088378207464","-2,32229733653274","0,0688850744311156","0,705279146338264"
"3381","-2,10236772251327","-1,73578661355317","-30,6792659529028","1,38568420645094","3,38034528328943","-2,60697430747216"
"3393","-2,07964761162593","4,97942602871265","-30,9655125599823","0,524740718246535","2,47280024089866","-1,52350158902803"
"3393","-2,07287559342634","2,7207457023121","-31,0420586798039","1,95307665418618","-1,16679747155084","-2,94698786099956"
"3401","-2,07085710721723","-6,56840355720363","-36,2602885366104","1,39184781040789","-0,367505411218194","-2,34087800901383"
"3402","-2,07025547171415","-3,97716992370528","-34,6557120560412","-3,85898498525961","1,56628078281953","-0,449870594160309"
"3410","-2,07007614659569","-3,3052379469718","-25,5636931085168","-2,47199066474371","1,20423932116512","-0,926613570050681"
"3414","-2,07002269646193","-3,13099947788115","-28,1323672707065","1,33969984587781","-0,585297341211071","2,388051645501"
"3422","-5,47388131178237","-1,34512744017735","-30,5518514406857","0,51061476191574","-0,175667774594706","1,30524628100887"
"3422","-4,48844469160348","-1,88203352499562","-30,1988534333779","-1,43688180843683","-0,0405304567322479","6,17550106252782"
"3430","-0,790848218894857","3,20081247299953","-38,7673911322068","-1,03513415258812","0,00405151724465109","4,52313989440977"
"3434","-1,6887325323969","1,51884366660277","-36,0587311766627","0,781088441725509","-1,65133955372529","-4,55054140413762"
"3442","-1,95635837904483","-4,13937808003358","-28,4040525440735","0,339014674351399","-1,19745518495816","-2,0613023015849"
"3443","-2,0361276686036","-2,60660977765584","-30,3570904725068","0,203213835651348","0,622380569923541","0,350782185693427"
"3451","-2,05990392054791","-2,20914811230202","-30,8793585853462","0,16149711515653","0,222746712671331","0,0182254441388316"
"3451","-2,06699073503061","-2,1060824531409","-31,0190199701651","-3,2369369666739","1,76100571330716","1,64949623156877"
"3463","-2,06910305027818","-0,338666214345921","-31,0563672673291","-2,2809034551646","1,26847932474791","1,10088203314887"
"3463","-2,0697326527203","-0,880358066561877","-31,0663544273968","-3,68002864423385","2,77609296051425","0,949076053651044"
"3471","1,33395423307218","-6,24289495563025","-36,2667855401046","-3,10982653803463","2,27345662689515","0,907070113087225"
"3471","0,348466426721949","-4,63345270603781","-34,657449440505","2,14376275813702","-4,57275862712493","-4,27442904089974"
"3483","-1,64720802926995","-4,21610874359973","-30,7619181223704","0,757615208246227","-2,83133379439012","-2,70819170435909"
"3483","-1,24204419901585","-4,10788741224868","-31,7202016454862","-3,05381518252753","2,75346064845878","1,17178266344676"
"3492","-2,82321723645978","-0,598443942518543","-31,9764593043348","-2,22465019223285","1,59589147700926","0,24540290701254"
"3492","-2,29450598321641","-1,68841126257585","-32,0449859836885","-5,35555773106969","-5,46638695774147","5,15894191762758"
"3500","-2,13691686549403","1,51033028563227","-32,0633109219727","-4,31734262093523","-3,79624164463205","3,51855784527858"
"3504","-2,08994542338424","0,339794948239792","-32,0682112522716","1,08001579963947","0,0949388723434172","1,34135840049983"
"3512","-2,07594498727697","-6,92649746195998","-30,3369348604802","-0,261967248500676","-0,621355699051145","1,73890973032562"
"3512","-2,07177197911734","-4,81071745647945","-30,8739687087324","-0,674211622423134","0,812436527042299","-5,04425230058993"
"3520","-7,17633998114675","-0,7806945797527","-37,947925865135","-0,800849156381737","0,285446415969031","-2,92120801767009"
"3524","-5,69782143791346","-1,73567061787078","-35,8395953512185","-0,839750997186806","-3,22860573798385","2,8361312528209"
"3532","1,55061892402777","1,49807547710711","-33,5432131471259","-0,851701271096258","-2,38789603735507","1,42923352719774"
"3532","-0,288891178141817","0,336617157703906","-33,92913024447","0,837437270790231","1,22965261037788","-2,4066502833863"
"3540","-2,53911784819725","-5,18663117861749","-28,8345691542402","0,356324496402611","0,423086535398824","-1,46807031367845"
"3544","-2,20982654492734","-3,61886296375523","-30,4722162948293","1,90134079952792","-3,1831980865693","-2,93164957942848"
"3552","-2,11167708123119","-1,4716351669225","-29,1775579445721","1,37595505003174","-2,37291599508595","-2,33663378262593"
"3552","-2,08242238446823","-1,91483820374207","-29,8313492184042","-5,5566766413252","-0,435504175717512","-2,17198810610052"
"3560","-2,07370264978539","1,45161558688929","-31,7387684367246","-3,68631487721741","-0,796349538938867","-2,1264293176714"
"3560","-2,07110362189065","0,324569658215898","-31,2488375045306","7,04509970254126","0,754705835480606","1,33276101435434"
"3572","-2,07032894854986","-6,93044552711699","-38,0481707276099","4,34168775621757","0,266400986996618","0,289946916824632"
"3573","-2,07009804730168","-4,81174122801087","-35,8664021501979","-1,56720322666771","-1,5647901281607","-1,72190008974307"
"3581","-2,07002922424607","-4,26234068403519","-26,6200344197976","-0,382358095569749","-1,16890241878469","-1,27859440482169"
"3581","-2,07000871065847","-4,11987580215048","-29,1474336807793","-3,40400409256721","-4,37849599959198","-1,15592814151631"
"3593","-2,07000259632261","-0,60155264812518","-33,2884672023181","-2,33222488043325","-3,43734502633978","-1,12198539576521"
"3593","-2,070000773867","-1,68921738004683","-32,3958342078496","-2,00298454397624","0,213339325676286","-1,11259316388271"
"3601","-2,07000023066091","1,51012125156496","-33,8897191714092","-1,90184505748209","-0,582295238085718","-1,10999425746596"
"3601","-2,07000006875142","0,339740743681687","-33,2892037228143","1,51484313046397","0,825322623065447","5,78389257556744"
"3609","1,33387452632081","-3,44513088731748","-31,3960311631489","0,564417105992297","0,289697555525852","3,69148673964481"
"3613","0,348442669110308","-2,42658475694259","-31,8897718398551","5,35088396528512","3,45319160317835","-3,78066654877509"
"3622","-3,34915238393497","-3,90315619613028","-35,4869782213746","3,82124086468441","2,49683233498614","-1,84827171133466"
"3622","-2,45126764728421","-3,28604547060381","-34,448918673743","3,35134911515309","-2,82896797417556","-1,31356245313632"
"3630","-2,18364167451141","-1,38533236767904","-32,438741048502","3,20700285804848","-1,58595630682004","-1,16560408289883"
"3634","-2,10387234735952","-1,8924590520733","-32,9011930267651","6,54828017041232","-1,17588516819179","0,598629116767609"
"3642","-2,0800960842101","-3,76465222795955","-29,5596851783623","5,57468864527771","-1,04060217515793","0,08680669166325"
"3642","-2,07300926638758","-3,25013005027455","-30,6661218877491","3,58280107650567","-0,995972142755695","-3,5014025543344"
"3650","-2,07089695014453","-3,11670946655886","-36,1597580778441","3,97091224165759","-0,981248637993157","-2,49428903230139"
"3650","-2,0702673474057","-3,08211221705033","-34,628828884845","-0,988292371252043","0,693707386252983","-0,492320663303627"
"3663","1,33379486051635","0,408239815223879","-29,021677803358","0,488287341408541","0,246277520591396","-0,938359847023848"
"3663","0,348418923703416","-0,686678099462414","-30,5222516165442","-2,44374057874772","0,0986698357347638","2,38480135579559"
"3671","-3,3491594615557","-0,970600918796458","-37,8538720736975","-1,3444315494296","0,0499738717393382","1,30434689959694"
"3671","-2,45126975685914","-1,04422485558417","-35,8144441263271","0,686075235788614","0,0339090109446786","-0,717915498210805"
"3683","-2,18364230329707","-2,80400657063066","-30,0713137681653","0,309827525042691","0,0286091928247203","-0,277491836163793"
"3683","-2,10387253477709","-2,26033501246793","-31,5355249284914","-1,49856172970787","0,0268607760495201","-1,87891497552351"
"3691","-0,378158866665769","-3,86004602729326","-31,9270743133594","-1,05408163524314","0,0262839711195001","-1,32204169182281"
"3691","-0,863787945428877","-3,2748665863112","-32,0317797854556","-0,917541595845804","-3,31410375995755","-1,1679503567246"
"3699","-1,00853587275809","-1,38243357471676","-30,3271926055322","-0,87559779995754","-2,41610194413936","-1,12531203980885"
"3703","-1,05167983464659","-1,89170736698396","-30,8713635012081","2,52290603726476","1,22034744565993","2,33307017416242"
"3712","-2,76647671496964","-5,50514762394066","-32,7494687839439","1,56689395394555","0,420016749658895","1,29003246384041"
"3712","-2,27759374867272","-4,44214767799879","-32,2516989185706","1,27321617366626","1,82608535077897","2,72470742912623"
"3720","-2,13187595875315","-0,685120866669801","-32,118588688384","1,18300116474051","1,28994918037392","2,12169357894425"
"3724","-2,08844291697655","-1,71088742845654","-32,0829932564126","1,15528797572181","-5,56731771264155","-3,21504099452492"
"3732","-0,373559872713846","1,50450199814234","-33,806061372988","1,14677474876842","-3,82953882974419","-1,6917585522891"
"3732","-0,86241715675198","0,338283616847882","-33,2668325236329","4,52977867053339","1,75405280959088","2,17632984934426"
"3740","0,693809981659054","-3,44550873441746","-33,122635614069","3,56900516123908","0,596086831723996","1,246661150075"
"3741","0,157663285732612","-2,42668273635499","-33,0840754577409","-1,80456393927071","-1,45602634638173","2,71270623632584"
"3753","-3,40601660712235","-2,16249128793614","-33,0737639631288","-0,455273039239433","-1,13302110808831","2,11837275197067"
"3753","-2,46821675269306","-2,09398388672103","-33,071006533407","-0,0407837630197759","-2,69655998811159","0,230623953150476"
"3761","-2,18869357108289","3,14585169150826","-31,3376823555402","0,0865433834814817","-2,21237346409025","0,708268614414964"
"3761","-2,10537812942608","1,50459180367817","-31,8741685987748","3,51127617044024","4,62775517414984","-2,60614709751138"
"3773","-3,78248217512504","-2,40238341091162","-33,7502189040471","2,5633213699442","2,88432235908563","-1,52327269335105"
"3773","-3,28236437976702","-1,41549992231","-33,2518995105842","3,9649282618698","-6,04133196209456","-2,9469245237171"
"3781","0,270576640748353","-2,9002817911557","-31,386055524561","3,39548851108312","-3,98591673680982","-2,34086048307624"
"3782","-0,67042407125102","-2,28530010955587","-31,8871042224659","-6,93629525243926","-4,97793134671272","-0,449865744591832"
"3789","-2,65283858260248","-0,385139088340642","-30,288504450962","-4,11012053659492","-4,30519823511144","-0,926612228135917"
"3794","-2,24372245709437","-0,892408932868981","-30,8610177781771","5,22210110023907","0,927033442288803","2,38805201681965"
"3802","-2,12178018923207","-1,02394891635979","-32,7467022010912","3,08887044677739","-0,346846636340721","1,30524638375574"
"3802","-2,08543374438604","-1,05805850801678","-32,2509590978101","2,43356236640537","-0,767101303322893","1,00562531998004"
"3810","-2,07460022393325","-2,80759377068253","-35,5835644600991","2,23225798354176","-0,905743855383447","0,922717751791583"
"3814","-2,07137115528848","-2,26126520818267","-34,4747471084552","-1,21519990380555","-2,62158093180131","-0,823515365575467"
"3822","-3,77234596369039","-2,11959692084616","-34,1782347175304","-0,274226037081347","-2,18763777753001","-0,306712172324074"
"3822","-3,27934315294948","-2,08286096191144","-34,0989433916491","-1,67797740518059","-0,374380654811377","-0,163708554872884"
"3831","-1,43046011755528","-2,07333497197942","-28,8799794305187","-1,10919641699066","-0,776184811226961","-0,124138298978241"
"3831","-1,87937699887325","-2,07086479053278","-30,484359601905","-0,934472330348651","2,431456926136","-5,28306466056801"
"3843","-2,01318238853273","6,63322732746296","-36,111152444215","-0,880798759876405","1,48966203723549","-3,71058125006551"
"3843","-2,05306478780754","3,89028271100981","-34,6158310970503","4,21411790394049","-0,491136022179889","3,61770530417013"
"3851","1,33892230233457","-5,52444096891709","-34,2159624377158","2,77922763701287","-0,144603835032496","1,64550137946419"
"3851","0,349947222992202","-2,96576999879391","-34,1090322818525","2,33844305291787","-0,0302824233460003","1,09977662530775"
"3863","-3,34870393250263","-2,30228183603635","-30,6152641376586","2,20303823900703","0,00743235656399505","0,948770178373755"
"3863","-2,45113398062754","-2,13023292968626","-31,6809844348418","3,85425272542852","0,0198745106860947","2,63027739858721"
"3871","-3,88553910686979","3,13645196360282","-30,2333852999542","3,36149004344822","0,0239791932420455","2,09556402684503"
"3871","-3,31308180983722","1,50215436319785","-30,846278189888","1,51730850247193","-1,64476538793017","-1,49897932896238"
"3880","1,96335819319421","-5,88439609324365","-36,2079342502391","1,95079354849188","-1,19528635925528","-0,493618506270156"
"3884","0,536068287204654","-3,79980016382817","-34,6417118290389","0,391146462146562","-4,38720009529311","-0,215427046994949"
"3892","-1,59129090722046","-4,99993456565054","-32,4902964821774","0,912037774789085","-3,44021651864241","-0,138449223444566"
"3892","-1,22537738915452","-4,31114103909911","-32,9149796300155","-2,31356849322813","0,212392016693574","-5,28702460894774"
"3900","-2,81824948166889","-0,65114957643063","-27,8307850932145","-1,30444392814662","-0,582607756530537","-3,71167699976407"
"3904","-2,29302528067839","-1,70207834389253","-29,4712043869794","-0,994450500794214","-0,844879198365657","-3,27576559325934"
"3913","-2,13647552325828","-0,233904036120715","-36,8402213709322","-0,899223480932765","-0,931402882420698","-3,15514538651057"
"3913","-2,08981387571409","-0,853192219147829","-34,8107937482835","5,90126755750662","-4,30014459883026","3,77139889350491"
"3921","-2,07590577781973","-9,71723121870949","-37,7332716327803","3,99031344701471","-3,41149679903245","1,68802963691488"
"3921","-2,0717602922396","-7,01576237769918","-36,5147807818501","0,0176674937156054","0,221866688919779","-0,611747386042523"
"3933","-2,07052467750454","0,647515916766306","-27,5260062261781","0,79730860311482","-0,579482050046868","-0,248114262077012"
"3933","-2,07015638680758","-1,36532180419708","-30,1222893010822","-4,04162175077059","2,49634941859349","-0,14749403985085"
"3941","-0,36810933967175","-0,146579803959529","-30,8165696538528","-2,52809493458352","1,51107015348196","-0,119651611717701"
"3941","-0,860792556012065","-0,830548200031119","-31,0022293813696","-2,06315395368319","1,18602526394311","-0,11194738698833"
"3949","-1,0076430588213","-1,0079078292264","-31,0518772423296","-1,92032852541286","1,0787925392157","-0,109815565783772"
"3953","-1,05141372009025","-1,05389889876844","-31,0651537354651","1,50916518566758","-3,96687983739099","1,6140662500204"
"3962","-2,76639739613939","-6,28789577412885","-31,0687040449158","0,562672895585914","-2,63145360685698","1,09107827110984"
"3962","-2,27757010668591","-4,64512185409821","-31,0696534445101","5,35034816050877","2,81940137793344","0,946363273516325"
"3970","-0,429931638551578","-0,737754036295728","-36,267667740812","3,82107627057506","1,61764540798819","0,906319464914612"
"3974","-0,879219478980463","-1,72453571908202","-34,657685352615","-1,72713010223665","1,22118457669352","-0,828052903992472"
"3982","0,688801835682529","-0,239727451002431","-34,2271548179301","-0,431486104141588","1,09039164145391","-0,307967745850765"
"3982","0,156170544087671","-0,854702287025239","-34,1120252720078","3,35214245999993","-0,622855836336608","1,5592359414514"
"3990","-1,70452426436062","-6,23624216352542","-28,883477697945","2,51443701412365","-0,188058370166556","1,07590628190056"
"3994","-1,25912803232505","-4,63172757261409","-30,4852950847752","2,25710190281557","-0,0446181300565379","0,942165061567967"
"3998","-1,12637201699006","-4,2156613997954","-30,9136421903555","2,17805101465682","0,0027029885876369","0,905157785762312"
"3999","-1,08680239708763","-4,10777141166779","-31,0281878585245","-1,23185176686833","1,68841300733927","0,89491757366353"
"4011","-2,77694544169577","-0,598413862444474","-36,2565792959716","-0,279341330357572","1,24453089821729","0,892084024272357"
"4015","-2,28071408590467","-1,68840346252132","-34,6547201561502","-1,67954877441436","-0,572005098416549","4,33788380559023"
"4023","-2,1328060149764","-1,97104832214742","-37,6915354948176","-1,10967912660974","-0,171282646698627","3,29136443453301"
"4023","-2,08872013207034","-2,04434087160608","-36,5036199878411","-0,934620614132845","-0,0390837974316144","3,00178407251476"
"4031","-2,07557977360707","-2,06334633950405","-32,7207820969138","-0,88084431123852","0,00452877199792303","2,92165484759472"
"4031","-2,0716631225351","-2,06827464139406","-33,70920132948","0,828484807229462","-1,65118210677188","-3,99368525072979"
"4043","-2,07049571483747","-2,06955259780373","-27,0431704555859","0,353574385109635","-1,19740324300688","-1,90721570657708"
"4044","-2,07014775411607","-2,06988398427751","-29,2605858401246","0,207686439723613","-2,71779973675333","2,11671111464745"
"4052","-2,0700440399947","-2,06996991599957","-29,8535519732468","0,162871056405735","-2,21938048432862","1,23016416468319"
"4052","-2,0700131266809","-2,06999219892733","-30,0121189415656","0,149104198721819","1,28524610681959","-0,738442460086461"
"4064","-2,0700039125743","-3,81068829231099","-36,9848690603181","0,144875151540746","0,441426900968099","-0,283171812297519"
"4064","-2,07000116619256","-3,26206764761074","-34,8494744490843","-1,54923352324176","3,50324730827176","1,56609717652598"
"4072","-0,368063074192013","-3,11980500116132","-27,3480945339293","-1,06964752620566","2,51334577610787","1,07780484105937"
"4072","-0,860778765997027","-3,08291491915237","-29,3421265622157","-2,61513284074975","-1,15342144763555","-0,78060151543894"
"4080","-1,00763894853182","3,88941229720419","-38,5382910621536","-2,08989116708149","-0,363092643823233","-0,294837563404434"
"4084","-1,05141249496616","1,69740426996739","-35,9974667949033","-3,6213514938619","-1,77246088196682","-0,160422754681436"
"4093","-1,06445975756904","-4,09307558625824","-35,3180168590908","-3,09180147791769","-1,23741326603542","-0,123229091528026"
"4093","-1,06834866023504","-2,59460309258972","-35,1363229807593","3,84210943631551","2,27929706907413","-1,83622922820435"
"4101","-1,06950779716712","-2,20603466258209","-35,0877356402017","1,9721406372563","1,43946430580822","-1,31023020079497"
"4101","-1,0698532926816","-2,1052751054754","-35,0747427442157","4,78332318767777","-3,8478937603638","4,0051937492151"
"4113","-2,77189354542319","-2,07914717648195","-29,873507858062","3,64689161507805","-2,5921999478859","2,47601448535629"
"4113","-2,2792083039272","-2,0723719514503","-31,4826290180362","-0,0878284127298878","-0,507846232167301","2,05287823287423"
"4121","-2,13235719749454","-2,07061506998293","-42,3084500775759","0,764901268339409","-0,820215275872927","1,93579301442002"
"4122","-2,08858635630795","-2,0701594936034","-39,2034174780493","1,02685168118903","0,746832498346472","0,180102665194094"
"4134","1,32833464677446","-2,07004135823602","-31,4427435702327","1,10732034589652","0,263803563007617","0,694288966010311"
"4134","0,346791437507723","-2,07001072459115","-33,3674369634386","-0,560770000816522","0,104451699540239","-2,61001537912934"
"4142","-3,34964455452868","-2,07000278099035","-28,6843649592228","-0,0731914219215345","0,0518813160026322","-1,5243430781163"
"4142","-2,45141434499331","-2,07000072113773","-30,4320497111033","0,076588060221055","0,0345382792463856","-1,22392878416688"
"4150","-2,18368539963057","-2,070000186998","-30,899403674851","0,122598886459043","0,0288167892421639","-1,14080172278296"
"4150","-2,10388538018776","-2,07000004849039","-31,0243802915981","-3,2488861309784","0,0269292623731098","-1,11779979353559"
"4162","-0,378162695403898","-3,81069032777872","-36,2555611023338","-2,28457412430192","0,0263065648452329","-1,11143497394142"
"4163","-0,863789086633003","-3,26206817542724","-34,6544478777361","-0,295537134963335","0,0261011361344785","-1,10967377695527"
"4170","-2,71047348631502","-6,60118576843862","-34,2262890744283","-0,684523970888806","0,0260333649400977","-1,10918643952518"
"4174","-2,26090127364189","-5,46705129897689","-34,1117937607717","-2,49682656321188","0,0260110071364054","0,614240334337194"
"4183","-2,12690055413187","7,01187295924754","-30,6160025935599","-2,05354860866968","0,0260036312683761","0,0911264416462622"
"4183","-2,08695993430922","3,24777887523231","-31,6811819076939","1,46824124859384","1,69609991915659","-0,0536233973072053"
"4191","-0,373117850856532","-6,43173875125702","-31,9660249115749","0,550101453017556","1,24706682025588","-0,0936768467946079"
"4195","-0,862285406511975","-3,94173141595265","-32,0421956893804","1,96086722966505","1,09893022670343","3,34182388756605"
"4199","-1,0080880219117","-3,29604839869685","-32,0625647604562","1,39424100078032","1,05005977505289","2,29245468703716"
"4199","-1,05154634700221","-3,12861653901457","-32,0680117188363","1,22017883561486","-0,636161370638835","-1,44449809313121"
"4211","-2,76643692727839","-1,34450952105097","-25,1391210882839","1,16670860109761","-0,192447882948024","-0,478543108306664"
"4212","-2,27758188944498","-1,88187329258173","-27,2862443053983","-5,62095515174","3,29413120645655","-1,93454748628396"
"4224","-0,429935150552875","-0,280526607593101","-38,2559342140759","-3,70606062163597","2,44435810670063","-1,33743565685732"
"4224","-0,879220525777146","-0,86528190346068","-35,1893740431907","0,267795790929555","0,493918153201837","-2,89550191483611"
"4232","-1,01313574973507","-2,75760493011918","-29,1715749752195","-0,511473476945184","0,850465518313163","-2,32663143189237"
"4232","-1,05305088652034","-2,24830261769291","-30,562336098227","-4,13647665631446","-0,702007771179104","-0,445928451210595"
"4244","0,636989172383612","-5,5976162260015","-27,4690703643776","-3,2500430074074","-0,214170694690866","-0,925522747258407"
"4244","0,140727120392726","-4,46612568205266","-28,6418902908067","-2,9777390575744","-1,72333134050615","-1,05823036234164"
"4248","-0,00719009992855188","-4,1727192257524","-28,9555178147575","-2,8940898852014","-1,22120536748051","-1,09495163122706"
"4252","-0,0512787099276402","-4,09663609005227","-29,0393859530479","-1,17558410657175","2,28464407553411","5,78805499173712"
"4264","-1,76635715464221","1,14516394949843","-37,7247474237572","-1,64767554634431","1,44122829007714","3,69263851381605"
"4265","-1,27755811219553","-0,495586534485622","-35,0473276863299","1,59292157648785","-0,507114377304673","-5,50363976721935"
"4273","-1,1318653368476","-6,14311997092934","-36,0639371241583","0,588402058814586","-0,149875114821339","-3,04832423985603"
"4273","-1,08843975098242","-4,60758008620456","-35,3357919022246","5,35825191369064","-0,0320214252892705","-0,645626679810949"
"4281","-2,77743347586205","4,49405185331749","-29,9433158475162","3,8235042280568","0,00685865759906845","-0,980780859943005"
"4285","-2,28085955069894","1,85419316267791","-31,5012965955484","1,65923484687786","-1,65041347453259","0,649771195254756"
"4293","-2,1328493726096","-2,31172839270538","-40,5808552293513","1,99439196582943","-1,19714967024821","0,10095811782148"
"4294","-2,08873305536471","-1,39199219811382","-38,0088490148557","-4,6738891761459","7,30287624440308","-0,0509028931055585"
"4301","-2,07558362555943","-1,15349569539945","-37,3210606148971","-2,72232144831381","5,10704566350936","-0,0929240613102942"
"4302","-2,07166427065852","-1,0916512424558","-37,137136921225","1,26280062029565","-7,30805270153886","-3,55113550524892"
"4314","-2,07049605705027","-2,81630469206133","-26,6924324699767","0,48699205434937","-4,40380952863939","-2,50805054147968"
"4314","-2,07014785611695","-2,26352403445969","-29,8993806794801","-3,13694803044371","-0,105498549550535","2,95045526328322"
"4322","-2,07004407039736","-2,12018265637606","-35,9547213614297","-2,25018780903739","-0,687480260854035","1,4608679042123"
"4322","-2,0700131357428","-2,08301284880707","-34,5739993613701","-1,97778353925201","2,46072067073971","1,04868705154274"
"4334","-2,07000391527531","-0,332684042517763","-30,7396024700671","-1,89410354954788","1,49931618400283","0,934633280696188"
"4334","-2,07000116699764","-0,878806831470726","-31,7142341456002","-0,175588304128468","1,18214761438092","-2,54351016615325"
"4343","-2,0700003478385","-4,50180239014303","-35,4400371256713","-0,647676835793635","1,07751329766638","-1,50594054856707"
"4343","-2,07000010367769","-3,44128022647716","-34,4363660053536","-0,792697923386355","-0,627104418420985","-1,21883665561551"
"4351","-2,07000003090246","-3,16627655849853","-34,1679711041137","-0,837247016270255","-0,189459982829293","-1,13939268968704"
"4351","-2,07000000921087","-3,09496544403743","-34,0961987659908","0,841877479807416","-3,38527796625938","2,32917394462101"
"4363","-2,07000000274542","-1,33578346621943","-37,5421795052731","0,35768848620033","-2,43958240581616","1,28895434565902"
"4363","-2,07000000081831","-1,87961054205385","-36,4636802254509","3,59456935604895","2,88269993252237","-0,722174742200932"
"4371","-2,07000000024391","-3,76132048487632","-36,175275286985","2,58890824095636","1,63852768209349","-0,278670403374966"
"4375","-2,0700000000727","-3,24926609702582","-36,098152000871","0,587169200474225","-0,44202505557133","-1,87924109458935"
"4384","-3,77193727342819","-3,11648543511425","-27,4145941926335","0,972254087616916","-0,128402064345057","-1,32213193160218"
"4384","-3,2792213376156","-3,08205412352705","-30,0924962532055","-3,98788016899049","-0,0249374384773331","-1,16797532680036"
"4392","0,271513464461804","-1,3324354357676","-36,0063630140474","-2,51158603399402","0,00919567390735364","-1,12531894923048"
"4396","-0,670144839020652","-1,8787423653327","-34,5878090207033","-0,365273025229355","-1,6496424898639","4,05636018592921"
"4400","-0,950818080476021","-2,02040504303973","-34,208468964743","-0,705946170269404","-1,19689532142008","2,49017265163265"
"4400","-1,03447631210604","-2,05713954734319","-34,1070284283015","2,57502139741229","3,96276271201373","-3,11307985914961"
"4412","0,642525560678852","-0,325974844870552","-28,8821414760034","1,58290329478301","2,66494049543225","-1,66354508265791"
"4412","0,142377311383485","-0,877067071543599","-30,4849377613963","1,27813409025216","-6,11370631946011","-1,26244710306632"
"4424","-3,41057278631549","-2,76066093834002","-37,8438938564662","1,18451190174033","-4,00979312985729","-1,15146005270949"
"4425","-2,46957477988621","-2,24909507022139","-35,8117758193746","-0,537057492186078","1,69458668547373","2,32583480781256"
"4433","-0,487161074964351","-7,33851203182156","-31,8031870324516","-0,0659071657693904","0,576468881332264","1,28803037953612"
"4433","-0,896277440839063","-5,65824713992602","-32,7312374965945","5,15725436978416","-1,46249833330347","-0,722430411089405"
"4445","-2,72015705375222","-0,000467234821901474","-29,5142368269931","3,76175970247392","-1,13515622485019","-0,278741149021275"
"4445","-2,26378758415537","-1,53335011098809","-30,6539683988917","-1,74535158537235","-1,02716564466522","-1,87926067048105"
"4449","-2,12776085571331","-1,93084148643488","-30,9587476602328","-0,437083569711385","-0,991539414163468","-1,32213734840951"
"4453","-2,08721635814428","-2,03391484971085","-31,0402496563465","-0,0351961317244596","0,690312446034517","2,27860702164442"
"4461","-0,373194281243972","-5,5420234014621","-36,2598047798674","0,0882598504429977","0,245157525471862","1,27496206967572"
"4465","-0,86230818756165","-4,45170992424446","-34,6555826931049","-1,56662520295621","1,76839906910908","-0,726046517971898"
"4474","-1,00809481209348","-0,6876004497297","-34,2265925390321","-1,07499008409063","1,27091840228161","-0,279741755000571"
"4474","-1,0515483709023","-1,71153040835823","-34,1118749112111","-4,30958357538437","-2,23339854827781","5,01363014840148"
"4482","-6,17031207734061","-0,23635504797798","-30,6160242942582","-3,30321979944849","-1,38947719160011","3,4783489051464"
"4486","-4,69602474446936","-0,853827790259966","-31,681187710747","3,77716374738449","0,55903226437395","-0,393059661635395"
"4494","-0,852720095438478","-1,01394445243081","-37,1637868777107","1,95218994197037","0,201848025660487","0,535690321122513"
"4494","-1,70717423261894","-1,0554642536288","-35,6299062390903","-0,301234130998879","3,42420993093348","-2,65390090506645"
"4502","-1,96185516249603","-1,06623074019022","-35,219726316422","0,00653551822996338","2,4872712442507","-1,53648655757754"
"4502","-2,03776605486656","-1,06902259442681","-35,1100387926838","1,79388896657697","-2,83212219023594","3,94258678797"
"4515","1,34348228438838","-6,29181749488296","-31,615533291936","1,34294687331664","-1,58699688673198","2,45869063354464"
"4515","0,351306383676379","-4,64613879427081","-32,6810564102472","1,20442176961356","2,16396898555758","0,324792659505065"
"4523","-3,34829881736322","6,2247435220874","-32,9659913519016","1,16186818093168","1,40141742357416","0,734325856001809"
"4523","-2,4510132309045","3,0436685889892","-33,0421867150809","-5,62244208257984","1,14985068812223","0,847646999001975"
"4535","-2,18356584247159","-4,74397621004152","-33,0625623606101","-3,70651739258698","1,06685850039221","0,879003874490251"
"4535","-2,10384974465497","-2,76338792817603","-33,0680110770858","3,65327457902412","1,03947927152938","-4,28219519579202"
"4543","-0,378152073779831","-5,73118283550558","-34,8020549405427","1,91413237282501","1,03044682891488","-2,7103406621399"
"4543","-0,863785920722773","-4,50076079746234","-34,2657611507313","1,37988449916499","1,02746701454564","2,89447995313266"
"4551","-1,00853526926867","-4,18170044661214","-34,1223491148181","1,21576865545026","1,02648396997463","1,44537908381797"
"4552","-1,05167965476888","-4,09896500760249","-34,0839988440607","-3,91307481977496","-2,31403778007948","-2,40218267747247"
"4564","-2,7664766613548","2,88525035382725","-32,3411566708455","-2,48860654524701","-1,41608017729321","-1,46683409104019"
"4564","-2,27759373269213","0,696325037742183","-32,8750976765318","3,02740515798401","-2,78994153701921","2,23856826433836"
"4572","-2,13187595398994","-1,611974811217","-36,483054156473","1,7218712649135","-2,24318015649152","1,26388302216249"
"4576","-2,08844291555681","-1,21053931746368","-35,4478693270094","-2,06479538049734","1,27739456453794","-0,729112179896966"
"4584","-2,0754971456972","-6,32851415172692","-33,4384604393391","-1,2280232041676","0,438836667128804","-0,280590048414567"
"4584","-2,07163849423499","-4,65565459279006","-33,9011179881722","0,721834767534107","-1,50790337677374","1,5668115714436"
"4592","-3,77242564746571","2,74089535296343","-27,0944915025039","0,320812511624013","-1,15013540675516","1,07800251990277"
"4596","-3,27936690371282","0,658892387969558","-29,2743097652633","0,19762230512644","3,97818886765843","-0,780546816106449"
"4601","-3,13240447017908","0,119008855374089","-29,8572219319192","0,159779450388928","2,67002960390645","-0,294822427657363"
"4601","-3,0886004465332","-0,0209881732894218","-30,0131003369406","3,53377359065181","-4,44192869486999","1,56287335716158"
"4613","-1,37360682640302","-3,53867138907381","-33,5199578888426","2,57023236254044","-2,78817283243344","1,07691278420457"
"4613","-1,8624311518966","-2,45084071496862","-32,4577378719981","0,581432149014679","7,7779956685922","0,942443568884343"
"4625","-2,00813146317843","3,05331525985832","-37,3714466375839","0,970491720208193","5,26378816913373","0,905234850986074"
"4625","-2,05155929522461","1,48059621075494","-35,6854371989978","-2,29561199954068","2,76424917868854","0,894938898233349"
"4633","-3,76644078666087","-0,667915385344329","-36,967162832619","-1,29892786480418","2,93964806932149","0,892089924953051"
"4634","-3,27758303978304","-0,225045250107906","-36,3099131797084","2,39286308494348","-0,34268505475101","-2,555282256282"
"4646","3,67587632679379","-3,59158536534386","-32,668982340414","1,52694600114763","0,574469050158416","-1,50919798098111"
"4646","1,74844338485264","-2,46456182147648","-33,6953493910825","-0,431865007738899","5,88733552581743","2,22684583384651"
"4650","1,17394746685157","-2,17231370155933","-33,9698134835761","-0,0335930393336095","4,64005697024954","1,26063933097106"
"4654","1,00271164711535","-2,09653093370159","-34,0432088035246","-1,60405724677093","0,888380737350503","-0,73000973544679"
"4662","-2,45220191501874","1,40450090235389","-35,7954224853209","-1,08648885040398","1,65069795046045","-0,280838409284167"
"4666","-1,48198287149321","0,312352364219792","-35,2639875446882","-4,31311588656095","5,24238481631235","-1,87984099933398"
"4674","-2,8947340113936","-3,4522329593628","-38,5870484387076","-3,30430489170171","4,42728690641859","-1,32229793009005"
"4675","-2,31582246815035","-2,42842639300606","-37,475678770307","2,08402086552514","-4,19210854238795","5,72514643471562"
"4682","-0,44133324170831","-7,38501438060678","-30,2481366371059","0,739263069483475","-2,03565812346222","3,67523120801728"
"4686","-0,882617871904896","-5,67030564933176","-32,3153965016381","-1,3666432323741","-1,3242423725823","-2,06187266200208"
"4695","-4,41802291879813","3,47778650731437","-31,1356222626003","-1,01355753293237","-1,08954540660607","-0,64937563764043"
"4695","-3,47179538668747","0,849975400932754","-31,8201350636942","2,48052612507024","-2,68221729859572","1,46476562046684"
"4703","-3,18976022848875","0,168558531235315","-32,0031828190076","1,55387524972739","-2,20764179247748","1,04976558110966"
"4703","-3,10569606024081","-0,00813946246013755","-32,0521322041348","4,65483605585128","1,28911871627276","-0,788360205121634"
"4715","-1,3787023916375","-5,27602990912333","-33,7978087203903","3,60742159547512","0,442704479779007","-0,296984455501454"
"4715","-1,86394994996392","-3,6420449203838","-33,2646256554327","-6,87119143327425","1,83357006195875","3,28556703025541"
"4723","-0,306646886865002","-1,4776464727888","-31,3894586636179","-4,09012126521155","1,29241839616361","2,27688796026977"
"4723","-0,842472889745363","-1,91639699357147","-31,8880142667549","-3,2358030740419","-2,22630567280187","-3,17209745580949"
"4731","-1,00218264914357","-2,03016925281941","-32,0213346135874","-2,97336468606271","-1,3871372429102","-1,6798757282999"
"4735","-1,04978617549339","-2,05967150150344","-32,0569862335225","-1,19993656817265","0,559804216439084","-2,99025784826687"
"4743","0,637962261053846","-2,06732172031045","-37,2642803614472","-1,65515638993622","0,202102693633949","-2,35285116395384"
"4743","0,141017161854993","-2,06930549613791","-35,6567795226756","4,97624263656025","0,0840965038305794","-2,17647558649105"
"4751","-0,00710364937948337","-2,06981990842243","-35,2269125870517","3,01334507514674","0,04516611090772","-2,12767103973788"
"4751","-0,0512529422412693","-2,06995330050979","-35,1119604962746","2,41036169365002","-4,97797323909138","-0,390874503829585"
"4763","-3,46828674766187","1,41139274003946","-31,6160471808335","2,22513095848144","-3,63511333426422","-0,91028887538366"
"4764","-2,48677716056762","0,314139484477698","-32,6811938309192","2,16822984594012","3,48829275037823","0,669276896699592"
"4772","1,20964880995237","0,0296110886373462","-39,8963753190998","2,15075036768025","1,83831352713834","0,106355502945952"
"4775","0,311415613376503","-0,0441698800033316","-37,8258100549876","2,14538083892076","1,29398327139231","-0,0494093930504975"
"4784","-1,6582514957182","-5,2853729453395","-32,0743531674651","2,14373137097496","1,11440802393027","-0,0925107977830439"
"4784","-1,24533584473646","-3,64446766016005","-33,5363377039698","-4,62801353735784","1,05516592015109","-0,104437304574158"
"4792","-2,82419835335824","0,26241560252817","-30,4621180506985","-2,70822889027689","1,03562187435532","-0,107737465325788"
"4796","-2,29479841759427","-0,724491730092063","-31,6400311503915","-0,425679832369731","1,02917426865431","3,33793320086013"
"4800","-2,13700402928205","-0,980406359435999","-31,9550206560787","-0,724502564424122","1,02704719528832","2,29137810260312"
"4800","-2,08997140366056","-1,04676750130568","-32,039253006257","-4,20191715715889","1,02634547106477","-3,16808791639853"
"4813","3,0298590891906","-2,80466590329126","-37,2595382624825","-3,27014570418675","1,02611397134606","-1,67876625636248"
"4813","1,55588972558625","-2,26050598381232","-35,6555114228394","-1,29110486212255","1,02603759929281","2,17992492255736"
"4825","-3,98925742206448","-3,86009036181868","-35,2265734804226","-1,68316241900867","1,02601240405478","1,2476559358681"
"4825","-2,64205910025531","-3,27487808268302","-35,1118698146874","-6,88202741124738","2,69610281331004","-4,18018619304922"
"4833","-2,24050949519471","-3,123126871042","-35,0811965409291","-5,47906907790858","2,2470677750408","-2,68211394722153"
"4833","-2,12082252504781","-3,08377631218406","-35,0729941027853","-3,3552841269181","3,76902926288471","6,34887436043825"
"4845","-2,08514830038812","-1,3328820159654","-36,8033874673669","-3,70287767612098","3,27112630401408","3,8478217625038"
"4845","-2,07451514371694","-1,87885816790303","-36,2661174859871","-0,424035990495212","-3,57352740362342","1,43246838564354"
"4849","-2,07134579604723","-2,02043507176774","-36,1224444035674","-1,4168071437859","-1,83158741474008","1,76412059905015"
"4850","-2,07040113163928","-2,05714733408319","-36,0840243255297","5,04946124829332","-1,25691918480853","-1,59069240228318"
"4862","-0,368182288983604","-2,06666717925233","-34,3411634849265","3,03583713329547","-1,06733540086638","-0,518996254364025"
"4866","-0,860814299482859","-2,06913576730244","-34,875099498707","-0,968348064695911","0,665307253093055","-1,94574119851141"
"4874","-2,70958681314602","-2,06977589609161","-35,0178810341982","-0,198395510006959","0,236908280343746","-1,34053304743489"
"4874","-2,26063698941953","-2,06994188768615","-35,0560627008231","-1,65468299158773","0,095578911395647","0,550224859494611"
"4882","1,27705276595709","-2,06998493091421","-31,6010993727457","-1,10204059564047","0,0489541718471788","0,0734128427465512"
"4882","0,331506220286455","-2,06999609244011","-32,6771965897969","-6,01070278603298","0,0335726106462594","-1,78181681684337"
"4894","-3,35420050805022","-3,81068930193656","-29,4997855754335","-4,51859692395048","0,0284982139360819","-1,29517384711823"
"4895","-2,45277230492218","-3,26206790941643","-30,6501039435372","-0,674617151772931","1,69692288516875","-1,16051580710098"
"4902","-2,18409015686957","-3,11980506905007","-30,9577142538786","-1,49378328300827","1,2473383177957","-1,12325483988404"
"4903","-2,10400602323402","-3,08291493675658","-31,0399733098514","1,64019580982366","-3,91127636950051","0,610347494336706"
"4915","1,32373861880731","0,408031662229873","-37,9923176859424","0,60292425173736","-2,613109951694","0,090049261378226"
"4915","0,345421532880335","-0,686732075549679","-35,8514663098625","-1,40852521489316","-0,51474446916338","1,66937046187251"
"4923","-3,35005287203709","-0,970614915318633","-35,2789744028816","-1,02642327791039","-0,822491013079423","1,10638139318496"
"4923","-2,45153604922319","-1,04422848501792","-35,125882512795","0,783764339221244","0,746081729731829","-2,49598607633138"
"4931","-2,18372167512517","-4,54469782698267","-31,6197701117552","0,339836684502226","0,26355588348156","-1,49279024909263"
"4931","-2,10389619256058","-3,45240342868321","-32,6821893917726","1,89627590120178","1,77446871094437","5,6779698330936"
"4943","-2,08010319157575","-1,4284705973518","-32,9662943261115","1,37439916164528","1,27292078488495","3,66217706133417"
"4944","-2,07301138482836","-1,90364521281237","-33,0422677343824","-7,24996414725971","-0,562639238499803","-0,342192926159467"
"4952","-2,07089758157276","-2,02686259257018","-33,0625840262404","-4,89928617683876","-0,168192837534998","0,549765557645775"
"4952","-2,07026753561092","-2,05881405247649","-33,0680168707612","-4,17718035772837","-3,37826190783029","-0,9267142497845"
"4964","-2,07007974239365","-2,06709937547354","-33,0694696850737","-3,95535634756857","-2,43726779916824","-0,335268137054036"
"4964","-2,07002376823528","-2,06924783996833","-33,0698581867911","1,19121452516688","-0,456733918177574","-0,171610220941357"
"4972","-2,07000708442501","-2,06980495761927","-33,0699620772767","-0,227808062175968","-0,80335325812511","-0,126324753795933"
"4973","-2,07000211160304","-2,06994942362173","-33,0699898589634","-0,663718246668763","-0,917703421631825","-1,8370858229555"
"4985","-2,07000062939016","-3,81067720025998","-33,069997288153","-0,797625691581501","-0,955427686804078","-1,31046722748076"
"4985","-2,07000018759775","-3,26206477133449","-33,0699992748163","-4,22437988335802","0,702225751070182","2,28183623835727"
"4993","-2,0700000559159","-1,37911394011034","-33,0699998060763","-3,27704603911377","0,249087740037904","1,27585562002042"
"4993","-2,07000001666644","-1,89084655358054","-33,0699999481422","5,47801362843445","-1,57050179047262","2,72078458194422"
"5001","-2,07000000496765","-2,02354377627898","-33,0699999861326","3,16748433099226","-1,17078670348549","2,12060809544674"
"5001","-2,07000000148067","-2,05795345127012","-33,0699999962917","-0,927907303042195","-2,7090189063279","-1,49204943291586"
"5013","-2,07000000044133","4,89588504757276","-36,5351736085569","-0,185972494312396","-2,21648367714232","-0,491700948065885"
"5013","-2,07000000013154","2,69908271682523","-35,4618067562246","0,0419427920542857","2,9563004884113","-0,214896443152974"
"5021","-5,47387454685225","-6,57402097914196","-35,174774296593","0,111956191005788","1,66280859960189","-0,138302401076154"
"5025","-4,48844267522997","-3,97862657561747","-35,0980180294295","1,82627319028768","-2,10411347103129","-0,117108211033939"
"5030","-4,19472216470211","-3,30561567092001","-35,0774923907737","1,35289499751023","-1,34682587928628","-0,111243607477764"
"5030","-4,10717502847775","-3,1310974253591","-35,0720035641567","-0,485331813541338","2,24320170804544","1,61367109935032"
"5042","-0,677205943536225","-1,34515283890699","-33,3379489747187","-0,0500175313674004","1,42755640004598","1,09096892972806"
"5046","-1,65486000594722","-1,88204011113219","-33,8742398962613","0,0837068580449741","1,1584739698869","-0,776958905786651"
"5050","-1,94626224145463","-2,02126018046353","-34,0176511651615","0,124785713152621","1,06970333207386","-0,29382962389469"
"5050","-2,0331183863054","-2,05736129275902","-34,0560012308095","0,137404745061237","-0,629680936057368","1,56314807398093"
"5063","-2,05900696566102","-2,06672266080912","-30,601082934853","0,141281191128037","-0,190309979292396","1,0769888005672"
"5063","-2,06672338621139","-2,06915015420745","-31,6771921940875","-1,55033755355145","-3,38555838117954","-2,5041192440933"
"5071","-2,06902336356017","-0,329089311550721","-33,6975448142856","-1,06998667377123","-2,43967491505691","-1,49504076229859"
"5075","-2,06970890107985","-0,877874682916739","-33,2378137639354","-2,6152370236424","-5,467824192377","0,50747132693492"
"5083","-0,367975960855631","2,46120058582343","-36,5800492243654","-2,08992317107097","-4,46681451137277","0,0615825949952006"
"5083","-0,860752800758463","1,32705514126827","-35,4738070880357","-1,92855177329793","-0,796382695121776","3,3847854290374"
"5091","-1,00763120926202","-4,18911070208543","-35,1779833436664","-1,8789800213029","-1,58550254517955","2,30434249253432"
"5091","-1,0514101881783","-2,61950592820415","-35,098876170961","1,52186705117405","-0,175735471646324","0,282083282319375"
"5099","-1,06445907000156","-5,69387283944515","-29,8799614548197","0,566574787342758","-0,710651511272657","0,722507826399059"
"5099","-1,0683484552968","-4,49108595414419","-31,4843547949659","1,96592768061837","0,782977724398626","0,844376854764464"
"5112","-2,7714450094892","2,78356959477788","-35,3785643540018","1,39579552297635","0,275727919304864","0,878098999168934"
"5112","-2,27907461208374","0,669958232163343","-34,4199273750621","1,22065636998486","1,77848428112812","0,887430188877169"
"5120","-0,430380075532631","0,121878335943974","-35,8961620022366","1,16685529509472","1,27424552662369","0,890012204431303"
"5124","-0,879353141329741","-0,0202440891873188","-35,2909266207922","-0,542481433093753","4,44809395908342","2,61401859264793"
"5128","-2,71511255089478","-3,53847844085983","-38,594252303125","-0,0675733486073746","3,49515061568034","2,09106508392998"
"5128","-2,26228400587937","-2,45079068162808","-37,4776051787088","-1,61449567320386","1,51067466686788","-3,22351614646152"
"5140","-2,12731269507272","-0,428052396421282","-28,5160649793577","-1,08969543529754","1,85599351359988","-1,69410369527817"
"5144","-2,0870827781618","-0,903536769260896","-31,1196308805055","-0,928481815043636","-6,38057896325083","-2,99419484163967"
"5148","-2,0750917394367","-1,02683447210703","-35,2810323666607","-0,878958530795411","-4,09783475632152","-2,35394056181659"
"5149","-2,07151765773961","-1,05880676056805","-34,3938460346905","5,90749275662036","3,33564036151176","4,71639066296022"
"5161","-2,0704523572039","-2,80778779981575","-32,4240138981235","3,99222576872008","1,78795330883889","2,67280841525796"
"5161","-2,07013483082159","-2,26131552181605","-32,8972547924258","3,40387404444491","-0,392729350222009","3,83062462631236"
"5169","-2,07004018804231","-2,11960996765857","-29,5586320425341","3,2231380146149","-0,112139348110796","3,151001722829"
"5173","-2,07001197855747","-2,08286434507625","-30,6658402653323","-1,91081102303084","-0,0195723475948321","-0,483639270749906"
"5181","-2,0700035703615","-0,332645534062133","-36,1596827682938","-0,487911128510744","0,0109656242503877","0,510626211728767"
"5181","-2,07000106419168","-0,878796845855235","-34,6288087460776","3,334809231479","-1,64905858098232","-0,937544422902418"
"5189","-2,07000031719587","0,720271144837836","-32,4868460275344","2,50911241188701","-1,19670268913334","-0,338264933423929"
"5189","-2,07000009454427","0,134924961470731","-32,9140569329144","0,562656683984612","0,622628819258445","4,99743631227862"
"5198","-0,3680627547736","-3,49824160324371","-34,7608855709316","0,964724076692017","0,222828610444378","3,47386793990427"
"5198","-0,860778670790304","-2,44035687994868","-34,2547519180582","1,0882353392307","3,43113145268373","-2,11759150456725"
"5210","-2,70957619356077","-2,16603712580127","-27,1890578816349","1,12617681931735","2,48955466312737","-0,664793491382556"
"5210","-2,260633824117","-2,09490335682017","-29,2995980628676","-2,24778702418033","3,84902599735755","-0,262792547843004"
"5218","-2,12682083739725","3,14561326400668","-36,7943315754805","-1,28423648919209","3,29751732901677","-0,151555640069133"
"5218","-2,08693617372195","1,50452997711789","-34,7985222114536","0,704566583317353","9,79596879884598","-0,120775489300966"
"5226","-2,07504804211763","-2,40239944313748","-35,997403257132","0,315507890376316","7,93981624898506","-0,112258372992438"
"5230","-2,07150463319754","-1,41550407962143","-35,3179998682524","1,88880232803212","0,647074264345544","-0,109901618122737"
"5239","-0,368511201666859","-4,6409731843915","-26,4733844133135","1,37210335135426","2,24118935762906","-0,109249485016336"
"5239","-0,860912336094041","-3,47736856126645","-29,1082175339655","-5,55785984636795","1,09699124426673","3,33751481280017"
"5247","-2,70961603420565","3,78712664760122","-33,2779802871942","-3,6866783465047","1,71951882346395","2,29126233124789"
"5251","-2,26064569912824","1,67088061040976","-32,3930298683683","3,65936894448033","3,59499018912807","-1,44482802760798"
"5259","-2,12682437689548","-2,35926311285306","-37,3541428635765","1,91600450368049","3,21371059101999","-0,478634403841048"
"5259","-2,08693722871444","-1,40431841141215","-35,680809941501","3,07326915176526","-0,252271478370564","1,51201109882346"
"5267","-0,373111083165042","-2,89738231708924","-31,7681650285839","2,42876979759941","0,604296604627522","1,0628387865415"
"5267","-0,862283389315397","-2,28454824784963","-32,721872150637","-2,84764290346891","2,55697823178735","0,938549180064575"
"5280","-2,71002469406711","-2,12563443852327","-38,1746664337776","-1,46850648555586","2,20117039768346","0,904157242147234"
"5280","-2,2607675054008","-2,08442654871723","-36,6328155759408","0,647960600560004","-1,25640850418873","-0,828651208495053"
"5288","-0,424923409398676","-2,07374094380055","-31,0227438971623","0,298119073167031","-0,397068205480333","-0,30813330153874"
"5288","-0,877726712543745","-2,07097006295776","-32,5225367040948","1,88346064948139","4,89672542158047","3,28248205451501"
"5300","-2,71462777309622","-0,329561231515121","-36,3887747003218","1,37046243872657","3,6431547088696","2,27603432256709"
"5300","-2,26213951168694","-0,877997056333956","-35,4226577563959","2,90568384036585","-0,110597314717342","3,72083403038214"
"5308","-3,82920690014627","-6,24228272281225","-24,7687845088133","2,37728919069294","0,651035092390135","3,12062177822888"
"5309","-3,29629127870618","-4,63329394813875","-27,9197982221474","2,21497140147773","2,57239731866958","-0,492045646779535"
"5316","-1,43551172212897","2,74669368467978","-35,6927680865273","2,16510892707149","2,20625717416389","0,508300099588614"
"5320","-1,88088269390616","0,660395951539264","-33,7713627943543","-2,92863700443707","-1,25473037012285","0,785103846741487"
"5329","-2,01363118009966","1,86008905917411","-36,7227272753993","-1,49338709972704","-0,396514586905995","0,861697679139984"
"5329","-2,05319855584565","1,17118110076601","-35,5119610815512","-4,43811114210818","-1,78348682372993","0,882891811162515"
"5337","-2,06499211574465","-4,22953035039584","-28,2578390058859","-3,34270224026566","-1,24105073832308","0,888756398664174"
"5341","-2,06850733636438","-2,62998713446706","-30,3179910430748","0,379416014929461","0,607998341118309","-0,83291274626927"
"5349","-2,06955509260688","1,26617054308129","-25,6711424676674","-0,477184810315828","0,218001996996441","-0,309312503458495"
"5349","-2,06986738968933","0,276481962359192","-27,4285138423877","-0,740324401679596","0,0893417043419498","-1,8877200111585"
"5357","-3,77189774721575","-1,72084418675806","-40,0265657703198","-0,821158370667735","0,0468965092640019","-1,32447811629547"
"5358","-3,27920955632495","-1,2387702009191","-36,3954510899876","4,23243886182732","-3,30730365726429","-1,16862453505358"
"5370","-1,4304202973811","-2,85445406280786","-28,4940958919919","2,78485566027605","-2,41385858156486","-1,12549859039737"
"5370","-1,87936512996357","-2,27341653576311","-30,3811692518825","0,647362376022245","-0,449011187354429","-1,11356529321119"
"5378","-3,71511612425967","-2,12274787777089","-32,6183843734505","0,990744856187047","-0,8008055193507","-1,1102632535024"
"5378","-3,26228507096625","-2,08367803555839","-32,2166452175162","-3,98219998150742","0,75323580184442","4,0605262185321"
"5390","1,97849880768414","-0,332856531884578","-35,5743884757292","-2,50984113465571","0,265916021020156","2,49132542650017"
"5390","0,540581140041825","-0,878851559634066","-34,4722933291555","3,02088209494799","0,105148602139995","-1,389468953374"
"5398","-3,29188306740562","-2,76112367338428","-28,9798181302446","1,71986744225638","0,052111225061493","-0,463316100901778"
"5398","-2,43419779864932","-2,24921506189986","-30,5110577876059","-0,372601383793487","0,0346141265389123","-0,207042126696976"
"5406","-2,17855378888476","-3,85716251641651","-32,6531182818114","-0,0153878201368313","0,0288418113609623","-0,136129048278646"
"5410","-2,10235583829704","-3,27411886401465","-32,2259335229337","5,17277343020756","0,0269375172020997","-3,56309067408125"
"5419","-2,07964406938403","0,358450632120957","-30,3791118768362","3,76652700959973","0,026309288123873","-2,5113586332496"
"5419","-2,07287453761606","-0,699588916839048","-30,8852473994413","3,33454154149147","-3,31409540784543","-0,497043959745906"
"5427","-2,07085679251954","2,50743181162853","-41,416115545404","3,20183973196362","-2,41609918876689","-0,939666821296376"
"5431","-2,0702553779145","1,33904334585949","-38,2322086448167","4,85388455551278","-2,11984908773218","4,10773162911837"
"5439","-2,07007611863751","-0,704621414122241","-32,1830295129065","4,36137694516683","-2,02211580055517","2,50438754485636"
"5439","-2,07002268812864","-0,234563478860394","-33,5653991927497","0,824464207876345","1,35032397825921","0,337437363928829"
"5448","-2,07000676248548","-1,8533632190368","-32,2024762810454","1,73795839916034","0,462896173977841","0,737824747838803"
"5448","-2,07000201564486","-1,27313366940867","-32,8380127103803","0,325765537248537","0,170132606499642","-0,874676753028046"
"5459","-2,0700006007886","0,618015787419008","-29,5427899280825","0,891953379171412","0,0735495312015124","-0,320868941428985"
"5460","-2,07000017907269","0,108409156969822","-30,6616038748876","-0,626928675834225","0,0416866511498855","-3,61420969453822"
"5468","-0,368062779968372","-3,50511740815093","-30,9607894872659","-0,0935147349469938","0,0311750462744915","-2,52550367906465"
"5468","-0,860778678299927","-2,44213984275188","-31,0407956678375","-3,31527417118213","-3,3124901880092","-2,2242499318227"
"5480","-4,41151346920563","-2,16649946532377","-31,062190376222","-2,30496789612165","-2,41556962469016","-2,14089058693303"
"5480","-3,46985516239331","-2,09502324593602","-31,067911603552","-0,301801906867418","-0,449575662669553","1,32875946435551"
"5488","0,214692626867617","-2,07648877001623","-34,5346151447815","-0,686448448977367","-0,800991740479012","0,288839655622077"
"5489","-0,6870810128013","-2,07168260090762","-33,461657415642","-2,4974177444983","4,09337180964907","3,44766929311825"
"5497","-2,65780339601766","-2,07043631471099","-33,1747343609507","-2,05373021391397","2,70802860376551","2,32174296559698"
"5500","-2,24520228291793","-2,07011314063018","-33,0980073501117","3,16099501308131","3,92110082975931","2,01019005740752"
"5509","-2,12222127015192","-2,07002933846115","-27,8797291206603","1,76290879236462","3,32129490839566","1,92398085150414"
"5509","-2,08556521416766","-2,07000760774711","-29,4842926657459","4,71904916348532","-1,88687799568564","-1,54645777934334"
"5517","-2,07463941017482","1,41137865764687","-31,6459609350543","3,62714724878415","-0,605060896971751","-0,506756176942697"
"5517","-2,07138283524649","0,314135832776914","-31,224019553968","-1,78670324534333","-0,182187796913859","-0,219062346574342"
"5529","-2,070412171644","-1,71108017348872","-36,3089472753767","-0,449786404668216","-0,0426814204331635","-0,139455140198101"
"5529","-2,07012285300403","-1,23623829771588","-34,6687240448504","-1,73190787317104","5,01363807515859","-1,84071910691845"
"5537","-0,368099344494831","-2,8537975157863","-32,4975199051176","-1,12576334161976","3,68172434279333","-1,31147258649695"
"5538","-0,86078957682238","-2,2732462867619","-32,9169112686244","7,52448622806985","-3,43807058555594","-1,16502579992124"
"5550","-1,0076421708359","-0,382013415351358","-29,5638884436412","5,18176026969939","-1,78690003723697","-1,12450279132164"
"5550","-1,0514134554149","-0,891598415591356","-30,6672458963477","-2,30914097480116","-1,24217676182388","0,61000217609504"
"5558","-1,06446004384301","0,716951573824677","-32,6948850430263","-0,610274284893156","-1,06247185667108","0,0899537090318494"
"5558","-1,06834874556264","0,134064164557653","-32,2371025060044","-3,47401776889839","0,666911742542601","-1,77723982555256"
"5566","-2,77144509600662","1,72360612939415","-33,8472722198351","-2,35373241303968","0,237437603464978","-1,29390735666272"
"5570","-2,27907463787136","1,13578975526483","-33,2778528478663","3,06883720309605","-3,24444390662278","2,28641848835578"
"5579","-3,834254630032","-5,97939798424692","-34,858169398959","1,73459879341784","-2,39312106944296","1,27712356560281"
"5579","-3,29779581883903","-3,82443507423919","-34,2807668973548","-0,368076053428841","4,56812630800332","-4,17203226191101"
"5587","-1,43596016946323","-1,52494200609481","-27,1960146303723","-0,0139976818742419","2,86465071989029","-2,67985768862166"
"5591","-1,88101635934134","-1,92866118340528","-29,3014583892759","0,094771811751854","-2,70762421862825","4,62620676175559"
"5599","1,39020352602933","-0,292659160814793","-38,5274158560838","0,128184761240222","-1,54592484669016","2,64785380143875"
"5599","0,365232244349712","-0,86842799201236","-35,9945586212994","-1,55436065171741","0,507419982893933","-3,06944821151161"
"5607","-3,34414803736077","-2,75842074134985","-26,6543051512238","-1,07122253109965","0,184821067998264","-1,65147185337244"
"5607","-2,44977603809948","-2,24851416544599","-29,1565981265727","0,770002436558767","-1,59170344776295","0,464185580644039"
"5620","-3,88513435481732","3,10578049364076","-33,2909178960502","0,335609159456409","-1,17778115733832","0,0496050794060906"
"5620","-3,31296116833687","1,49420095398978","-32,396489555691","3,58778679777238","0,628871056794541","-1,78840461723928"
"5628","-1,4404803948843","-2,40507785886907","-39,0876548343923","2,58682470384","0,224887932590131","-1,29699674469309"
"5628","-1,88236367005517","-1,41619861876054","-36,8769607213532","-1,10628039411006","0,0916133833000669","2,28556362973683"
"5640","-2,01407260388865","-6,38184360032143","-34,5532051401444","-0,240767004089396","0,0476459390573157","1,27688701931882"
"5640","-2,05333012782378","-4,66948343529541","-34,9318022352498","-1,66769910984226","0,0331410229759109","2,72106997846002"
"5648","-0,363094059040668","2,73730940017228","-29,8352836798323","-1,10603902283981","0,0283558326117181","2,12068706696762"
"5648","-0,859297687792533","0,657962515681595","-31,4724073684009","5,83773579851081","-1,64332152900526","-1,49202758085823"
"5656","-4,41107204113694","0,118767730484198","-31,9101958449407","3,97079709749918","-1,19481002834954","-0,491694901425054"
"5660","-3,46972358913956","-0,0210506993086159","-32,0272662602853","-3,37394684620535","0,62325321047136","1,50839715366094"
"5669","1,9166691173569","-3,53868760267614","-37,2563328484418","-1,63018202957037","0,223034597903992","1,06183877872758"
"5669","0,522152013958456","-2,45084491931273","-35,6546542528288","0,598295417744765","3,43119940821008","0,938272469826059"
"5677","-1,59543882956825","-5,65013740639226","-28,2959970427541","0,282862403402247","2,48957708174241","0,90408067418943"
"5681","-1,2266137301992","-4,47974493278486","-30,3281950056373","-1,50684515750811","0,508835950894304","0,894619528192193"
"5689","-1,11668071544515","2,78651043145183","-27,4064579466745","-1,05662622514103","0,855386918848839","0,892001552683322"
"5689","-1,08391378132492","0,670720819594298","-28,6251469041279","0,774486282327035","-0,70038419484888","-0,832014785943204"
"5697","2,32972736721411","1,86276639745501","-34,1488008265496","0,336986554047247","-0,21363507478329","-0,309064030584039"
"5698","1,34720655555935","1,17187536051172","-32,6258987712655","1,89540036835013","-5,0633520812067","1,55893259061173"
"5710","-4,05145809671687","-4,22935032212001","-37,416415080969","1,37413020631624","-3,66327992346083","1,07582234227326"
"5710","-2,66059880293815","-2,6299404513916","-35,6974623541277","-0,47880856023238","1,80890183538623","-2,50444201252395"
"5718","-2,24603548952659","-2,2151979819545","-31,7726181034526","-0,0480136502602465","0,614181595475008","-1,49513007493014"
"5718","-2,12246961798551","-2,10765124293354","-32,7230629616163","-1,60848712070359","-1,45005686068063","0,507446613408451"
"5730","-3,7875765108066","8,36437855929087","-34,7098112627979","-1,08784966536246","-1,13105176712171","0,0615757565628319"
"5730","-3,28388281135045","5,07987730647281","-34,2410939741262","-0,927914812150157","3,98448458477772","6,83136738410705"
"5738","-1,43181322051607","-4,47527725412868","-35,8483395910792","-0,87878435292248","2,6721065690351","4,70462340259044"
"5738","-1,87978030843111","-1,95302137140876","-35,2781382770212","5,9075462623992","-1,101046059025","0,669552319277245"
