Timer,AX,AY,AZ,GX,GY,GZ,A
"2","-1.48575351870923","0.279780295228287","-0.0295228286989371","0.105046343975283","-3.09852385856505","0","359.9375"
"9","-1.48575351870923","0.279780295228287","-0.0295228286989371","-2.89495365602472","-1.09852385856505","0","359.9375"
"10","0.514246481290766","0.279780295228287","1.97047717130106","-2.89495365602472","-1.09852385856505","0","359.9375"
"22","0.514246481290766","0.279780295228287","1.97047717130106","-2.89495365602472","-1.09852385856505","0","359.9375"
"23","0.514246481290766","-0.720219704771713","-0.0295228286989371","-2.89495365602472","-1.09852385856505","0","359.9375"
"29","0.514246481290766","-0.720219704771713","-0.0295228286989371","1.10504634397528","0.901476141434947","0","359.9375"
"31","0.514246481290766","-0.720219704771713","-0.0295228286989371","1.10504634397528","0.901476141434947","0","359.9375"
"38","0.514246481290766","-0.720219704771713","-0.0295228286989371","2.10504634397528","0.901476141434947","0","359.9375"
"43","0.514246481290766","1.27978029522829","-0.0295228286989371","2.10504634397528","0.901476141434947","0","359.9375"
"50","0.514246481290766","1.27978029522829","-0.0295228286989371","1.10504634397528","0.901476141434947","0","359.9375"
"51","0.514246481290766","1.27978029522829","-0.0295228286989371","1.10504634397528","0.901476141434947","0","359.9375"
"61","0.514246481290766","1.27978029522829","-0.0295228286989371","-3.89495365602472","0.901476141434947","0","359.9375"
"64","0.514246481290766","0.279780295228287","-3.02952282869894","-3.89495365602472","0.901476141434947","0","359.9375"
"71","0.514246481290766","0.279780295228287","-3.02952282869894","3.10504634397528","0.901476141434947","0","359.9375"
"72","-0.485753518709234","-0.720219704771713","-1.02952282869894","3.10504634397528","0.901476141434947","0","359.9375"
"82","-0.485753518709234","-0.720219704771713","-1.02952282869894","1.10504634397528","-1.09852385856505","0","359.9375"
"82","-0.485753518709234","-0.720219704771713","-1.02952282869894","1.10504634397528","-1.09852385856505","0","359.9375"
"88","-0.485753518709234","-0.720219704771713","-1.02952282869894","0.105046343975283","0.901476141434947","0","359.9375"
"92","-0.485753518709234","-0.720219704771713","-1.02952282869894","0.105046343975283","0.901476141434947","0","359.9375"
"99","-0.485753518709234","-0.720219704771713","-1.02952282869894","-0.894953656024717","1.90147614143495","0","359.9375"
"104","-0.485753518709234","-0.720219704771713","-1.02952282869894","-0.894953656024717","1.90147614143495","0","359.9375"
"111","-0.485753518709234","-0.720219704771713","-1.02952282869894","-2.89495365602472","0.901476141434947","0","359.9375"
"113","-0.485753518709234","-0.720219704771713","-0.0295228286989371","-2.89495365602472","0.901476141434947","0","359.9375"
"119","-0.485753518709234","-0.720219704771713","-0.0295228286989371","-1.89495365602472","-0.0985238585650532","0","359.9375"
"121","-1.48575351870923","0.279780295228287","0.970477171301063","-1.89495365602472","-0.0985238585650532","0","359.9375"
"131","-1.48575351870923","0.279780295228287","0.970477171301063","1.10504634397528","-0.0985238585650532","0","359.9375"
"131","-1.48575351870923","0.279780295228287","0.970477171301063","1.10504634397528","-0.0985238585650532","0","359.9375"
"139","-1.48575351870923","0.279780295228287","0.970477171301063","0.105046343975283","-1.09852385856505","0","359.9375"
"141","1.51424648129077","0.279780295228287","-1.02952282869894","0.105046343975283","-1.09852385856505","0","359.9375"
"151","1.51424648129077","0.279780295228287","-1.02952282869894","0.105046343975283","-1.09852385856505","0","359.9375"
"154","-0.485753518709234","0.279780295228287","1.97047717130106","0.105046343975283","-1.09852385856505","0","359.9375"
"160","-0.485753518709234","0.279780295228287","1.97047717130106","0.105046343975283","-1.09852385856505","0","359.9375"
"162","-1.48575351870923","0.279780295228287","0.970477171301063","0.105046343975283","-1.09852385856505","0","359.9375"
"168","-1.48575351870923","0.279780295228287","0.970477171301063","-1.89495365602472","0.901476141434947","0","359.9375"
"174","0.514246481290766","0.279780295228287","1.97047717130106","-1.89495365602472","0.901476141434947","0","359.9375"
"180","0.514246481290766","0.279780295228287","1.97047717130106","0.105046343975283","0.901476141434947","0","359.9375"
"181","0.514246481290766","0.279780295228287","1.97047717130106","0.105046343975283","0.901476141434947","0","359.9375"
"188","0.514246481290766","0.279780295228287","1.97047717130106","0.105046343975283","-2.09852385856505","0","359.9375"
"194","-0.485753518709234","-1.72021970477171","-2.02952282869894","0.105046343975283","-2.09852385856505","0","359.9375"
"201","-0.485753518709234","-1.72021970477171","-2.02952282869894","0.105046343975283","-0.0985238585650532","0","359.9375"
"201","-0.485753518709234","-1.72021970477171","-2.02952282869894","0.105046343975283","-0.0985238585650532","0","359.9375"
"209","-0.485753518709234","-1.72021970477171","-2.02952282869894","0.105046343975283","-2.09852385856505","0","359.9375"
"211","0.514246481290766","-0.720219704771713","-3.02952282869894","0.105046343975283","-2.09852385856505","0","359.9375"
"222","0.514246481290766","-0.720219704771713","-3.02952282869894","0.105046343975283","-0.0985238585650532","0","359.9375"
"223","-1.48575351870923","0.279780295228287","0.970477171301063","0.105046343975283","-0.0985238585650532","0","359.9375"
"229","-1.48575351870923","0.279780295228287","0.970477171301063","1.10504634397528","0.901476141434947","0","359.9375"
"229","-0.485753518709234","1.27978029522829","0.970477171301063","1.10504634397528","0.901476141434947","0","359.9375"
"239","-0.485753518709234","1.27978029522829","0.970477171301063","-0.894953656024717","1.90147614143495","0","359.9375"
"244","0.514246481290766","-0.720219704771713","-0.0295228286989371","-0.894953656024717","1.90147614143495","0","359.9375"
"252","0.514246481290766","-0.720219704771713","-0.0295228286989371","-0.894953656024717","0.901476141434947","0","359.9375"
"253","-0.485753518709234","-0.720219704771713","-2.02952282869894","-0.894953656024717","0.901476141434947","0","359.9375"
"261","-0.485753518709234","-0.720219704771713","-2.02952282869894","-0.894953656024717","1.90147614143495","0","359.9375"
"261","0.514246481290766","-0.720219704771713","-1.02952282869894","-0.894953656024717","1.90147614143495","0","359.9375"
"271","0.514246481290766","-0.720219704771713","-1.02952282869894","0.105046343975283","0.901476141434947","0","359.9375"
"272","-0.485753518709234","0.279780295228287","0.970477171301063","0.105046343975283","0.901476141434947","0","359.9375"
"278","-0.485753518709234","0.279780295228287","0.970477171301063","0.105046343975283","-1.09852385856505","0","359.9375"
"280","0.514246481290766","0.279780295228287","1.97047717130106","0.105046343975283","-1.09852385856505","0","359.9375"
"286","0.514246481290766","0.279780295228287","1.97047717130106","0.105046343975283","-2.09852385856505","0","359.9375"
"289","0.514246481290766","0.279780295228287","1.97047717130106","0.105046343975283","-2.09852385856505","0","359.9375"
"298","0.514246481290766","0.279780295228287","1.97047717130106","1.10504634397528","-0.0985238585650532","0","359.9375"
"301","-0.485753518709234","0.279780295228287","1.97047717130106","1.10504634397528","-0.0985238585650532","0","359.9375"
"307","-0.485753518709234","0.279780295228287","1.97047717130106","1.10504634397528","1.90147614143495","0","359.9375"
"309","0.514246481290766","0.279780295228287","-1.02952282869894","1.10504634397528","1.90147614143495","0","359.9375"
"319","0.514246481290766","0.279780295228287","-1.02952282869894","0.105046343975283","0.901476141434947","0","359.9375"
"321","0.514246481290766","0.279780295228287","-3.02952282869894","0.105046343975283","0.901476141434947","0","359.9375"
"327","0.514246481290766","0.279780295228287","-3.02952282869894","1.10504634397528","2.90147614143495","0","359.9375"
"327","0.514246481290766","0.279780295228287","-0.0295228286989371","1.10504634397528","2.90147614143495","0","359.9375"
"335","0.514246481290766","0.279780295228287","-0.0295228286989371","-1.89495365602472","0.901476141434947","0","359.9375"
"338","-0.485753518709234","1.27978029522829","-1.02952282869894","-1.89495365602472","0.901476141434947","0","359.9375"
"348","-0.485753518709234","1.27978029522829","-1.02952282869894","0.105046343975283","-0.0985238585650532","0","359.9375"
"350","-0.485753518709234","0.279780295228287","0.970477171301063","0.105046343975283","-0.0985238585650532","0","359.9375"
"356","-0.485753518709234","0.279780295228287","0.970477171301063","3.10504634397528","0.901476141434947","0","359.9375"
"358","0.514246481290766","0.279780295228287","-1.02952282869894","3.10504634397528","0.901476141434947","0","359.9375"
"368","0.514246481290766","0.279780295228287","-1.02952282869894","1.10504634397528","-2.09852385856505","0","359.9375"
"371","-0.485753518709234","-0.720219704771713","1.97047717130106","1.10504634397528","-2.09852385856505","0","359.9375"
"377","-0.485753518709234","-0.720219704771713","1.97047717130106","1.10504634397528","-0.0985238585650532","0","359.9375"
"379","0.514246481290766","0.279780295228287","0.970477171301063","1.10504634397528","-0.0985238585650532","0","359.9375"
"386","0.514246481290766","0.279780295228287","0.970477171301063","2.10504634397528","-0.0985238585650532","0","359.9375"
"387","0.514246481290766","-0.720219704771713","1.97047717130106","2.10504634397528","-0.0985238585650532","0","359.9375"
"397","0.514246481290766","-0.720219704771713","1.97047717130106","0.105046343975283","1.90147614143495","0","359.9375"
"399","0.514246481290766","0.279780295228287","-0.0295228286989371","0.105046343975283","1.90147614143495","0","359.9375"
"406","0.514246481290766","0.279780295228287","-0.0295228286989371","1.10504634397528","0.901476141434947","0","359.9375"
"408","0.514246481290766","-0.720219704771713","-2.02952282869894","1.10504634397528","0.901476141434947","0","359.9375"
"414","0.514246481290766","-0.720219704771713","-2.02952282869894","0.105046343975283","-0.0985238585650532","0","359.9375"
"416","0.514246481290766","0.279780295228287","0.970477171301063","0.105046343975283","-0.0985238585650532","0","359.9375"
"426","0.514246481290766","0.279780295228287","0.970477171301063","0.105046343975283","-3.09852385856505","0","359.9375"
"428","-0.485753518709234","0.279780295228287","-0.0295228286989371","0.105046343975283","-3.09852385856505","0","359.9375"
"436","-0.485753518709234","0.279780295228287","-0.0295228286989371","0.105046343975283","-2.09852385856505","0","359.9375"
"436","0.514246481290766","-1.72021970477171","-2.02952282869894","0.105046343975283","-2.09852385856505","0","359.9375"
"448","0.514246481290766","-1.72021970477171","-2.02952282869894","2.10504634397528","-0.0985238585650532","0","359.9375"
"449","0.514246481290766","-0.720219704771713","-0.0295228286989371","2.10504634397528","-0.0985238585650532","0","359.9375"
"456","0.514246481290766","-0.720219704771713","-0.0295228286989371","0.105046343975283","-1.09852385856505","0","359.9375"
"457","0.514246481290766","0.279780295228287","-1.02952282869894","0.105046343975283","-1.09852385856505","0","359.9375"
"468","0.514246481290766","0.279780295228287","-1.02952282869894","-1.89495365602472","-1.09852385856505","0","359.9375"
"469","1.51424648129077","-1.72021970477171","-0.0295228286989371","-1.89495365602472","-1.09852385856505","0","359.9375"
"474","1.51424648129077","-1.72021970477171","-0.0295228286989371","-0.894953656024717","-1.09852385856505","0","359.9375"
"477","-0.485753518709234","0.279780295228287","1.97047717130106","-0.894953656024717","-1.09852385856505","0","359.9375"
"483","-0.485753518709234","0.279780295228287","1.97047717130106","1.10504634397528","1.90147614143495","0","359.9375"
"485","0.514246481290766","-0.720219704771713","0.970477171301063","1.10504634397528","1.90147614143495","0","359.9375"
"495","0.514246481290766","-0.720219704771713","0.970477171301063","2.10504634397528","0.901476141434947","0","359.9375"
"498","0.514246481290766","0.279780295228287","0.970477171301063","2.10504634397528","0.901476141434947","0","359.9375"
"504","0.514246481290766","0.279780295228287","0.970477171301063","1.10504634397528","-2.09852385856505","0","359.9375"
"506","-1.48575351870923","0.279780295228287","-5.02952282869894","1.10504634397528","-2.09852385856505","0","359.9375"
"515","-1.48575351870923","0.279780295228287","-5.02952282869894","1.10504634397528","-1.09852385856505","0","359.9375"
"517","0.514246481290766","0.279780295228287","0.970477171301063","1.10504634397528","-1.09852385856505","0","359.9375"
"523","0.514246481290766","0.279780295228287","0.970477171301063","0.105046343975283","-0.0985238585650532","0","359.9375"
"525","-0.485753518709234","-0.720219704771713","1.97047717130106","0.105046343975283","-0.0985238585650532","0","359.9375"
"535","-0.485753518709234","-0.720219704771713","1.97047717130106","-1.89495365602472","-1.09852385856505","0","359.9375"
"538","-0.485753518709234","0.279780295228287","0.970477171301063","-1.89495365602472","-1.09852385856505","0","359.9375"
"544","-0.485753518709234","0.279780295228287","0.970477171301063","1.10504634397528","-0.0985238585650532","0","359.9375"
"546","1.51424648129077","0.279780295228287","-0.0295228286989371","1.10504634397528","-0.0985238585650532","0","359.9375"
"553","1.51424648129077","0.279780295228287","-0.0295228286989371","3.10504634397528","-1.09852385856505","0","359.9375"
"558","0.514246481290766","-0.720219704771713","-2.02952282869894","3.10504634397528","-1.09852385856505","0","359.9375"
"564","0.514246481290766","-0.720219704771713","-2.02952282869894","0.105046343975283","-3.09852385856505","0","359.9375"
"571","0.514246481290766","-0.720219704771713","-1.02952282869894","0.105046343975283","-3.09852385856505","0","359.9375"
"577","0.514246481290766","-0.720219704771713","-1.02952282869894","-0.894953656024717","-1.09852385856505","0","359.9375"
"577","0.514246481290766","1.27978029522829","0.970477171301063","-0.894953656024717","-1.09852385856505","0","359.9375"
"585","0.514246481290766","1.27978029522829","0.970477171301063","-2.89495365602472","-0.0985238585650532","0","359.9375"
"587","0.514246481290766","0.279780295228287","-0.0295228286989371","-2.89495365602472","-0.0985238585650532","0","359.9375"
"593","0.514246481290766","0.279780295228287","-0.0295228286989371","0.105046343975283","-0.0985238585650532","0","359.9375"
"595","0.514246481290766","-0.720219704771713","-2.02952282869894","0.105046343975283","-0.0985238585650532","0","359.9375"
"605","0.514246481290766","-0.720219704771713","-2.02952282869894","1.10504634397528","-1.09852385856505","0","359.9375"
"607","0.514246481290766","0.279780295228287","-1.02952282869894","1.10504634397528","-1.09852385856505","0","359.9375"
"614","0.514246481290766","0.279780295228287","-1.02952282869894","-0.894953656024717","1.90147614143495","0","359.9375"
"616","-0.485753518709234","1.27978029522829","1.97047717130106","-0.894953656024717","1.90147614143495","0","359.9375"
"626","-0.485753518709234","1.27978029522829","1.97047717130106","-1.89495365602472","0.901476141434947","0","359.9375"
"628","0.514246481290766","0.279780295228287","0.970477171301063","-1.89495365602472","0.901476141434947","0","359.9375"
"635","0.514246481290766","0.279780295228287","0.970477171301063","-1.89495365602472","-0.0985238585650532","0","359.9375"
"636","0.514246481290766","0.279780295228287","-0.0295228286989371","-1.89495365602472","-0.0985238585650532","0","359.9375"
"643","0.514246481290766","0.279780295228287","-0.0295228286989371","-1.89495365602472","-0.0985238585650532","0","359.9375"
"644","0.514246481290766","1.27978029522829","0.970477171301063","-1.89495365602472","-0.0985238585650532","0","359.9375"
"655","0.514246481290766","1.27978029522829","0.970477171301063","-0.894953656024717","1.90147614143495","0","359.9375"
"656","0.514246481290766","0.279780295228287","0.970477171301063","-0.894953656024717","1.90147614143495","0","359.9375"
"663","0.514246481290766","0.279780295228287","0.970477171301063","0.105046343975283","0.901476141434947","0","359.9375"
"665","-1.48575351870923","0.279780295228287","-2.02952282869894","0.105046343975283","0.901476141434947","0","359.9375"
"675","-1.48575351870923","0.279780295228287","-2.02952282869894","1.10504634397528","-0.0985238585650532","0","359.9375"
"677","0.514246481290766","0.279780295228287","-1.02952282869894","1.10504634397528","-0.0985238585650532","0","359.9375"
"683","0.514246481290766","0.279780295228287","-1.02952282869894","1.10504634397528","-0.0985238585650532","0","359.9375"
"685","0.514246481290766","-0.720219704771713","1.97047717130106","1.10504634397528","-0.0985238585650532","0","359.9375"
"695","0.514246481290766","-0.720219704771713","1.97047717130106","1.10504634397528","-2.09852385856505","0","359.9375"
"697","0.514246481290766","-1.72021970477171","-0.0295228286989371","1.10504634397528","-2.09852385856505","0","359.9375"
"704","0.514246481290766","-1.72021970477171","-0.0295228286989371","-1.89495365602472","0.901476141434947","0","359.9375"
"706","0.514246481290766","0.279780295228287","-4.02952282869894","-1.89495365602472","0.901476141434947","0","359.9375"
"716","0.514246481290766","0.279780295228287","-4.02952282869894","2.10504634397528","-0.0985238585650532","0","359.9375"
"718","0.514246481290766","0.279780295228287","1.97047717130106","2.10504634397528","-0.0985238585650532","0","359.9375"
"724","0.514246481290766","0.279780295228287","1.97047717130106","1.10504634397528","-0.0985238585650532","0","359.9375"
"726","-0.485753518709234","0.279780295228287","2.97047717130106","1.10504634397528","-0.0985238585650532","0","359.9375"
"732","-0.485753518709234","0.279780295228287","2.97047717130106","0.105046343975283","2.90147614143495","0","359.9375"
"734","0.514246481290766","1.27978029522829","-0.0295228286989371","0.105046343975283","2.90147614143495","0","359.9375"
"744","0.514246481290766","1.27978029522829","-0.0295228286989371","0.105046343975283","-1.09852385856505","0","359.9375"
"747","0.514246481290766","-0.720219704771713","-1.02952282869894","0.105046343975283","-1.09852385856505","0","359.9375"
"754","0.514246481290766","-0.720219704771713","-1.02952282869894","0.105046343975283","1.90147614143495","0","359.9375"
"755","0.514246481290766","0.279780295228287","-2.02952282869894","0.105046343975283","1.90147614143495","0","359.9375"
"765","0.514246481290766","0.279780295228287","-2.02952282869894","-1.89495365602472","-2.09852385856505","0","359.9375"
"767","-0.485753518709234","0.279780295228287","-2.02952282869894","-1.89495365602472","-2.09852385856505","0","359.9375"
"773","-0.485753518709234","0.279780295228287","-2.02952282869894","-2.89495365602472","1.90147614143495","0","359.9375"
"775","-0.485753518709234","-1.72021970477171","0.970477171301063","-2.89495365602472","1.90147614143495","0","359.9375"
"786","-0.485753518709234","-1.72021970477171","0.970477171301063","0.105046343975283","0.901476141434947","0","359.9375"
"787","0.514246481290766","-0.720219704771713","0.970477171301063","0.105046343975283","0.901476141434947","0","359.9375"
"794","0.514246481290766","-0.720219704771713","0.970477171301063","-0.894953656024717","0.901476141434947","0","359.9375"
"796","0.514246481290766","0.279780295228287","2.97047717130106","-0.894953656024717","0.901476141434947","0","359.9375"
"806","0.514246481290766","0.279780295228287","2.97047717130106","-0.894953656024717","-0.0985238585650532","0","359.9375"
"808","0.514246481290766","0.279780295228287","-2.02952282869894","-0.894953656024717","-0.0985238585650532","0","359.9375"
"814","0.514246481290766","0.279780295228287","-2.02952282869894","-3.89495365602472","1.90147614143495","0","359.9375"
"816","-2.48575351870923","0.279780295228287","1.97047717130106","-3.89495365602472","1.90147614143495","0","359.9375"
"823","-2.48575351870923","0.279780295228287","1.97047717130106","0.105046343975283","0.901476141434947","0","359.9375"
"824","-0.485753518709234","0.279780295228287","-1.02952282869894","0.105046343975283","0.901476141434947","0","359.9375"
"835","-0.485753518709234","0.279780295228287","-1.02952282869894","0.105046343975283","-1.09852385856505","0","359.9375"
"837","0.514246481290766","0.279780295228287","0.970477171301063","0.105046343975283","-1.09852385856505","0","359.9375"
"843","0.514246481290766","0.279780295228287","0.970477171301063","1.10504634397528","0.901476141434947","0","359.9375"
"845","0.514246481290766","0.279780295228287","1.97047717130106","1.10504634397528","0.901476141434947","0","359.9375"
"855","0.514246481290766","0.279780295228287","1.97047717130106","1.10504634397528","-0.0985238585650532","0","359.9375"
"857","-0.485753518709234","-0.720219704771713","-1.02952282869894","1.10504634397528","-0.0985238585650532","0","359.9375"
"864","-0.485753518709234","-0.720219704771713","-1.02952282869894","-1.89495365602472","0.901476141434947","0","359.9375"
"865","0.514246481290766","0.279780295228287","0.970477171301063","-1.89495365602472","0.901476141434947","0","359.9375"
"875","0.514246481290766","0.279780295228287","0.970477171301063","-2.89495365602472","-1.09852385856505","0","359.9375"
"878","0.514246481290766","0.279780295228287","0.970477171301063","-2.89495365602472","-1.09852385856505","0","359.9375"
"885","0.514246481290766","0.279780295228287","0.970477171301063","0.105046343975283","-2.09852385856505","0","359.9375"
"886","0.514246481290766","0.279780295228287","0.970477171301063","0.105046343975283","-2.09852385856505","0","359.9375"
"897","0.514246481290766","0.279780295228287","0.970477171301063","-0.894953656024717","-1.09852385856505","0","359.9375"
"898","-1.48575351870923","0.279780295228287","0.970477171301063","-0.894953656024717","-1.09852385856505","0","359.9375"
"905","-1.48575351870923","0.279780295228287","0.970477171301063","0.105046343975283","1.90147614143495","0","359.9375"
"906","0.514246481290766","0.279780295228287","-1.02952282869894","0.105046343975283","1.90147614143495","0","359.9375"
"913","0.514246481290766","0.279780295228287","-1.02952282869894","0.105046343975283","-0.0985238585650532","0","359.9375"
"914","0.514246481290766","0.279780295228287","-2.02952282869894","0.105046343975283","-0.0985238585650532","0","359.9375"
"925","0.514246481290766","0.279780295228287","-2.02952282869894","2.10504634397528","-0.0985238585650532","0","359.9375"
"927","0.514246481290766","0.279780295228287","-1.02952282869894","2.10504634397528","-0.0985238585650532","0","359.9375"
"934","0.514246481290766","0.279780295228287","-1.02952282869894","-0.894953656024717","-3.09852385856505","0","359.9375"
"935","0.514246481290766","-0.720219704771713","0.970477171301063","-0.894953656024717","-3.09852385856505","0","359.9375"
"945","0.514246481290766","-0.720219704771713","0.970477171301063","2.10504634397528","-2.09852385856505","0","359.9375"
"947","0.514246481290766","0.279780295228287","1.97047717130106","2.10504634397528","-2.09852385856505","0","359.9375"
"954","0.514246481290766","0.279780295228287","1.97047717130106","0.105046343975283","-0.0985238585650532","0","359.9375"
"956","-0.485753518709234","0.279780295228287","-0.0295228286989371","0.105046343975283","-0.0985238585650532","0","359.9375"
"966","-0.485753518709234","0.279780295228287","-0.0295228286989371","-1.89495365602472","-0.0985238585650532","0","359.9375"
"968","-0.485753518709234","0.279780295228287","0.970477171301063","-1.89495365602472","-0.0985238585650532","0","359.9375"
"974","-0.485753518709234","0.279780295228287","0.970477171301063","-0.894953656024717","-0.0985238585650532","0","359.9375"
"976","0.514246481290766","1.27978029522829","-0.0295228286989371","-0.894953656024717","-0.0985238585650532","0","359.9375"
"982","0.514246481290766","1.27978029522829","-0.0295228286989371","1.10504634397528","-3.09852385856505","0","359.9375"
"988","0.514246481290766","-0.720219704771713","1.97047717130106","1.10504634397528","-3.09852385856505","0","359.9375"
"994","0.514246481290766","-0.720219704771713","1.97047717130106","0.105046343975283","-2.09852385856505","0","359.9375"
"996","0.514246481290766","0.279780295228287","1.97047717130106","0.105046343975283","-2.09852385856505","0","359.9375"
"1003","0.514246481290766","0.279780295228287","1.97047717130106","0.105046343975283","-2.09852385856505","0","359.9375"
"1005","-0.485753518709234","0.279780295228287","-1.02952282869894","0.105046343975283","-2.09852385856505","0","359.9375"
"1015","-0.485753518709234","0.279780295228287","-1.02952282869894","2.10504634397528","-2.09852385856505","0","359.9375"
"1017","-0.485753518709234","0.279780295228287","-2.02952282869894","2.10504634397528","-2.09852385856505","0","359.9375"
"1024","-0.485753518709234","0.279780295228287","-2.02952282869894","1.10504634397528","-0.0985238585650532","0","359.9375"
"1025","-0.485753518709234","0.279780295228287","0.970477171301063","1.10504634397528","-0.0985238585650532","0","359.9375"
"1035","-0.485753518709234","0.279780295228287","0.970477171301063","2.10504634397528","-1.09852385856505","0","359.9375"
"1037","-0.485753518709234","1.27978029522829","-0.0295228286989371","2.10504634397528","-1.09852385856505","0","359.9375"
"1044","-0.485753518709234","1.27978029522829","-0.0295228286989371","3.10504634397528","-3.09852385856505","0","359.9375"
"1046","-1.48575351870923","-1.72021970477171","-1.02952282869894","3.10504634397528","-3.09852385856505","0","359.9375"
"1056","-1.48575351870923","-1.72021970477171","-1.02952282869894","0.105046343975283","-3.09852385856505","0","359.9375"
"1058","0.514246481290766","0.279780295228287","0.970477171301063","0.105046343975283","-3.09852385856505","0","359.9375"
"1065","0.514246481290766","0.279780295228287","0.970477171301063","1.10504634397528","-5.09852385856505","0","359.9375"
"1066","0.514246481290766","0.279780295228287","0.970477171301063","1.10504634397528","-5.09852385856505","0","359.9375"
"1072","0.514246481290766","0.279780295228287","0.970477171301063","-0.894953656024717","-2.09852385856505","0","359.9375"
"1078","0.514246481290766","-0.720219704771713","1.97047717130106","-0.894953656024717","-2.09852385856505","0","359.9375"
"1086","0.514246481290766","-0.720219704771713","1.97047717130106","-0.894953656024717","-2.09852385856505","0","359.9375"
"1086","0.514246481290766","0.279780295228287","-0.0295228286989371","-0.894953656024717","-2.09852385856505","0","359.9375"
"1093","0.514246481290766","0.279780295228287","-0.0295228286989371","3.10504634397528","-1.09852385856505","0","359.9375"
"1095","0.514246481290766","-1.72021970477171","1.97047717130106","3.10504634397528","-1.09852385856505","0","359.9375"
"1105","0.514246481290766","-1.72021970477171","1.97047717130106","0.105046343975283","0.901476141434947","0","359.9375"
"1107","0.514246481290766","0.279780295228287","-1.02952282869894","0.105046343975283","0.901476141434947","0","359.9375"
"1113","0.514246481290766","0.279780295228287","-1.02952282869894","-0.894953656024717","-2.09852385856505","0","359.9375"
"1115","-0.485753518709234","-0.720219704771713","-0.0295228286989371","-0.894953656024717","-2.09852385856505","0","359.9375"
"1126","-0.485753518709234","-0.720219704771713","-0.0295228286989371","0.105046343975283","-2.09852385856505","0","359.9375"
"1128","-0.485753518709234","0.279780295228287","-0.0295228286989371","0.105046343975283","-2.09852385856505","0","359.9375"
"1134","-0.485753518709234","0.279780295228287","-0.0295228286989371","2.10504634397528","-1.09852385856505","0","359.9375"
"1136","-0.485753518709234","0.279780295228287","1.97047717130106","2.10504634397528","-1.09852385856505","0","359.9375"
"1146","-0.485753518709234","0.279780295228287","1.97047717130106","2.10504634397528","-2.09852385856505","0","359.9375"
"1148","0.514246481290766","-1.72021970477171","1.97047717130106","2.10504634397528","-2.09852385856505","0","359.9375"
"1154","0.514246481290766","-1.72021970477171","1.97047717130106","-0.894953656024717","-4.09852385856505","0","359.9375"
"1156","0.514246481290766","-1.72021970477171","-0.0295228286989371","-0.894953656024717","-4.09852385856505","0","359.9375"
"1162","0.514246481290766","-1.72021970477171","-0.0295228286989371","1.10504634397528","-2.09852385856505","0","359.9375"
"1168","-0.485753518709234","1.27978029522829","1.97047717130106","1.10504634397528","-2.09852385856505","0","359.9375"
"1175","-0.485753518709234","1.27978029522829","1.97047717130106","2.10504634397528","-1.09852385856505","0","359.9375"
"1177","0.514246481290766","0.279780295228287","1.97047717130106","2.10504634397528","-1.09852385856505","0","359.9375"
"1183","0.514246481290766","0.279780295228287","1.97047717130106","-0.894953656024717","-1.09852385856505","0","359.9375"
"1185","-1.48575351870923","0.279780295228287","-0.0295228286989371","-0.894953656024717","-1.09852385856505","0","359.9375"
"1195","-1.48575351870923","0.279780295228287","-0.0295228286989371","0.105046343975283","-2.09852385856505","0","359.9375"
"1197","0.514246481290766","0.279780295228287","0.970477171301063","0.105046343975283","-2.09852385856505","0","359.9375"
"1203","0.514246481290766","0.279780295228287","0.970477171301063","0.105046343975283","-2.09852385856505","0","359.9375"
"1205","0.514246481290766","0.279780295228287","-1.02952282869894","0.105046343975283","-2.09852385856505","0","359.9375"
"1216","0.514246481290766","0.279780295228287","-1.02952282869894","1.10504634397528","-0.0985238585650532","0","359.9375"
"1218","0.514246481290766","0.279780295228287","-1.02952282869894","1.10504634397528","-0.0985238585650532","0","359.9375"
"1224","0.514246481290766","0.279780295228287","-1.02952282869894","-0.894953656024717","1.90147614143495","0","359.9375"
"1226","0.514246481290766","0.279780295228287","-0.0295228286989371","-0.894953656024717","1.90147614143495","0","359.9375"
"1236","0.514246481290766","0.279780295228287","-0.0295228286989371","-0.894953656024717","-4.09852385856505","0","359.9375"
"1238","-2.48575351870923","0.279780295228287","0.970477171301063","-0.894953656024717","-4.09852385856505","0","359.9375"
"1244","-2.48575351870923","0.279780295228287","0.970477171301063","1.10504634397528","-1.09852385856505","0","359.9375"
"1246","0.514246481290766","0.279780295228287","0.970477171301063","1.10504634397528","-1.09852385856505","0","359.9375"
"1253","0.514246481290766","0.279780295228287","0.970477171301063","1.10504634397528","0.901476141434947","0","359.9375"
"1254","-0.485753518709234","0.279780295228287","-2.02952282869894","1.10504634397528","0.901476141434947","0","359.9375"
"1265","-0.485753518709234","0.279780295228287","-2.02952282869894","1.10504634397528","-0.0985238585650532","0","359.9375"
"1267","0.514246481290766","0.279780295228287","-0.0295228286989371","1.10504634397528","-0.0985238585650532","0","359.9375"
"1276","0.514246481290766","0.279780295228287","-0.0295228286989371","0.105046343975283","-1.09852385856505","0","359.9375"
"1276","0.514246481290766","1.27978029522829","0.970477171301063","0.105046343975283","-1.09852385856505","0","359.9375"
"1287","0.514246481290766","1.27978029522829","0.970477171301063","0.105046343975283","-0.0985238585650532","0","359.9375"
"1287","0.514246481290766","0.279780295228287","-0.0295228286989371","0.105046343975283","-0.0985238585650532","0","359.9375"
"1294","0.514246481290766","0.279780295228287","-0.0295228286989371","0.105046343975283","-1.09852385856505","0","359.9375"
"1295","0.514246481290766","-0.720219704771713","-1.02952282869894","0.105046343975283","-1.09852385856505","0","359.9375"
"1306","0.514246481290766","-0.720219704771713","-1.02952282869894","-0.894953656024717","1.90147614143495","0","359.9375"
"1308","-0.485753518709234","1.27978029522829","-3.02952282869894","-0.894953656024717","1.90147614143495","0","359.9375"
"1314","-0.485753518709234","1.27978029522829","-3.02952282869894","2.10504634397528","0.901476141434947","0","359.9375"
"1316","-0.485753518709234","2.27978029522829","-2.02952282869894","2.10504634397528","0.901476141434947","0","359.9375"
"1326","-0.485753518709234","2.27978029522829","-2.02952282869894","1.10504634397528","-1.09852385856505","0","359.9375"
"1328","1.51424648129077","0.279780295228287","-0.0295228286989371","1.10504634397528","-1.09852385856505","0","359.9375"
"1335","1.51424648129077","0.279780295228287","-0.0295228286989371","1.10504634397528","-2.09852385856505","0","359.9375"
"1336","-0.485753518709234","0.279780295228287","1.97047717130106","1.10504634397528","-2.09852385856505","0","359.9375"
"1343","-0.485753518709234","0.279780295228287","1.97047717130106","2.10504634397528","-3.09852385856505","0","359.9375"
"1344","0.514246481290766","-0.720219704771713","0.970477171301063","2.10504634397528","-3.09852385856505","0","359.9375"
"1355","0.514246481290766","-0.720219704771713","0.970477171301063","0.105046343975283","-0.0985238585650532","0","359.9375"
"1357","0.514246481290766","0.279780295228287","-1.02952282869894","0.105046343975283","-0.0985238585650532","0","359.9375"
"1363","0.514246481290766","0.279780295228287","-1.02952282869894","0.105046343975283","-1.09852385856505","0","359.9375"
"1365","0.514246481290766","0.279780295228287","-0.0295228286989371","0.105046343975283","-1.09852385856505","0","359.9375"
"1376","0.514246481290766","0.279780295228287","-0.0295228286989371","0.105046343975283","-0.0985238585650532","0","359.9375"
"1377","1.51424648129077","-2.72021970477171","0.970477171301063","0.105046343975283","-0.0985238585650532","0","359.9375"
"1383","1.51424648129077","-2.72021970477171","0.970477171301063","2.10504634397528","-1.09852385856505","0","359.9375"
"1385","0.514246481290766","0.279780295228287","-0.0295228286989371","2.10504634397528","-1.09852385856505","0","359.9375"
"1396","0.514246481290766","0.279780295228287","-0.0295228286989371","2.10504634397528","-0.0985238585650532","0","359.9375"
"1398","-0.485753518709234","1.27978029522829","-0.0295228286989371","2.10504634397528","-0.0985238585650532","0","359.9375"
"1404","-0.485753518709234","1.27978029522829","-0.0295228286989371","4.10504634397528","0.901476141434947","0","359.9375"
"1406","0.514246481290766","0.279780295228287","0.970477171301063","4.10504634397528","0.901476141434947","0","359.9375"
"1412","0.514246481290766","0.279780295228287","0.970477171301063","0.105046343975283","0.901476141434947","0","359.9375"
"1418","-0.485753518709234","0.279780295228287","0.970477171301063","0.105046343975283","0.901476141434947","0","359.9375"
"1425","-0.485753518709234","0.279780295228287","0.970477171301063","-1.89495365602472","0.901476141434947","0","359.9375"
"1427","1.51424648129077","-0.720219704771713","1.97047717130106","-1.89495365602472","0.901476141434947","0","359.9375"
"1433","1.51424648129077","-0.720219704771713","1.97047717130106","0.105046343975283","1.90147614143495","0","359.9375"
"1435","0.514246481290766","0.279780295228287","1.97047717130106","0.105046343975283","1.90147614143495","0","359.9375"
"1445","0.514246481290766","0.279780295228287","1.97047717130106","-1.89495365602472","-1.09852385856505","0","359.9375"
"1447","-0.485753518709234","0.279780295228287","0.970477171301063","-1.89495365602472","-1.09852385856505","0","359.9375"
"1453","-0.485753518709234","0.279780295228287","0.970477171301063","-1.89495365602472","-2.09852385856505","0","359.9375"
"1455","-2.48575351870923","0.279780295228287","-0.0295228286989371","-1.89495365602472","-2.09852385856505","0","359.9375"
"1466","-2.48575351870923","0.279780295228287","-0.0295228286989371","-0.894953656024717","0.901476141434947","0","359.9375"
"1468","-0.485753518709234","0.279780295228287","-1.02952282869894","-0.894953656024717","0.901476141434947","0","359.9375"
"1474","-0.485753518709234","0.279780295228287","-1.02952282869894","-1.89495365602472","-0.0985238585650532","0","359.9375"
"1476","-0.485753518709234","1.27978029522829","-1.02952282869894","-1.89495365602472","-0.0985238585650532","0","359.9375"
"1488","-0.485753518709234","1.27978029522829","-1.02952282869894","-0.894953656024717","-0.0985238585650532","0","359.9375"
"1488","-0.485753518709234","1.27978029522829","-0.0295228286989371","-0.894953656024717","-0.0985238585650532","0","359.9375"
"1496","-0.485753518709234","1.27978029522829","-0.0295228286989371","3.10504634397528","-2.09852385856505","0","359.9375"
"1496","0.514246481290766","-0.720219704771713","-2.02952282869894","3.10504634397528","-2.09852385856505","0","359.9375"
"1503","0.514246481290766","-0.720219704771713","-2.02952282869894","1.10504634397528","1.90147614143495","0","359.9375"
"1508","1.51424648129077","-0.720219704771713","-1.02952282869894","1.10504634397528","1.90147614143495","0","359.9375"
"1514","1.51424648129077","-0.720219704771713","-1.02952282869894","1.10504634397528","-4.09852385856505","0","359.9375"
"1517","0.514246481290766","1.27978029522829","-2.02952282869894","1.10504634397528","-4.09852385856505","0","359.9375"
"1522","0.514246481290766","1.27978029522829","-2.02952282869894","-3.89495365602472","-0.0985238585650532","0","359.9375"
"1525","-1.48575351870923","-0.720219704771713","-0.0295228286989371","-3.89495365602472","-0.0985238585650532","0","359.9375"
"1535","-1.48575351870923","-0.720219704771713","-0.0295228286989371","1.10504634397528","0.901476141434947","0","359.9375"
"1537","-0.485753518709234","0.279780295228287","1.97047717130106","1.10504634397528","0.901476141434947","0","359.9375"
"1543","-0.485753518709234","0.279780295228287","1.97047717130106","1.10504634397528","-0.0985238585650532","0","359.9375"
"1545","0.514246481290766","0.279780295228287","0.970477171301063","1.10504634397528","-0.0985238585650532","0","359.9375"
"1556","0.514246481290766","0.279780295228287","0.970477171301063","1.10504634397528","0.901476141434947","0","359.9375"
"1558","-1.48575351870923","0.279780295228287","0.970477171301063","1.10504634397528","0.901476141434947","0","359.9375"
"1564","-1.48575351870923","0.279780295228287","0.970477171301063","-0.894953656024717","-1.09852385856505","0","359.9375"
"1566","0.514246481290766","0.279780295228287","0.970477171301063","-0.894953656024717","-1.09852385856505","0","359.9375"
"1576","0.514246481290766","0.279780295228287","0.970477171301063","3.10504634397528","-0.0985238585650532","0","359.9375"
"1578","-0.485753518709234","0.279780295228287","-2.02952282869894","3.10504634397528","-0.0985238585650532","0","359.9375"
"1585","-0.485753518709234","0.279780295228287","-2.02952282869894","-2.89495365602472","-1.09852385856505","0","359.9375"
"1586","-0.485753518709234","0.279780295228287","0.970477171301063","-2.89495365602472","-1.09852385856505","0","359.9375"
"1593","-0.485753518709234","0.279780295228287","0.970477171301063","-0.894953656024717","-1.09852385856505","0","359.9375"
"1598","-1.48575351870923","0.279780295228287","-0.0295228286989371","-0.894953656024717","-1.09852385856505","0","359.9375"
"1606","-1.48575351870923","0.279780295228287","-0.0295228286989371","0.105046343975283","-0.0985238585650532","0","359.9375"
"1607","-2.48575351870923","0.279780295228287","-1.02952282869894","0.105046343975283","-0.0985238585650532","0","359.9375"
"1613","-2.48575351870923","0.279780295228287","-1.02952282869894","-1.89495365602472","-0.0985238585650532","0","359.9375"
"1615","0.514246481290766","0.279780295228287","-1.02952282869894","-1.89495365602472","-0.0985238585650532","0","359.9375"
"1625","0.514246481290766","0.279780295228287","-1.02952282869894","2.10504634397528","-0.0985238585650532","0","359.9375"
"1627","-1.48575351870923","0.279780295228287","-0.0295228286989371","2.10504634397528","-0.0985238585650532","0","359.9375"
"1634","-1.48575351870923","0.279780295228287","-0.0295228286989371","0.105046343975283","-1.09852385856505","0","359.9375"
"1635","-1.48575351870923","0.279780295228287","1.97047717130106","0.105046343975283","-1.09852385856505","0","359.9375"
"1645","-1.48575351870923","0.279780295228287","1.97047717130106","1.10504634397528","-2.09852385856505","0","359.9375"
"1648","0.514246481290766","0.279780295228287","-1.02952282869894","1.10504634397528","-2.09852385856505","0","359.9375"
"1654","0.514246481290766","0.279780295228287","-1.02952282869894","2.10504634397528","-2.09852385856505","0","359.9375"
"1656","0.514246481290766","-0.720219704771713","-3.02952282869894","2.10504634397528","-2.09852385856505","0","359.9375"
"1666","0.514246481290766","-0.720219704771713","-3.02952282869894","0.105046343975283","1.90147614143495","0","359.9375"
"1668","0.514246481290766","-0.720219704771713","1.97047717130106","0.105046343975283","1.90147614143495","0","359.9375"
"1674","0.514246481290766","-0.720219704771713","1.97047717130106","1.10504634397528","1.90147614143495","0","359.9375"
"1676","-0.485753518709234","0.279780295228287","-0.0295228286989371","1.10504634397528","1.90147614143495","0","359.9375"
"1687","-0.485753518709234","0.279780295228287","-0.0295228286989371","0.105046343975283","0.901476141434947","0","359.9375"
"1689","-0.485753518709234","0.279780295228287","-0.0295228286989371","0.105046343975283","0.901476141434947","0","359.9375"
"1696","-0.485753518709234","0.279780295228287","-0.0295228286989371","-0.894953656024717","-1.09852385856505","0","359.9375"
"1697","-0.485753518709234","0.279780295228287","0.970477171301063","-0.894953656024717","-1.09852385856505","0","359.9375"
"1705","-0.485753518709234","0.279780295228287","0.970477171301063","0.105046343975283","-0.0985238585650532","0","359.9375"
"1709","0.514246481290766","0.279780295228287","-0.0295228286989371","0.105046343975283","-0.0985238585650532","0","359.9375"
"1717","0.514246481290766","0.279780295228287","-0.0295228286989371","1.10504634397528","0.901476141434947","0","359.9375"
"1717","0.514246481290766","0.279780295228287","-0.0295228286989371","1.10504634397528","0.901476141434947","0","359.9375"
"1724","0.514246481290766","0.279780295228287","-0.0295228286989371","-2.89495365602472","-0.0985238585650532","0","359.9375"
"1725","0.514246481290766","1.27978029522829","1.97047717130106","-2.89495365602472","-0.0985238585650532","0","359.9375"
"1736","0.514246481290766","1.27978029522829","1.97047717130106","1.10504634397528","-0.0985238585650532","0","359.9375"
"1738","1.51424648129077","-0.720219704771713","0.970477171301063","1.10504634397528","-0.0985238585650532","0","359.9375"
"1743","1.51424648129077","-0.720219704771713","0.970477171301063","1.10504634397528","-0.0985238585650532","0","359.9375"
"1746","0.514246481290766","0.279780295228287","-1.02952282869894","1.10504634397528","-0.0985238585650532","0","359.9375"
"1755","0.514246481290766","0.279780295228287","-1.02952282869894","1.10504634397528","0.901476141434947","0","359.9375"
"1758","-0.485753518709234","0.279780295228287","-2.02952282869894","1.10504634397528","0.901476141434947","0","359.9375"
"1764","-0.485753518709234","0.279780295228287","-2.02952282869894","3.10504634397528","-0.0985238585650532","0","359.9375"
"1766","1.51424648129077","0.279780295228287","-0.0295228286989371","3.10504634397528","-0.0985238585650532","0","359.9375"
"1772","1.51424648129077","0.279780295228287","-0.0295228286989371","1.10504634397528","-0.0985238585650532","0","359.9375"
"1779","0.514246481290766","-1.72021970477171","1.97047717130106","1.10504634397528","-0.0985238585650532","0","359.9375"
"1785","0.514246481290766","-1.72021970477171","1.97047717130106","0.105046343975283","-3.09852385856505","0","359.9375"
"1787","-1.48575351870923","-0.720219704771713","0.970477171301063","0.105046343975283","-3.09852385856505","0","359.9375"
"1793","-1.48575351870923","-0.720219704771713","0.970477171301063","2.10504634397528","-1.09852385856505","0","359.9375"
"1795","-0.485753518709234","0.279780295228287","-0.0295228286989371","2.10504634397528","-1.09852385856505","0","359.9375"
"1805","-0.485753518709234","0.279780295228287","-0.0295228286989371","1.10504634397528","-2.09852385856505","0","359.9375"
"1807","-0.485753518709234","0.279780295228287","-2.02952282869894","1.10504634397528","-2.09852385856505","0","359.9375"
"1814","-0.485753518709234","0.279780295228287","-2.02952282869894","3.10504634397528","-1.09852385856505","0","359.9375"
"1816","-0.485753518709234","0.279780295228287","0.970477171301063","3.10504634397528","-1.09852385856505","0","359.9375"
"1826","-0.485753518709234","0.279780295228287","0.970477171301063","2.10504634397528","0.901476141434947","0","359.9375"
"1828","0.514246481290766","0.279780295228287","1.97047717130106","2.10504634397528","0.901476141434947","0","359.9375"
"1835","0.514246481290766","0.279780295228287","1.97047717130106","-0.894953656024717","-1.09852385856505","0","359.9375"
"1836","-1.48575351870923","-0.720219704771713","-0.0295228286989371","-0.894953656024717","-1.09852385856505","0","359.9375"
"1846","-1.48575351870923","-0.720219704771713","-0.0295228286989371","0.105046343975283","-2.09852385856505","0","359.9375"
"1848","0.514246481290766","0.279780295228287","-0.0295228286989371","0.105046343975283","-2.09852385856505","0","359.9375"
"1855","0.514246481290766","0.279780295228287","-0.0295228286989371","-3.89495365602472","2.90147614143495","0","359.9375"
"1857","0.514246481290766","0.279780295228287","-1.02952282869894","-3.89495365602472","2.90147614143495","0","359.9375"
"1863","0.514246481290766","0.279780295228287","-1.02952282869894","-2.89495365602472","3.90147614143495","0","359.9375"
"1869","0.514246481290766","0.279780295228287","-1.02952282869894","-2.89495365602472","3.90147614143495","0","359.9375"
"1875","0.514246481290766","0.279780295228287","-1.02952282869894","0.105046343975283","-0.0985238585650532","0","359.9375"
"1877","-0.485753518709234","1.27978029522829","0.970477171301063","0.105046343975283","-0.0985238585650532","0","359.9375"
"1884","-0.485753518709234","1.27978029522829","0.970477171301063","0.105046343975283","0.901476141434947","0","359.9375"
"1885","0.514246481290766","0.279780295228287","0.970477171301063","0.105046343975283","0.901476141434947","0","359.9375"
"1896","0.514246481290766","0.279780295228287","0.970477171301063","-0.894953656024717","1.90147614143495","0","359.9375"
"1898","0.514246481290766","0.279780295228287","0.970477171301063","-0.894953656024717","1.90147614143495","0","359.9375"
"1905","0.514246481290766","0.279780295228287","0.970477171301063","0.105046343975283","0.901476141434947","0","359.9375"
"1906","0.514246481290766","1.27978029522829","-3.02952282869894","0.105046343975283","0.901476141434947","0","359.9375"
"1916","0.514246481290766","1.27978029522829","-3.02952282869894","1.10504634397528","-0.0985238585650532","0","359.9375"
"1918","0.514246481290766","0.279780295228287","0.970477171301063","1.10504634397528","-0.0985238585650532","0","359.9375"
"1925","0.514246481290766","0.279780295228287","0.970477171301063","-0.894953656024717","-0.0985238585650532","0","359.9375"
"1926","0.514246481290766","0.279780295228287","0.970477171301063","-0.894953656024717","-0.0985238585650532","0","359.9375"
"1937","0.514246481290766","0.279780295228287","0.970477171301063","-2.89495365602472","-0.0985238585650532","0","359.9375"
"1938","0.514246481290766","1.27978029522829","2.97047717130106","-2.89495365602472","-0.0985238585650532","0","359.9375"
"1945","0.514246481290766","1.27978029522829","2.97047717130106","-1.89495365602472","-0.0985238585650532","0","359.9375"
"1947","-0.485753518709234","0.279780295228287","0.970477171301063","-1.89495365602472","-0.0985238585650532","0","359.9375"
"1957","-0.485753518709234","0.279780295228287","0.970477171301063","0.105046343975283","-0.0985238585650532","0","359.9375"
"1959","0.514246481290766","-1.72021970477171","-2.02952282869894","0.105046343975283","-0.0985238585650532","0","359.9375"
"1966","0.514246481290766","-1.72021970477171","-2.02952282869894","-1.89495365602472","0.901476141434947","0","359.9375"
"1967","-0.485753518709234","0.279780295228287","-2.02952282869894","-1.89495365602472","0.901476141434947","0","359.9375"
"1977","-0.485753518709234","0.279780295228287","-2.02952282869894","-1.89495365602472","-1.09852385856505","0","359.9375"
"1979","0.514246481290766","0.279780295228287","0.970477171301063","-1.89495365602472","-1.09852385856505","0","359.9375"
"1986","0.514246481290766","0.279780295228287","0.970477171301063","-2.89495365602472","-1.09852385856505","0","359.9375"
"1988","0.514246481290766","-1.72021970477171","0.970477171301063","-2.89495365602472","-1.09852385856505","0","359.9375"
"1994","0.514246481290766","-1.72021970477171","0.970477171301063","0.105046343975283","-1.09852385856505","0","359.9375"
"1996","-1.48575351870923","0.279780295228287","0.970477171301063","0.105046343975283","-1.09852385856505","0","359.9375"
"2006","-1.48575351870923","0.279780295228287","0.970477171301063","0.105046343975283","-1.09852385856505","0","359.9375"
"2008","-1.48575351870923","0.279780295228287","0.970477171301063","0.105046343975283","-1.09852385856505","0","359.9375"
"2015","-1.48575351870923","0.279780295228287","0.970477171301063","-3.89495365602472","-0.0985238585650532","0","359.9375"
"2016","0.514246481290766","-0.720219704771713","-0.0295228286989371","-3.89495365602472","-0.0985238585650532","0","359.9375"
"2027","0.514246481290766","-0.720219704771713","-0.0295228286989371","-0.894953656024717","-1.09852385856505","0","359.9375"
"2029","-0.485753518709234","1.27978029522829","-2.02952282869894","-0.894953656024717","-1.09852385856505","0","359.9375"
"2035","-0.485753518709234","1.27978029522829","-2.02952282869894","0.105046343975283","0.901476141434947","0","359.9375"
"2037","-0.485753518709234","0.279780295228287","2.97047717130106","0.105046343975283","0.901476141434947","0","359.9375"
"2047","-0.485753518709234","0.279780295228287","2.97047717130106","-1.89495365602472","1.90147614143495","0","359.9375"
"2049","-0.485753518709234","-0.720219704771713","-0.0295228286989371","-1.89495365602472","1.90147614143495","0","359.9375"
"2055","-0.485753518709234","-0.720219704771713","-0.0295228286989371","1.10504634397528","-1.09852385856505","0","359.9375"
"2057","0.514246481290766","-0.720219704771713","-4.02952282869894","1.10504634397528","-1.09852385856505","0","359.9375"
"2064","0.514246481290766","-0.720219704771713","-4.02952282869894","1.10504634397528","-0.0985238585650532","0","359.9375"
"2070","-0.485753518709234","0.279780295228287","-0.0295228286989371","1.10504634397528","-0.0985238585650532","0","359.9375"
"2076","-0.485753518709234","0.279780295228287","-0.0295228286989371","1.10504634397528","-2.09852385856505","0","359.9375"
"2078","0.514246481290766","-1.72021970477171","-0.0295228286989371","1.10504634397528","-2.09852385856505","0","359.9375"
"2085","0.514246481290766","-1.72021970477171","-0.0295228286989371","0.105046343975283","0.901476141434947","0","359.9375"
"2086","0.514246481290766","0.279780295228287","0.970477171301063","0.105046343975283","0.901476141434947","0","359.9375"
"2097","0.514246481290766","0.279780295228287","0.970477171301063","1.10504634397528","-1.09852385856505","0","359.9375"
"2098","-2.48575351870923","0.279780295228287","1.97047717130106","1.10504634397528","-1.09852385856505","0","359.9375"
"2110","-2.48575351870923","0.279780295228287","1.97047717130106","-2.89495365602472","1.90147614143495","0","359.9375"
"2110","0.514246481290766","-1.72021970477171","-1.02952282869894","-2.89495365602472","1.90147614143495","0","359.9375"
"2118","0.514246481290766","-1.72021970477171","-1.02952282869894","-0.894953656024717","-1.09852385856505","0","359.9375"
"2119","0.514246481290766","0.279780295228287","0.970477171301063","-0.894953656024717","-1.09852385856505","0","359.9375"
"2125","0.514246481290766","0.279780295228287","0.970477171301063","2.10504634397528","-1.09852385856505","0","359.9375"
"2127","-0.485753518709234","0.279780295228287","1.97047717130106","2.10504634397528","-1.09852385856505","0","359.9375"
"2137","-0.485753518709234","0.279780295228287","1.97047717130106","-1.89495365602472","2.90147614143495","0","359.9375"
"2139","-0.485753518709234","0.279780295228287","0.970477171301063","-1.89495365602472","2.90147614143495","0","359.9375"
"2145","-0.485753518709234","0.279780295228287","0.970477171301063","3.10504634397528","0.901476141434947","0","359.9375"
"2147","-0.485753518709234","-0.720219704771713","1.97047717130106","3.10504634397528","0.901476141434947","0","359.9375"
"2157","-0.485753518709234","-0.720219704771713","1.97047717130106","1.10504634397528","-1.09852385856505","0","359.9375"
"2160","-1.48575351870923","0.279780295228287","-3.02952282869894","1.10504634397528","-1.09852385856505","0","359.9375"
"2165","-1.48575351870923","0.279780295228287","-3.02952282869894","-2.89495365602472","-1.09852385856505","0","359.9375"
"2168","0.514246481290766","0.279780295228287","0.970477171301063","-2.89495365602472","-1.09852385856505","0","359.9375"
"2173","0.514246481290766","0.279780295228287","0.970477171301063","-2.89495365602472","0.901476141434947","0","359.9375"
"2176","0.514246481290766","0.279780295228287","0.970477171301063","-2.89495365602472","0.901476141434947","0","359.9375"
"2186","0.514246481290766","0.279780295228287","0.970477171301063","2.10504634397528","-2.09852385856505","0","359.9375"
"2188","0.514246481290766","1.27978029522829","0.970477171301063","2.10504634397528","-2.09852385856505","0","359.9375"
"2194","0.514246481290766","1.27978029522829","0.970477171301063","-0.894953656024717","0.901476141434947","0","359.9375"
"2196","-0.485753518709234","0.279780295228287","1.97047717130106","-0.894953656024717","0.901476141434947","0","359.9375"
"2207","-0.485753518709234","0.279780295228287","1.97047717130106","-0.894953656024717","0.901476141434947","0","359.9375"
"2209","0.514246481290766","-0.720219704771713","0.970477171301063","-0.894953656024717","0.901476141434947","0","359.9375"
"2215","0.514246481290766","-0.720219704771713","0.970477171301063","0.105046343975283","1.90147614143495","0","359.9375"
"2217","0.514246481290766","0.279780295228287","0.970477171301063","0.105046343975283","1.90147614143495","0","359.9375"
"2227","0.514246481290766","0.279780295228287","0.970477171301063","0.105046343975283","0.901476141434947","0","359.9375"
"2229","0.514246481290766","1.27978029522829","-1.02952282869894","0.105046343975283","0.901476141434947","0","359.9375"
"2236","0.514246481290766","1.27978029522829","-1.02952282869894","-2.89495365602472","-4.09852385856505","0","359.9375"
"2238","-0.485753518709234","0.279780295228287","-0.0295228286989371","-2.89495365602472","-4.09852385856505","0","359.9375"
"2247","-0.485753518709234","0.279780295228287","-0.0295228286989371","-1.89495365602472","0.901476141434947","0","359.9375"
"2250","0.514246481290766","1.27978029522829","-2.02952282869894","-1.89495365602472","0.901476141434947","0","359.9375"
"2256","0.514246481290766","1.27978029522829","-2.02952282869894","-0.894953656024717","-2.09852385856505","0","359.9375"
"2258","-0.485753518709234","0.279780295228287","-2.02952282869894","-0.894953656024717","-2.09852385856505","0","359.9375"
"2264","-0.485753518709234","0.279780295228287","-2.02952282869894","-2.89495365602472","0.901476141434947","0","359.9375"
"2266","0.514246481290766","-0.720219704771713","-1.02952282869894","-2.89495365602472","0.901476141434947","0","359.9375"
"2276","0.514246481290766","-0.720219704771713","-1.02952282869894","0.105046343975283","-0.0985238585650532","0","359.9375"
"2278","-2.48575351870923","1.27978029522829","-1.02952282869894","0.105046343975283","-0.0985238585650532","0","359.9375"
"2285","-2.48575351870923","1.27978029522829","-1.02952282869894","-0.894953656024717","0.901476141434947","0","359.9375"
"2287","0.514246481290766","0.279780295228287","-1.02952282869894","-0.894953656024717","0.901476141434947","0","359.9375"
"2298","0.514246481290766","0.279780295228287","-1.02952282869894","-1.89495365602472","0.901476141434947","0","359.9375"
"2299","-0.485753518709234","-0.720219704771713","-0.0295228286989371","-1.89495365602472","0.901476141434947","0","359.9375"
"2305","-0.485753518709234","-0.720219704771713","-0.0295228286989371","1.10504634397528","-1.09852385856505","0","359.9375"
"2307","0.514246481290766","0.279780295228287","-1.02952282869894","1.10504634397528","-1.09852385856505","0","359.9375"
"2319","0.514246481290766","0.279780295228287","-1.02952282869894","2.10504634397528","-0.0985238585650532","0","359.9375"
"2319","0.514246481290766","0.279780295228287","-2.02952282869894","2.10504634397528","-0.0985238585650532","0","359.9375"
"2326","0.514246481290766","0.279780295228287","-2.02952282869894","0.105046343975283","0.901476141434947","0","359.9375"
"2328","0.514246481290766","0.279780295228287","-0.0295228286989371","0.105046343975283","0.901476141434947","0","359.9375"
"2338","0.514246481290766","0.279780295228287","-0.0295228286989371","-0.894953656024717","0.901476141434947","0","359.9375"
"2340","0.514246481290766","0.279780295228287","-0.0295228286989371","-0.894953656024717","0.901476141434947","0","359.9375"
"2347","0.514246481290766","0.279780295228287","-0.0295228286989371","-1.89495365602472","-2.09852385856505","0","359.9375"
"2348","-0.485753518709234","0.279780295228287","0.970477171301063","-1.89495365602472","-2.09852385856505","0","359.9375"
"2355","-0.485753518709234","0.279780295228287","0.970477171301063","-0.894953656024717","-2.09852385856505","0","359.9375"
"2356","-0.485753518709234","0.279780295228287","-4.02952282869894","-0.894953656024717","-2.09852385856505","0","359.9375"
"2367","-0.485753518709234","0.279780295228287","-4.02952282869894","-3.89495365602472","1.90147614143495","0","359.9375"
"2369","0.514246481290766","0.279780295228287","-0.0295228286989371","-3.89495365602472","1.90147614143495","0","359.9375"
"2375","0.514246481290766","0.279780295228287","-0.0295228286989371","0.105046343975283","0.901476141434947","0","359.9375"
"2377","0.514246481290766","0.279780295228287","0.970477171301063","0.105046343975283","0.901476141434947","0","359.9375"
"2387","0.514246481290766","0.279780295228287","0.970477171301063","-0.894953656024717","0.901476141434947","0","359.9375"
"2389","-0.485753518709234","0.279780295228287","-1.02952282869894","-0.894953656024717","0.901476141434947","0","359.9375"
"2395","-0.485753518709234","0.279780295228287","-1.02952282869894","2.10504634397528","-0.0985238585650532","0","359.9375"
"2397","-0.485753518709234","-1.72021970477171","1.97047717130106","2.10504634397528","-0.0985238585650532","0","359.9375"
"2407","-0.485753518709234","-1.72021970477171","1.97047717130106","2.10504634397528","-0.0985238585650532","0","359.9375"
"2410","0.514246481290766","0.279780295228287","-2.02952282869894","2.10504634397528","-0.0985238585650532","0","359.9375"
"2416","0.514246481290766","0.279780295228287","-2.02952282869894","2.10504634397528","0.901476141434947","0","359.9375"
"2418","0.514246481290766","1.27978029522829","0.970477171301063","2.10504634397528","0.901476141434947","0","359.9375"
"2428","0.514246481290766","1.27978029522829","0.970477171301063","0.105046343975283","0.901476141434947","0","359.9375"
"2430","-0.485753518709234","-1.72021970477171","-1.02952282869894","0.105046343975283","0.901476141434947","0","359.9375"
"2436","-0.485753518709234","-1.72021970477171","-1.02952282869894","0.105046343975283","-0.0985238585650532","0","359.9375"
"2438","0.514246481290766","0.279780295228287","1.97047717130106","0.105046343975283","-0.0985238585650532","0","359.9375"
"2444","0.514246481290766","0.279780295228287","1.97047717130106","-1.89495365602472","-0.0985238585650532","0","359.9375"
"2450","1.51424648129077","-0.720219704771713","-1.02952282869894","-1.89495365602472","-0.0985238585650532","0","359.9375"
"2457","1.51424648129077","-0.720219704771713","-1.02952282869894","0.105046343975283","0.901476141434947","0","359.9375"
"2459","-2.48575351870923","0.279780295228287","-1.02952282869894","0.105046343975283","0.901476141434947","0","359.9375"
"2465","-2.48575351870923","0.279780295228287","-1.02952282869894","2.10504634397528","-0.0985238585650532","0","359.9375"
"2467","-0.485753518709234","0.279780295228287","1.97047717130106","2.10504634397528","-0.0985238585650532","0","359.9375"
"2477","-0.485753518709234","0.279780295228287","1.97047717130106","4.10504634397528","0.901476141434947","0","359.9375"
"2479","0.514246481290766","0.279780295228287","1.97047717130106","4.10504634397528","0.901476141434947","0","359.9375"
"2486","0.514246481290766","0.279780295228287","1.97047717130106","2.10504634397528","1.90147614143495","0","359.9375"
"2487","0.514246481290766","-0.720219704771713","-0.0295228286989371","2.10504634397528","1.90147614143495","0","359.9375"
"2498","0.514246481290766","-0.720219704771713","-0.0295228286989371","0.105046343975283","1.90147614143495","0","359.9375"
"2500","-0.485753518709234","-0.720219704771713","-3.02952282869894","0.105046343975283","1.90147614143495","0","359.9375"
"2507","-0.485753518709234","-0.720219704771713","-3.02952282869894","-0.894953656024717","1.90147614143495","0","359.9375"
"2508","1.51424648129077","-1.72021970477171","-1.02952282869894","-0.894953656024717","1.90147614143495","0","359.9375"
"2520","1.51424648129077","-1.72021970477171","-1.02952282869894","2.10504634397528","0.901476141434947","0","359.9375"
"2520","-1.48575351870923","0.279780295228287","-1.02952282869894","2.10504634397528","0.901476141434947","0","359.9375"
"2527","-1.48575351870923","0.279780295228287","-1.02952282869894","3.10504634397528","-1.09852385856505","0","359.9375"
"2528","-0.485753518709234","0.279780295228287","0.970477171301063","3.10504634397528","-1.09852385856505","0","359.9375"
"2539","-0.485753518709234","0.279780295228287","0.970477171301063","3.10504634397528","1.90147614143495","0","359.9375"
"2541","0.514246481290766","0.279780295228287","-0.0295228286989371","3.10504634397528","1.90147614143495","0","359.9375"
"2547","0.514246481290766","0.279780295228287","-0.0295228286989371","0.105046343975283","0.901476141434947","0","359.9375"
"2549","1.51424648129077","0.279780295228287","-1.02952282869894","0.105046343975283","0.901476141434947","0","359.9375"
"2555","1.51424648129077","0.279780295228287","-1.02952282869894","-0.894953656024717","-0.0985238585650532","0","359.9375"
"2557","0.514246481290766","0.279780295228287","-1.02952282869894","-0.894953656024717","-0.0985238585650532","0","359.9375"
"2567","0.514246481290766","0.279780295228287","-1.02952282869894","1.10504634397528","-0.0985238585650532","0","359.9375"
"2569","0.514246481290766","0.279780295228287","0.970477171301063","1.10504634397528","-0.0985238585650532","0","359.9375"
"2576","0.514246481290766","0.279780295228287","0.970477171301063","1.10504634397528","-1.09852385856505","0","359.9375"
"2577","0.514246481290766","0.279780295228287","0.970477171301063","1.10504634397528","-1.09852385856505","0","359.9375"
"2588","0.514246481290766","0.279780295228287","0.970477171301063","1.10504634397528","-0.0985238585650532","0","359.9375"
"2590","0.514246481290766","0.279780295228287","-1.02952282869894","1.10504634397528","-0.0985238585650532","0","359.9375"
"2597","0.514246481290766","0.279780295228287","-1.02952282869894","4.10504634397528","-0.0985238585650532","0","359.9375"
"2598","-2.48575351870923","0.279780295228287","2.97047717130106","4.10504634397528","-0.0985238585650532","0","359.9375"
"2608","-2.48575351870923","0.279780295228287","2.97047717130106","0.105046343975283","-0.0985238585650532","0","359.9375"
"2610","0.514246481290766","-0.720219704771713","-0.0295228286989371","0.105046343975283","-0.0985238585650532","0","359.9375"
"2617","0.514246481290766","-0.720219704771713","-0.0295228286989371","-0.894953656024717","-0.0985238585650532","0","359.9375"
"2619","0.514246481290766","0.279780295228287","-0.0295228286989371","-0.894953656024717","-0.0985238585650532","0","359.9375"
"2628","0.514246481290766","0.279780295228287","-0.0295228286989371","-0.894953656024717","-2.09852385856505","0","359.9375"
"2631","-2.48575351870923","0.279780295228287","-0.0295228286989371","-0.894953656024717","-2.09852385856505","0","359.9375"
"2637","-2.48575351870923","0.279780295228287","-0.0295228286989371","-1.89495365602472","-1.09852385856505","0","359.9375"
"2639","-0.485753518709234","0.279780295228287","1.97047717130106","-1.89495365602472","-1.09852385856505","0","359.9375"
"2645","-0.485753518709234","0.279780295228287","1.97047717130106","1.10504634397528","1.90147614143495","0","359.9375"
"2647","0.514246481290766","0.279780295228287","0.970477171301063","1.10504634397528","1.90147614143495","0","359.9375"
"2658","0.514246481290766","0.279780295228287","0.970477171301063","0.105046343975283","-0.0985238585650532","0","359.9375"
"2659","0.514246481290766","0.279780295228287","0.970477171301063","0.105046343975283","-0.0985238585650532","0","359.9375"
"2666","0.514246481290766","0.279780295228287","0.970477171301063","-2.89495365602472","-0.0985238585650532","0","359.9375"
"2668","-0.485753518709234","0.279780295228287","-0.0295228286989371","-2.89495365602472","-0.0985238585650532","0","359.9375"
"2678","-0.485753518709234","0.279780295228287","-0.0295228286989371","-0.894953656024717","-1.09852385856505","0","359.9375"
"2680","0.514246481290766","0.279780295228287","0.970477171301063","-0.894953656024717","-1.09852385856505","0","359.9375"
"2686","0.514246481290766","0.279780295228287","0.970477171301063","1.10504634397528","-0.0985238585650532","0","359.9375"
"2688","0.514246481290766","-0.720219704771713","0.970477171301063","1.10504634397528","-0.0985238585650532","0","359.9375"
"2698","0.514246481290766","-0.720219704771713","0.970477171301063","-2.89495365602472","0.901476141434947","0","359.9375"
"2701","-0.485753518709234","0.279780295228287","-0.0295228286989371","-2.89495365602472","0.901476141434947","0","359.9375"
"2707","-0.485753518709234","0.279780295228287","-0.0295228286989371","-0.894953656024717","-0.0985238585650532","0","359.9375"
"2709","-0.485753518709234","0.279780295228287","-1.02952282869894","-0.894953656024717","-0.0985238585650532","0","359.9375"
"2721","-0.485753518709234","0.279780295228287","-1.02952282869894","4.10504634397528","0.901476141434947","0","359.9375"
"2722","-0.485753518709234","-0.720219704771713","-2.02952282869894","4.10504634397528","0.901476141434947","0","359.9375"
"2728","-0.485753518709234","-0.720219704771713","-2.02952282869894","2.10504634397528","-0.0985238585650532","0","359.9375"
"2729","0.514246481290766","1.27978029522829","-1.02952282869894","2.10504634397528","-0.0985238585650532","0","359.9375"
"2738","0.514246481290766","1.27978029522829","-1.02952282869894","0.105046343975283","-1.09852385856505","0","359.9375"
"2741","0.514246481290766","-0.720219704771713","-1.02952282869894","0.105046343975283","-1.09852385856505","0","359.9375"
"2748","0.514246481290766","-0.720219704771713","-1.02952282869894","2.10504634397528","-0.0985238585650532","0","359.9375"
"2750","0.514246481290766","-2.72021970477171","2.97047717130106","2.10504634397528","-0.0985238585650532","0","359.9375"
"2756","0.514246481290766","-2.72021970477171","2.97047717130106","-1.89495365602472","-0.0985238585650532","0","359.9375"
"2758","-3.48575351870923","0.279780295228287","-2.02952282869894","-1.89495365602472","-0.0985238585650532","0","359.9375"
"2769","-3.48575351870923","0.279780295228287","-2.02952282869894","0.105046343975283","-3.09852385856505","0","359.9375"
"2770","0.514246481290766","0.279780295228287","-0.0295228286989371","0.105046343975283","-3.09852385856505","0","359.9375"
"2776","0.514246481290766","0.279780295228287","-0.0295228286989371","3.10504634397528","-0.0985238585650532","0","359.9375"
"2778","0.514246481290766","2.27978029522829","1.97047717130106","3.10504634397528","-0.0985238585650532","0","359.9375"
"2788","0.514246481290766","2.27978029522829","1.97047717130106","2.10504634397528","0.901476141434947","0","359.9375"
"2790","0.514246481290766","0.279780295228287","0.970477171301063","2.10504634397528","0.901476141434947","0","359.9375"
"2797","0.514246481290766","0.279780295228287","0.970477171301063","2.10504634397528","-0.0985238585650532","0","359.9375"
"2799","-1.48575351870923","0.279780295228287","-1.02952282869894","2.10504634397528","-0.0985238585650532","0","359.9375"
"2809","-1.48575351870923","0.279780295228287","-1.02952282869894","2.10504634397528","-1.09852385856505","0","359.9375"
"2811","-0.485753518709234","0.279780295228287","-2.02952282869894","2.10504634397528","-1.09852385856505","0","359.9375"
"2817","-0.485753518709234","0.279780295228287","-2.02952282869894","2.10504634397528","0.901476141434947","0","359.9375"
"2819","0.514246481290766","1.27978029522829","-0.0295228286989371","2.10504634397528","0.901476141434947","0","359.9375"
"2826","0.514246481290766","1.27978029522829","-0.0295228286989371","-0.894953656024717","0.901476141434947","0","359.9375"
"2831","0.514246481290766","-0.720219704771713","0.970477171301063","-0.894953656024717","0.901476141434947","0","359.9375"
"2838","0.514246481290766","-0.720219704771713","0.970477171301063","2.10504634397528","-2.09852385856505","0","359.9375"
"2840","0.514246481290766","-0.720219704771713","0.970477171301063","2.10504634397528","-2.09852385856505","0","359.9375"
"2847","0.514246481290766","-0.720219704771713","0.970477171301063","2.10504634397528","-2.09852385856505","0","359.9375"
"2848","0.514246481290766","1.27978029522829","-0.0295228286989371","2.10504634397528","-2.09852385856505","0","359.9375"
"2858","0.514246481290766","1.27978029522829","-0.0295228286989371","0.105046343975283","-0.0985238585650532","0","359.9375"
"2860","-0.485753518709234","0.279780295228287","0.970477171301063","0.105046343975283","-0.0985238585650532","0","359.9375"
"2867","-0.485753518709234","0.279780295228287","0.970477171301063","3.10504634397528","-0.0985238585650532","0","359.9375"
"2868","0.514246481290766","0.279780295228287","-2.02952282869894","3.10504634397528","-0.0985238585650532","0","359.9375"
"2879","0.514246481290766","0.279780295228287","-2.02952282869894","0.105046343975283","-2.09852385856505","0","359.9375"
"2881","0.514246481290766","0.279780295228287","0.970477171301063","0.105046343975283","-2.09852385856505","0","359.9375"
"2887","0.514246481290766","0.279780295228287","0.970477171301063","2.10504634397528","-0.0985238585650532","0","359.9375"
"2889","0.514246481290766","0.279780295228287","-1.02952282869894","2.10504634397528","-0.0985238585650532","0","359.9375"
"2899","0.514246481290766","0.279780295228287","-1.02952282869894","2.10504634397528","1.90147614143495","0","359.9375"
"2901","0.514246481290766","-0.720219704771713","-1.02952282869894","2.10504634397528","1.90147614143495","0","359.9375"
"2908","0.514246481290766","-0.720219704771713","-1.02952282869894","0.105046343975283","0.901476141434947","0","359.9375"
"2909","0.514246481290766","0.279780295228287","-1.02952282869894","0.105046343975283","0.901476141434947","0","359.9375"
"2916","0.514246481290766","0.279780295228287","-1.02952282869894","2.10504634397528","1.90147614143495","0","359.9375"
"2922","-1.48575351870923","0.279780295228287","-4.02952282869894","2.10504634397528","1.90147614143495","0","359.9375"
"2928","-1.48575351870923","0.279780295228287","-4.02952282869894","1.10504634397528","-0.0985238585650532","0","359.9375"
"2930","-0.485753518709234","-1.72021970477171","0.970477171301063","1.10504634397528","-0.0985238585650532","0","359.9375"
"2937","-0.485753518709234","-1.72021970477171","0.970477171301063","-1.89495365602472","0.901476141434947","0","359.9375"
"2938","-0.485753518709234","0.279780295228287","1.97047717130106","-1.89495365602472","0.901476141434947","0","359.9375"
"2949","-0.485753518709234","0.279780295228287","1.97047717130106","-1.89495365602472","0.901476141434947","0","359.9375"
"2950","0.514246481290766","0.279780295228287","1.97047717130106","-1.89495365602472","0.901476141434947","0","359.9375"
"2957","0.514246481290766","0.279780295228287","1.97047717130106","-0.894953656024717","0.901476141434947","0","359.9375"
"2958","0.514246481290766","-1.72021970477171","-0.0295228286989371","-0.894953656024717","0.901476141434947","0","359.9375"
"2970","0.514246481290766","-1.72021970477171","-0.0295228286989371","1.10504634397528","0.901476141434947","0","359.9375"
"2971","1.51424648129077","0.279780295228287","0.970477171301063","1.10504634397528","0.901476141434947","0","359.9375"
"2977","1.51424648129077","0.279780295228287","0.970477171301063","2.10504634397528","-2.09852385856505","0","359.9375"
"2979","0.514246481290766","-0.720219704771713","0.970477171301063","2.10504634397528","-2.09852385856505","0","359.9375"
"2990","0.514246481290766","-0.720219704771713","0.970477171301063","-0.894953656024717","-1.09852385856505","0","359.9375"
"2991","0.514246481290766","-0.720219704771713","-0.0295228286989371","-0.894953656024717","-1.09852385856505","0","359.9375"
"2997","0.514246481290766","-0.720219704771713","-0.0295228286989371","-0.894953656024717","-1.09852385856505","0","359.9375"
"3000","-0.485753518709234","0.279780295228287","-1.02952282869894","-0.894953656024717","-1.09852385856505","0","359.9375"
"3010","-0.485753518709234","0.279780295228287","-1.02952282869894","-0.894953656024717","2.90147614143495","0","359.9375"
"3012","0.514246481290766","1.27978029522829","-3.02952282869894","-0.894953656024717","2.90147614143495","0","359.9375"
"3018","0.514246481290766","1.27978029522829","-3.02952282869894","0.105046343975283","0.901476141434947","0","359.9375"
"3020","-0.485753518709234","-0.720219704771713","1.97047717130106","0.105046343975283","0.901476141434947","0","359.9375"
"3026","-0.485753518709234","-0.720219704771713","1.97047717130106","0.105046343975283","1.90147614143495","0","359.9375"
"3032","-0.485753518709234","0.279780295228287","0.970477171301063","0.105046343975283","1.90147614143495","0","359.9375"
"3039","-0.485753518709234","0.279780295228287","0.970477171301063","0.105046343975283","2.90147614143495","0","359.9375"
"3040","-0.485753518709234","0.279780295228287","0.970477171301063","0.105046343975283","2.90147614143495","0","359.9375"
"3047","-0.485753518709234","0.279780295228287","0.970477171301063","0.105046343975283","2.90147614143495","0","359.9375"
"3049","0.514246481290766","-0.720219704771713","0.970477171301063","0.105046343975283","2.90147614143495","0","359.9375"
"3059","0.514246481290766","-0.720219704771713","0.970477171301063","1.10504634397528","0.901476141434947","0","359.9375"
"3061","-0.485753518709234","0.279780295228287","-0.0295228286989371","1.10504634397528","0.901476141434947","0","359.9375"
"3067","-0.485753518709234","0.279780295228287","-0.0295228286989371","0.105046343975283","1.90147614143495","0","359.9375"
"3069","-0.485753518709234","0.279780295228287","-3.02952282869894","0.105046343975283","1.90147614143495","0","359.9375"
"3079","-0.485753518709234","0.279780295228287","-3.02952282869894","2.10504634397528","-2.09852385856505","0","359.9375"
"3081","1.51424648129077","-0.720219704771713","-1.02952282869894","2.10504634397528","-2.09852385856505","0","359.9375"
"3088","1.51424648129077","-0.720219704771713","-1.02952282869894","-1.89495365602472","-1.09852385856505","0","359.9375"
"3090","0.514246481290766","1.27978029522829","-0.0295228286989371","-1.89495365602472","-1.09852385856505","0","359.9375"
"3096","0.514246481290766","1.27978029522829","-0.0295228286989371","-1.89495365602472","-1.09852385856505","0","359.9375"
"3102","-0.485753518709234","0.279780295228287","0.970477171301063","-1.89495365602472","-1.09852385856505","0","359.9375"
"3108","-0.485753518709234","0.279780295228287","0.970477171301063","3.10504634397528","-0.0985238585650532","0","359.9375"
"3110","0.514246481290766","-0.720219704771713","-2.02952282869894","3.10504634397528","-0.0985238585650532","0","359.9375"
"3117","0.514246481290766","-0.720219704771713","-2.02952282869894","0.105046343975283","-0.0985238585650532","0","359.9375"
"3118","0.514246481290766","0.279780295228287","-2.02952282869894","0.105046343975283","-0.0985238585650532","0","359.9375"
"3128","0.514246481290766","0.279780295228287","-2.02952282869894","0.105046343975283","-0.0985238585650532","0","359.9375"
"3131","-1.48575351870923","-0.720219704771713","0.970477171301063","0.105046343975283","-0.0985238585650532","0","359.9375"
"3139","-1.48575351870923","-0.720219704771713","0.970477171301063","2.10504634397528","-1.09852385856505","0","359.9375"
"3139","-1.48575351870923","-0.720219704771713","0.970477171301063","2.10504634397528","-1.09852385856505","0","359.9375"
"3146","-1.48575351870923","-0.720219704771713","0.970477171301063","1.10504634397528","1.90147614143495","0","359.9375"
"3151","0.514246481290766","0.279780295228287","-0.0295228286989371","1.10504634397528","1.90147614143495","0","359.9375"
"3158","0.514246481290766","0.279780295228287","-0.0295228286989371","-2.89495365602472","-0.0985238585650532","0","359.9375"
"3159","-0.485753518709234","-0.720219704771713","-3.02952282869894","-2.89495365602472","-0.0985238585650532","0","359.9375"
"3169","-0.485753518709234","-0.720219704771713","-3.02952282869894","2.10504634397528","-2.09852385856505","0","359.9375"
"3171","-0.485753518709234","0.279780295228287","1.97047717130106","2.10504634397528","-2.09852385856505","0","359.9375"
"3177","-0.485753518709234","0.279780295228287","1.97047717130106","2.10504634397528","0.901476141434947","0","359.9375"
"3180","0.514246481290766","0.279780295228287","0.970477171301063","2.10504634397528","0.901476141434947","0","359.9375"
"3189","0.514246481290766","0.279780295228287","0.970477171301063","2.10504634397528","0.901476141434947","0","359.9375"
"3189","0.514246481290766","0.279780295228287","0.970477171301063","2.10504634397528","0.901476141434947","0","359.9375"
"3198","0.514246481290766","0.279780295228287","0.970477171301063","2.10504634397528","2.90147614143495","0","359.9375"
"3200","1.51424648129077","0.279780295228287","-0.0295228286989371","2.10504634397528","2.90147614143495","0","359.9375"
"3208","1.51424648129077","0.279780295228287","-0.0295228286989371","-0.894953656024717","-1.09852385856505","0","359.9375"
"3212","-0.485753518709234","0.279780295228287","0.970477171301063","-0.894953656024717","-1.09852385856505","0","359.9375"
"3219","-0.485753518709234","0.279780295228287","0.970477171301063","-0.894953656024717","-1.09852385856505","0","359.9375"
"3221","-1.48575351870923","0.279780295228287","-2.02952282869894","-0.894953656024717","-1.09852385856505","0","359.9375"
"3226","-1.48575351870923","0.279780295228287","-2.02952282869894","1.10504634397528","-0.0985238585650532","0","359.9375"
"3229","0.514246481290766","0.279780295228287","0.970477171301063","1.10504634397528","-0.0985238585650532","0","359.9375"
"3238","0.514246481290766","0.279780295228287","0.970477171301063","0.105046343975283","-0.0985238585650532","0","359.9375"
"3239","0.514246481290766","0.279780295228287","0.970477171301063","0.105046343975283","-0.0985238585650532","0","359.9375"
"3246","0.514246481290766","0.279780295228287","0.970477171301063","0.105046343975283","-0.0985238585650532","0","359.9375"
"3249","0.514246481290766","0.279780295228287","-1.02952282869894","0.105046343975283","-0.0985238585650532","0","359.9375"
"3259","0.514246481290766","0.279780295228287","-1.02952282869894","3.10504634397528","-0.0985238585650532","0","359.9375"
"3262","0.514246481290766","0.279780295228287","-0.0295228286989371","3.10504634397528","-0.0985238585650532","0","359.9375"
"3267","0.514246481290766","0.279780295228287","-0.0295228286989371","2.10504634397528","-2.09852385856505","0","359.9375"
"3270","-0.485753518709234","0.279780295228287","-0.0295228286989371","2.10504634397528","-2.09852385856505","0","359.9375"
"3280","-0.485753518709234","0.279780295228287","-0.0295228286989371","1.10504634397528","0.901476141434947","0","359.9375"
"3282","0.514246481290766","0.279780295228287","-0.0295228286989371","1.10504634397528","0.901476141434947","0","359.9375"
"3288","0.514246481290766","0.279780295228287","-0.0295228286989371","1.10504634397528","-1.09852385856505","0","359.9375"
"3290","0.514246481290766","0.279780295228287","-0.0295228286989371","1.10504634397528","-1.09852385856505","0","359.9375"
"3296","0.514246481290766","0.279780295228287","-0.0295228286989371","0.105046343975283","0.901476141434947","0","359.9375"
"3302","0.514246481290766","0.279780295228287","1.97047717130106","0.105046343975283","0.901476141434947","0","359.9375"
"3309","0.514246481290766","0.279780295228287","1.97047717130106","-1.89495365602472","0.901476141434947","0","359.9375"
"3311","0.514246481290766","0.279780295228287","0.970477171301063","-1.89495365602472","0.901476141434947","0","359.9375"
"3318","0.514246481290766","0.279780295228287","0.970477171301063","2.10504634397528","-0.0985238585650532","0","359.9375"
"3319","-0.485753518709234","0.279780295228287","-0.0295228286989371","2.10504634397528","-0.0985238585650532","0","359.9375"
"3330","-0.485753518709234","0.279780295228287","-0.0295228286989371","2.10504634397528","0.901476141434947","0","359.9375"
"3331","-0.485753518709234","-2.72021970477171","-1.02952282869894","2.10504634397528","0.901476141434947","0","359.9375"
"3343","-0.485753518709234","-2.72021970477171","-1.02952282869894","0.105046343975283","-0.0985238585650532","0","359.9375"
"3344","-0.485753518709234","-2.72021970477171","-1.02952282869894","0.105046343975283","-0.0985238585650532","0","359.9375"
"3353","-0.485753518709234","-2.72021970477171","-1.02952282869894","1.10504634397528","-2.09852385856505","0","359.9375"
"3353","0.514246481290766","-0.720219704771713","-0.0295228286989371","1.10504634397528","-2.09852385856505","0","359.9375"
"3360","0.514246481290766","-0.720219704771713","-0.0295228286989371","-0.894953656024717","2.90147614143495","0","359.9375"
"3360","0.514246481290766","-1.72021970477171","-1.02952282869894","-0.894953656024717","2.90147614143495","0","359.9375"
"3371","0.514246481290766","-1.72021970477171","-1.02952282869894","-4.89495365602472","-1.09852385856505","0","359.9375"
"3372","0.514246481290766","0.279780295228287","0.970477171301063","-4.89495365602472","-1.09852385856505","0","359.9375"
"3382","0.514246481290766","0.279780295228287","0.970477171301063","2.10504634397528","2.90147614143495","0","359.9375"
"3382","0.514246481290766","0.279780295228287","0.970477171301063","2.10504634397528","2.90147614143495","0","359.9375"
"3391","0.514246481290766","0.279780295228287","0.970477171301063","1.10504634397528","1.90147614143495","0","359.9375"
"3391","0.514246481290766","0.279780295228287","0.970477171301063","1.10504634397528","1.90147614143495","0","359.9375"
"3398","0.514246481290766","0.279780295228287","0.970477171301063","0.105046343975283","-0.0985238585650532","0","359.9375"
"3401","0.514246481290766","0.279780295228287","-0.0295228286989371","0.105046343975283","-0.0985238585650532","0","359.9375"
"3411","0.514246481290766","0.279780295228287","-0.0295228286989371","3.10504634397528","-0.0985238585650532","0","359.9375"
"3413","-1.48575351870923","-1.72021970477171","-3.02952282869894","3.10504634397528","-0.0985238585650532","0","359.9375"
"3422","-1.48575351870923","-1.72021970477171","-3.02952282869894","0.105046343975283","-0.0985238585650532","0","359.9375"
"3422","-0.485753518709234","-2.72021970477171","1.97047717130106","0.105046343975283","-0.0985238585650532","0","359.9375"
"3427","-0.485753518709234","-2.72021970477171","1.97047717130106","-0.894953656024717","-0.0985238585650532","0","359.9375"
"3429","-0.485753518709234","0.279780295228287","-0.0295228286989371","-0.894953656024717","-0.0985238585650532","0","359.9375"
"3439","-0.485753518709234","0.279780295228287","-0.0295228286989371","2.10504634397528","-5.09852385856505","0","359.9375"
"3439","-0.485753518709234","0.279780295228287","-0.0295228286989371","2.10504634397528","-5.09852385856505","0","359.9375"
"3447","-0.485753518709234","0.279780295228287","-0.0295228286989371","1.10504634397528","-0.0985238585650532","0","359.9375"
"3450","0.514246481290766","-1.72021970477171","1.97047717130106","1.10504634397528","-0.0985238585650532","0","359.9375"
"3459","0.514246481290766","-1.72021970477171","1.97047717130106","-0.894953656024717","1.90147614143495","0","359.9375"
"3462","-1.48575351870923","1.27978029522829","-1.02952282869894","-0.894953656024717","1.90147614143495","0","359.9375"
"3469","-1.48575351870923","1.27978029522829","-1.02952282869894","-1.89495365602472","-0.0985238585650532","0","359.9375"
"3470","0.514246481290766","-1.72021970477171","-0.0295228286989371","-1.89495365602472","-0.0985238585650532","0","359.9375"
"3476","0.514246481290766","-1.72021970477171","-0.0295228286989371","2.10504634397528","-0.0985238585650532","0","359.9375"
"3483","-0.485753518709234","-2.72021970477171","0.970477171301063","2.10504634397528","-0.0985238585650532","0","359.9375"
"3489","-0.485753518709234","-2.72021970477171","0.970477171301063","1.10504634397528","-0.0985238585650532","0","359.9375"
"3489","-0.485753518709234","-2.72021970477171","0.970477171301063","1.10504634397528","-0.0985238585650532","0","359.9375"
"3496","-0.485753518709234","-2.72021970477171","0.970477171301063","0.105046343975283","-1.09852385856505","0","359.9375"
"3499","0.514246481290766","1.27978029522829","-0.0295228286989371","0.105046343975283","-1.09852385856505","0","359.9375"
"3509","0.514246481290766","1.27978029522829","-0.0295228286989371","0.105046343975283","-0.0985238585650532","0","359.9375"
"3511","-0.485753518709234","-0.720219704771713","-2.02952282869894","0.105046343975283","-0.0985238585650532","0","359.9375"
"3518","-0.485753518709234","-0.720219704771713","-2.02952282869894","2.10504634397528","-1.09852385856505","0","359.9375"
"3520","0.514246481290766","0.279780295228287","0.970477171301063","2.10504634397528","-1.09852385856505","0","359.9375"
"3531","0.514246481290766","0.279780295228287","0.970477171301063","1.10504634397528","-0.0985238585650532","0","359.9375"
"3532","-0.485753518709234","1.27978029522829","-0.0295228286989371","1.10504634397528","-0.0985238585650532","0","359.9375"
"3539","-0.485753518709234","1.27978029522829","-0.0295228286989371","0.105046343975283","-1.09852385856505","0","359.9375"
"3540","-0.485753518709234","1.27978029522829","-0.0295228286989371","0.105046343975283","-1.09852385856505","0","359.9375"
"3547","-0.485753518709234","1.27978029522829","-0.0295228286989371","1.10504634397528","2.90147614143495","0","359.9375"
"3553","-1.48575351870923","-0.720219704771713","-0.0295228286989371","1.10504634397528","2.90147614143495","0","359.9375"
"3559","-1.48575351870923","-0.720219704771713","-0.0295228286989371","-0.894953656024717","0.901476141434947","0","359.9375"
"3561","0.514246481290766","0.279780295228287","-1.02952282869894","-0.894953656024717","0.901476141434947","0","359.9375"
"3570","0.514246481290766","0.279780295228287","-1.02952282869894","0.105046343975283","0.901476141434947","0","359.9375"
"3573","-0.485753518709234","0.279780295228287","-2.02952282869894","0.105046343975283","0.901476141434947","0","359.9375"
"3578","-0.485753518709234","0.279780295228287","-2.02952282869894","1.10504634397528","-1.09852385856505","0","359.9375"
"3581","0.514246481290766","0.279780295228287","-1.02952282869894","1.10504634397528","-1.09852385856505","0","359.9375"
"3593","0.514246481290766","0.279780295228287","-1.02952282869894","-1.89495365602472","-1.09852385856505","0","359.9375"
"3594","0.514246481290766","0.279780295228287","-1.02952282869894","-1.89495365602472","-1.09852385856505","0","359.9375"
"3601","0.514246481290766","0.279780295228287","-1.02952282869894","-0.894953656024717","-0.0985238585650532","0","359.9375"
"3602","-0.485753518709234","0.279780295228287","0.970477171301063","-0.894953656024717","-0.0985238585650532","0","359.9375"
"3607","-0.485753518709234","0.279780295228287","0.970477171301063","-0.894953656024717","0.901476141434947","0","359.9375"
"3610","-1.48575351870923","0.279780295228287","-1.02952282869894","-0.894953656024717","0.901476141434947","0","359.9375"
"3620","-1.48575351870923","0.279780295228287","-1.02952282869894","-1.89495365602472","-0.0985238585650532","0","359.9375"
"3622","-0.485753518709234","2.27978029522829","-0.0295228286989371","-1.89495365602472","-0.0985238585650532","0","359.9375"
"3628","-0.485753518709234","2.27978029522829","-0.0295228286989371","0.105046343975283","-1.09852385856505","0","359.9375"
"3630","0.514246481290766","0.279780295228287","1.97047717130106","0.105046343975283","-1.09852385856505","0","359.9375"
"3640","0.514246481290766","0.279780295228287","1.97047717130106","1.10504634397528","-4.09852385856505","0","359.9375"
"3640","0.514246481290766","0.279780295228287","1.97047717130106","1.10504634397528","-4.09852385856505","0","359.9375"
"3648","0.514246481290766","0.279780295228287","1.97047717130106","1.10504634397528","-2.09852385856505","0","359.9375"
"3651","0.514246481290766","0.279780295228287","-0.0295228286989371","1.10504634397528","-2.09852385856505","0","359.9375"
"3660","0.514246481290766","0.279780295228287","-0.0295228286989371","3.10504634397528","-0.0985238585650532","0","359.9375"
"3663","0.514246481290766","1.27978029522829","-3.02952282869894","3.10504634397528","-0.0985238585650532","0","359.9375"
"3669","0.514246481290766","1.27978029522829","-3.02952282869894","-0.894953656024717","-1.09852385856505","0","359.9375"
"3671","0.514246481290766","-0.720219704771713","-3.02952282869894","-0.894953656024717","-1.09852385856505","0","359.9375"
"3678","0.514246481290766","-0.720219704771713","-3.02952282869894","2.10504634397528","-1.09852385856505","0","359.9375"
"3683","1.51424648129077","1.27978029522829","1.97047717130106","2.10504634397528","-1.09852385856505","0","359.9375"
"3690","1.51424648129077","1.27978029522829","1.97047717130106","0.105046343975283","-1.09852385856505","0","359.9375"
"3690","1.51424648129077","1.27978029522829","1.97047717130106","0.105046343975283","-1.09852385856505","0","359.9375"
"3698","1.51424648129077","1.27978029522829","1.97047717130106","1.10504634397528","0.901476141434947","0","359.9375"
"3700","0.514246481290766","-0.720219704771713","0.970477171301063","1.10504634397528","0.901476141434947","0","359.9375"
"3710","0.514246481290766","-0.720219704771713","0.970477171301063","-2.89495365602472","-0.0985238585650532","0","359.9375"
"3712","-0.485753518709234","0.279780295228287","0.970477171301063","-2.89495365602472","-0.0985238585650532","0","359.9375"
"3719","-0.485753518709234","0.279780295228287","0.970477171301063","0.105046343975283","-1.09852385856505","0","359.9375"
"3720","-0.485753518709234","0.279780295228287","0.970477171301063","0.105046343975283","-1.09852385856505","0","359.9375"
"3732","-0.485753518709234","0.279780295228287","0.970477171301063","-1.89495365602472","0.901476141434947","0","359.9375"
"3733","-0.485753518709234","-0.720219704771713","-0.0295228286989371","-1.89495365602472","0.901476141434947","0","359.9375"
"3739","-0.485753518709234","-0.720219704771713","-0.0295228286989371","-0.894953656024717","-3.09852385856505","0","359.9375"
"3741","-0.485753518709234","-0.720219704771713","-0.0295228286989371","-0.894953656024717","-3.09852385856505","0","359.9375"
"3747","-0.485753518709234","-0.720219704771713","-0.0295228286989371","0.105046343975283","-1.09852385856505","0","359.9375"
"3753","-0.485753518709234","0.279780295228287","1.97047717130106","0.105046343975283","-1.09852385856505","0","359.9375"
"3759","-0.485753518709234","0.279780295228287","1.97047717130106","0.105046343975283","0.901476141434947","0","359.9375"
"3761","0.514246481290766","-0.720219704771713","-1.02952282869894","0.105046343975283","0.901476141434947","0","359.9375"
"3772","0.514246481290766","-0.720219704771713","-1.02952282869894","0.105046343975283","0.901476141434947","0","359.9375"
"3774","-0.485753518709234","-1.72021970477171","-0.0295228286989371","0.105046343975283","0.901476141434947","0","359.9375"
"3781","-0.485753518709234","-1.72021970477171","-0.0295228286989371","-1.89495365602472","1.90147614143495","0","359.9375"
"3782","0.514246481290766","0.279780295228287","1.97047717130106","-1.89495365602472","1.90147614143495","0","359.9375"
"3788","0.514246481290766","0.279780295228287","1.97047717130106","1.10504634397528","-1.09852385856505","0","359.9375"
"3790","0.514246481290766","0.279780295228287","1.97047717130106","1.10504634397528","-1.09852385856505","0","359.9375"
"3798","0.514246481290766","0.279780295228287","1.97047717130106","2.10504634397528","-1.09852385856505","0","359.9375"
"3802","-0.485753518709234","0.279780295228287","1.97047717130106","2.10504634397528","-1.09852385856505","0","359.9375"
"3808","-0.485753518709234","0.279780295228287","1.97047717130106","1.10504634397528","-1.09852385856505","0","359.9375"
"3810","0.514246481290766","-0.720219704771713","-1.02952282869894","1.10504634397528","-1.09852385856505","0","359.9375"
"3820","0.514246481290766","-0.720219704771713","-1.02952282869894","4.10504634397528","-3.09852385856505","0","359.9375"
"3823","0.514246481290766","0.279780295228287","-1.02952282869894","4.10504634397528","-3.09852385856505","0","359.9375"
"3828","0.514246481290766","0.279780295228287","-1.02952282869894","-0.894953656024717","-1.09852385856505","0","359.9375"
"3831","0.514246481290766","0.279780295228287","1.97047717130106","-0.894953656024717","-1.09852385856505","0","359.9375"
"3840","0.514246481290766","0.279780295228287","1.97047717130106","-0.894953656024717","-0.0985238585650532","0","359.9375"
"3841","0.514246481290766","0.279780295228287","1.97047717130106","-0.894953656024717","-0.0985238585650532","0","359.9375"
"3846","0.514246481290766","0.279780295228287","1.97047717130106","1.10504634397528","-1.09852385856505","0","359.9375"
"3851","0.514246481290766","-1.72021970477171","-2.02952282869894","1.10504634397528","-1.09852385856505","0","359.9375"
"3860","0.514246481290766","-1.72021970477171","-2.02952282869894","-2.89495365602472","-2.09852385856505","0","359.9375"
"3864","-1.48575351870923","-0.720219704771713","-1.02952282869894","-2.89495365602472","-2.09852385856505","0","359.9375"
"3870","-1.48575351870923","-0.720219704771713","-1.02952282869894","1.10504634397528","-0.0985238585650532","0","359.9375"
"3872","-0.485753518709234","0.279780295228287","-0.0295228286989371","1.10504634397528","-0.0985238585650532","0","359.9375"
"3877","-0.485753518709234","0.279780295228287","-0.0295228286989371","-0.894953656024717","1.90147614143495","0","359.9375"
"3884","0.514246481290766","1.27978029522829","0.970477171301063","-0.894953656024717","1.90147614143495","0","359.9375"
"3891","0.514246481290766","1.27978029522829","0.970477171301063","-0.894953656024717","3.90147614143495","0","359.9375"
"3891","0.514246481290766","1.27978029522829","0.970477171301063","-0.894953656024717","3.90147614143495","0","359.9375"
"3898","0.514246481290766","1.27978029522829","0.970477171301063","1.10504634397528","2.90147614143495","0","359.9375"
"3901","0.514246481290766","1.27978029522829","0.970477171301063","1.10504634397528","2.90147614143495","0","359.9375"
"3911","0.514246481290766","1.27978029522829","0.970477171301063","-0.894953656024717","0.901476141434947","0","359.9375"
"3913","0.514246481290766","0.279780295228287","-3.02952282869894","-0.894953656024717","0.901476141434947","0","359.9375"
"3919","0.514246481290766","0.279780295228287","-3.02952282869894","-0.894953656024717","-2.09852385856505","0","359.9375"
"3921","-1.48575351870923","0.279780295228287","-1.02952282869894","-0.894953656024717","-2.09852385856505","0","359.9375"
"3932","-1.48575351870923","0.279780295228287","-1.02952282869894","0.105046343975283","-2.09852385856505","0","359.9375"
"3933","0.514246481290766","0.279780295228287","-0.0295228286989371","0.105046343975283","-2.09852385856505","0","359.9375"
"3941","0.514246481290766","0.279780295228287","-0.0295228286989371","3.10504634397528","-0.0985238585650532","0","359.9375"
"3942","0.514246481290766","0.279780295228287","-0.0295228286989371","3.10504634397528","-0.0985238585650532","0","359.9375"
"3948","0.514246481290766","0.279780295228287","-0.0295228286989371","2.10504634397528","0.901476141434947","0","359.9375"
"3954","0.514246481290766","-0.720219704771713","2.97047717130106","2.10504634397528","0.901476141434947","0","359.9375"
"3961","0.514246481290766","-0.720219704771713","2.97047717130106","-1.89495365602472","-0.0985238585650532","0","359.9375"
"3962","0.514246481290766","3.27978029522829","-0.0295228286989371","-1.89495365602472","-0.0985238585650532","0","359.9375"
"3969","0.514246481290766","3.27978029522829","-0.0295228286989371","3.10504634397528","1.90147614143495","0","359.9375"
"3974","0.514246481290766","-1.72021970477171","-1.02952282869894","3.10504634397528","1.90147614143495","0","359.9375"
"3980","0.514246481290766","-1.72021970477171","-1.02952282869894","1.10504634397528","3.90147614143495","0","359.9375"
"3983","0.514246481290766","-0.720219704771713","0.970477171301063","1.10504634397528","3.90147614143495","0","359.9375"
"3988","0.514246481290766","-0.720219704771713","0.970477171301063","-0.894953656024717","0.901476141434947","0","359.9375"
"3991","0.514246481290766","-0.720219704771713","0.970477171301063","-0.894953656024717","0.901476141434947","0","359.9375"
"3996","0.514246481290766","-0.720219704771713","0.970477171301063","1.10504634397528","-2.09852385856505","0","359.9375"
"4003","0.514246481290766","0.279780295228287","-0.0295228286989371","1.10504634397528","-2.09852385856505","0","359.9375"
"4009","0.514246481290766","0.279780295228287","-0.0295228286989371","2.10504634397528","0.901476141434947","0","359.9375"
"4011","0.514246481290766","0.279780295228287","0.970477171301063","2.10504634397528","0.901476141434947","0","359.9375"
"4021","0.514246481290766","0.279780295228287","0.970477171301063","1.10504634397528","0.901476141434947","0","359.9375"
"4023","-0.485753518709234","-0.720219704771713","-0.0295228286989371","1.10504634397528","0.901476141434947","0","359.9375"
"4029","-0.485753518709234","-0.720219704771713","-0.0295228286989371","1.10504634397528","0.901476141434947","0","359.9375"
"4032","0.514246481290766","-0.720219704771713","-2.02952282869894","1.10504634397528","0.901476141434947","0","359.9375"
"4042","0.514246481290766","-0.720219704771713","-2.02952282869894","0.105046343975283","-0.0985238585650532","0","359.9375"
"4042","0.514246481290766","-0.720219704771713","-2.02952282869894","0.105046343975283","-0.0985238585650532","0","359.9375"
"4048","0.514246481290766","-0.720219704771713","-2.02952282869894","2.10504634397528","0.901476141434947","0","359.9375"
"4052","-1.48575351870923","0.279780295228287","-0.0295228286989371","2.10504634397528","0.901476141434947","0","359.9375"
"4058","-1.48575351870923","0.279780295228287","-0.0295228286989371","1.10504634397528","0.901476141434947","0","359.9375"
"4064","0.514246481290766","0.279780295228287","-1.02952282869894","1.10504634397528","0.901476141434947","0","359.9375"
"4071","0.514246481290766","0.279780295228287","-1.02952282869894","2.10504634397528","1.90147614143495","0","359.9375"
"4073","-1.48575351870923","0.279780295228287","-0.0295228286989371","2.10504634397528","1.90147614143495","0","359.9375"
"4079","-1.48575351870923","0.279780295228287","-0.0295228286989371","-1.89495365602472","2.90147614143495","0","359.9375"
"4085","-0.485753518709234","-2.72021970477171","1.97047717130106","-1.89495365602472","2.90147614143495","0","359.9375"
"4091","-0.485753518709234","-2.72021970477171","1.97047717130106","1.10504634397528","0.901476141434947","0","359.9375"
"4091","-0.485753518709234","-2.72021970477171","1.97047717130106","1.10504634397528","0.901476141434947","0","359.9375"
"4099","-0.485753518709234","-2.72021970477171","1.97047717130106","-0.894953656024717","0.901476141434947","0","359.9375"
"4101","-0.485753518709234","-0.720219704771713","-0.0295228286989371","-0.894953656024717","0.901476141434947","0","359.9375"
"4111","-0.485753518709234","-0.720219704771713","-0.0295228286989371","-0.894953656024717","0.901476141434947","0","359.9375"
"4114","-0.485753518709234","1.27978029522829","-2.02952282869894","-0.894953656024717","0.901476141434947","0","359.9375"
"4120","-0.485753518709234","1.27978029522829","-2.02952282869894","-2.89495365602472","1.90147614143495","0","359.9375"
"4122","0.514246481290766","-2.72021970477171","0.970477171301063","-2.89495365602472","1.90147614143495","0","359.9375"
"4132","0.514246481290766","-2.72021970477171","0.970477171301063","2.10504634397528","3.90147614143495","0","359.9375"
"4134","-0.485753518709234","0.279780295228287","0.970477171301063","2.10504634397528","3.90147614143495","0","359.9375"
"4140","-0.485753518709234","0.279780295228287","0.970477171301063","3.10504634397528","0.901476141434947","0","359.9375"
"4142","-0.485753518709234","0.279780295228287","0.970477171301063","3.10504634397528","0.901476141434947","0","359.9375"
"4149","-0.485753518709234","0.279780295228287","0.970477171301063","-0.894953656024717","0.901476141434947","0","359.9375"
"4154","0.514246481290766","0.279780295228287","0.970477171301063","-0.894953656024717","0.901476141434947","0","359.9375"
"4161","0.514246481290766","0.279780295228287","0.970477171301063","0.105046343975283","2.90147614143495","0","359.9375"
"4163","0.514246481290766","-0.720219704771713","-3.02952282869894","0.105046343975283","2.90147614143495","0","359.9375"
"4170","0.514246481290766","-0.720219704771713","-3.02952282869894","-0.894953656024717","1.90147614143495","0","359.9375"
"4171","-0.485753518709234","0.279780295228287","0.970477171301063","-0.894953656024717","1.90147614143495","0","359.9375"
"4182","-0.485753518709234","0.279780295228287","0.970477171301063","-1.89495365602472","1.90147614143495","0","359.9375"
"4183","-0.485753518709234","0.279780295228287","-4.02952282869894","-1.89495365602472","1.90147614143495","0","359.9375"
"4190","-0.485753518709234","0.279780295228287","-4.02952282869894","1.10504634397528","2.90147614143495","0","359.9375"
"4191","-0.485753518709234","0.279780295228287","-4.02952282869894","1.10504634397528","2.90147614143495","0","359.9375"
"4198","-0.485753518709234","0.279780295228287","-4.02952282869894","-0.894953656024717","1.90147614143495","0","359.9375"
"4204","-0.485753518709234","0.279780295228287","-2.02952282869894","-0.894953656024717","1.90147614143495","0","359.9375"
"4210","-0.485753518709234","0.279780295228287","-2.02952282869894","0.105046343975283","1.90147614143495","0","359.9375"
"4212","-1.48575351870923","0.279780295228287","-0.0295228286989371","0.105046343975283","1.90147614143495","0","359.9375"
"4222","-1.48575351870923","0.279780295228287","-0.0295228286989371","0.105046343975283","1.90147614143495","0","359.9375"
"4224","-1.48575351870923","0.279780295228287","-2.02952282869894","0.105046343975283","1.90147614143495","0","359.9375"
"4230","-1.48575351870923","0.279780295228287","-2.02952282869894","-0.894953656024717","0.901476141434947","0","359.9375"
"4232","-0.485753518709234","0.279780295228287","-2.02952282869894","-0.894953656024717","0.901476141434947","0","359.9375"
"4243","-0.485753518709234","0.279780295228287","-2.02952282869894","-0.894953656024717","0.901476141434947","0","359.9375"
"4243","-0.485753518709234","0.279780295228287","-2.02952282869894","-0.894953656024717","0.901476141434947","0","359.9375"
"4249","-0.485753518709234","0.279780295228287","-2.02952282869894","0.105046343975283","-1.09852385856505","0","359.9375"
"4253","0.514246481290766","-0.720219704771713","2.97047717130106","0.105046343975283","-1.09852385856505","0","359.9375"
"4260","0.514246481290766","-0.720219704771713","2.97047717130106","-3.89495365602472","1.90147614143495","0","359.9375"
"4261","0.514246481290766","0.279780295228287","-2.02952282869894","-3.89495365602472","1.90147614143495","0","359.9375"
"4271","0.514246481290766","0.279780295228287","-2.02952282869894","1.10504634397528","0.901476141434947","0","359.9375"
"4273","1.51424648129077","-0.720219704771713","-2.02952282869894","1.10504634397528","0.901476141434947","0","359.9375"
"4280","1.51424648129077","-0.720219704771713","-2.02952282869894","-1.89495365602472","0.901476141434947","0","359.9375"
"4282","0.514246481290766","0.279780295228287","0.970477171301063","-1.89495365602472","0.901476141434947","0","359.9375"
"4292","0.514246481290766","0.279780295228287","0.970477171301063","-0.894953656024717","-0.0985238585650532","0","359.9375"
"4292","0.514246481290766","0.279780295228287","0.970477171301063","-0.894953656024717","-0.0985238585650532","0","359.9375"
"4300","0.514246481290766","0.279780295228287","0.970477171301063","0.105046343975283","0.901476141434947","0","359.9375"
"4302","0.514246481290766","-0.720219704771713","-0.0295228286989371","0.105046343975283","0.901476141434947","0","359.9375"
"4313","0.514246481290766","-0.720219704771713","-0.0295228286989371","1.10504634397528","-0.0985238585650532","0","359.9375"
"4314","0.514246481290766","-0.720219704771713","-0.0295228286989371","1.10504634397528","-0.0985238585650532","0","359.9375"
"4320","0.514246481290766","-0.720219704771713","-0.0295228286989371","1.10504634397528","2.90147614143495","0","359.9375"
"4323","-1.48575351870923","0.279780295228287","-0.0295228286989371","1.10504634397528","2.90147614143495","0","359.9375"
"4329","-1.48575351870923","0.279780295228287","-0.0295228286989371","0.105046343975283","0.901476141434947","0","359.9375"
"4335","0.514246481290766","0.279780295228287","1.97047717130106","0.105046343975283","0.901476141434947","0","359.9375"
"4341","0.514246481290766","0.279780295228287","1.97047717130106","3.10504634397528","0.901476141434947","0","359.9375"
"4341","0.514246481290766","0.279780295228287","1.97047717130106","3.10504634397528","0.901476141434947","0","359.9375"
"4351","0.514246481290766","0.279780295228287","1.97047717130106","0.105046343975283","-0.0985238585650532","0","359.9375"
"4351","0.514246481290766","2.27978029522829","-0.0295228286989371","0.105046343975283","-0.0985238585650532","0","359.9375"
"4361","0.514246481290766","2.27978029522829","-0.0295228286989371","-1.89495365602472","2.90147614143495","0","359.9375"
"4363","0.514246481290766","2.27978029522829","-0.0295228286989371","-1.89495365602472","2.90147614143495","0","359.9375"
"4370","0.514246481290766","2.27978029522829","-0.0295228286989371","-1.89495365602472","-2.09852385856505","0","359.9375"
"4372","-0.485753518709234","-0.720219704771713","-1.02952282869894","-1.89495365602472","-2.09852385856505","0","359.9375"
"4383","-0.485753518709234","-0.720219704771713","-1.02952282869894","-1.89495365602472","-3.09852385856505","0","359.9375"
"4384","0.514246481290766","1.27978029522829","-2.02952282869894","-1.89495365602472","-3.09852385856505","0","359.9375"
"4391","0.514246481290766","1.27978029522829","-2.02952282869894","0.105046343975283","0.901476141434947","0","359.9375"
"4392","0.514246481290766","1.27978029522829","-2.02952282869894","0.105046343975283","0.901476141434947","0","359.9375"
"4399","0.514246481290766","1.27978029522829","-2.02952282869894","0.105046343975283","-2.09852385856505","0","359.9375"
"4404","0.514246481290766","0.279780295228287","2.97047717130106","0.105046343975283","-2.09852385856505","0","359.9375"
"4411","0.514246481290766","0.279780295228287","2.97047717130106","1.10504634397528","-2.09852385856505","0","359.9375"
"4413","-1.48575351870923","0.279780295228287","-0.0295228286989371","1.10504634397528","-2.09852385856505","0","359.9375"
"4419","-1.48575351870923","0.279780295228287","-0.0295228286989371","0.105046343975283","-3.09852385856505","0","359.9375"
"4425","0.514246481290766","0.279780295228287","-2.02952282869894","0.105046343975283","-3.09852385856505","0","359.9375"
"4431","0.514246481290766","0.279780295228287","-2.02952282869894","-0.894953656024717","-2.09852385856505","0","359.9375"
"4433","0.514246481290766","0.279780295228287","1.97047717130106","-0.894953656024717","-2.09852385856505","0","359.9375"
"4440","0.514246481290766","0.279780295228287","1.97047717130106","-0.894953656024717","-3.09852385856505","0","359.9375"
"4441","0.514246481290766","0.279780295228287","1.97047717130106","-0.894953656024717","-3.09852385856505","0","359.9375"
"4448","0.514246481290766","0.279780295228287","1.97047717130106","1.10504634397528","-2.09852385856505","0","359.9375"
"4454","-2.48575351870923","1.27978029522829","1.97047717130106","1.10504634397528","-2.09852385856505","0","359.9375"
"4460","-2.48575351870923","1.27978029522829","1.97047717130106","0.105046343975283","-1.09852385856505","0","359.9375"
"4462","0.514246481290766","2.27978029522829","1.97047717130106","0.105046343975283","-1.09852385856505","0","359.9375"
"4482","0.514246481290766","2.27978029522829","1.97047717130106","0.105046343975283","-1.09852385856505","0","359.9375"
"4482","-1.48575351870923","-0.720219704771713","-1.02952282869894","0.105046343975283","-1.09852385856505","0","359.9375"
"4489","-1.48575351870923","-0.720219704771713","-1.02952282869894","-0.894953656024717","-1.09852385856505","0","359.9375"
"4489","0.514246481290766","0.279780295228287","0.970477171301063","-0.894953656024717","-1.09852385856505","0","359.9375"
"4495","0.514246481290766","0.279780295228287","0.970477171301063","-3.89495365602472","-0.0985238585650532","0","359.9375"
"4495","0.514246481290766","0.279780295228287","0.970477171301063","-3.89495365602472","-0.0985238585650532","0","359.9375"
"4502","0.514246481290766","0.279780295228287","0.970477171301063","-1.89495365602472","-1.09852385856505","0","359.9375"
"4503","0.514246481290766","0.279780295228287","1.97047717130106","-1.89495365602472","-1.09852385856505","0","359.9375"
"4509","0.514246481290766","0.279780295228287","1.97047717130106","-1.89495365602472","-4.09852385856505","0","359.9375"
"4511","-1.48575351870923","0.279780295228287","-2.02952282869894","-1.89495365602472","-4.09852385856505","0","359.9375"
"4522","-1.48575351870923","0.279780295228287","-2.02952282869894","-2.89495365602472","-0.0985238585650532","0","359.9375"
"4523","0.514246481290766","0.279780295228287","-0.0295228286989371","-2.89495365602472","-0.0985238585650532","0","359.9375"
"4530","0.514246481290766","0.279780295228287","-0.0295228286989371","-0.894953656024717","-1.09852385856505","0","359.9375"
"4531","-0.485753518709234","0.279780295228287","2.97047717130106","-0.894953656024717","-1.09852385856505","0","359.9375"
"4541","-0.485753518709234","0.279780295228287","2.97047717130106","0.105046343975283","-1.09852385856505","0","359.9375"
"4542","0.514246481290766","-0.720219704771713","1.97047717130106","0.105046343975283","-1.09852385856505","0","359.9375"
"4548","0.514246481290766","-0.720219704771713","1.97047717130106","1.10504634397528","-0.0985238585650532","0","359.9375"
"4552","0.514246481290766","-0.720219704771713","1.97047717130106","1.10504634397528","-0.0985238585650532","0","359.9375"
"4560","0.514246481290766","-0.720219704771713","1.97047717130106","-0.894953656024717","1.90147614143495","0","359.9375"
"4560","0.514246481290766","0.279780295228287","1.97047717130106","-0.894953656024717","1.90147614143495","0","359.9375"
"4572","0.514246481290766","0.279780295228287","1.97047717130106","-0.894953656024717","-3.09852385856505","0","359.9375"
"4572","-0.485753518709234","0.279780295228287","-2.02952282869894","-0.894953656024717","-3.09852385856505","0","359.9375"
"4581","-0.485753518709234","0.279780295228287","-2.02952282869894","-1.89495365602472","-1.09852385856505","0","359.9375"
"4581","-0.485753518709234","-0.720219704771713","-0.0295228286989371","-1.89495365602472","-1.09852385856505","0","359.9375"
"4592","-0.485753518709234","-0.720219704771713","-0.0295228286989371","-0.894953656024717","-2.09852385856505","0","359.9375"
"4592","1.51424648129077","1.27978029522829","-0.0295228286989371","-0.894953656024717","-2.09852385856505","0","359.9375"
"4597","1.51424648129077","1.27978029522829","-0.0295228286989371","3.10504634397528","-1.09852385856505","0","359.9375"
"4601","-1.48575351870923","-1.72021970477171","1.97047717130106","3.10504634397528","-1.09852385856505","0","359.9375"
"4608","-1.48575351870923","-1.72021970477171","1.97047717130106","0.105046343975283","-1.09852385856505","0","359.9375"
"4609","-1.48575351870923","1.27978029522829","-2.02952282869894","0.105046343975283","-1.09852385856505","0","359.9375"
"4619","-1.48575351870923","1.27978029522829","-2.02952282869894","2.10504634397528","-1.09852385856505","0","359.9375"
"4621","0.514246481290766","0.279780295228287","-3.02952282869894","2.10504634397528","-1.09852385856505","0","359.9375"
"4627","0.514246481290766","0.279780295228287","-3.02952282869894","1.10504634397528","-2.09852385856505","0","359.9375"
"4630","0.514246481290766","-0.720219704771713","1.97047717130106","1.10504634397528","-2.09852385856505","0","359.9375"
"4635","0.514246481290766","-0.720219704771713","1.97047717130106","-0.894953656024717","-1.09852385856505","0","359.9375"
"4638","-0.485753518709234","2.27978029522829","0.970477171301063","-0.894953656024717","-1.09852385856505","0","359.9375"
"4643","-0.485753518709234","2.27978029522829","0.970477171301063","0.105046343975283","-1.09852385856505","0","359.9375"
"4650","0.514246481290766","0.279780295228287","-1.02952282869894","0.105046343975283","-1.09852385856505","0","359.9375"
"4656","0.514246481290766","0.279780295228287","-1.02952282869894","1.10504634397528","-4.09852385856505","0","359.9375"
"4658","0.514246481290766","-0.720219704771713","-2.02952282869894","1.10504634397528","-4.09852385856505","0","359.9375"
"4668","0.514246481290766","-0.720219704771713","-2.02952282869894","0.105046343975283","-3.09852385856505","0","359.9375"
"4671","0.514246481290766","0.279780295228287","-1.02952282869894","0.105046343975283","-3.09852385856505","0","359.9375"
"4676","0.514246481290766","0.279780295228287","-1.02952282869894","1.10504634397528","-1.09852385856505","0","359.9375"
"4679","-0.485753518709234","0.279780295228287","-1.02952282869894","1.10504634397528","-1.09852385856505","0","359.9375"
"4685","-0.485753518709234","0.279780295228287","-1.02952282869894","-1.89495365602472","-1.09852385856505","0","359.9375"
"4687","0.514246481290766","-1.72021970477171","-1.02952282869894","-1.89495365602472","-1.09852385856505","0","359.9375"
"4697","0.514246481290766","-1.72021970477171","-1.02952282869894","-1.89495365602472","-3.09852385856505","0","359.9375"
"4699","0.514246481290766","0.279780295228287","1.97047717130106","-1.89495365602472","-3.09852385856505","0","359.9375"
"4706","0.514246481290766","0.279780295228287","1.97047717130106","-0.894953656024717","1.90147614143495","0","359.9375"
"4707","-0.485753518709234","0.279780295228287","-2.02952282869894","-0.894953656024717","1.90147614143495","0","359.9375"
"4718","-0.485753518709234","0.279780295228287","-2.02952282869894","1.10504634397528","-1.09852385856505","0","359.9375"
"4720","0.514246481290766","-0.720219704771713","0.970477171301063","1.10504634397528","-1.09852385856505","0","359.9375"
"4726","0.514246481290766","-0.720219704771713","0.970477171301063","-0.894953656024717","-0.0985238585650532","0","359.9375"
"4728","0.514246481290766","-0.720219704771713","-0.0295228286989371","-0.894953656024717","-0.0985238585650532","0","359.9375"
"4735","0.514246481290766","-0.720219704771713","-0.0295228286989371","-1.89495365602472","-1.09852385856505","0","359.9375"
"4736","-0.485753518709234","-0.720219704771713","-0.0295228286989371","-1.89495365602472","-1.09852385856505","0","359.9375"
"4746","-0.485753518709234","-0.720219704771713","-0.0295228286989371","2.10504634397528","-1.09852385856505","0","359.9375"
"4753","1.51424648129077","-0.720219704771713","1.97047717130106","2.10504634397528","-1.09852385856505","0","359.9375"
"4763","1.51424648129077","-0.720219704771713","1.97047717130106","-0.894953656024717","-1.09852385856505","0","359.9375"
"4763","1.51424648129077","-0.720219704771713","1.97047717130106","-0.894953656024717","-1.09852385856505","0","359.9375"
"4771","1.51424648129077","-0.720219704771713","1.97047717130106","0.105046343975283","1.90147614143495","0","359.9375"
"4771","-0.485753518709234","1.27978029522829","-4.02952282869894","0.105046343975283","1.90147614143495","0","359.9375"
"4780","-0.485753518709234","1.27978029522829","-4.02952282869894","-2.89495365602472","1.90147614143495","0","359.9375"
"4780","0.514246481290766","-1.72021970477171","0.970477171301063","-2.89495365602472","1.90147614143495","0","359.9375"
"4791","0.514246481290766","-1.72021970477171","0.970477171301063","0.105046343975283","-4.09852385856505","0","359.9375"
"4791","1.51424648129077","-0.720219704771713","-1.02952282869894","0.105046343975283","-4.09852385856505","0","359.9375"
"4800","1.51424648129077","-0.720219704771713","-1.02952282869894","3.10504634397528","-1.09852385856505","0","359.9375"
"4800","0.514246481290766","0.279780295228287","-0.0295228286989371","3.10504634397528","-1.09852385856505","0","359.9375"
"4808","0.514246481290766","0.279780295228287","-0.0295228286989371","1.10504634397528","-0.0985238585650532","0","359.9375"
"4808","-1.48575351870923","0.279780295228287","-1.02952282869894","1.10504634397528","-0.0985238585650532","0","359.9375"
"4817","-1.48575351870923","0.279780295228287","-1.02952282869894","-0.894953656024717","-1.09852385856505","0","359.9375"
"4818","-1.48575351870923","0.279780295228287","-1.02952282869894","-0.894953656024717","-1.09852385856505","0","359.9375"
"4824","-1.48575351870923","0.279780295228287","-1.02952282869894","-0.894953656024717","-0.0985238585650532","0","359.9375"
"4826","-3.48575351870923","0.279780295228287","1.97047717130106","-0.894953656024717","-0.0985238585650532","0","359.9375"
"4838","-3.48575351870923","0.279780295228287","1.97047717130106","0.105046343975283","0.901476141434947","0","359.9375"
"4839","1.51424648129077","0.279780295228287","2.97047717130106","0.105046343975283","0.901476141434947","0","359.9375"
"4845","1.51424648129077","0.279780295228287","2.97047717130106","2.10504634397528","-0.0985238585650532","0","359.9375"
"4847","0.514246481290766","1.27978029522829","-0.0295228286989371","2.10504634397528","-0.0985238585650532","0","359.9375"
