Timer,AX,AY,AZ,GX,GY,GZ,A
"32","0.728917719358143","-0.212359166951178","-1.77637418914305","-1.03823830658928","0.99726869238648","0","359.9375"
"32","0.728917719358143","0.787640833048822","-0.776374189143052","-1.03823830658928","0.99726869238648","0","359.9375"
"40","0.728917719358143","0.787640833048822","-0.776374189143052","-3.03823830658928","1.99726869238648","0","359.9375"
"41","-0.271082280641857","0.787640833048822","-0.776374189143052","-3.03823830658928","1.99726869238648","0","359.9375"
"49","-0.271082280641857","0.787640833048822","-0.776374189143052","-1.03823830658928","1.99726869238648","0","359.9375"
"49","0.728917719358143","-0.212359166951178","-0.776374189143052","-1.03823830658928","1.99726869238648","0","359.9375"
"62","0.728917719358143","-0.212359166951178","-0.776374189143052","-2.03823830658928","0.99726869238648","0","359.9375"
"63","0.728917719358143","-1.21235916695118","-1.77637418914305","-2.03823830658928","0.99726869238648","0","359.9375"
"69","0.728917719358143","-1.21235916695118","-1.77637418914305","-2.03823830658928","-2.00273130761352","0","359.9375"
"69","-1.27108228064186","-0.212359166951178","3.22362581085695","-2.03823830658928","-2.00273130761352","0","359.9375"
"75","-1.27108228064186","-0.212359166951178","3.22362581085695","1.96176169341072","-0.00273130761351997","0","359.9375"
"75","0.728917719358143","-0.212359166951178","-0.776374189143052","1.96176169341072","-0.00273130761351997","0","359.9375"
"81","0.728917719358143","-0.212359166951178","-0.776374189143052","-2.03823830658928","-1.00273130761352","0","359.9375"
"82","0.728917719358143","-0.212359166951178","0.223625810856948","-2.03823830658928","-1.00273130761352","0","359.9375"
"88","0.728917719358143","-0.212359166951178","0.223625810856948","-6.03823830658928","-3.00273130761352","0","359.9375"
"88","0.728917719358143","-0.212359166951178","0.223625810856948","-6.03823830658928","-3.00273130761352","0","359.9375"
"94","0.728917719358143","-0.212359166951178","0.223625810856948","-0.0382383065892796","-1.00273130761352","0","359.9375"
"94","-1.27108228064186","-0.212359166951178","-2.77637418914305","-0.0382383065892796","-1.00273130761352","0","359.9375"
"100","-1.27108228064186","-0.212359166951178","-2.77637418914305","-3.03823830658928","3.99726869238648","0","359.9375"
"100","-0.271082280641857","-0.212359166951178","-1.77637418914305","-3.03823830658928","3.99726869238648","0","359.9375"
"106","-0.271082280641857","-0.212359166951178","-1.77637418914305","2.96176169341072","2.99726869238648","0","359.9375"
"106","-0.271082280641857","-0.212359166951178","0.223625810856948","2.96176169341072","2.99726869238648","0","359.9375"
"112","-0.271082280641857","-0.212359166951178","0.223625810856948","3.96176169341072","-1.00273130761352","0","359.9375"
"112","-1.27108228064186","-0.212359166951178","-0.776374189143052","3.96176169341072","-1.00273130761352","0","359.9375"
"117","-1.27108228064186","-0.212359166951178","-0.776374189143052","3.96176169341072","-0.00273130761351997","0","359.9375"
"118","-0.271082280641857","-0.212359166951178","3.22362581085695","3.96176169341072","-0.00273130761351997","0","359.9375"
"123","-0.271082280641857","-0.212359166951178","3.22362581085695","0.96176169341072","0.99726869238648","0","359.9375"
"123","0.728917719358143","-0.212359166951178","-1.77637418914305","0.96176169341072","0.99726869238648","0","359.9375"
"128","0.728917719358143","-0.212359166951178","-1.77637418914305","2.96176169341072","1.99726869238648","0","359.9375"
"129","-2.27108228064186","-1.21235916695118","-2.77637418914305","2.96176169341072","1.99726869238648","0","359.9375"
"134","-2.27108228064186","-1.21235916695118","-2.77637418914305","-0.0382383065892796","-1.00273130761352","0","359.9375"
"134","-0.271082280641857","-1.21235916695118","-0.776374189143052","-0.0382383065892796","-1.00273130761352","0","359.9375"
"140","-0.271082280641857","-1.21235916695118","-0.776374189143052","-0.0382383065892796","-1.00273130761352","0","359.9375"
"140","0.728917719358143","-0.212359166951178","0.223625810856948","-0.0382383065892796","-1.00273130761352","0","359.9375"
"145","0.728917719358143","-0.212359166951178","0.223625810856948","0.96176169341072","-0.00273130761351997","0","359.9375"
"145","-0.271082280641857","-0.212359166951178","0.223625810856948","0.96176169341072","-0.00273130761351997","0","359.9375"
"151","-0.271082280641857","-0.212359166951178","0.223625810856948","-1.03823830658928","0.99726869238648","0","359.9375"
"151","-0.271082280641857","-0.212359166951178","-0.776374189143052","-1.03823830658928","0.99726869238648","0","359.9375"
"156","-0.271082280641857","-0.212359166951178","-0.776374189143052","2.96176169341072","1.99726869238648","0","359.9375"
"156","-0.271082280641857","-0.212359166951178","1.22362581085695","2.96176169341072","1.99726869238648","0","359.9375"
"162","-0.271082280641857","-0.212359166951178","1.22362581085695","0.96176169341072","-2.00273130761352","0","359.9375"
"162","0.728917719358143","-0.212359166951178","2.22362581085695","0.96176169341072","-2.00273130761352","0","359.9375"
"167","0.728917719358143","-0.212359166951178","2.22362581085695","-0.0382383065892796","-2.00273130761352","0","359.9375"
"167","-0.271082280641857","0.787640833048822","0.223625810856948","-0.0382383065892796","-2.00273130761352","0","359.9375"
"173","-0.271082280641857","0.787640833048822","0.223625810856948","-1.03823830658928","-0.00273130761351997","0","359.9375"
"173","-2.27108228064186","-0.212359166951178","-0.776374189143052","-1.03823830658928","-0.00273130761351997","0","359.9375"
"179","-2.27108228064186","-0.212359166951178","-0.776374189143052","-0.0382383065892796","-3.00273130761352","0","359.9375"
"180","-0.271082280641857","-0.212359166951178","0.223625810856948","-0.0382383065892796","-3.00273130761352","0","359.9375"
"186","-0.271082280641857","-0.212359166951178","0.223625810856948","1.96176169341072","-1.00273130761352","0","359.9375"
"186","-1.27108228064186","0.787640833048822","1.22362581085695","1.96176169341072","-1.00273130761352","0","359.9375"
"193","-1.27108228064186","0.787640833048822","1.22362581085695","-0.0382383065892796","-2.00273130761352","0","359.9375"
"193","-3.27108228064186","-1.21235916695118","0.223625810856948","-0.0382383065892796","-2.00273130761352","0","359.9375"
"199","-3.27108228064186","-1.21235916695118","0.223625810856948","-0.0382383065892796","-0.00273130761351997","0","359.9375"
"199","-1.27108228064186","-0.212359166951178","2.22362581085695","-0.0382383065892796","-0.00273130761351997","0","359.9375"
"206","-1.27108228064186","-0.212359166951178","2.22362581085695","-2.03823830658928","-2.00273130761352","0","359.9375"
"206","0.728917719358143","-0.212359166951178","-0.776374189143052","-2.03823830658928","-2.00273130761352","0","359.9375"
"213","0.728917719358143","-0.212359166951178","-0.776374189143052","-2.03823830658928","-4.00273130761352","0","359.9375"
"213","0.728917719358143","-0.212359166951178","-2.77637418914305","-2.03823830658928","-4.00273130761352","0","359.9375"
"222","0.728917719358143","-0.212359166951178","-2.77637418914305","-3.03823830658928","-0.00273130761351997","0","359.9375"
"222","0.728917719358143","-1.21235916695118","-0.776374189143052","-3.03823830658928","-0.00273130761351997","0","359.9375"
"230","0.728917719358143","-1.21235916695118","-0.776374189143052","-2.03823830658928","-0.00273130761351997","0","359.9375"
"230","0.728917719358143","-0.212359166951178","-0.776374189143052","-2.03823830658928","-0.00273130761351997","0","359.9375"
"237","0.728917719358143","-0.212359166951178","-0.776374189143052","-2.03823830658928","-1.00273130761352","0","359.9375"
"237","-0.271082280641857","-0.212359166951178","0.223625810856948","-2.03823830658928","-1.00273130761352","0","359.9375"
"244","-0.271082280641857","-0.212359166951178","0.223625810856948","-1.03823830658928","-0.00273130761351997","0","359.9375"
"244","0.728917719358143","-0.212359166951178","2.22362581085695","-1.03823830658928","-0.00273130761351997","0","359.9375"
"250","0.728917719358143","-0.212359166951178","2.22362581085695","-1.03823830658928","-1.00273130761352","0","359.9375"
"251","0.728917719358143","-0.212359166951178","-1.77637418914305","-1.03823830658928","-1.00273130761352","0","359.9375"
"258","0.728917719358143","-0.212359166951178","-1.77637418914305","-4.03823830658928","-1.00273130761352","0","359.9375"
"258","0.728917719358143","-0.212359166951178","0.223625810856948","-4.03823830658928","-1.00273130761352","0","359.9375"
"264","0.728917719358143","-0.212359166951178","0.223625810856948","-2.03823830658928","-0.00273130761351997","0","359.9375"
"264","-0.271082280641857","-0.212359166951178","-0.776374189143052","-2.03823830658928","-0.00273130761351997","0","359.9375"
"269","-0.271082280641857","-0.212359166951178","-0.776374189143052","-0.0382383065892796","-1.00273130761352","0","359.9375"
"269","0.728917719358143","-1.21235916695118","0.223625810856948","-0.0382383065892796","-1.00273130761352","0","359.9375"
"276","0.728917719358143","-1.21235916695118","0.223625810856948","-1.03823830658928","-3.00273130761352","0","359.9375"
"277","0.728917719358143","0.787640833048822","1.22362581085695","-1.03823830658928","-3.00273130761352","0","359.9375"
"282","0.728917719358143","0.787640833048822","1.22362581085695","-1.03823830658928","-0.00273130761351997","0","359.9375"
"282","0.728917719358143","0.787640833048822","-0.776374189143052","-1.03823830658928","-0.00273130761351997","0","359.9375"
"287","0.728917719358143","0.787640833048822","-0.776374189143052","-2.03823830658928","0.99726869238648","0","359.9375"
"288","0.728917719358143","0.787640833048822","-0.776374189143052","-2.03823830658928","0.99726869238648","0","359.9375"
"293","0.728917719358143","0.787640833048822","-0.776374189143052","-2.03823830658928","-1.00273130761352","0","359.9375"
"294","0.728917719358143","1.78764083304882","1.22362581085695","-2.03823830658928","-1.00273130761352","0","359.9375"
"299","0.728917719358143","1.78764083304882","1.22362581085695","-1.03823830658928","0.99726869238648","0","359.9375"
"299","-0.271082280641857","0.787640833048822","-0.776374189143052","-1.03823830658928","0.99726869238648","0","359.9375"
"305","-0.271082280641857","0.787640833048822","-0.776374189143052","-0.0382383065892796","-0.00273130761351997","0","359.9375"
"305","0.728917719358143","-2.21235916695118","1.22362581085695","-0.0382383065892796","-0.00273130761351997","0","359.9375"
"310","0.728917719358143","-2.21235916695118","1.22362581085695","-1.03823830658928","-2.00273130761352","0","359.9375"
"311","0.728917719358143","0.787640833048822","-1.77637418914305","-1.03823830658928","-2.00273130761352","0","359.9375"
"316","0.728917719358143","0.787640833048822","-1.77637418914305","-4.03823830658928","-3.00273130761352","0","359.9375"
"316","-0.271082280641857","-0.212359166951178","-1.77637418914305","-4.03823830658928","-3.00273130761352","0","359.9375"
"322","-0.271082280641857","-0.212359166951178","-1.77637418914305","-1.03823830658928","-0.00273130761351997","0","359.9375"
"322","-0.271082280641857","0.787640833048822","-0.776374189143052","-1.03823830658928","-0.00273130761351997","0","359.9375"
"327","-0.271082280641857","0.787640833048822","-0.776374189143052","-0.0382383065892796","-1.00273130761352","0","359.9375"
"327","0.728917719358143","-1.21235916695118","0.223625810856948","-0.0382383065892796","-1.00273130761352","0","359.9375"
"333","0.728917719358143","-1.21235916695118","0.223625810856948","1.96176169341072","-1.00273130761352","0","359.9375"
"333","-2.27108228064186","1.78764083304882","-2.77637418914305","1.96176169341072","-1.00273130761352","0","359.9375"
"338","-2.27108228064186","1.78764083304882","-2.77637418914305","0.96176169341072","-1.00273130761352","0","359.9375"
"338","0.728917719358143","-1.21235916695118","0.223625810856948","0.96176169341072","-1.00273130761352","0","359.9375"
"344","0.728917719358143","-1.21235916695118","0.223625810856948","0.96176169341072","-2.00273130761352","0","359.9375"
"344","-1.27108228064186","-0.212359166951178","0.223625810856948","0.96176169341072","-2.00273130761352","0","359.9375"
"349","-1.27108228064186","-0.212359166951178","0.223625810856948","-1.03823830658928","-2.00273130761352","0","359.9375"
"349","-0.271082280641857","-0.212359166951178","-1.77637418914305","-1.03823830658928","-2.00273130761352","0","359.9375"
"355","-0.271082280641857","-0.212359166951178","-1.77637418914305","-2.03823830658928","0.99726869238648","0","359.9375"
"355","0.728917719358143","-0.212359166951178","-2.77637418914305","-2.03823830658928","0.99726869238648","0","359.9375"
"361","0.728917719358143","-0.212359166951178","-2.77637418914305","1.96176169341072","-1.00273130761352","0","359.9375"
"361","0.728917719358143","-0.212359166951178","0.223625810856948","1.96176169341072","-1.00273130761352","0","359.9375"
"366","0.728917719358143","-0.212359166951178","0.223625810856948","-0.0382383065892796","-1.00273130761352","0","359.9375"
"366","0.728917719358143","0.787640833048822","-1.77637418914305","-0.0382383065892796","-1.00273130761352","0","359.9375"
"371","0.728917719358143","0.787640833048822","-1.77637418914305","-2.03823830658928","-1.00273130761352","0","359.9375"
"372","-0.271082280641857","-1.21235916695118","-0.776374189143052","-2.03823830658928","-1.00273130761352","0","359.9375"
"377","-0.271082280641857","-1.21235916695118","-0.776374189143052","-3.03823830658928","2.99726869238648","0","359.9375"
"377","-0.271082280641857","-0.212359166951178","1.22362581085695","-3.03823830658928","2.99726869238648","0","359.9375"
"382","-0.271082280641857","-0.212359166951178","1.22362581085695","0.96176169341072","-0.00273130761351997","0","359.9375"
"383","-0.271082280641857","0.787640833048822","-1.77637418914305","0.96176169341072","-0.00273130761351997","0","359.9375"
"388","-0.271082280641857","0.787640833048822","-1.77637418914305","1.96176169341072","-1.00273130761352","0","359.9375"
"388","-0.271082280641857","-0.212359166951178","1.22362581085695","1.96176169341072","-1.00273130761352","0","359.9375"
"394","-0.271082280641857","-0.212359166951178","1.22362581085695","1.96176169341072","-2.00273130761352","0","359.9375"
"395","0.728917719358143","0.787640833048822","-1.77637418914305","1.96176169341072","-2.00273130761352","0","359.9375"
"401","0.728917719358143","0.787640833048822","-1.77637418914305","0.96176169341072","-0.00273130761351997","0","359.9375"
"401","0.728917719358143","0.787640833048822","-0.776374189143052","0.96176169341072","-0.00273130761351997","0","359.9375"
"406","0.728917719358143","0.787640833048822","-0.776374189143052","0.96176169341072","-2.00273130761352","0","359.9375"
"406","-0.271082280641857","-0.212359166951178","1.22362581085695","0.96176169341072","-2.00273130761352","0","359.9375"
"412","-0.271082280641857","-0.212359166951178","1.22362581085695","0.96176169341072","-0.00273130761351997","0","359.9375"
"412","1.72891771935814","-2.21235916695118","2.22362581085695","0.96176169341072","-0.00273130761351997","0","359.9375"
"417","1.72891771935814","-2.21235916695118","2.22362581085695","0.96176169341072","0.99726869238648","0","359.9375"
"417","-0.271082280641857","0.787640833048822","0.223625810856948","0.96176169341072","0.99726869238648","0","359.9375"
"424","-0.271082280641857","0.787640833048822","0.223625810856948","-0.0382383065892796","-1.00273130761352","0","359.9375"
"424","0.728917719358143","0.787640833048822","-2.77637418914305","-0.0382383065892796","-1.00273130761352","0","359.9375"
"431","0.728917719358143","0.787640833048822","-2.77637418914305","0.96176169341072","-2.00273130761352","0","359.9375"
"432","-1.27108228064186","-0.212359166951178","1.22362581085695","0.96176169341072","-2.00273130761352","0","359.9375"
"439","-1.27108228064186","-0.212359166951178","1.22362581085695","0.96176169341072","-2.00273130761352","0","359.9375"
"439","0.728917719358143","-0.212359166951178","1.22362581085695","0.96176169341072","-2.00273130761352","0","359.9375"
"448","0.728917719358143","-0.212359166951178","1.22362581085695","-1.03823830658928","-2.00273130761352","0","359.9375"
"448","1.72891771935814","-0.212359166951178","0.223625810856948","-1.03823830658928","-2.00273130761352","0","359.9375"
"460","1.72891771935814","-0.212359166951178","0.223625810856948","-2.03823830658928","-1.00273130761352","0","359.9375"
"461","-1.27108228064186","-0.212359166951178","-2.77637418914305","-2.03823830658928","-1.00273130761352","0","359.9375"
"468","-1.27108228064186","-0.212359166951178","-2.77637418914305","-0.0382383065892796","-3.00273130761352","0","359.9375"
"468","0.728917719358143","-0.212359166951178","-2.77637418914305","-0.0382383065892796","-3.00273130761352","0","359.9375"
"475","0.728917719358143","-0.212359166951178","-2.77637418914305","-2.03823830658928","0.99726869238648","0","359.9375"
"475","0.728917719358143","-0.212359166951178","-0.776374189143052","-2.03823830658928","0.99726869238648","0","359.9375"
"481","0.728917719358143","-0.212359166951178","-0.776374189143052","2.96176169341072","-0.00273130761351997","0","359.9375"
"481","0.728917719358143","-1.21235916695118","1.22362581085695","2.96176169341072","-0.00273130761351997","0","359.9375"
"487","0.728917719358143","-1.21235916695118","1.22362581085695","-2.03823830658928","-0.00273130761351997","0","359.9375"
"487","-0.271082280641857","0.787640833048822","-1.77637418914305","-2.03823830658928","-0.00273130761351997","0","359.9375"
"493","-0.271082280641857","0.787640833048822","-1.77637418914305","0.96176169341072","-1.00273130761352","0","359.9375"
"493","-1.27108228064186","-0.212359166951178","-0.776374189143052","0.96176169341072","-1.00273130761352","0","359.9375"
"498","-1.27108228064186","-0.212359166951178","-0.776374189143052","1.96176169341072","-2.00273130761352","0","359.9375"
"498","0.728917719358143","-0.212359166951178","2.22362581085695","1.96176169341072","-2.00273130761352","0","359.9375"
"503","0.728917719358143","-0.212359166951178","2.22362581085695","-2.03823830658928","0.99726869238648","0","359.9375"
"503","0.728917719358143","-1.21235916695118","0.223625810856948","-2.03823830658928","0.99726869238648","0","359.9375"
"509","0.728917719358143","-1.21235916695118","0.223625810856948","-0.0382383065892796","0.99726869238648","0","359.9375"
"509","-1.27108228064186","1.78764083304882","-0.776374189143052","-0.0382383065892796","0.99726869238648","0","359.9375"
"515","-1.27108228064186","1.78764083304882","-0.776374189143052","-1.03823830658928","0.99726869238648","0","359.9375"
"515","-0.271082280641857","-0.212359166951178","2.22362581085695","-1.03823830658928","0.99726869238648","0","359.9375"
"520","-0.271082280641857","-0.212359166951178","2.22362581085695","1.96176169341072","-0.00273130761351997","0","359.9375"
"520","0.728917719358143","-1.21235916695118","-1.77637418914305","1.96176169341072","-0.00273130761351997","0","359.9375"
"526","0.728917719358143","-1.21235916695118","-1.77637418914305","-1.03823830658928","0.99726869238648","0","359.9375"
"526","-0.271082280641857","-0.212359166951178","-2.77637418914305","-1.03823830658928","0.99726869238648","0","359.9375"
"531","-0.271082280641857","-0.212359166951178","-2.77637418914305","1.96176169341072","-1.00273130761352","0","359.9375"
"531","-0.271082280641857","1.78764083304882","-0.776374189143052","1.96176169341072","-1.00273130761352","0","359.9375"
"536","-0.271082280641857","1.78764083304882","-0.776374189143052","-1.03823830658928","-0.00273130761351997","0","359.9375"
"537","0.728917719358143","-2.21235916695118","-0.776374189143052","-1.03823830658928","-0.00273130761351997","0","359.9375"
"542","0.728917719358143","-2.21235916695118","-0.776374189143052","-0.0382383065892796","-1.00273130761352","0","359.9375"
"542","0.728917719358143","-0.212359166951178","0.223625810856948","-0.0382383065892796","-1.00273130761352","0","359.9375"
"548","0.728917719358143","-0.212359166951178","0.223625810856948","1.96176169341072","-1.00273130761352","0","359.9375"
"548","-0.271082280641857","1.78764083304882","-1.77637418914305","1.96176169341072","-1.00273130761352","0","359.9375"
"553","-0.271082280641857","1.78764083304882","-1.77637418914305","0.96176169341072","1.99726869238648","0","359.9375"
"553","-0.271082280641857","-0.212359166951178","0.223625810856948","0.96176169341072","1.99726869238648","0","359.9375"
"559","-0.271082280641857","-0.212359166951178","0.223625810856948","-2.03823830658928","-1.00273130761352","0","359.9375"
"559","0.728917719358143","-0.212359166951178","-1.77637418914305","-2.03823830658928","-1.00273130761352","0","359.9375"
"566","0.728917719358143","-0.212359166951178","-1.77637418914305","0.96176169341072","-1.00273130761352","0","359.9375"
"566","-1.27108228064186","-0.212359166951178","1.22362581085695","0.96176169341072","-1.00273130761352","0","359.9375"
"573","-1.27108228064186","-0.212359166951178","1.22362581085695","-2.03823830658928","0.99726869238648","0","359.9375"
"573","0.728917719358143","-0.212359166951178","0.223625810856948","-2.03823830658928","0.99726869238648","0","359.9375"
"579","0.728917719358143","-0.212359166951178","0.223625810856948","0.96176169341072","0.99726869238648","0","359.9375"
"579","0.728917719358143","-0.212359166951178","0.223625810856948","0.96176169341072","0.99726869238648","0","359.9375"
"587","0.728917719358143","-0.212359166951178","0.223625810856948","0.96176169341072","-2.00273130761352","0","359.9375"
"587","-0.271082280641857","0.787640833048822","1.22362581085695","0.96176169341072","-2.00273130761352","0","359.9375"
"594","-0.271082280641857","0.787640833048822","1.22362581085695","-1.03823830658928","-0.00273130761351997","0","359.9375"
"594","0.728917719358143","-0.212359166951178","-0.776374189143052","-1.03823830658928","-0.00273130761351997","0","359.9375"
"600","0.728917719358143","-0.212359166951178","-0.776374189143052","-1.03823830658928","-1.00273130761352","0","359.9375"
"600","0.728917719358143","-0.212359166951178","0.223625810856948","-1.03823830658928","-1.00273130761352","0","359.9375"
"605","0.728917719358143","-0.212359166951178","0.223625810856948","1.96176169341072","-1.00273130761352","0","359.9375"
"605","0.728917719358143","-0.212359166951178","2.22362581085695","1.96176169341072","-1.00273130761352","0","359.9375"
"611","0.728917719358143","-0.212359166951178","2.22362581085695","-0.0382383065892796","-0.00273130761351997","0","359.9375"
"611","0.728917719358143","-0.212359166951178","1.22362581085695","-0.0382383065892796","-0.00273130761351997","0","359.9375"
"616","0.728917719358143","-0.212359166951178","1.22362581085695","0.96176169341072","-2.00273130761352","0","359.9375"
"616","0.728917719358143","0.787640833048822","-2.77637418914305","0.96176169341072","-2.00273130761352","0","359.9375"
"622","0.728917719358143","0.787640833048822","-2.77637418914305","0.96176169341072","-1.00273130761352","0","359.9375"
"622","-0.271082280641857","-0.212359166951178","1.22362581085695","0.96176169341072","-1.00273130761352","0","359.9375"
"628","-0.271082280641857","-0.212359166951178","1.22362581085695","-1.03823830658928","-0.00273130761351997","0","359.9375"
"628","0.728917719358143","-0.212359166951178","0.223625810856948","-1.03823830658928","-0.00273130761351997","0","359.9375"
"635","0.728917719358143","-0.212359166951178","0.223625810856948","-1.03823830658928","-2.00273130761352","0","359.9375"
"635","0.728917719358143","-1.21235916695118","0.223625810856948","-1.03823830658928","-2.00273130761352","0","359.9375"
"641","0.728917719358143","-1.21235916695118","0.223625810856948","2.96176169341072","-1.00273130761352","0","359.9375"
"642","-0.271082280641857","-0.212359166951178","3.22362581085695","2.96176169341072","-1.00273130761352","0","359.9375"
"650","-0.271082280641857","-0.212359166951178","3.22362581085695","-0.0382383065892796","0.99726869238648","0","359.9375"
"650","-0.271082280641857","-0.212359166951178","1.22362581085695","-0.0382383065892796","0.99726869238648","0","359.9375"
"657","-0.271082280641857","-0.212359166951178","1.22362581085695","-2.03823830658928","-1.00273130761352","0","359.9375"
"657","-0.271082280641857","-0.212359166951178","-0.776374189143052","-2.03823830658928","-1.00273130761352","0","359.9375"
"662","-0.271082280641857","-0.212359166951178","-0.776374189143052","-2.03823830658928","-0.00273130761351997","0","359.9375"
"662","-1.27108228064186","0.787640833048822","-0.776374189143052","-2.03823830658928","-0.00273130761351997","0","359.9375"
"668","-1.27108228064186","0.787640833048822","-0.776374189143052","-3.03823830658928","2.99726869238648","0","359.9375"
"669","0.728917719358143","-2.21235916695118","-0.776374189143052","-3.03823830658928","2.99726869238648","0","359.9375"
"675","0.728917719358143","-2.21235916695118","-0.776374189143052","-0.0382383065892796","-1.00273130761352","0","359.9375"
"675","1.72891771935814","1.78764083304882","0.223625810856948","-0.0382383065892796","-1.00273130761352","0","359.9375"
"681","1.72891771935814","1.78764083304882","0.223625810856948","-0.0382383065892796","-2.00273130761352","0","359.9375"
"681","0.728917719358143","-0.212359166951178","-2.77637418914305","-0.0382383065892796","-2.00273130761352","0","359.9375"
"686","0.728917719358143","-0.212359166951178","-2.77637418914305","-1.03823830658928","0.99726869238648","0","359.9375"
"686","-1.27108228064186","1.78764083304882","-0.776374189143052","-1.03823830658928","0.99726869238648","0","359.9375"
"692","-1.27108228064186","1.78764083304882","-0.776374189143052","-2.03823830658928","-0.00273130761351997","0","359.9375"
"692","0.728917719358143","-1.21235916695118","0.223625810856948","-2.03823830658928","-0.00273130761351997","0","359.9375"
"697","0.728917719358143","-1.21235916695118","0.223625810856948","-1.03823830658928","0.99726869238648","0","359.9375"
"698","-2.27108228064186","-0.212359166951178","0.223625810856948","-1.03823830658928","0.99726869238648","0","359.9375"
"703","-2.27108228064186","-0.212359166951178","0.223625810856948","-1.03823830658928","1.99726869238648","0","359.9375"
"703","-1.27108228064186","-0.212359166951178","1.22362581085695","-1.03823830658928","1.99726869238648","0","359.9375"
"709","-1.27108228064186","-0.212359166951178","1.22362581085695","-2.03823830658928","1.99726869238648","0","359.9375"
"709","-1.27108228064186","2.78764083304882","-1.77637418914305","-2.03823830658928","1.99726869238648","0","359.9375"
"714","-1.27108228064186","2.78764083304882","-1.77637418914305","-3.03823830658928","-0.00273130761351997","0","359.9375"
"715","-0.271082280641857","0.787640833048822","0.223625810856948","-3.03823830658928","-0.00273130761351997","0","359.9375"
"720","-0.271082280641857","0.787640833048822","0.223625810856948","1.96176169341072","-1.00273130761352","0","359.9375"
"720","-0.271082280641857","-0.212359166951178","1.22362581085695","1.96176169341072","-1.00273130761352","0","359.9375"
"726","-0.271082280641857","-0.212359166951178","1.22362581085695","-0.0382383065892796","-1.00273130761352","0","359.9375"
"726","0.728917719358143","-0.212359166951178","2.22362581085695","-0.0382383065892796","-1.00273130761352","0","359.9375"
"731","0.728917719358143","-0.212359166951178","2.22362581085695","-0.0382383065892796","-1.00273130761352","0","359.9375"
"731","-0.271082280641857","1.78764083304882","1.22362581085695","-0.0382383065892796","-1.00273130761352","0","359.9375"
"737","-0.271082280641857","1.78764083304882","1.22362581085695","-1.03823830658928","-2.00273130761352","0","359.9375"
"737","-0.271082280641857","-0.212359166951178","-0.776374189143052","-1.03823830658928","-2.00273130761352","0","359.9375"
"743","-0.271082280641857","-0.212359166951178","-0.776374189143052","-4.03823830658928","2.99726869238648","0","359.9375"
"743","-1.27108228064186","-0.212359166951178","0.223625810856948","-4.03823830658928","2.99726869238648","0","359.9375"
"749","-1.27108228064186","-0.212359166951178","0.223625810856948","-0.0382383065892796","0.99726869238648","0","359.9375"
"749","-0.271082280641857","-0.212359166951178","0.223625810856948","-0.0382383065892796","0.99726869238648","0","359.9375"
"755","-0.271082280641857","-0.212359166951178","0.223625810856948","-1.03823830658928","-2.00273130761352","0","359.9375"
"755","-0.271082280641857","-0.212359166951178","0.223625810856948","-1.03823830658928","-2.00273130761352","0","359.9375"
"761","-0.271082280641857","-0.212359166951178","0.223625810856948","-1.03823830658928","-2.00273130761352","0","359.9375"
"761","0.728917719358143","1.78764083304882","1.22362581085695","-1.03823830658928","-2.00273130761352","0","359.9375"
"766","0.728917719358143","1.78764083304882","1.22362581085695","-0.0382383065892796","-0.00273130761351997","0","359.9375"
"766","-1.27108228064186","0.787640833048822","-0.776374189143052","-0.0382383065892796","-0.00273130761351997","0","359.9375"
"772","-1.27108228064186","0.787640833048822","-0.776374189143052","-1.03823830658928","0.99726869238648","0","359.9375"
"772","-0.271082280641857","-1.21235916695118","-0.776374189143052","-1.03823830658928","0.99726869238648","0","359.9375"
"777","-0.271082280641857","-1.21235916695118","-0.776374189143052","0.96176169341072","-1.00273130761352","0","359.9375"
"777","-0.271082280641857","-0.212359166951178","-0.776374189143052","0.96176169341072","-1.00273130761352","0","359.9375"
"783","-0.271082280641857","-0.212359166951178","-0.776374189143052","1.96176169341072","0.99726869238648","0","359.9375"
"783","0.728917719358143","0.787640833048822","0.223625810856948","1.96176169341072","0.99726869238648","0","359.9375"
"789","0.728917719358143","0.787640833048822","0.223625810856948","2.96176169341072","0.99726869238648","0","359.9375"
"789","-0.271082280641857","-0.212359166951178","0.223625810856948","2.96176169341072","0.99726869238648","0","359.9375"
"794","-0.271082280641857","-0.212359166951178","0.223625810856948","2.96176169341072","-0.00273130761351997","0","359.9375"
"794","0.728917719358143","-0.212359166951178","-0.776374189143052","2.96176169341072","-0.00273130761351997","0","359.9375"
"799","0.728917719358143","-0.212359166951178","-0.776374189143052","-0.0382383065892796","-0.00273130761351997","0","359.9375"
"800","-0.271082280641857","-0.212359166951178","-0.776374189143052","-0.0382383065892796","-0.00273130761351997","0","359.9375"
"805","-0.271082280641857","-0.212359166951178","-0.776374189143052","-1.03823830658928","-0.00273130761351997","0","359.9375"
"805","-0.271082280641857","-0.212359166951178","1.22362581085695","-1.03823830658928","-0.00273130761351997","0","359.9375"
"811","-0.271082280641857","-0.212359166951178","1.22362581085695","1.96176169341072","-0.00273130761351997","0","359.9375"
"811","-1.27108228064186","-0.212359166951178","0.223625810856948","1.96176169341072","-0.00273130761351997","0","359.9375"
"816","-1.27108228064186","-0.212359166951178","0.223625810856948","1.96176169341072","-0.00273130761351997","0","359.9375"
"816","-0.271082280641857","-0.212359166951178","1.22362581085695","1.96176169341072","-0.00273130761351997","0","359.9375"
"822","-0.271082280641857","-0.212359166951178","1.22362581085695","1.96176169341072","-0.00273130761351997","0","359.9375"
"822","-0.271082280641857","-0.212359166951178","-1.77637418914305","1.96176169341072","-0.00273130761351997","0","359.9375"
"828","-0.271082280641857","-0.212359166951178","-1.77637418914305","-0.0382383065892796","-1.00273130761352","0","359.9375"
"829","0.728917719358143","-1.21235916695118","-2.77637418914305","-0.0382383065892796","-1.00273130761352","0","359.9375"
"836","0.728917719358143","-1.21235916695118","-2.77637418914305","0.96176169341072","-0.00273130761351997","0","359.9375"
"836","0.728917719358143","2.78764083304882","-0.776374189143052","0.96176169341072","-0.00273130761351997","0","359.9375"
"842","0.728917719358143","2.78764083304882","-0.776374189143052","0.96176169341072","-0.00273130761351997","0","359.9375"
"843","-0.271082280641857","-0.212359166951178","1.22362581085695","0.96176169341072","-0.00273130761351997","0","359.9375"
"848","-0.271082280641857","-0.212359166951178","1.22362581085695","0.96176169341072","-0.00273130761351997","0","359.9375"
"848","0.728917719358143","-0.212359166951178","1.22362581085695","0.96176169341072","-0.00273130761351997","0","359.9375"
"856","0.728917719358143","-0.212359166951178","1.22362581085695","1.96176169341072","-1.00273130761352","0","359.9375"
"856","0.728917719358143","0.787640833048822","1.22362581085695","1.96176169341072","-1.00273130761352","0","359.9375"
"862","0.728917719358143","0.787640833048822","1.22362581085695","-1.03823830658928","1.99726869238648","0","359.9375"
"862","-0.271082280641857","-0.212359166951178","-0.776374189143052","-1.03823830658928","1.99726869238648","0","359.9375"
"870","-0.271082280641857","-0.212359166951178","-0.776374189143052","0.96176169341072","-0.00273130761351997","0","359.9375"
"870","0.728917719358143","-2.21235916695118","1.22362581085695","0.96176169341072","-0.00273130761351997","0","359.9375"
"878","0.728917719358143","-2.21235916695118","1.22362581085695","-0.0382383065892796","-1.00273130761352","0","359.9375"
"878","0.728917719358143","-2.21235916695118","1.22362581085695","-0.0382383065892796","-1.00273130761352","0","359.9375"
"883","0.728917719358143","-2.21235916695118","1.22362581085695","-0.0382383065892796","-1.00273130761352","0","359.9375"
"883","0.728917719358143","0.787640833048822","0.223625810856948","-0.0382383065892796","-1.00273130761352","0","359.9375"
"889","0.728917719358143","0.787640833048822","0.223625810856948","-0.0382383065892796","-3.00273130761352","0","359.9375"
"889","0.728917719358143","-1.21235916695118","-1.77637418914305","-0.0382383065892796","-3.00273130761352","0","359.9375"
"895","0.728917719358143","-1.21235916695118","-1.77637418914305","-0.0382383065892796","-1.00273130761352","0","359.9375"
"895","0.728917719358143","-1.21235916695118","0.223625810856948","-0.0382383065892796","-1.00273130761352","0","359.9375"
"901","0.728917719358143","-1.21235916695118","0.223625810856948","-0.0382383065892796","-1.00273130761352","0","359.9375"
"902","0.728917719358143","-0.212359166951178","0.223625810856948","-0.0382383065892796","-1.00273130761352","0","359.9375"
"908","0.728917719358143","-0.212359166951178","0.223625810856948","1.96176169341072","0.99726869238648","0","359.9375"
"908","0.728917719358143","-2.21235916695118","-0.776374189143052","1.96176169341072","0.99726869238648","0","359.9375"
"913","0.728917719358143","-2.21235916695118","-0.776374189143052","-0.0382383065892796","-0.00273130761351997","0","359.9375"
"913","-0.271082280641857","1.78764083304882","-0.776374189143052","-0.0382383065892796","-0.00273130761351997","0","359.9375"
"919","-0.271082280641857","1.78764083304882","-0.776374189143052","-0.0382383065892796","-0.00273130761351997","0","359.9375"
"919","-0.271082280641857","-0.212359166951178","-2.77637418914305","-0.0382383065892796","-0.00273130761351997","0","359.9375"
"926","-0.271082280641857","-0.212359166951178","-2.77637418914305","-0.0382383065892796","0.99726869238648","0","359.9375"
"926","0.728917719358143","-0.212359166951178","0.223625810856948","-0.0382383065892796","0.99726869238648","0","359.9375"
"931","0.728917719358143","-0.212359166951178","0.223625810856948","2.96176169341072","-1.00273130761352","0","359.9375"
"931","0.728917719358143","-0.212359166951178","-1.77637418914305","2.96176169341072","-1.00273130761352","0","359.9375"
"936","0.728917719358143","-0.212359166951178","-1.77637418914305","2.96176169341072","-1.00273130761352","0","359.9375"
"936","0.728917719358143","-0.212359166951178","-1.77637418914305","2.96176169341072","-1.00273130761352","0","359.9375"
"943","0.728917719358143","-0.212359166951178","-1.77637418914305","2.96176169341072","-0.00273130761351997","0","359.9375"
"943","0.728917719358143","-0.212359166951178","2.22362581085695","2.96176169341072","-0.00273130761351997","0","359.9375"
"948","0.728917719358143","-0.212359166951178","2.22362581085695","1.96176169341072","-0.00273130761351997","0","359.9375"
"948","0.728917719358143","-0.212359166951178","1.22362581085695","1.96176169341072","-0.00273130761351997","0","359.9375"
"953","0.728917719358143","-0.212359166951178","1.22362581085695","0.96176169341072","-1.00273130761352","0","359.9375"
"954","-1.27108228064186","0.787640833048822","-0.776374189143052","0.96176169341072","-1.00273130761352","0","359.9375"
"960","-1.27108228064186","0.787640833048822","-0.776374189143052","0.96176169341072","0.99726869238648","0","359.9375"
"960","-1.27108228064186","-0.212359166951178","-0.776374189143052","0.96176169341072","0.99726869238648","0","359.9375"
"965","-1.27108228064186","-0.212359166951178","-0.776374189143052","-0.0382383065892796","0.99726869238648","0","359.9375"
"965","-1.27108228064186","-0.212359166951178","-0.776374189143052","-0.0382383065892796","0.99726869238648","0","359.9375"
"971","-1.27108228064186","-0.212359166951178","-0.776374189143052","-0.0382383065892796","-1.00273130761352","0","359.9375"
"971","0.728917719358143","-0.212359166951178","-0.776374189143052","-0.0382383065892796","-1.00273130761352","0","359.9375"
"978","0.728917719358143","-0.212359166951178","-0.776374189143052","5.96176169341072","-1.00273130761352","0","359.9375"
"978","0.728917719358143","-0.212359166951178","-0.776374189143052","5.96176169341072","-1.00273130761352","0","359.9375"
"983","0.728917719358143","-0.212359166951178","-0.776374189143052","3.96176169341072","-0.00273130761351997","0","359.9375"
"983","-0.271082280641857","-0.212359166951178","0.223625810856948","3.96176169341072","-0.00273130761351997","0","359.9375"
"989","-0.271082280641857","-0.212359166951178","0.223625810856948","-1.03823830658928","0.99726869238648","0","359.9375"
"989","0.728917719358143","0.787640833048822","0.223625810856948","-1.03823830658928","0.99726869238648","0","359.9375"
"996","0.728917719358143","0.787640833048822","0.223625810856948","1.96176169341072","-0.00273130761351997","0","359.9375"
"996","0.728917719358143","0.787640833048822","0.223625810856948","1.96176169341072","-0.00273130761351997","0","359.9375"
"1001","0.728917719358143","0.787640833048822","0.223625810856948","-0.0382383065892796","-1.00273130761352","0","359.9375"
"1001","0.728917719358143","-0.212359166951178","0.223625810856948","-0.0382383065892796","-1.00273130761352","0","359.9375"
"1007","0.728917719358143","-0.212359166951178","0.223625810856948","0.96176169341072","-0.00273130761351997","0","359.9375"
"1007","-0.271082280641857","-0.212359166951178","1.22362581085695","0.96176169341072","-0.00273130761351997","0","359.9375"
"1013","-0.271082280641857","-0.212359166951178","1.22362581085695","-1.03823830658928","-1.00273130761352","0","359.9375"
"1013","-0.271082280641857","-0.212359166951178","-0.776374189143052","-1.03823830658928","-1.00273130761352","0","359.9375"
"1019","-0.271082280641857","-0.212359166951178","-0.776374189143052","0.96176169341072","0.99726869238648","0","359.9375"
"1019","0.728917719358143","-0.212359166951178","0.223625810856948","0.96176169341072","0.99726869238648","0","359.9375"
"1025","0.728917719358143","-0.212359166951178","0.223625810856948","1.96176169341072","-0.00273130761351997","0","359.9375"
"1025","0.728917719358143","-0.212359166951178","0.223625810856948","1.96176169341072","-0.00273130761351997","0","359.9375"
"1031","0.728917719358143","-0.212359166951178","0.223625810856948","1.96176169341072","-0.00273130761351997","0","359.9375"
"1031","0.728917719358143","-1.21235916695118","0.223625810856948","1.96176169341072","-0.00273130761351997","0","359.9375"
"1037","0.728917719358143","-1.21235916695118","0.223625810856948","-0.0382383065892796","0.99726869238648","0","359.9375"
"1037","0.728917719358143","-0.212359166951178","-0.776374189143052","-0.0382383065892796","0.99726869238648","0","359.9375"
"1045","0.728917719358143","-0.212359166951178","-0.776374189143052","-3.03823830658928","1.99726869238648","0","359.9375"
"1045","-1.27108228064186","0.787640833048822","-3.77637418914305","-3.03823830658928","1.99726869238648","0","359.9375"
"1052","-1.27108228064186","0.787640833048822","-3.77637418914305","1.96176169341072","-2.00273130761352","0","359.9375"
"1052","-0.271082280641857","-1.21235916695118","3.22362581085695","1.96176169341072","-2.00273130761352","0","359.9375"
"1059","-0.271082280641857","-1.21235916695118","3.22362581085695","1.96176169341072","2.99726869238648","0","359.9375"
"1060","-0.271082280641857","-1.21235916695118","3.22362581085695","1.96176169341072","2.99726869238648","0","359.9375"
"1066","-0.271082280641857","-1.21235916695118","3.22362581085695","0.96176169341072","1.99726869238648","0","359.9375"
"1066","0.728917719358143","-1.21235916695118","-0.776374189143052","0.96176169341072","1.99726869238648","0","359.9375"
"1072","0.728917719358143","-1.21235916695118","-0.776374189143052","-1.03823830658928","-1.00273130761352","0","359.9375"
"1072","0.728917719358143","-0.212359166951178","-2.77637418914305","-1.03823830658928","-1.00273130761352","0","359.9375"
"1078","0.728917719358143","-0.212359166951178","-2.77637418914305","-1.03823830658928","-1.00273130761352","0","359.9375"
"1078","-0.271082280641857","-0.212359166951178","-1.77637418914305","-1.03823830658928","-1.00273130761352","0","359.9375"
"1084","-0.271082280641857","-0.212359166951178","-1.77637418914305","0.96176169341072","-1.00273130761352","0","359.9375"
"1084","-0.271082280641857","-1.21235916695118","-0.776374189143052","0.96176169341072","-1.00273130761352","0","359.9375"
"1090","-0.271082280641857","-1.21235916695118","-0.776374189143052","0.96176169341072","-2.00273130761352","0","359.9375"
"1090","-0.271082280641857","-1.21235916695118","-0.776374189143052","0.96176169341072","-2.00273130761352","0","359.9375"
"1096","-0.271082280641857","-1.21235916695118","-0.776374189143052","1.96176169341072","0.99726869238648","0","359.9375"
"1096","-0.271082280641857","-0.212359166951178","0.223625810856948","1.96176169341072","0.99726869238648","0","359.9375"
"1102","-0.271082280641857","-0.212359166951178","0.223625810856948","4.96176169341072","0.99726869238648","0","359.9375"
"1102","0.728917719358143","-0.212359166951178","-0.776374189143052","4.96176169341072","0.99726869238648","0","359.9375"
"1108","0.728917719358143","-0.212359166951178","-0.776374189143052","-2.03823830658928","0.99726869238648","0","359.9375"
"1108","0.728917719358143","-0.212359166951178","1.22362581085695","-2.03823830658928","0.99726869238648","0","359.9375"
"1114","0.728917719358143","-0.212359166951178","1.22362581085695","-1.03823830658928","-1.00273130761352","0","359.9375"
"1114","-1.27108228064186","-1.21235916695118","1.22362581085695","-1.03823830658928","-1.00273130761352","0","359.9375"
"1120","-1.27108228064186","-1.21235916695118","1.22362581085695","-2.03823830658928","0.99726869238648","0","359.9375"
"1120","-1.27108228064186","-1.21235916695118","1.22362581085695","-2.03823830658928","0.99726869238648","0","359.9375"
"1126","-1.27108228064186","-1.21235916695118","1.22362581085695","0.96176169341072","-1.00273130761352","0","359.9375"
"1126","0.728917719358143","-0.212359166951178","0.223625810856948","0.96176169341072","-1.00273130761352","0","359.9375"
"1132","0.728917719358143","-0.212359166951178","0.223625810856948","-0.0382383065892796","-1.00273130761352","0","359.9375"
"1132","-0.271082280641857","-0.212359166951178","-1.77637418914305","-0.0382383065892796","-1.00273130761352","0","359.9375"
"1137","-0.271082280641857","-0.212359166951178","-1.77637418914305","-2.03823830658928","-2.00273130761352","0","359.9375"
"1138","0.728917719358143","-0.212359166951178","0.223625810856948","-2.03823830658928","-2.00273130761352","0","359.9375"
"1144","0.728917719358143","-0.212359166951178","0.223625810856948","0.96176169341072","-0.00273130761351997","0","359.9375"
"1144","0.728917719358143","-0.212359166951178","-1.77637418914305","0.96176169341072","-0.00273130761351997","0","359.9375"
"1149","0.728917719358143","-0.212359166951178","-1.77637418914305","0.96176169341072","-1.00273130761352","0","359.9375"
"1149","0.728917719358143","-0.212359166951178","-1.77637418914305","0.96176169341072","-1.00273130761352","0","359.9375"
"1155","0.728917719358143","-0.212359166951178","-1.77637418914305","0.96176169341072","-0.00273130761351997","0","359.9375"
"1155","0.728917719358143","0.787640833048822","-0.776374189143052","0.96176169341072","-0.00273130761351997","0","359.9375"
"1161","0.728917719358143","0.787640833048822","-0.776374189143052","0.96176169341072","-1.00273130761352","0","359.9375"
"1161","0.728917719358143","-0.212359166951178","-0.776374189143052","0.96176169341072","-1.00273130761352","0","359.9375"
"1167","0.728917719358143","-0.212359166951178","-0.776374189143052","1.96176169341072","0.99726869238648","0","359.9375"
"1167","0.728917719358143","-0.212359166951178","-1.77637418914305","1.96176169341072","0.99726869238648","0","359.9375"
"1173","0.728917719358143","-0.212359166951178","-1.77637418914305","-2.03823830658928","-0.00273130761351997","0","359.9375"
"1173","-1.27108228064186","-1.21235916695118","-0.776374189143052","-2.03823830658928","-0.00273130761351997","0","359.9375"
"1179","-1.27108228064186","-1.21235916695118","-0.776374189143052","1.96176169341072","-4.00273130761352","0","359.9375"
"1179","-1.27108228064186","-1.21235916695118","-0.776374189143052","1.96176169341072","-4.00273130761352","0","359.9375"
"1184","-1.27108228064186","-1.21235916695118","-0.776374189143052","-1.03823830658928","-2.00273130761352","0","359.9375"
"1185","-0.271082280641857","0.787640833048822","3.22362581085695","-1.03823830658928","-2.00273130761352","0","359.9375"
"1191","-0.271082280641857","0.787640833048822","3.22362581085695","-1.03823830658928","-0.00273130761351997","0","359.9375"
"1191","0.728917719358143","-0.212359166951178","-1.77637418914305","-1.03823830658928","-0.00273130761351997","0","359.9375"
"1197","0.728917719358143","-0.212359166951178","-1.77637418914305","-1.03823830658928","-0.00273130761351997","0","359.9375"
"1197","0.728917719358143","-0.212359166951178","0.223625810856948","-1.03823830658928","-0.00273130761351997","0","359.9375"
"1202","0.728917719358143","-0.212359166951178","0.223625810856948","-4.03823830658928","-3.00273130761352","0","359.9375"
"1202","0.728917719358143","-0.212359166951178","0.223625810856948","-4.03823830658928","-3.00273130761352","0","359.9375"
"1209","0.728917719358143","-0.212359166951178","0.223625810856948","-2.03823830658928","-2.00273130761352","0","359.9375"
"1209","0.728917719358143","-0.212359166951178","0.223625810856948","-2.03823830658928","-2.00273130761352","0","359.9375"
"1214","0.728917719358143","-0.212359166951178","0.223625810856948","0.96176169341072","-0.00273130761351997","0","359.9375"
"1215","0.728917719358143","-0.212359166951178","-2.77637418914305","0.96176169341072","-0.00273130761351997","0","359.9375"
"1220","0.728917719358143","-0.212359166951178","-2.77637418914305","-0.0382383065892796","-0.00273130761351997","0","359.9375"
"1220","0.728917719358143","1.78764083304882","1.22362581085695","-0.0382383065892796","-0.00273130761351997","0","359.9375"
"1226","0.728917719358143","1.78764083304882","1.22362581085695","-0.0382383065892796","-0.00273130761351997","0","359.9375"
"1226","0.728917719358143","-1.21235916695118","0.223625810856948","-0.0382383065892796","-0.00273130761351997","0","359.9375"
"1232","0.728917719358143","-1.21235916695118","0.223625810856948","-0.0382383065892796","-1.00273130761352","0","359.9375"
"1232","-1.27108228064186","0.787640833048822","-1.77637418914305","-0.0382383065892796","-1.00273130761352","0","359.9375"
"1238","-1.27108228064186","0.787640833048822","-1.77637418914305","-1.03823830658928","-2.00273130761352","0","359.9375"
"1238","-1.27108228064186","0.787640833048822","-1.77637418914305","-1.03823830658928","-2.00273130761352","0","359.9375"
"1245","-1.27108228064186","0.787640833048822","-1.77637418914305","-0.0382383065892796","-3.00273130761352","0","359.9375"
"1245","0.728917719358143","-0.212359166951178","1.22362581085695","-0.0382383065892796","-3.00273130761352","0","359.9375"
"1251","0.728917719358143","-0.212359166951178","1.22362581085695","0.96176169341072","-0.00273130761351997","0","359.9375"
"1251","0.728917719358143","-0.212359166951178","-1.77637418914305","0.96176169341072","-0.00273130761351997","0","359.9375"
"1260","0.728917719358143","-0.212359166951178","-1.77637418914305","-0.0382383065892796","-0.00273130761351997","0","359.9375"
"1260","-1.27108228064186","-0.212359166951178","0.223625810856948","-0.0382383065892796","-0.00273130761351997","0","359.9375"
"1270","-1.27108228064186","-0.212359166951178","0.223625810856948","0.96176169341072","2.99726869238648","0","359.9375"
"1270","0.728917719358143","0.787640833048822","0.223625810856948","0.96176169341072","2.99726869238648","0","359.9375"
"1277","0.728917719358143","0.787640833048822","0.223625810856948","-1.03823830658928","1.99726869238648","0","359.9375"
"1277","0.728917719358143","0.787640833048822","0.223625810856948","-1.03823830658928","1.99726869238648","0","359.9375"
"1282","0.728917719358143","0.787640833048822","0.223625810856948","0.96176169341072","1.99726869238648","0","359.9375"
"1282","-2.27108228064186","0.787640833048822","1.22362581085695","0.96176169341072","1.99726869238648","0","359.9375"
"1289","-2.27108228064186","0.787640833048822","1.22362581085695","1.96176169341072","-1.00273130761352","0","359.9375"
"1289","-1.27108228064186","0.787640833048822","-0.776374189143052","1.96176169341072","-1.00273130761352","0","359.9375"
"1296","-1.27108228064186","0.787640833048822","-0.776374189143052","-1.03823830658928","-0.00273130761351997","0","359.9375"
"1296","0.728917719358143","-0.212359166951178","-0.776374189143052","-1.03823830658928","-0.00273130761351997","0","359.9375"
"1302","0.728917719358143","-0.212359166951178","-0.776374189143052","0.96176169341072","-3.00273130761352","0","359.9375"
"1302","-0.271082280641857","0.787640833048822","0.223625810856948","0.96176169341072","-3.00273130761352","0","359.9375"
"1308","-0.271082280641857","0.787640833048822","0.223625810856948","-1.03823830658928","-2.00273130761352","0","359.9375"
"1309","-0.271082280641857","0.787640833048822","0.223625810856948","-1.03823830658928","-2.00273130761352","0","359.9375"
"1314","-0.271082280641857","0.787640833048822","0.223625810856948","1.96176169341072","-1.00273130761352","0","359.9375"
"1314","-1.27108228064186","-0.212359166951178","-0.776374189143052","1.96176169341072","-1.00273130761352","0","359.9375"
"1320","-1.27108228064186","-0.212359166951178","-0.776374189143052","0.96176169341072","-0.00273130761351997","0","359.9375"
"1320","-0.271082280641857","-0.212359166951178","0.223625810856948","0.96176169341072","-0.00273130761351997","0","359.9375"
"1325","-0.271082280641857","-0.212359166951178","0.223625810856948","2.96176169341072","-3.00273130761352","0","359.9375"
"1326","0.728917719358143","-1.21235916695118","-0.776374189143052","2.96176169341072","-3.00273130761352","0","359.9375"
"1331","0.728917719358143","-1.21235916695118","-0.776374189143052","-1.03823830658928","1.99726869238648","0","359.9375"
"1331","0.728917719358143","0.787640833048822","2.22362581085695","-1.03823830658928","1.99726869238648","0","359.9375"
"1337","0.728917719358143","0.787640833048822","2.22362581085695","-1.03823830658928","1.99726869238648","0","359.9375"
"1337","0.728917719358143","0.787640833048822","2.22362581085695","-1.03823830658928","1.99726869238648","0","359.9375"
"1343","0.728917719358143","0.787640833048822","2.22362581085695","-1.03823830658928","0.99726869238648","0","359.9375"
"1343","0.728917719358143","-0.212359166951178","0.223625810856948","-1.03823830658928","0.99726869238648","0","359.9375"
"1348","0.728917719358143","-0.212359166951178","0.223625810856948","-1.03823830658928","-1.00273130761352","0","359.9375"
"1349","-0.271082280641857","-0.212359166951178","-1.77637418914305","-1.03823830658928","-1.00273130761352","0","359.9375"
"1354","-0.271082280641857","-0.212359166951178","-1.77637418914305","0.96176169341072","0.99726869238648","0","359.9375"
"1354","-0.271082280641857","-0.212359166951178","-0.776374189143052","0.96176169341072","0.99726869238648","0","359.9375"
"1360","-0.271082280641857","-0.212359166951178","-0.776374189143052","0.96176169341072","0.99726869238648","0","359.9375"
"1360","0.728917719358143","-1.21235916695118","-2.77637418914305","0.96176169341072","0.99726869238648","0","359.9375"
"1367","0.728917719358143","-1.21235916695118","-2.77637418914305","-0.0382383065892796","1.99726869238648","0","359.9375"
"1367","0.728917719358143","-1.21235916695118","-2.77637418914305","-0.0382383065892796","1.99726869238648","0","359.9375"
"1373","0.728917719358143","-1.21235916695118","-2.77637418914305","0.96176169341072","2.99726869238648","0","359.9375"
"1373","0.728917719358143","-0.212359166951178","-3.77637418914305","0.96176169341072","2.99726869238648","0","359.9375"
"1378","0.728917719358143","-0.212359166951178","-3.77637418914305","1.96176169341072","-0.00273130761351997","0","359.9375"
"1379","-1.27108228064186","-0.212359166951178","1.22362581085695","1.96176169341072","-0.00273130761351997","0","359.9375"
"1384","-1.27108228064186","-0.212359166951178","1.22362581085695","-2.03823830658928","0.99726869238648","0","359.9375"
"1384","-0.271082280641857","-0.212359166951178","-1.77637418914305","-2.03823830658928","0.99726869238648","0","359.9375"
"1390","-0.271082280641857","-0.212359166951178","-1.77637418914305","1.96176169341072","-0.00273130761351997","0","359.9375"
"1390","-0.271082280641857","0.787640833048822","-0.776374189143052","1.96176169341072","-0.00273130761351997","0","359.9375"
"1396","-0.271082280641857","0.787640833048822","-0.776374189143052","-1.03823830658928","0.99726869238648","0","359.9375"
"1396","-0.271082280641857","0.787640833048822","-0.776374189143052","-1.03823830658928","0.99726869238648","0","359.9375"
"1401","-0.271082280641857","0.787640833048822","-0.776374189143052","-0.0382383065892796","-1.00273130761352","0","359.9375"
"1402","0.728917719358143","-0.212359166951178","-0.776374189143052","-0.0382383065892796","-1.00273130761352","0","359.9375"
"1407","0.728917719358143","-0.212359166951178","-0.776374189143052","0.96176169341072","-0.00273130761351997","0","359.9375"
"1407","0.728917719358143","0.787640833048822","-0.776374189143052","0.96176169341072","-0.00273130761351997","0","359.9375"
"1413","0.728917719358143","0.787640833048822","-0.776374189143052","2.96176169341072","2.99726869238648","0","359.9375"
"1413","-2.27108228064186","-0.212359166951178","0.223625810856948","2.96176169341072","2.99726869238648","0","359.9375"
"1419","-2.27108228064186","-0.212359166951178","0.223625810856948","-0.0382383065892796","2.99726869238648","0","359.9375"
"1419","0.728917719358143","-0.212359166951178","1.22362581085695","-0.0382383065892796","2.99726869238648","0","359.9375"
"1425","0.728917719358143","-0.212359166951178","1.22362581085695","-1.03823830658928","0.99726869238648","0","359.9375"
"1425","0.728917719358143","-0.212359166951178","1.22362581085695","-1.03823830658928","0.99726869238648","0","359.9375"
"1430","0.728917719358143","-0.212359166951178","1.22362581085695","1.96176169341072","1.99726869238648","0","359.9375"
"1430","-0.271082280641857","-0.212359166951178","-1.77637418914305","1.96176169341072","1.99726869238648","0","359.9375"
"1436","-0.271082280641857","-0.212359166951178","-1.77637418914305","-0.0382383065892796","0.99726869238648","0","359.9375"
"1436","0.728917719358143","-0.212359166951178","-2.77637418914305","-0.0382383065892796","0.99726869238648","0","359.9375"
"1442","0.728917719358143","-0.212359166951178","-2.77637418914305","0.96176169341072","0.99726869238648","0","359.9375"
"1442","-0.271082280641857","-0.212359166951178","-1.77637418914305","0.96176169341072","0.99726869238648","0","359.9375"
"1447","-0.271082280641857","-0.212359166951178","-1.77637418914305","-0.0382383065892796","-1.00273130761352","0","359.9375"
"1448","-0.271082280641857","-0.212359166951178","2.22362581085695","-0.0382383065892796","-1.00273130761352","0","359.9375"
"1455","-0.271082280641857","-0.212359166951178","2.22362581085695","0.96176169341072","1.99726869238648","0","359.9375"
"1455","-0.271082280641857","-0.212359166951178","2.22362581085695","0.96176169341072","1.99726869238648","0","359.9375"
"1462","-0.271082280641857","-0.212359166951178","2.22362581085695","-0.0382383065892796","-0.00273130761351997","0","359.9375"
"1462","-0.271082280641857","0.787640833048822","2.22362581085695","-0.0382383065892796","-0.00273130761351997","0","359.9375"
"1469","-0.271082280641857","0.787640833048822","2.22362581085695","-3.03823830658928","-1.00273130761352","0","359.9375"
"1469","0.728917719358143","-0.212359166951178","-0.776374189143052","-3.03823830658928","-1.00273130761352","0","359.9375"
"1477","0.728917719358143","-0.212359166951178","-0.776374189143052","-1.03823830658928","-0.00273130761351997","0","359.9375"
"1477","-0.271082280641857","-0.212359166951178","-0.776374189143052","-1.03823830658928","-0.00273130761351997","0","359.9375"
"1483","-0.271082280641857","-0.212359166951178","-0.776374189143052","1.96176169341072","-1.00273130761352","0","359.9375"
"1483","-0.271082280641857","-0.212359166951178","1.22362581085695","1.96176169341072","-1.00273130761352","0","359.9375"
"1490","-0.271082280641857","-0.212359166951178","1.22362581085695","2.96176169341072","-0.00273130761351997","0","359.9375"
"1491","-0.271082280641857","-0.212359166951178","1.22362581085695","2.96176169341072","-0.00273130761351997","0","359.9375"
"1497","-0.271082280641857","-0.212359166951178","1.22362581085695","1.96176169341072","-0.00273130761351997","0","359.9375"
"1497","-0.271082280641857","0.787640833048822","1.22362581085695","1.96176169341072","-0.00273130761351997","0","359.9375"
"1503","-0.271082280641857","0.787640833048822","1.22362581085695","1.96176169341072","-0.00273130761351997","0","359.9375"
"1503","-0.271082280641857","-0.212359166951178","-2.77637418914305","1.96176169341072","-0.00273130761351997","0","359.9375"
"1511","-0.271082280641857","-0.212359166951178","-2.77637418914305","1.96176169341072","-1.00273130761352","0","359.9375"
"1511","0.728917719358143","-1.21235916695118","-2.77637418914305","1.96176169341072","-1.00273130761352","0","359.9375"
"1517","0.728917719358143","-1.21235916695118","-2.77637418914305","-1.03823830658928","-0.00273130761351997","0","359.9375"
"1517","-0.271082280641857","-0.212359166951178","1.22362581085695","-1.03823830658928","-0.00273130761351997","0","359.9375"
"1523","-0.271082280641857","-0.212359166951178","1.22362581085695","-1.03823830658928","-2.00273130761352","0","359.9375"
"1523","-0.271082280641857","-0.212359166951178","1.22362581085695","-1.03823830658928","-2.00273130761352","0","359.9375"
"1529","-0.271082280641857","-0.212359166951178","1.22362581085695","0.96176169341072","-1.00273130761352","0","359.9375"
"1529","-0.271082280641857","-0.212359166951178","1.22362581085695","0.96176169341072","-1.00273130761352","0","359.9375"
"1534","-0.271082280641857","-0.212359166951178","1.22362581085695","-1.03823830658928","-2.00273130761352","0","359.9375"
"1534","-0.271082280641857","-0.212359166951178","1.22362581085695","-1.03823830658928","-2.00273130761352","0","359.9375"
"1541","-0.271082280641857","-0.212359166951178","1.22362581085695","1.96176169341072","-1.00273130761352","0","359.9375"
"1541","0.728917719358143","0.787640833048822","-0.776374189143052","1.96176169341072","-1.00273130761352","0","359.9375"
"1546","0.728917719358143","0.787640833048822","-0.776374189143052","0.96176169341072","0.99726869238648","0","359.9375"
"1546","-0.271082280641857","-0.212359166951178","2.22362581085695","0.96176169341072","0.99726869238648","0","359.9375"
"1552","-0.271082280641857","-0.212359166951178","2.22362581085695","0.96176169341072","-2.00273130761352","0","359.9375"
"1552","-0.271082280641857","-0.212359166951178","2.22362581085695","0.96176169341072","-2.00273130761352","0","359.9375"
"1558","-0.271082280641857","-0.212359166951178","2.22362581085695","1.96176169341072","-2.00273130761352","0","359.9375"
"1558","0.728917719358143","-1.21235916695118","1.22362581085695","1.96176169341072","-2.00273130761352","0","359.9375"
"1563","0.728917719358143","-1.21235916695118","1.22362581085695","-0.0382383065892796","-4.00273130761352","0","359.9375"
"1563","-0.271082280641857","1.78764083304882","-0.776374189143052","-0.0382383065892796","-4.00273130761352","0","359.9375"
"1569","-0.271082280641857","1.78764083304882","-0.776374189143052","1.96176169341072","-3.00273130761352","0","359.9375"
"1569","-1.27108228064186","-0.212359166951178","0.223625810856948","1.96176169341072","-3.00273130761352","0","359.9375"
"1575","-1.27108228064186","-0.212359166951178","0.223625810856948","3.96176169341072","-1.00273130761352","0","359.9375"
"1575","0.728917719358143","-0.212359166951178","0.223625810856948","3.96176169341072","-1.00273130761352","0","359.9375"
"1580","0.728917719358143","-0.212359166951178","0.223625810856948","1.96176169341072","-1.00273130761352","0","359.9375"
"1580","0.728917719358143","-0.212359166951178","0.223625810856948","1.96176169341072","-1.00273130761352","0","359.9375"
"1581","0.728917719358143","0.787640833048822","0.223625810856948","1.96176169341072","-1.00273130761352","0","359.9375"
"1586","0.728917719358143","0.787640833048822","0.223625810856948","0.96176169341072","1.99726869238648","0","359.9375"
"1586","-0.271082280641857","0.787640833048822","-1.77637418914305","0.96176169341072","1.99726869238648","0","359.9375"
"1592","-0.271082280641857","0.787640833048822","-1.77637418914305","0.96176169341072","-2.00273130761352","0","359.9375"
"1592","0.728917719358143","-0.212359166951178","-2.77637418914305","0.96176169341072","-2.00273130761352","0","359.9375"
"1597","0.728917719358143","-0.212359166951178","-2.77637418914305","1.96176169341072","-0.00273130761351997","0","359.9375"
"1597","-0.271082280641857","-0.212359166951178","3.22362581085695","1.96176169341072","-0.00273130761351997","0","359.9375"
"1603","-0.271082280641857","-0.212359166951178","3.22362581085695","-1.03823830658928","-1.00273130761352","0","359.9375"
"1603","0.728917719358143","-0.212359166951178","0.223625810856948","-1.03823830658928","-1.00273130761352","0","359.9375"
"1603","0.728917719358143","-0.212359166951178","0.223625810856948","-1.03823830658928","-1.00273130761352","0","359.9375"
"1609","0.728917719358143","-0.212359166951178","0.223625810856948","0.96176169341072","1.99726869238648","0","359.9375"
"1609","-0.271082280641857","0.787640833048822","-1.77637418914305","0.96176169341072","1.99726869238648","0","359.9375"
"1614","-0.271082280641857","0.787640833048822","-1.77637418914305","0.96176169341072","-2.00273130761352","0","359.9375"
"1615","0.728917719358143","-0.212359166951178","-2.77637418914305","0.96176169341072","-2.00273130761352","0","359.9375"
"1620","0.728917719358143","-0.212359166951178","-2.77637418914305","1.96176169341072","-0.00273130761351997","0","359.9375"
"1620","-0.271082280641857","-0.212359166951178","3.22362581085695","1.96176169341072","-0.00273130761351997","0","359.9375"
"1625","-0.271082280641857","-0.212359166951178","3.22362581085695","-1.03823830658928","-1.00273130761352","0","359.9375"
"1626","0.728917719358143","-0.212359166951178","0.223625810856948","-1.03823830658928","-1.00273130761352","0","359.9375"
"1631","0.728917719358143","-0.212359166951178","0.223625810856948","-1.03823830658928","-2.00273130761352","0","359.9375"
"1631","0.728917719358143","-0.212359166951178","0.223625810856948","-1.03823830658928","-2.00273130761352","0","359.9375"
"1637","0.728917719358143","-0.212359166951178","0.223625810856948","-3.03823830658928","-3.00273130761352","0","359.9375"
"1637","0.728917719358143","-0.212359166951178","-0.776374189143052","-3.03823830658928","-3.00273130761352","0","359.9375"
"1643","0.728917719358143","-0.212359166951178","-0.776374189143052","-2.03823830658928","-0.00273130761351997","0","359.9375"
"1643","0.728917719358143","-0.212359166951178","-0.776374189143052","-2.03823830658928","-0.00273130761351997","0","359.9375"
"1649","0.728917719358143","-0.212359166951178","-0.776374189143052","2.96176169341072","-2.00273130761352","0","359.9375"
"1649","-0.271082280641857","-0.212359166951178","0.223625810856948","2.96176169341072","-2.00273130761352","0","359.9375"
"1654","-0.271082280641857","-0.212359166951178","0.223625810856948","-0.0382383065892796","0.99726869238648","0","359.9375"
"1654","0.728917719358143","1.78764083304882","2.22362581085695","-0.0382383065892796","0.99726869238648","0","359.9375"
"1662","0.728917719358143","1.78764083304882","2.22362581085695","-1.03823830658928","0.99726869238648","0","359.9375"
"1662","-0.271082280641857","-0.212359166951178","-1.77637418914305","-1.03823830658928","0.99726869238648","0","359.9375"
"1667","-0.271082280641857","-0.212359166951178","-1.77637418914305","-3.03823830658928","-1.00273130761352","0","359.9375"
"1668","-1.27108228064186","0.787640833048822","-2.77637418914305","-3.03823830658928","-1.00273130761352","0","359.9375"
"1673","-1.27108228064186","0.787640833048822","-2.77637418914305","1.96176169341072","-1.00273130761352","0","359.9375"
"1674","-0.271082280641857","0.787640833048822","-0.776374189143052","1.96176169341072","-1.00273130761352","0","359.9375"
"1681","-0.271082280641857","0.787640833048822","-0.776374189143052","0.96176169341072","0.99726869238648","0","359.9375"
"1681","0.728917719358143","-0.212359166951178","1.22362581085695","0.96176169341072","0.99726869238648","0","359.9375"
"1687","0.728917719358143","-0.212359166951178","1.22362581085695","0.96176169341072","-1.00273130761352","0","359.9375"
"1688","0.728917719358143","-0.212359166951178","1.22362581085695","0.96176169341072","-1.00273130761352","0","359.9375"
"1694","0.728917719358143","-0.212359166951178","1.22362581085695","-1.03823830658928","-0.00273130761351997","0","359.9375"
"1694","0.728917719358143","-0.212359166951178","0.223625810856948","-1.03823830658928","-0.00273130761351997","0","359.9375"
"1699","0.728917719358143","-0.212359166951178","0.223625810856948","2.96176169341072","-0.00273130761351997","0","359.9375"
"1699","0.728917719358143","0.787640833048822","-3.77637418914305","2.96176169341072","-0.00273130761351997","0","359.9375"
"1705","0.728917719358143","0.787640833048822","-3.77637418914305","-0.0382383065892796","-0.00273130761351997","0","359.9375"
"1705","0.728917719358143","-0.212359166951178","0.223625810856948","-0.0382383065892796","-0.00273130761351997","0","359.9375"
"1711","0.728917719358143","-0.212359166951178","0.223625810856948","-0.0382383065892796","0.99726869238648","0","359.9375"
"1711","-0.271082280641857","0.787640833048822","2.22362581085695","-0.0382383065892796","0.99726869238648","0","359.9375"
"1717","-0.271082280641857","0.787640833048822","2.22362581085695","0.96176169341072","-1.00273130761352","0","359.9375"
"1717","0.728917719358143","0.787640833048822","2.22362581085695","0.96176169341072","-1.00273130761352","0","359.9375"
"1723","0.728917719358143","0.787640833048822","2.22362581085695","2.96176169341072","1.99726869238648","0","359.9375"
"1723","0.728917719358143","-0.212359166951178","0.223625810856948","2.96176169341072","1.99726869238648","0","359.9375"
"1729","0.728917719358143","-0.212359166951178","0.223625810856948","-0.0382383065892796","1.99726869238648","0","359.9375"
"1729","0.728917719358143","-0.212359166951178","0.223625810856948","-0.0382383065892796","1.99726869238648","0","359.9375"
"1734","0.728917719358143","-0.212359166951178","0.223625810856948","0.96176169341072","-0.00273130761351997","0","359.9375"
"1734","-0.271082280641857","-0.212359166951178","-0.776374189143052","0.96176169341072","-0.00273130761351997","0","359.9375"
"1740","-0.271082280641857","-0.212359166951178","-0.776374189143052","-0.0382383065892796","-3.00273130761352","0","359.9375"
"1740","-1.27108228064186","-0.212359166951178","0.223625810856948","-0.0382383065892796","-3.00273130761352","0","359.9375"
"1746","-1.27108228064186","-0.212359166951178","0.223625810856948","2.96176169341072","-0.00273130761351997","0","359.9375"
"1746","0.728917719358143","1.78764083304882","3.22362581085695","2.96176169341072","-0.00273130761351997","0","359.9375"
"1751","0.728917719358143","1.78764083304882","3.22362581085695","4.96176169341072","-1.00273130761352","0","359.9375"
"1751","0.728917719358143","-0.212359166951178","0.223625810856948","4.96176169341072","-1.00273130761352","0","359.9375"
"1757","0.728917719358143","-0.212359166951178","0.223625810856948","2.96176169341072","-0.00273130761351997","0","359.9375"
"1757","0.728917719358143","-0.212359166951178","-1.77637418914305","2.96176169341072","-0.00273130761351997","0","359.9375"
"1762","0.728917719358143","-0.212359166951178","-1.77637418914305","1.96176169341072","-1.00273130761352","0","359.9375"
"1763","-1.27108228064186","-0.212359166951178","0.223625810856948","1.96176169341072","-1.00273130761352","0","359.9375"
"1768","-1.27108228064186","-0.212359166951178","0.223625810856948","1.96176169341072","-2.00273130761352","0","359.9375"
"1768","0.728917719358143","-0.212359166951178","0.223625810856948","1.96176169341072","-2.00273130761352","0","359.9375"
"1774","0.728917719358143","-0.212359166951178","0.223625810856948","0.96176169341072","0.99726869238648","0","359.9375"
"1774","0.728917719358143","0.787640833048822","3.22362581085695","0.96176169341072","0.99726869238648","0","359.9375"
"1779","0.728917719358143","0.787640833048822","3.22362581085695","-0.0382383065892796","-0.00273130761351997","0","359.9375"
"1779","-0.271082280641857","-0.212359166951178","0.223625810856948","-0.0382383065892796","-0.00273130761351997","0","359.9375"
"1786","-0.271082280641857","-0.212359166951178","0.223625810856948","1.96176169341072","1.99726869238648","0","359.9375"
"1786","-0.271082280641857","-0.212359166951178","-1.77637418914305","1.96176169341072","1.99726869238648","0","359.9375"
"1793","-0.271082280641857","-0.212359166951178","-1.77637418914305","-1.03823830658928","2.99726869238648","0","359.9375"
"1794","0.728917719358143","0.787640833048822","-1.77637418914305","-1.03823830658928","2.99726869238648","0","359.9375"
"1800","0.728917719358143","0.787640833048822","-1.77637418914305","2.96176169341072","0.99726869238648","0","359.9375"
"1800","-1.27108228064186","0.787640833048822","0.223625810856948","2.96176169341072","0.99726869238648","0","359.9375"
"1806","-1.27108228064186","0.787640833048822","0.223625810856948","-5.03823830658928","0.99726869238648","0","359.9375"
"1806","-0.271082280641857","0.787640833048822","-2.77637418914305","-5.03823830658928","0.99726869238648","0","359.9375"
"1812","-0.271082280641857","0.787640833048822","-2.77637418914305","-1.03823830658928","0.99726869238648","0","359.9375"
"1812","0.728917719358143","-0.212359166951178","0.223625810856948","-1.03823830658928","0.99726869238648","0","359.9375"
"1817","0.728917719358143","-0.212359166951178","0.223625810856948","1.96176169341072","2.99726869238648","0","359.9375"
"1817","0.728917719358143","0.787640833048822","-0.776374189143052","1.96176169341072","2.99726869238648","0","359.9375"
"1823","0.728917719358143","0.787640833048822","-0.776374189143052","3.96176169341072","0.99726869238648","0","359.9375"
"1823","0.728917719358143","0.787640833048822","-0.776374189143052","3.96176169341072","0.99726869238648","0","359.9375"
"1828","0.728917719358143","0.787640833048822","-0.776374189143052","-3.03823830658928","-1.00273130761352","0","359.9375"
"1829","-1.27108228064186","-0.212359166951178","-0.776374189143052","-3.03823830658928","-1.00273130761352","0","359.9375"
"1834","-1.27108228064186","-0.212359166951178","-0.776374189143052","-1.03823830658928","-1.00273130761352","0","359.9375"
"1834","0.728917719358143","-1.21235916695118","0.223625810856948","-1.03823830658928","-1.00273130761352","0","359.9375"
"1839","0.728917719358143","-1.21235916695118","0.223625810856948","1.96176169341072","-0.00273130761351997","0","359.9375"
"1840","-1.27108228064186","1.78764083304882","-1.77637418914305","1.96176169341072","-0.00273130761351997","0","359.9375"
"1845","-1.27108228064186","1.78764083304882","-1.77637418914305","2.96176169341072","-2.00273130761352","0","359.9375"
"1845","-0.271082280641857","1.78764083304882","-2.77637418914305","2.96176169341072","-2.00273130761352","0","359.9375"
"1850","-0.271082280641857","1.78764083304882","-2.77637418914305","2.96176169341072","1.99726869238648","0","359.9375"
"1850","0.728917719358143","0.787640833048822","2.22362581085695","2.96176169341072","1.99726869238648","0","359.9375"
"1856","0.728917719358143","0.787640833048822","2.22362581085695","0.96176169341072","-2.00273130761352","0","359.9375"
"1856","-0.271082280641857","-0.212359166951178","0.223625810856948","0.96176169341072","-2.00273130761352","0","359.9375"
"1862","-0.271082280641857","-0.212359166951178","0.223625810856948","-0.0382383065892796","-0.00273130761351997","0","359.9375"
"1862","0.728917719358143","-0.212359166951178","1.22362581085695","-0.0382383065892796","-0.00273130761351997","0","359.9375"
"1867","0.728917719358143","-0.212359166951178","1.22362581085695","0.96176169341072","-2.00273130761352","0","359.9375"
"1867","-3.27108228064186","0.787640833048822","-0.776374189143052","0.96176169341072","-2.00273130761352","0","359.9375"
"1873","-3.27108228064186","0.787640833048822","-0.776374189143052","0.96176169341072","-2.00273130761352","0","359.9375"
"1873","-0.271082280641857","-0.212359166951178","-1.77637418914305","0.96176169341072","-2.00273130761352","0","359.9375"
"1880","-0.271082280641857","-0.212359166951178","-1.77637418914305","1.96176169341072","0.99726869238648","0","359.9375"
"1880","0.728917719358143","0.787640833048822","-0.776374189143052","1.96176169341072","0.99726869238648","0","359.9375"
"1887","0.728917719358143","0.787640833048822","-0.776374189143052","-2.03823830658928","1.99726869238648","0","359.9375"
"1887","0.728917719358143","-0.212359166951178","0.223625810856948","-2.03823830658928","1.99726869238648","0","359.9375"
"1894","0.728917719358143","-0.212359166951178","0.223625810856948","-0.0382383065892796","-0.00273130761351997","0","359.9375"
"1895","-0.271082280641857","-0.212359166951178","-0.776374189143052","-0.0382383065892796","-0.00273130761351997","0","359.9375"
"1903","-0.271082280641857","-0.212359166951178","-0.776374189143052","2.96176169341072","-1.00273130761352","0","359.9375"
"1903","-0.271082280641857","-0.212359166951178","0.223625810856948","2.96176169341072","-1.00273130761352","0","359.9375"
"1911","-0.271082280641857","-0.212359166951178","0.223625810856948","-1.03823830658928","-2.00273130761352","0","359.9375"
"1911","0.728917719358143","-0.212359166951178","-1.77637418914305","-1.03823830658928","-2.00273130761352","0","359.9375"
"1919","0.728917719358143","-0.212359166951178","-1.77637418914305","-0.0382383065892796","0.99726869238648","0","359.9375"
"1919","0.728917719358143","-0.212359166951178","1.22362581085695","-0.0382383065892796","0.99726869238648","0","359.9375"
"1926","0.728917719358143","-0.212359166951178","1.22362581085695","-0.0382383065892796","-0.00273130761351997","0","359.9375"
"1926","-0.271082280641857","-0.212359166951178","0.223625810856948","-0.0382383065892796","-0.00273130761351997","0","359.9375"
"1933","-0.271082280641857","-0.212359166951178","0.223625810856948","-0.0382383065892796","-2.00273130761352","0","359.9375"
"1933","0.728917719358143","-1.21235916695118","0.223625810856948","-0.0382383065892796","-2.00273130761352","0","359.9375"
"1939","0.728917719358143","-1.21235916695118","0.223625810856948","-5.03823830658928","1.99726869238648","0","359.9375"
"1939","0.728917719358143","-1.21235916695118","0.223625810856948","-5.03823830658928","1.99726869238648","0","359.9375"
"1945","0.728917719358143","-1.21235916695118","0.223625810856948","-0.0382383065892796","1.99726869238648","0","359.9375"
"1945","-1.27108228064186","-0.212359166951178","-0.776374189143052","-0.0382383065892796","1.99726869238648","0","359.9375"
"1950","-1.27108228064186","-0.212359166951178","-0.776374189143052","2.96176169341072","-0.00273130761351997","0","359.9375"
"1950","0.728917719358143","0.787640833048822","0.223625810856948","2.96176169341072","-0.00273130761351997","0","359.9375"
"1956","0.728917719358143","0.787640833048822","0.223625810856948","-0.0382383065892796","0.99726869238648","0","359.9375"
"1956","-1.27108228064186","-0.212359166951178","2.22362581085695","-0.0382383065892796","0.99726869238648","0","359.9375"
"1961","-1.27108228064186","-0.212359166951178","2.22362581085695","-3.03823830658928","-1.00273130761352","0","359.9375"
"1961","-0.271082280641857","-0.212359166951178","0.223625810856948","-3.03823830658928","-1.00273130761352","0","359.9375"
"1967","-0.271082280641857","-0.212359166951178","0.223625810856948","-1.03823830658928","1.99726869238648","0","359.9375"
"1967","-1.27108228064186","-0.212359166951178","0.223625810856948","-1.03823830658928","1.99726869238648","0","359.9375"
"1973","-1.27108228064186","-0.212359166951178","0.223625810856948","-2.03823830658928","2.99726869238648","0","359.9375"
"1973","0.728917719358143","-0.212359166951178","-0.776374189143052","-2.03823830658928","2.99726869238648","0","359.9375"
"1978","0.728917719358143","-0.212359166951178","-0.776374189143052","0.96176169341072","-3.00273130761352","0","359.9375"
"1978","-0.271082280641857","-0.212359166951178","-0.776374189143052","0.96176169341072","-3.00273130761352","0","359.9375"
"1984","-0.271082280641857","-0.212359166951178","-0.776374189143052","-0.0382383065892796","-2.00273130761352","0","359.9375"
"1984","-0.271082280641857","-0.212359166951178","1.22362581085695","-0.0382383065892796","-2.00273130761352","0","359.9375"
"1991","-0.271082280641857","-0.212359166951178","1.22362581085695","-1.03823830658928","-0.00273130761351997","0","359.9375"
"1991","-0.271082280641857","-0.212359166951178","-0.776374189143052","-1.03823830658928","-0.00273130761351997","0","359.9375"
"1997","-0.271082280641857","-0.212359166951178","-0.776374189143052","2.96176169341072","-0.00273130761351997","0","359.9375"
"1997","-2.27108228064186","-0.212359166951178","1.22362581085695","2.96176169341072","-0.00273130761351997","0","359.9375"
"2002","-2.27108228064186","-0.212359166951178","1.22362581085695","-1.03823830658928","-0.00273130761351997","0","359.9375"
"2002","0.728917719358143","-0.212359166951178","-1.77637418914305","-1.03823830658928","-0.00273130761351997","0","359.9375"
"2008","0.728917719358143","-0.212359166951178","-1.77637418914305","-2.03823830658928","1.99726869238648","0","359.9375"
"2008","-0.271082280641857","-0.212359166951178","-1.77637418914305","-2.03823830658928","1.99726869238648","0","359.9375"
"2013","-0.271082280641857","-0.212359166951178","-1.77637418914305","-1.03823830658928","-0.00273130761351997","0","359.9375"
"2013","0.728917719358143","-0.212359166951178","1.22362581085695","-1.03823830658928","-0.00273130761351997","0","359.9375"
"2019","0.728917719358143","-0.212359166951178","1.22362581085695","-2.03823830658928","-3.00273130761352","0","359.9375"
"2019","-1.27108228064186","-0.212359166951178","1.22362581085695","-2.03823830658928","-3.00273130761352","0","359.9375"
"2025","-1.27108228064186","-0.212359166951178","1.22362581085695","0.96176169341072","-0.00273130761351997","0","359.9375"
"2025","0.728917719358143","-0.212359166951178","0.223625810856948","0.96176169341072","-0.00273130761351997","0","359.9375"
"2030","0.728917719358143","-0.212359166951178","0.223625810856948","-3.03823830658928","-0.00273130761351997","0","359.9375"
"2030","-0.271082280641857","-0.212359166951178","-3.77637418914305","-3.03823830658928","-0.00273130761351997","0","359.9375"
"2035","-0.271082280641857","-0.212359166951178","-3.77637418914305","-2.03823830658928","-1.00273130761352","0","359.9375"
"2035","0.728917719358143","0.787640833048822","-0.776374189143052","-2.03823830658928","-1.00273130761352","0","359.9375"
"2041","0.728917719358143","0.787640833048822","-0.776374189143052","-2.03823830658928","-1.00273130761352","0","359.9375"
"2041","-1.27108228064186","-0.212359166951178","3.22362581085695","-2.03823830658928","-1.00273130761352","0","359.9375"
"2047","-1.27108228064186","-0.212359166951178","3.22362581085695","1.96176169341072","-1.00273130761352","0","359.9375"
"2047","0.728917719358143","0.787640833048822","-3.77637418914305","1.96176169341072","-1.00273130761352","0","359.9375"
"2053","0.728917719358143","0.787640833048822","-3.77637418914305","-0.0382383065892796","-2.00273130761352","0","359.9375"
"2053","-1.27108228064186","-0.212359166951178","-0.776374189143052","-0.0382383065892796","-2.00273130761352","0","359.9375"
"2059","-1.27108228064186","-0.212359166951178","-0.776374189143052","0.96176169341072","0.99726869238648","0","359.9375"
"2059","-0.271082280641857","0.787640833048822","-2.77637418914305","0.96176169341072","0.99726869238648","0","359.9375"
"2064","-0.271082280641857","0.787640833048822","-2.77637418914305","1.96176169341072","0.99726869238648","0","359.9375"
"2065","0.728917719358143","-0.212359166951178","1.22362581085695","1.96176169341072","0.99726869238648","0","359.9375"
"2070","0.728917719358143","-0.212359166951178","1.22362581085695","0.96176169341072","-1.00273130761352","0","359.9375"
"2070","0.728917719358143","-0.212359166951178","0.223625810856948","0.96176169341072","-1.00273130761352","0","359.9375"
"2076","0.728917719358143","-0.212359166951178","0.223625810856948","-2.03823830658928","-3.00273130761352","0","359.9375"
"2077","0.728917719358143","0.787640833048822","2.22362581085695","-2.03823830658928","-3.00273130761352","0","359.9375"
"2083","0.728917719358143","0.787640833048822","2.22362581085695","-0.0382383065892796","1.99726869238648","0","359.9375"
"2083","0.728917719358143","-2.21235916695118","1.22362581085695","-0.0382383065892796","1.99726869238648","0","359.9375"
"2090","0.728917719358143","-2.21235916695118","1.22362581085695","-0.0382383065892796","-0.00273130761351997","0","359.9375"
"2090","-0.271082280641857","-0.212359166951178","-0.776374189143052","-0.0382383065892796","-0.00273130761351997","0","359.9375"
"2102","-0.271082280641857","-0.212359166951178","-0.776374189143052","0.96176169341072","-0.00273130761351997","0","359.9375"
"2102","0.728917719358143","-2.21235916695118","-1.77637418914305","0.96176169341072","-0.00273130761351997","0","359.9375"
"2110","0.728917719358143","-2.21235916695118","-1.77637418914305","0.96176169341072","0.99726869238648","0","359.9375"
"2110","0.728917719358143","-1.21235916695118","0.223625810856948","0.96176169341072","0.99726869238648","0","359.9375"
"2118","0.728917719358143","-1.21235916695118","0.223625810856948","-2.03823830658928","0.99726869238648","0","359.9375"
"2118","-1.27108228064186","-0.212359166951178","0.223625810856948","-2.03823830658928","0.99726869238648","0","359.9375"
"2127","-1.27108228064186","-0.212359166951178","0.223625810856948","-1.03823830658928","-2.00273130761352","0","359.9375"
"2127","0.728917719358143","1.78764083304882","-1.77637418914305","-1.03823830658928","-2.00273130761352","0","359.9375"
"2134","0.728917719358143","1.78764083304882","-1.77637418914305","-4.03823830658928","-0.00273130761351997","0","359.9375"
"2134","-0.271082280641857","-0.212359166951178","-1.77637418914305","-4.03823830658928","-0.00273130761351997","0","359.9375"
"2143","-0.271082280641857","-0.212359166951178","-1.77637418914305","-1.03823830658928","-2.00273130761352","0","359.9375"
"2143","0.728917719358143","0.787640833048822","2.22362581085695","-1.03823830658928","-2.00273130761352","0","359.9375"
"2151","0.728917719358143","0.787640833048822","2.22362581085695","0.96176169341072","-2.00273130761352","0","359.9375"
"2152","0.728917719358143","-1.21235916695118","1.22362581085695","0.96176169341072","-2.00273130761352","0","359.9375"
"2158","0.728917719358143","-1.21235916695118","1.22362581085695","0.96176169341072","-0.00273130761351997","0","359.9375"
"2158","-1.27108228064186","-0.212359166951178","0.223625810856948","0.96176169341072","-0.00273130761351997","0","359.9375"
"2163","-1.27108228064186","-0.212359166951178","0.223625810856948","-1.03823830658928","0.99726869238648","0","359.9375"
"2164","-0.271082280641857","-0.212359166951178","1.22362581085695","-1.03823830658928","0.99726869238648","0","359.9375"
"2169","-0.271082280641857","-0.212359166951178","1.22362581085695","-2.03823830658928","-0.00273130761351997","0","359.9375"
"2169","-0.271082280641857","-0.212359166951178","0.223625810856948","-2.03823830658928","-0.00273130761351997","0","359.9375"
"2174","-0.271082280641857","-0.212359166951178","0.223625810856948","1.96176169341072","-1.00273130761352","0","359.9375"
"2175","0.728917719358143","-0.212359166951178","0.223625810856948","1.96176169341072","-1.00273130761352","0","359.9375"
"2180","0.728917719358143","-0.212359166951178","0.223625810856948","-1.03823830658928","-0.00273130761351997","0","359.9375"
"2180","-1.27108228064186","-1.21235916695118","-0.776374189143052","-1.03823830658928","-0.00273130761351997","0","359.9375"
"2186","-1.27108228064186","-1.21235916695118","-0.776374189143052","-2.03823830658928","0.99726869238648","0","359.9375"
"2186","-0.271082280641857","-1.21235916695118","-0.776374189143052","-2.03823830658928","0.99726869238648","0","359.9375"
"2192","-0.271082280641857","-1.21235916695118","-0.776374189143052","0.96176169341072","-0.00273130761351997","0","359.9375"
"2192","-1.27108228064186","-0.212359166951178","0.223625810856948","0.96176169341072","-0.00273130761351997","0","359.9375"
"2197","-1.27108228064186","-0.212359166951178","0.223625810856948","0.96176169341072","0.99726869238648","0","359.9375"
"2197","-0.271082280641857","-0.212359166951178","0.223625810856948","0.96176169341072","0.99726869238648","0","359.9375"
"2202","-0.271082280641857","-0.212359166951178","0.223625810856948","-3.03823830658928","-1.00273130761352","0","359.9375"
"2202","0.728917719358143","0.787640833048822","-0.776374189143052","-3.03823830658928","-1.00273130761352","0","359.9375"
"2208","0.728917719358143","0.787640833048822","-0.776374189143052","-1.03823830658928","-1.00273130761352","0","359.9375"
"2208","-1.27108228064186","-0.212359166951178","3.22362581085695","-1.03823830658928","-1.00273130761352","0","359.9375"
"2214","-1.27108228064186","-0.212359166951178","3.22362581085695","-4.03823830658928","-0.00273130761351997","0","359.9375"
"2214","-1.27108228064186","-0.212359166951178","-0.776374189143052","-4.03823830658928","-0.00273130761351997","0","359.9375"
"2219","-1.27108228064186","-0.212359166951178","-0.776374189143052","-1.03823830658928","0.99726869238648","0","359.9375"
"2219","0.728917719358143","1.78764083304882","1.22362581085695","-1.03823830658928","0.99726869238648","0","359.9375"
"2225","0.728917719358143","1.78764083304882","1.22362581085695","0.96176169341072","1.99726869238648","0","359.9375"
"2225","-1.27108228064186","0.787640833048822","-1.77637418914305","0.96176169341072","1.99726869238648","0","359.9375"
"2230","-1.27108228064186","0.787640833048822","-1.77637418914305","2.96176169341072","-0.00273130761351997","0","359.9375"
"2230","-0.271082280641857","-0.212359166951178","0.223625810856948","2.96176169341072","-0.00273130761351997","0","359.9375"
"2235","-0.271082280641857","-0.212359166951178","0.223625810856948","-2.03823830658928","1.99726869238648","0","359.9375"
"2235","-0.271082280641857","0.787640833048822","0.223625810856948","-2.03823830658928","1.99726869238648","0","359.9375"
"2241","-0.271082280641857","0.787640833048822","0.223625810856948","-0.0382383065892796","-0.00273130761351997","0","359.9375"
"2241","0.728917719358143","-0.212359166951178","1.22362581085695","-0.0382383065892796","-0.00273130761351997","0","359.9375"
"2246","0.728917719358143","-0.212359166951178","1.22362581085695","0.96176169341072","1.99726869238648","0","359.9375"
"2246","-0.271082280641857","-1.21235916695118","-0.776374189143052","0.96176169341072","1.99726869238648","0","359.9375"
"2252","-0.271082280641857","-1.21235916695118","-0.776374189143052","0.96176169341072","0.99726869238648","0","359.9375"
"2252","-1.27108228064186","-0.212359166951178","-2.77637418914305","0.96176169341072","0.99726869238648","0","359.9375"
"2258","-1.27108228064186","-0.212359166951178","-2.77637418914305","1.96176169341072","-1.00273130761352","0","359.9375"
"2258","-1.27108228064186","0.787640833048822","-1.77637418914305","1.96176169341072","-1.00273130761352","0","359.9375"
"2264","-1.27108228064186","0.787640833048822","-1.77637418914305","1.96176169341072","0.99726869238648","0","359.9375"
"2264","0.728917719358143","-0.212359166951178","-0.776374189143052","1.96176169341072","0.99726869238648","0","359.9375"
"2271","0.728917719358143","-0.212359166951178","-0.776374189143052","-0.0382383065892796","0.99726869238648","0","359.9375"
"2271","-1.27108228064186","2.78764083304882","0.223625810856948","-0.0382383065892796","0.99726869238648","0","359.9375"
"2277","-1.27108228064186","2.78764083304882","0.223625810856948","0.96176169341072","-0.00273130761351997","0","359.9375"
"2277","0.728917719358143","-0.212359166951178","1.22362581085695","0.96176169341072","-0.00273130761351997","0","359.9375"
"2283","0.728917719358143","-0.212359166951178","1.22362581085695","-1.03823830658928","-0.00273130761351997","0","359.9375"
"2283","0.728917719358143","-0.212359166951178","-1.77637418914305","-1.03823830658928","-0.00273130761351997","0","359.9375"
"2289","0.728917719358143","-0.212359166951178","-1.77637418914305","-1.03823830658928","1.99726869238648","0","359.9375"
"2289","-0.271082280641857","-0.212359166951178","0.223625810856948","-1.03823830658928","1.99726869238648","0","359.9375"
"2296","-0.271082280641857","-0.212359166951178","0.223625810856948","-0.0382383065892796","-0.00273130761351997","0","359.9375"
"2296","-0.271082280641857","0.787640833048822","-0.776374189143052","-0.0382383065892796","-0.00273130761351997","0","359.9375"
"2304","-0.271082280641857","0.787640833048822","-0.776374189143052","3.96176169341072","0.99726869238648","0","359.9375"
"2304","0.728917719358143","0.787640833048822","2.22362581085695","3.96176169341072","0.99726869238648","0","359.9375"
"2310","0.728917719358143","0.787640833048822","2.22362581085695","1.96176169341072","-0.00273130761351997","0","359.9375"
"2310","-0.271082280641857","-0.212359166951178","0.223625810856948","1.96176169341072","-0.00273130761351997","0","359.9375"
"2316","-0.271082280641857","-0.212359166951178","0.223625810856948","-0.0382383065892796","2.99726869238648","0","359.9375"
"2316","-0.271082280641857","0.787640833048822","-1.77637418914305","-0.0382383065892796","2.99726869238648","0","359.9375"
"2324","-0.271082280641857","0.787640833048822","-1.77637418914305","4.96176169341072","0.99726869238648","0","359.9375"
"2324","-0.271082280641857","-0.212359166951178","0.223625810856948","4.96176169341072","0.99726869238648","0","359.9375"
"2334","-0.271082280641857","-0.212359166951178","0.223625810856948","1.96176169341072","-2.00273130761352","0","359.9375"
"2334","-1.27108228064186","-0.212359166951178","1.22362581085695","1.96176169341072","-2.00273130761352","0","359.9375"
"2341","-1.27108228064186","-0.212359166951178","1.22362581085695","-2.03823830658928","-0.00273130761351997","0","359.9375"
"2341","0.728917719358143","-0.212359166951178","3.22362581085695","-2.03823830658928","-0.00273130761351997","0","359.9375"
"2347","0.728917719358143","-0.212359166951178","3.22362581085695","0.96176169341072","-2.00273130761352","0","359.9375"
"2347","0.728917719358143","-0.212359166951178","1.22362581085695","0.96176169341072","-2.00273130761352","0","359.9375"
"2352","0.728917719358143","-0.212359166951178","1.22362581085695","3.96176169341072","-2.00273130761352","0","359.9375"
"2352","0.728917719358143","-0.212359166951178","1.22362581085695","3.96176169341072","-2.00273130761352","0","359.9375"
"2358","0.728917719358143","-0.212359166951178","1.22362581085695","2.96176169341072","-2.00273130761352","0","359.9375"
"2358","-2.27108228064186","-1.21235916695118","-0.776374189143052","2.96176169341072","-2.00273130761352","0","359.9375"
"2364","-2.27108228064186","-1.21235916695118","-0.776374189143052","0.96176169341072","-1.00273130761352","0","359.9375"
"2364","-1.27108228064186","-1.21235916695118","-0.776374189143052","0.96176169341072","-1.00273130761352","0","359.9375"
"2369","-1.27108228064186","-1.21235916695118","-0.776374189143052","0.96176169341072","-0.00273130761351997","0","359.9375"
"2369","0.728917719358143","-0.212359166951178","-2.77637418914305","0.96176169341072","-0.00273130761351997","0","359.9375"
"2375","0.728917719358143","-0.212359166951178","-2.77637418914305","0.96176169341072","-0.00273130761351997","0","359.9375"
"2375","-0.271082280641857","0.787640833048822","1.22362581085695","0.96176169341072","-0.00273130761351997","0","359.9375"
"2381","-0.271082280641857","0.787640833048822","1.22362581085695","-2.03823830658928","2.99726869238648","0","359.9375"
"2381","-0.271082280641857","-1.21235916695118","-0.776374189143052","-2.03823830658928","2.99726869238648","0","359.9375"
"2386","-0.271082280641857","-1.21235916695118","-0.776374189143052","2.96176169341072","-3.00273130761352","0","359.9375"
"2386","-1.27108228064186","0.787640833048822","-1.77637418914305","2.96176169341072","-3.00273130761352","0","359.9375"
"2391","-1.27108228064186","0.787640833048822","-1.77637418914305","1.96176169341072","-3.00273130761352","0","359.9375"
"2391","-0.271082280641857","-0.212359166951178","0.223625810856948","1.96176169341072","-3.00273130761352","0","359.9375"
"2397","-0.271082280641857","-0.212359166951178","0.223625810856948","-1.03823830658928","-0.00273130761351997","0","359.9375"
"2397","-0.271082280641857","-0.212359166951178","0.223625810856948","-1.03823830658928","-0.00273130761351997","0","359.9375"
"2403","-0.271082280641857","-0.212359166951178","0.223625810856948","0.96176169341072","0.99726869238648","0","359.9375"
"2403","0.728917719358143","0.787640833048822","1.22362581085695","0.96176169341072","0.99726869238648","0","359.9375"
"2408","0.728917719358143","0.787640833048822","1.22362581085695","0.96176169341072","0.99726869238648","0","359.9375"
"2408","-0.271082280641857","0.787640833048822","-1.77637418914305","0.96176169341072","0.99726869238648","0","359.9375"
"2414","-0.271082280641857","0.787640833048822","-1.77637418914305","2.96176169341072","3.99726869238648","0","359.9375"
"2414","-1.27108228064186","-0.212359166951178","0.223625810856948","2.96176169341072","3.99726869238648","0","359.9375"
"2419","-1.27108228064186","-0.212359166951178","0.223625810856948","-0.0382383065892796","1.99726869238648","0","359.9375"
"2419","0.728917719358143","-0.212359166951178","1.22362581085695","-0.0382383065892796","1.99726869238648","0","359.9375"
"2425","0.728917719358143","-0.212359166951178","1.22362581085695","-0.0382383065892796","-2.00273130761352","0","359.9375"
"2425","0.728917719358143","0.787640833048822","-0.776374189143052","-0.0382383065892796","-2.00273130761352","0","359.9375"
"2430","0.728917719358143","0.787640833048822","-0.776374189143052","-0.0382383065892796","-0.00273130761351997","0","359.9375"
"2430","0.728917719358143","-2.21235916695118","0.223625810856948","-0.0382383065892796","-0.00273130761351997","0","359.9375"
"2436","0.728917719358143","-2.21235916695118","0.223625810856948","1.96176169341072","-0.00273130761351997","0","359.9375"
"2436","0.728917719358143","-0.212359166951178","-1.77637418914305","1.96176169341072","-0.00273130761351997","0","359.9375"
"2442","0.728917719358143","-0.212359166951178","-1.77637418914305","1.96176169341072","-1.00273130761352","0","359.9375"
"2442","-0.271082280641857","-1.21235916695118","0.223625810856948","1.96176169341072","-1.00273130761352","0","359.9375"
"2447","-0.271082280641857","-1.21235916695118","0.223625810856948","-0.0382383065892796","-0.00273130761351997","0","359.9375"
"2447","-0.271082280641857","-0.212359166951178","2.22362581085695","-0.0382383065892796","-0.00273130761351997","0","359.9375"
"2452","-0.271082280641857","-0.212359166951178","2.22362581085695","6.96176169341072","0.99726869238648","0","359.9375"
"2452","-0.271082280641857","-1.21235916695118","2.22362581085695","6.96176169341072","0.99726869238648","0","359.9375"
"2458","-0.271082280641857","-1.21235916695118","2.22362581085695","1.96176169341072","-1.00273130761352","0","359.9375"
"2458","-0.271082280641857","1.78764083304882","-0.776374189143052","1.96176169341072","-1.00273130761352","0","359.9375"
"2463","-0.271082280641857","1.78764083304882","-0.776374189143052","0.96176169341072","-0.00273130761351997","0","359.9375"
"2464","0.728917719358143","-0.212359166951178","-3.77637418914305","0.96176169341072","-0.00273130761351997","0","359.9375"
"2469","0.728917719358143","-0.212359166951178","-3.77637418914305","2.96176169341072","-0.00273130761351997","0","359.9375"
"2469","0.728917719358143","-0.212359166951178","0.223625810856948","2.96176169341072","-0.00273130761351997","0","359.9375"
"2475","0.728917719358143","-0.212359166951178","0.223625810856948","0.96176169341072","-0.00273130761351997","0","359.9375"
"2475","-1.27108228064186","1.78764083304882","-0.776374189143052","0.96176169341072","-0.00273130761351997","0","359.9375"
"2480","-1.27108228064186","1.78764083304882","-0.776374189143052","-1.03823830658928","-2.00273130761352","0","359.9375"
"2480","-0.271082280641857","0.787640833048822","0.223625810856948","-1.03823830658928","-2.00273130761352","0","359.9375"
"2485","-0.271082280641857","0.787640833048822","0.223625810856948","1.96176169341072","-0.00273130761351997","0","359.9375"
"2486","0.728917719358143","-0.212359166951178","2.22362581085695","1.96176169341072","-0.00273130761351997","0","359.9375"
"2492","0.728917719358143","-0.212359166951178","2.22362581085695","1.96176169341072","-2.00273130761352","0","359.9375"
"2492","-0.271082280641857","1.78764083304882","-1.77637418914305","1.96176169341072","-2.00273130761352","0","359.9375"
"2498","-0.271082280641857","1.78764083304882","-1.77637418914305","3.96176169341072","-1.00273130761352","0","359.9375"
"2498","0.728917719358143","-0.212359166951178","0.223625810856948","3.96176169341072","-1.00273130761352","0","359.9375"
"2506","0.728917719358143","-0.212359166951178","0.223625810856948","1.96176169341072","-3.00273130761352","0","359.9375"
"2507","-1.27108228064186","-0.212359166951178","0.223625810856948","1.96176169341072","-3.00273130761352","0","359.9375"
"2512","-1.27108228064186","-0.212359166951178","0.223625810856948","0.96176169341072","2.99726869238648","0","359.9375"
"2512","0.728917719358143","-0.212359166951178","0.223625810856948","0.96176169341072","2.99726869238648","0","359.9375"
"2518","0.728917719358143","-0.212359166951178","0.223625810856948","0.96176169341072","-0.00273130761351997","0","359.9375"
"2518","-0.271082280641857","-0.212359166951178","0.223625810856948","0.96176169341072","-0.00273130761351997","0","359.9375"
"2525","-0.271082280641857","-0.212359166951178","0.223625810856948","1.96176169341072","-3.00273130761352","0","359.9375"
"2526","-1.27108228064186","-0.212359166951178","-0.776374189143052","1.96176169341072","-3.00273130761352","0","359.9375"
"2531","-1.27108228064186","-0.212359166951178","-0.776374189143052","-0.0382383065892796","0.99726869238648","0","359.9375"
"2531","0.728917719358143","2.78764083304882","-0.776374189143052","-0.0382383065892796","0.99726869238648","0","359.9375"
"2536","0.728917719358143","2.78764083304882","-0.776374189143052","-1.03823830658928","-1.00273130761352","0","359.9375"
"2536","-0.271082280641857","1.78764083304882","-0.776374189143052","-1.03823830658928","-1.00273130761352","0","359.9375"
"2545","-0.271082280641857","1.78764083304882","-0.776374189143052","0.96176169341072","0.99726869238648","0","359.9375"
"2545","0.728917719358143","-0.212359166951178","3.22362581085695","0.96176169341072","0.99726869238648","0","359.9375"
"2551","0.728917719358143","-0.212359166951178","3.22362581085695","0.96176169341072","0.99726869238648","0","359.9375"
"2551","-0.271082280641857","-0.212359166951178","1.22362581085695","0.96176169341072","0.99726869238648","0","359.9375"
"2557","-0.271082280641857","-0.212359166951178","1.22362581085695","-4.03823830658928","0.99726869238648","0","359.9375"
"2557","0.728917719358143","0.787640833048822","-2.77637418914305","-4.03823830658928","0.99726869238648","0","359.9375"
"2563","0.728917719358143","0.787640833048822","-2.77637418914305","0.96176169341072","-2.00273130761352","0","359.9375"
"2563","-0.271082280641857","-0.212359166951178","0.223625810856948","0.96176169341072","-2.00273130761352","0","359.9375"
"2568","-0.271082280641857","-0.212359166951178","0.223625810856948","-2.03823830658928","-0.00273130761351997","0","359.9375"
"2569","0.728917719358143","-0.212359166951178","1.22362581085695","-2.03823830658928","-0.00273130761351997","0","359.9375"
"2574","0.728917719358143","-0.212359166951178","1.22362581085695","-0.0382383065892796","-1.00273130761352","0","359.9375"
"2575","-0.271082280641857","1.78764083304882","0.223625810856948","-0.0382383065892796","-1.00273130761352","0","359.9375"
"2580","-0.271082280641857","1.78764083304882","0.223625810856948","1.96176169341072","-0.00273130761351997","0","359.9375"
"2580","0.728917719358143","-0.212359166951178","3.22362581085695","1.96176169341072","-0.00273130761351997","0","359.9375"
"2586","0.728917719358143","-0.212359166951178","3.22362581085695","-2.03823830658928","-0.00273130761351997","0","359.9375"
"2586","0.728917719358143","-0.212359166951178","-3.77637418914305","-2.03823830658928","-0.00273130761351997","0","359.9375"
"2592","0.728917719358143","-0.212359166951178","-3.77637418914305","-1.03823830658928","-1.00273130761352","0","359.9375"
"2592","0.728917719358143","1.78764083304882","0.223625810856948","-1.03823830658928","-1.00273130761352","0","359.9375"
"2597","0.728917719358143","1.78764083304882","0.223625810856948","-1.03823830658928","0.99726869238648","0","359.9375"
"2597","-0.271082280641857","0.787640833048822","0.223625810856948","-1.03823830658928","0.99726869238648","0","359.9375"
"2602","-0.271082280641857","0.787640833048822","0.223625810856948","-1.03823830658928","-2.00273130761352","0","359.9375"
"2603","-0.271082280641857","-0.212359166951178","-0.776374189143052","-1.03823830658928","-2.00273130761352","0","359.9375"
"2608","-0.271082280641857","-0.212359166951178","-0.776374189143052","-1.03823830658928","-2.00273130761352","0","359.9375"
"2608","0.728917719358143","-0.212359166951178","-0.776374189143052","-1.03823830658928","-2.00273130761352","0","359.9375"
"2614","0.728917719358143","-0.212359166951178","-0.776374189143052","0.96176169341072","-0.00273130761351997","0","359.9375"
"2614","-0.271082280641857","-0.212359166951178","0.223625810856948","0.96176169341072","-0.00273130761351997","0","359.9375"
"2619","-0.271082280641857","-0.212359166951178","0.223625810856948","-0.0382383065892796","-2.00273130761352","0","359.9375"
"2619","-2.27108228064186","0.787640833048822","0.223625810856948","-0.0382383065892796","-2.00273130761352","0","359.9375"
"2625","-2.27108228064186","0.787640833048822","0.223625810856948","-0.0382383065892796","-0.00273130761351997","0","359.9375"
"2625","-2.27108228064186","-0.212359166951178","-0.776374189143052","-0.0382383065892796","-0.00273130761351997","0","359.9375"
"2631","-2.27108228064186","-0.212359166951178","-0.776374189143052","-0.0382383065892796","1.99726869238648","0","359.9375"
"2631","-0.271082280641857","0.787640833048822","-0.776374189143052","-0.0382383065892796","1.99726869238648","0","359.9375"
"2636","-0.271082280641857","0.787640833048822","-0.776374189143052","-0.0382383065892796","1.99726869238648","0","359.9375"
"2636","2.72891771935814","-0.212359166951178","-0.776374189143052","-0.0382383065892796","1.99726869238648","0","359.9375"
"2642","2.72891771935814","-0.212359166951178","-0.776374189143052","0.96176169341072","-0.00273130761351997","0","359.9375"
"2642","0.728917719358143","-0.212359166951178","0.223625810856948","0.96176169341072","-0.00273130761351997","0","359.9375"
"2648","0.728917719358143","-0.212359166951178","0.223625810856948","-0.0382383065892796","-0.00273130761351997","0","359.9375"
"2648","-1.27108228064186","-0.212359166951178","1.22362581085695","-0.0382383065892796","-0.00273130761351997","0","359.9375"
"2653","-1.27108228064186","-0.212359166951178","1.22362581085695","-1.03823830658928","0.99726869238648","0","359.9375"
"2653","-0.271082280641857","1.78764083304882","1.22362581085695","-1.03823830658928","0.99726869238648","0","359.9375"
"2659","-0.271082280641857","1.78764083304882","1.22362581085695","-1.03823830658928","-0.00273130761351997","0","359.9375"
"2659","-0.271082280641857","1.78764083304882","1.22362581085695","-1.03823830658928","-0.00273130761351997","0","359.9375"
"2664","-0.271082280641857","1.78764083304882","1.22362581085695","-1.03823830658928","-0.00273130761351997","0","359.9375"
"2665","-0.271082280641857","-0.212359166951178","1.22362581085695","-1.03823830658928","-0.00273130761351997","0","359.9375"
"2670","-0.271082280641857","-0.212359166951178","1.22362581085695","-2.03823830658928","-0.00273130761351997","0","359.9375"
"2670","-3.27108228064186","-0.212359166951178","-1.77637418914305","-2.03823830658928","-0.00273130761351997","0","359.9375"
"2677","-3.27108228064186","-0.212359166951178","-1.77637418914305","0.96176169341072","-1.00273130761352","0","359.9375"
"2677","-1.27108228064186","0.787640833048822","-1.77637418914305","0.96176169341072","-1.00273130761352","0","359.9375"
"2682","-1.27108228064186","0.787640833048822","-1.77637418914305","2.96176169341072","-0.00273130761351997","0","359.9375"
"2682","0.728917719358143","-0.212359166951178","2.22362581085695","2.96176169341072","-0.00273130761351997","0","359.9375"
"2688","0.728917719358143","-0.212359166951178","2.22362581085695","0.96176169341072","-1.00273130761352","0","359.9375"
"2688","-2.27108228064186","-0.212359166951178","0.223625810856948","0.96176169341072","-1.00273130761352","0","359.9375"
"2693","-2.27108228064186","-0.212359166951178","0.223625810856948","0.96176169341072","-1.00273130761352","0","359.9375"
"2694","0.728917719358143","2.78764083304882","-0.776374189143052","0.96176169341072","-1.00273130761352","0","359.9375"
"2699","0.728917719358143","2.78764083304882","-0.776374189143052","0.96176169341072","0.99726869238648","0","359.9375"
"2699","-0.271082280641857","1.78764083304882","-0.776374189143052","0.96176169341072","0.99726869238648","0","359.9375"
"2705","-0.271082280641857","1.78764083304882","-0.776374189143052","1.96176169341072","-0.00273130761351997","0","359.9375"
"2706","0.728917719358143","-0.212359166951178","-1.77637418914305","1.96176169341072","-0.00273130761351997","0","359.9375"
"2713","0.728917719358143","-0.212359166951178","-1.77637418914305","-0.0382383065892796","-0.00273130761351997","0","359.9375"
"2713","-0.271082280641857","0.787640833048822","-2.77637418914305","-0.0382383065892796","-0.00273130761351997","0","359.9375"
"2718","-0.271082280641857","0.787640833048822","-2.77637418914305","-0.0382383065892796","0.99726869238648","0","359.9375"
"2718","-0.271082280641857","0.787640833048822","-2.77637418914305","-0.0382383065892796","0.99726869238648","0","359.9375"
"2726","-0.271082280641857","0.787640833048822","-2.77637418914305","-0.0382383065892796","0.99726869238648","0","359.9375"
"2727","-1.27108228064186","-2.21235916695118","1.22362581085695","-0.0382383065892796","0.99726869238648","0","359.9375"
"2732","-1.27108228064186","-2.21235916695118","1.22362581085695","0.96176169341072","-2.00273130761352","0","359.9375"
"2732","0.728917719358143","-0.212359166951178","-1.77637418914305","0.96176169341072","-2.00273130761352","0","359.9375"
"2739","0.728917719358143","-0.212359166951178","-1.77637418914305","0.96176169341072","-0.00273130761351997","0","359.9375"
"2740","-0.271082280641857","-0.212359166951178","-0.776374189143052","0.96176169341072","-0.00273130761351997","0","359.9375"
"2746","-0.271082280641857","-0.212359166951178","-0.776374189143052","2.96176169341072","-1.00273130761352","0","359.9375"
"2746","0.728917719358143","-0.212359166951178","0.223625810856948","2.96176169341072","-1.00273130761352","0","359.9375"
"2751","0.728917719358143","-0.212359166951178","0.223625810856948","0.96176169341072","-2.00273130761352","0","359.9375"
"2752","0.728917719358143","-0.212359166951178","0.223625810856948","0.96176169341072","-2.00273130761352","0","359.9375"
"2758","0.728917719358143","-0.212359166951178","0.223625810856948","0.96176169341072","-2.00273130761352","0","359.9375"
"2758","-0.271082280641857","-0.212359166951178","-0.776374189143052","0.96176169341072","-2.00273130761352","0","359.9375"
"2764","-0.271082280641857","-0.212359166951178","-0.776374189143052","-0.0382383065892796","0.99726869238648","0","359.9375"
"2764","-0.271082280641857","-0.212359166951178","0.223625810856948","-0.0382383065892796","0.99726869238648","0","359.9375"
"2769","-0.271082280641857","-0.212359166951178","0.223625810856948","-1.03823830658928","-0.00273130761351997","0","359.9375"
"2769","-0.271082280641857","1.78764083304882","-1.77637418914305","-1.03823830658928","-0.00273130761351997","0","359.9375"
"2775","-0.271082280641857","1.78764083304882","-1.77637418914305","1.96176169341072","-0.00273130761351997","0","359.9375"
"2775","-1.27108228064186","-0.212359166951178","-1.77637418914305","1.96176169341072","-0.00273130761351997","0","359.9375"
"2780","-1.27108228064186","-0.212359166951178","-1.77637418914305","0.96176169341072","-2.00273130761352","0","359.9375"
"2781","-1.27108228064186","-0.212359166951178","-1.77637418914305","0.96176169341072","-2.00273130761352","0","359.9375"
"2786","-1.27108228064186","-0.212359166951178","-1.77637418914305","0.96176169341072","-0.00273130761351997","0","359.9375"
"2786","-0.271082280641857","-1.21235916695118","0.223625810856948","0.96176169341072","-0.00273130761351997","0","359.9375"
"2792","-0.271082280641857","-1.21235916695118","0.223625810856948","0.96176169341072","0.99726869238648","0","359.9375"
"2792","-1.27108228064186","-0.212359166951178","-0.776374189143052","0.96176169341072","0.99726869238648","0","359.9375"
"2798","-1.27108228064186","-0.212359166951178","-0.776374189143052","0.96176169341072","-2.00273130761352","0","359.9375"
"2798","-0.271082280641857","-0.212359166951178","-0.776374189143052","0.96176169341072","-2.00273130761352","0","359.9375"
"2803","-0.271082280641857","-0.212359166951178","-0.776374189143052","0.96176169341072","0.99726869238648","0","359.9375"
"2803","-0.271082280641857","-0.212359166951178","3.22362581085695","0.96176169341072","0.99726869238648","0","359.9375"
"2809","-0.271082280641857","-0.212359166951178","3.22362581085695","-1.03823830658928","0.99726869238648","0","359.9375"
"2809","-0.271082280641857","-0.212359166951178","3.22362581085695","-1.03823830658928","0.99726869238648","0","359.9375"
"2814","-0.271082280641857","-0.212359166951178","3.22362581085695","0.96176169341072","0.99726869238648","0","359.9375"
"2814","0.728917719358143","-0.212359166951178","-0.776374189143052","0.96176169341072","0.99726869238648","0","359.9375"
"2820","0.728917719358143","-0.212359166951178","-0.776374189143052","0.96176169341072","-0.00273130761351997","0","359.9375"
"2820","0.728917719358143","-0.212359166951178","-1.77637418914305","0.96176169341072","-0.00273130761351997","0","359.9375"
"2825","0.728917719358143","-0.212359166951178","-1.77637418914305","-0.0382383065892796","-0.00273130761351997","0","359.9375"
"2825","-1.27108228064186","-0.212359166951178","-1.77637418914305","-0.0382383065892796","-0.00273130761351997","0","359.9375"
"2831","-1.27108228064186","-0.212359166951178","-1.77637418914305","-2.03823830658928","1.99726869238648","0","359.9375"
"2831","0.728917719358143","0.787640833048822","-0.776374189143052","-2.03823830658928","1.99726869238648","0","359.9375"
"2837","0.728917719358143","0.787640833048822","-0.776374189143052","-3.03823830658928","0.99726869238648","0","359.9375"
"2837","0.728917719358143","0.787640833048822","-0.776374189143052","-3.03823830658928","0.99726869238648","0","359.9375"
"2845","0.728917719358143","0.787640833048822","-0.776374189143052","-0.0382383065892796","1.99726869238648","0","359.9375"
"2845","1.72891771935814","-0.212359166951178","2.22362581085695","-0.0382383065892796","1.99726869238648","0","359.9375"
"2851","1.72891771935814","-0.212359166951178","2.22362581085695","1.96176169341072","-1.00273130761352","0","359.9375"
"2851","-1.27108228064186","-0.212359166951178","-1.77637418914305","1.96176169341072","-1.00273130761352","0","359.9375"
"2857","-1.27108228064186","-0.212359166951178","-1.77637418914305","-1.03823830658928","-1.00273130761352","0","359.9375"
"2857","-1.27108228064186","-0.212359166951178","0.223625810856948","-1.03823830658928","-1.00273130761352","0","359.9375"
"2863","-1.27108228064186","-0.212359166951178","0.223625810856948","-0.0382383065892796","-2.00273130761352","0","359.9375"
"2863","0.728917719358143","-0.212359166951178","1.22362581085695","-0.0382383065892796","-2.00273130761352","0","359.9375"
"2868","0.728917719358143","-0.212359166951178","1.22362581085695","-2.03823830658928","0.99726869238648","0","359.9375"
"2868","0.728917719358143","-0.212359166951178","1.22362581085695","-2.03823830658928","0.99726869238648","0","359.9375"
"2874","0.728917719358143","-0.212359166951178","1.22362581085695","-0.0382383065892796","-0.00273130761351997","0","359.9375"
"2874","0.728917719358143","0.787640833048822","1.22362581085695","-0.0382383065892796","-0.00273130761351997","0","359.9375"
"2879","0.728917719358143","0.787640833048822","1.22362581085695","-1.03823830658928","0.99726869238648","0","359.9375"
"2880","0.728917719358143","-0.212359166951178","-2.77637418914305","-1.03823830658928","0.99726869238648","0","359.9375"
"2885","0.728917719358143","-0.212359166951178","-2.77637418914305","-0.0382383065892796","-1.00273130761352","0","359.9375"
"2885","0.728917719358143","0.787640833048822","1.22362581085695","-0.0382383065892796","-1.00273130761352","0","359.9375"
"2890","0.728917719358143","0.787640833048822","1.22362581085695","-1.03823830658928","-3.00273130761352","0","359.9375"
"2890","-2.27108228064186","-1.21235916695118","0.223625810856948","-1.03823830658928","-3.00273130761352","0","359.9375"
"2896","-2.27108228064186","-1.21235916695118","0.223625810856948","-1.03823830658928","-1.00273130761352","0","359.9375"
"2896","-2.27108228064186","-1.21235916695118","0.223625810856948","-1.03823830658928","-1.00273130761352","0","359.9375"
"2901","-2.27108228064186","-1.21235916695118","0.223625810856948","-1.03823830658928","0.99726869238648","0","359.9375"
"2901","-1.27108228064186","1.78764083304882","-0.776374189143052","-1.03823830658928","0.99726869238648","0","359.9375"
"2907","-1.27108228064186","1.78764083304882","-0.776374189143052","-0.0382383065892796","-3.00273130761352","0","359.9375"
"2907","0.728917719358143","-1.21235916695118","0.223625810856948","-0.0382383065892796","-3.00273130761352","0","359.9375"
"2913","0.728917719358143","-1.21235916695118","0.223625810856948","-4.03823830658928","-0.00273130761351997","0","359.9375"
"2913","0.728917719358143","-0.212359166951178","-0.776374189143052","-4.03823830658928","-0.00273130761351997","0","359.9375"
"2918","0.728917719358143","-0.212359166951178","-0.776374189143052","-3.03823830658928","-1.00273130761352","0","359.9375"
"2918","0.728917719358143","1.78764083304882","1.22362581085695","-3.03823830658928","-1.00273130761352","0","359.9375"
"2926","0.728917719358143","1.78764083304882","1.22362581085695","0.96176169341072","-1.00273130761352","0","359.9375"
"2926","0.728917719358143","1.78764083304882","1.22362581085695","0.96176169341072","-1.00273130761352","0","359.9375"
"2932","0.728917719358143","1.78764083304882","1.22362581085695","-2.03823830658928","0.99726869238648","0","359.9375"
"2932","0.728917719358143","-0.212359166951178","3.22362581085695","-2.03823830658928","0.99726869238648","0","359.9375"
"2938","0.728917719358143","-0.212359166951178","3.22362581085695","-0.0382383065892796","0.99726869238648","0","359.9375"
"2938","0.728917719358143","1.78764083304882","-2.77637418914305","-0.0382383065892796","0.99726869238648","0","359.9375"
"2947","0.728917719358143","1.78764083304882","-2.77637418914305","-2.03823830658928","-0.00273130761351997","0","359.9375"
"2947","0.728917719358143","-0.212359166951178","-0.776374189143052","-2.03823830658928","-0.00273130761351997","0","359.9375"
"2954","0.728917719358143","-0.212359166951178","-0.776374189143052","-2.03823830658928","-1.00273130761352","0","359.9375"
"2954","0.728917719358143","0.787640833048822","1.22362581085695","-2.03823830658928","-1.00273130761352","0","359.9375"
"2961","0.728917719358143","0.787640833048822","1.22362581085695","0.96176169341072","-0.00273130761351997","0","359.9375"
"2961","0.728917719358143","0.787640833048822","1.22362581085695","0.96176169341072","-0.00273130761351997","0","359.9375"
"2967","0.728917719358143","0.787640833048822","1.22362581085695","-2.03823830658928","0.99726869238648","0","359.9375"
"2967","-1.27108228064186","-0.212359166951178","-1.77637418914305","-2.03823830658928","0.99726869238648","0","359.9375"
"2973","-1.27108228064186","-0.212359166951178","-1.77637418914305","-3.03823830658928","-1.00273130761352","0","359.9375"
"2973","-1.27108228064186","0.787640833048822","0.223625810856948","-3.03823830658928","-1.00273130761352","0","359.9375"
"2979","-1.27108228064186","0.787640833048822","0.223625810856948","-0.0382383065892796","-1.00273130761352","0","359.9375"
"2979","-1.27108228064186","0.787640833048822","1.22362581085695","-0.0382383065892796","-1.00273130761352","0","359.9375"
