Timer,AX,AY,AZ,GX,GY,GZ
"1001","-1.99999928000026","-1.99999838000131","-25.999974000026","-1.99999662000571","0.999999190000656","0"
"1002","-1.99999980941182","-1.99999957117673","-25.9999934343483","3.19138810250683","4.42756147290598","-1.75528696055707"
"1009","-0.284651110583429","4.86139545250734","-31.1908221035638","1.6369348538338","3.44505484061024","-1.19660193160366"
"1009","-0.795212436112117","2.81915022604612","-29.5936745435756","-3.93638388780889","-3.60309260324948","2.42589290648728"
"1021","-0.941346845790886","7.37538336958621","-27.4320051509362","-2.56658995688533","-1.81869427307834","1.37277677833562"
"1021","-0.983200523783362","5.68035891608975","-27.8460270045981","1.24897668368533","3.79889546761492","-2.37966390344548"
"1030","0.718390157240619","-3.37302265155221","-34.8739319686486","0.365471008698491","2.56581594949027","-1.36069824874414"
"1030","0.205762493299934","-0.966106709209963","-32.779071832011","-3.30782425986819","7.23436284481685","0.644260085661106"
"1038","-1.6546435113613","1.43686446281519","-27.0244391575134","-2.38269090901823","5.70278635694722","0.168434867380024"
"1042","-1.18750407815884","1.12512744258349","-28.4644605933585","4.71755248511855","0.164657638207461","0.0440354837936981"
"1050","-1.05370522845032","1.03583920923394","-27.1259070058687","2.79520059802751","1.42271973160087","0.0115126034363466"
"1051","-1.01538234043364","1.01026512563519","-27.7630489360863","-2.88946182207493","-3.23796871573844","0.00300984629813024"
"1058","0.709172509240536","2.71651849892748","-27.9357667810326","-1.55288763662185","-1.70392053705559","0.00078689193008843"
"1062","0.203122364024917","2.20522641455123","-27.982587516803","-1.16178402503716","-2.90687250759967","0.000205724428527449"
"1071","0.0581786437424875","3.77235963402784","-26.2663619993045","-1.04734066928526","-2.28524356846534","5.3784438338552E-05"
"1071","0.0166636234467027","3.22122052490326","-26.8011237866457","-1.0138526592342","-2.0897192192607","1.7385748209014"
"1079","-5.13596221134026","-0.363794340361282","-37.3195949130286","-1.00405351615759","-2.02821987660601","1.19309244020031"
"1079","-3.61178583233571","0.609379767477663","-34.1709653517313","-4.41595319821619","6.41844650861929","-0.688078818633908"
"1091","-1.46165036616621","0.888117906388009","-22.9439211626109","-3.41433121758941","4.0752226719358","-0.17989080372116"
"1091","-1.84580500672061","0.967954545543704","-25.9004691694243","-1.41385659935425","-0.0327333981154256","-1.78559127462953"
"1099","-0.242256870127676","0.990821487888206","-28.4308545345119","-1.8284847908974","0.675168717451277","-1.20538438615217"
"1099","-0.782965958412381","0.997371075367296","-28.1167970010401","-3.65719536237251","-2.47310002371553","0.684865221620461"
"1111","-2.65141509519198","6.1399820530069","-26.3027438034041","-3.19230618288016","-1.46334220516086","0.179050643358816"
"1111","-2.18657938988443","4.61293720204011","-26.8109862466429","2.0658786538021","3.91065603914769","1.78537162374253"
"1120","-0.339862033054107","4.17555848803352","-30.4065973057073","0.604510106054438","2.60096909118886","1.20532696079111"
"1120","-0.810922190748411","4.05028375275319","-29.3813035115524","5.2990402184677","0.503561562123137","1.05368052467546"
"1128","-0.945844020884333","0.587245666399421","-29.1033646000403","3.6727370185715","0.843852503679752","1.01403419559872"
"1132","-0.984488554814627","1.59535656516817","-29.0280203046072","1.48947039103039","-0.734578457952022","-4.21201318917827"
"1140","-2.70913553084381","0.170523012918564","-32.4654313786096","1.85061063122262","-0.23105097895028","-2.57830704806916"
"1140","-2.20311177261131","0.762419828285954","-31.3972523822815","-3.16586439778114","-1.75813825990525","1.32592936367677"
"1148","-0.344597265481609","4.35910858324081","-29.3787702690224","-1.63376758087536","-1.23846137228028","0.346649965744996"
"1152","-0.81227846385876","3.38927813021133","-29.8315956692499","-2.89283436463311","3.98138903713006","-3.38649361532708"
"1161","-2.65981083152437","1.39791934179576","-28.2254307950045","-2.26125803442524","2.62321712780223","-2.36248383769556"
"1162","-2.18898411058263","1.82755106122332","-28.7900280651706","1.33831867051287","2.19602389087034","3.12091477940946"
"1169","-2.0541291417878","3.66418523414301","-28.9430803430712","0.391614076633889","2.06165646622623","1.55449034901196"
"1169","-2.0155037583935","3.19023703422183","-28.9845700933911","-5.00755788274964","0.33392861330884","1.14496553568881"
"1181","1.42271607715812","-0.372668683050759","-30.7247350129605","-3.58744448827035","0.79049692476033","1.03789967954355"
"1181","0.407496693911746","0.606837963554406","-30.1964627717297","-6.58666300141496","0.93410385221182","-2.4672130556438"
"1189","-1.59686246703108","2.6009682233514","-33.5110931354947","-5.46428371651585","0.979273324325411","-1.38358706686242"
"1189","-1.17095433582293","2.17213031334466","-32.4096304724238","-1.72108998661542","0.993480725369554","0.638276048127404"
"1201","0.664613320795111","0.335723504633315","-26.9242901766953","-2.62576987452659","0.997949456904018","0.166870405227071"
"1201","0.190359647509356","0.809736826587417","-28.4373119858978","-1.18311056775747","6.05574862789422","3.52074799107543"
"1209","-3.37263356394998","-0.768073837731512","-27.1185475012573","-1.76096470312482","4.64660585647296","2.39758319971981"
"1210","-2.39315197757461","-0.219992980033579","-27.7610539052837","-7.05220494571427","0.832451411301203","0.365383090216227"
"1218","1.31454944908054","3.36414593579487","-29.6641437498688","-5.60050895394847","1.63276455840678","0.83408623712223"
"1222","0.376515429244208","2.39072093706844","-29.1800375579941","6.77596594777573","0.19902689642238","0.956623631851159"
"1230","-1.60573617214197","2.11191093757479","-30.7777227659904","3.39752626626388","0.748065550124612","0.988659715257197"
"1230","-1.17349595712987","2.03205371599187","-30.2108268091252","0.701555657598812","0.92075767993892","-2.48008631450716"
"1238","-2.76327134388822","-1.41797581090684","-31.7860691843482","0.912670271923158","0.975075479785442","-1.38695264188192"
"1242","-2.21861744179718","-0.406138979005256","-31.2130893746909","-0.732937652529782","-4.06423324205309","-1.10116460478811"
"1251","-0.349038424917123","1.59725134598209","-31.0577647394279","-0.214469623976527","-2.64927456855702","-1.02644839743737"
"1251","-0.81355050809595","1.17106571917581","-31.0156589934435","-8.59967502456521","2.85217371623695","2.47020687013995"
"1259","-4.37375351719112","6.18973196041185","-24.0885737297976","-6.05332417606261","1.58257432639071","1.38436976745038"
"1259","-3.39347275643586","4.62718665287251","-26.210764121366","1.52131414980403","1.18324028831331","1.10048934005852"
"1271","0.314457571068099","4.17963983932876","-26.7860521908116","-0.262221969674025","1.05763556981504","1.02627185673936"
"1271","-0.623510886608205","4.05145274014723","-26.9420025542481","-2.49149753811626","-4.03826516550924","1.00686849427145"
"1279","-0.892165364921317","-2.83957619959742","-32.1710312826192","-2.14382027150788","-2.64110668745193","1.00179569392544"
"1279","-0.969113825316772","-0.813316115579275","-30.5885279663155","-0.334700642926864","2.85474280454175","1.00046946485597"
"1291","-0.991153530719821","1.48062699650415","-31.8884572501932","-0.80532245484891","1.58338239578263","1.00012273653537"
"1291","-0.997466179624774","1.1376619799443","-31.2408449582466","0.764349391145134","-0.501970077344535","-0.738528671392113"
"1300","-2.71285260362443","2.75300771682498","-31.0652887844634","0.223661215847992","-0.157887393128234","-0.19308037490765"
"1300","-2.2041764227502","2.21567771674384","-31.0176986282285","1.77283049036874","-1.73512571720855","-0.0504787865638399"
"1308","-0.344902204336755","3.7753531133024","-29.2758799971186","1.22614292511087","-1.23122311139657","-0.0131971356186586"
"1312","-0.812365804950431","3.22207792219234","-29.803703946564","-12.5928951475801","0.61273666261941","1.73511051042629"
"1320","0.7673208413969","1.35002958144021","-24.7600342726668","-8.63657319978237","0.19272741285069","1.19218673350097"
"1320","0.219777305576947","1.813834396788","-26.3927851318045","-4.06412118961067","0.0606196069700359","-2.42687636544416"
"1328","-3.36420770962976","-1.48047854954241","-30.2932304216844","-4.72614645207678","0.0190670164396828","-1.37304147321391"
"1332","-2.39073863043248","-0.424041116869125","-29.3505717656602","3.61705173838955","3.37692631722069","2.37959383965978"
"1341","-0.398337660686743","5.01928047532215","-25.6371981979246","1.05840888861216","2.43309216339288","1.36067996558575"
"1341","-0.827670876812542","3.57836565635637","-26.6305686705265","-3.10505920654627","-2.9201707501879","-2.38282562282504"
"1349","-2.66421955192241","3.1656564486908","-30.3576893097657","-2.32335851716957","-1.60396180527742","-1.36152488052181"
"1353","-2.19024686357701","3.04744759425331","-29.3680454237402","3.02753058318615","-1.18996740899124","-1.09451679017149"
"1361","-0.340912476940086","-2.12714501546361","-30.8286883544482","1.59328882924209","-1.05975148786481","-1.02471039783327"
"1361","-0.811223060625084","-0.60926039649718","-30.2246426736718","-2.24116099350281","-2.70425849433286","5.94778277051376"
"1370","-2.65950854118312","3.25265131799781","-26.6030610608869","-1.36318414076846","-2.22151427500789","3.77066608856803"
"1370","-2.1888975280827","2.35878646407646","-27.6213146998456","0.601109877392338","-0.384209563984721","-3.75276068131027"
"1382","-2.05410434268484","3.81634255760838","-31.3551807229071","0.175894646601844","-0.806312067105509","-1.7196796616935"
"1382","-2.01549665539338","3.2338181866823","-30.3673653904611","-1.6559138668586","-0.9390782754086","4.02752977448749"
"1390","-2.00443857769015","6.49412728138165","-31.8285040095214","-1.19193119619467","-0.980837956852933","2.53007584425469"
"1390","-2.00127130476941","5.42795040923594","-31.224592701041","-2.76354576422549","-0.993972857793624","0.400021866570135"
"1402","-0.286785784565846","-0.0181607693312018","-24.14521194179","-2.22342606138065","-0.998104250006271","0.843142172502705"
"1402","-0.79572000379667","1.42195505168706","-26.2261177332584","-2.06537814397374","0.686060812753311","-4.25669106989739"
"1410","-0.941489785332686","0.120857064387224","-30.2480498543187","-2.01913072129114","0.215790458718339","-2.58998759926978"
"1411","-0.983241407460143","0.748194425093112","-29.3383241174381","-2.00559796401174","6.80973188146061","-0.415685150295984"
"1419","0.718378368467253","0.927877430408977","-29.0917136507361","-2.00163805643289","4.88376033189049","-0.847237169503121"
"1423","0.205759121463547","0.979342534229692","-29.024861939477","4.82905482302473","-5.83481322338711","0.778498957914519"
"1431","-3.36822282112851","-0.719495090191916","-30.7356574157954","2.82782801785237","-3.20618477136576","0.203530176257089"
"1431","-2.39188864531437","-0.20607897474849","-30.1994236408702","-2.87991450186515","-0.693923359242521","-3.42391074438578"
"1439","-2.11224539450355","-0.0590254810801569","-30.0540602020506","-1.55009393354458","-0.903728040598969","-2.37226614349691"
"1439","-2.03214951169905","-0.0169061759987696","-30.0146547592502","0.546416994804216","2.40121001007598","-0.358764218266595"
"1451","-2.00920831635951","6.84947108368745","-33.4618082169856","0.15989060871079","1.44073024608643","-0.832355804267008"
"1452","-2.00263746121467","4.81615022465983","-32.3962702076075","-3.36798044815713","-2.23230377013226","4.25951104981627"
"1460","-2.00075542600703","4.2337630983608","-25.1917506603293","-2.40029360111443","-1.38760324288161","2.59072485267789"
"1460","-2.00021637036743","4.06695481359209","-27.2387335521073","6.41978518364249","0.563549564799081","2.15443865680572"
"1472","-0.286483628508145","0.592020619241329","-29.5225519922184","4.00068544696099","0.1772563260252","2.04037632513315"
"1472","-0.79563345975845","1.59672421506537","-29.1416545508747","5.00020057306576","-1.62971113070498","-4.94368708237935"
"1480","-0.941464997245998","-1.54266360718461","-29.0384000292456","4.29267515465486","-1.19806648511162","-2.76959531497301"
"1480","-0.983234307615321","-0.441852264016996","-29.0104095649378","-4.45127611287154","0.623165597580536","3.01447986400697"
"1488","-2.70877628728476","3.30060063242172","-27.2739040617053","-2.00990021130979","0.196007682787947","1.52666408557057"
"1492","-2.20300887747646","2.37252018608663","-27.8031683056178","0.411870107829619","1.74711590035154","1.13769065850982"
"1501","3.08258889521457","3.82027619300064","-26.2177246423387","0.120519974445986","1.23499444926115","1.03599774117942"
"1501","1.59649855877951","3.2349448650429","-26.7879390642461","8.5721838103562","-0.611550443099723","1.00941122211227"
"1509","-3.96988492933287","-0.359863392139911","-28.6714318382786","6.04527979417868","-0.192354304739082","1.00246046276084"
"1513","-2.56421770230723","0.610505676174321","-28.1820132291345","-1.52366806838334","-3.43143131551977","-2.47647825756201"
"1521","-2.16160416827224","0.888440391020678","-26.3204227628915","0.261533174343569","-2.45023591853347","-1.38600935421464"
"1521","-2.04628693338789","0.968046912126018","-26.8157786981184","4.19867952158883","-0.456150633140269","2.37620352670056"
"1529","1.41389910921932","0.990847943677611","-33.8657320264682","3.35075336268534","-0.828940084950547","1.35979360474076"
"1529","0.404971323359552","0.997378652878291","-31.7768489818848","-2.01951440036844","7.48112707112227","2.83262492628496"
"1542","-6.73832082179699","4.42640587871948","-27.7527543693901","-0.590943162173814","5.09493793198827","2.21768082831709"
"1542","-4.78431438265665","3.40855353298286","-28.6618938933053","1.53446383797893","-0.711996781712973","2.05691031041821"
"1550","2.62966875480783","3.11701857921577","-25.4505098756934","1.15639291823084","0.461516291292677","2.01487858833015"
"1550","0.753194077772493","3.03351665516561","-26.5799607868459","2.75314667900267","0.83062777474788","2.00388984683217"
"1562","-1.49784725009575","1.29602155120364","-30.343970412622","2.22038311783731","0.946726427888189","2.00101695860131"
"1562","-1.14259423348354","1.79836532736549","-29.3643264747316","2.06448772859493","2.66870810421344","0.261705113345612"
"1570","-2.75442042104829","3.65582580793886","-32.5565979997206","2.01887017109179","2.21033241641915","0.806980745596612"
"1570","-2.216082345826","3.18784271353067","-31.4219660317567","0.298138186407442","0.38069247286199","0.949537192734371"
"1582","-0.348312318532588","3.05380222095476","-31.1143874860359","0.794623678118975","0.805205817203722","0.986807041996929"
"1583","-0.813342535503332","3.01541012118734","-31.0310084129453","-2.47486356568384","-0.746734211563918","0.996550843080239"
"1591","-2.66011560468622","3.00441379241961","-25.8216524706194","-1.43156936099151","-0.234874394599763","0.999098255034666"
"1591","-2.18907140421616","3.00126420573119","-27.4094887293157","-1.12628430024323","4.98251726883299","-0.738796511057523"
"1599","1.37300254472651","-0.426794593403093","-27.8399228974706","-1.03695286535467","3.62357199668877","-0.19315039870634"
"1603","0.39325766165942","0.591335130714","-27.9566059446681","-1.01081301678269","1.5106709775795","-0.0504970935325837"
"1611","0.112637510431301","2.59652787630665","-31.4460722158204","-1.0031640667326","1.84608866699651","-0.0132019217786621"
"1611","0.0322618221921616","2.17085850179377","-30.3920044575753","0.706457678308236","-1.41933963741907","3.47367001867495"
"1619","-3.41791620478446","2.04893757491428","-24.9195120775698","0.206721147561649","-0.446432656904881","2.38527517037297"
"1623","-2.40612190652102","2.01401678121573","-26.4360167282091","6.89002415647147","-0.140418904606626","0.362165288372214"
"1632","-2.11632210873938","3.71759305432914","-28.576031952341","4.84566864859809","-0.04416672585654","0.833244977452177"
"1632","-2.03331717093886","3.20553419048814","-28.1561520168586","-4.28946111223934","1.67157253036105","-2.5207178255154"
"1640","-2.00954275925186","-0.368287246230825","-31.5001656068244","-1.96255047805545","1.21123338003763","-1.39757531325871"
"1640","-2.00273325290152","0.60809290194118","-30.4066682137605","2.13310895565675","2.75190492215944","0.634618971614173"
"1652","-0.28720451816988","4.31490600953216","-26.6524049472617","1.33156633556121","2.23650076647608","0.165914301921143"
"1652","-0.795839938168688","3.37661755587899","-27.6346909498014","7.92655591389057","-1.29654118505188","0.0433765090759312"
"1660","-0.941524137134052","-0.31928526551284","-31.3588067863574","5.85635844226585","-0.407808188237338","0.0113403215866743"
"1661","-0.983251246559954","0.622128130373821","-30.3683483517685","0.128433970033836","-1.81373467142561","3.4800863241396"
"1672","-0.995202794314664","-0.821809031058941","-28.3709349004433","1.45234896677958","-1.25594841558906","2.38695264440022"
"1673","-0.998625976406555","-0.235383903056938","-28.8294716401896","0.132364755005467","0.604959677497298","-1.37595691363091"
"1681","-0.999606449887877","-0.0674190471561562","-30.6826905809101","0.746115642851084","0.190281275196782","-0.359729130407144"
"1681","-0.999887278725423","-0.0193102750885413","-30.1850652740117","2.63309279355538","0.0598502099186192","1.64451344891325"
"1689","-0.999967714185942","5.13520415299588","-31.7790856903788","2.18525337442744","0.0188250137781469","1.16850110655097"
"1693","-0.999990752643693","3.61156870800986","-31.2111962736857","-1.36055888534414","0.00592113451614101","-0.69450795822512"
"1701","-0.999997351356899","-0.251990167593284","-27.599415981011","-0.398121929649158","0.00186240681528402","-0.181571633092706"
"1701","-0.999999241371259","0.641402903716837","-28.6203265835234","-1.82388056749122","0.000585792998987117","-0.0474699498450758"
"1710","-0.9999997827123","-2.52986666322221","-27.1681595035388","-1.24108101814872","0.0001842526750043","-0.0124105076322328"
"1713","-0.999999937764097","-1.43818694214387","-27.7745028366931","-2.77792781131588","-1.68540657814076","-1.74180535322781"
"1722","0.713578362476372","2.30165045998001","-29.6677895159685","-2.22763448514063","-1.21558467872839","-1.19393702811801"
"1722","0.204384295801953","1.3728208794337","-29.1810258603393","-0.359226061725666","-2.75327355992892","-1.05070274932849"
"1730","-5.08219494562098","6.24751900738818","-32.5069084633808","-0.812498996167931","-2.23693125159724","-1.01325568827374"
"1730","-3.59638572308479","4.64373811452522","-31.4084960822431","-0.945134119323402","-0.389058749929205","-1.00346555707408"
"1742","0.256338903268668","4.18438053637378","-29.3818182360993","-0.983945340020074","-0.807837308075287","-1.00090603260922"
"1742","-0.640157331646016","4.05281057844238","-29.8324219189127","-4.4100692148239","-2.62502254993272","-2.73879763201588"
"1750","0.816645077385933","0.587969403996098","-28.2256547765922","-3.41260946717684","-2.19659176016483","-2.19315069176884"
"1751","0.233904834897767","1.59556385928865","-28.7900887825953","2.00141428581551","1.30909398302373","1.42662434892677"
"1763","-1.64658293464503","1.88416073109436","-27.2141790162823","0.585646770661248","0.411756488420341","0.372975586207017"
"1763","-1.18519535446166","1.96682112484559","-27.7869779080855","3.5861369596455","-1.55595251241327","-1.64105030557012"
"1771","-1.05304395998792","1.99049685165564","-26.2133357135334","2.46412978803353","-1.17486678359869","-1.16759570498574"
"1771","-1.01519293882602","1.99727809252018","-26.7867493037094","0.428428480933614","0.630462726550071","2.43330542526134"
"1779","-1.00435158668817","0.28564204210326","-30.4000271015612","0.832748763354221","0.198302888662399","1.37472228172939"
"1783","-1.00124638866262","0.795392411187243","-29.3795224460674","4.36582660724038","3.43330235614719","1.09796710871926"
"1791","-1.00035699270396","-0.772182388935449","-29.1028817848657","3.39966335180205","2.4508244271726","1.02561244649375"
"1792","-1.00010225044121","-0.221169758070498","-29.0278894220008","3.11694807666427","0.456335739980415","-0.731864660981013"
"1799","-1.00002928674063","1.6502305364309","-32.4653958986629","3.03422093262693","0.828998307617116","-0.191338141087346"
"1804","-1.00000838835673","1.18624010660323","-31.397242764299","3.01001360828891","-0.739250629460236","-3.52714481735455"
"1812","0.713575942043641","4.48049988892706","-22.4630965169475","3.00293014664611","-0.232520542601529","-2.39925558112359"
"1812","0.204383602537603","3.424047228931","-25.0412083738268","-2.12129319982944","-0.0731359576537465","-2.10438107587889"
"1820","-5.0821951441869","3.12145630925672","-29.1979242158121","-0.620725314549039","-0.0230038526578573","-2.02728930919631"
"1820","-3.59638577995837","3.03478771714993","-28.3247359483837","1.52574908987031","3.36369353672591","1.46998702280839"
"1832","-1.45723945767182","-0.417192733769416","-28.0880301397874","1.15384283945749","2.42892998458889","0.384312290731"
"1833","-1.84454162700806","0.59408531124471","-28.0238634051745","1.04501694764356","-1.23601537090323","0.100474313388657"
"1841","-3.6690517001204","2.59731558756676","-29.7353867309062","1.01317270002484","-0.388770672966614","0.0262679281782014"
"1841","-3.19163089546277","2.17108411935683","-29.1993502630112","1.0038545488983","-0.122282165510988","0.00686746719140107"
"1853","-1.34130889364386","3.76258054132083","-25.5962047382127","1.00112790446768","-0.0384620781396767","0.00179542540641282"
"1853","-1.81133660295359","3.21841958098231","-26.6194560727166","4.41509711606941","-0.0120976877424507","1.73903015419325"
"1861","1.48119397178719","-2.07817493600632","-26.8968413097449","3.414080713859","-0.0038051518740706","1.19321148219028"
"1861","0.424246029292747","-0.595234305276436","-26.9720355138732","1.41378329783852","5.05519674120129","4.52763458222962"
"1869","-3.30564343931591","4.970247038914","-37.3659260424094","1.82846334166708","3.6464322685338","3.39938362488053"
"1873","-2.37396455518487","3.56432141833288","-34.1835248968515","1.94980554964823","-0.167603188262457","-5.58838924615203"
"1882","-0.393533202287367","1.44805553013733","-24.6762436181091","1.98531227744202","0.632747384907483","-2.9381457589935"
"1882","-0.826294775884735","1.84191115128102","-27.0989887618742","3.70308566689202","-4.17190756953644","2.97041416394283"
"1890","-2.66382540681674","5.38187661955896","-27.7557518789126","3.20573444150557","-2.68314196352828","1.51514358241541"
"1894","-2.1901339718834","4.39579938886263","-27.9337886786198","-2.06194932424984","-0.529407844969645","-2.34244277216219"
"1902","-0.340880142314326","-2.74094786245836","-27.9820512884218","-0.603360319536247","-0.851982076347266","-1.35096721871685"
"1902","-0.811213799288049","-0.785066823991553","-27.9951344235306","-1.88393669935005","0.732021419009561","0.646804156450546"
"1910","-0.945927543884971","1.48871820536315","-29.727598814962","-1.25865443107517","0.230246699510182","0.169099987389645"
"1910","-0.984512477610729","1.13997947737947","-29.1972390975162","4.04646406404433","-1.61304377878892","0.044209372265165"
"1922","0.718014306450657","2.75367149827663","-32.5113035836075","2.59882907745585","-1.19282401177875","0.0115580647062758"
"1923","0.205654846218104","2.21586783812601","-31.4096875211641","-2.94692336198899","-1.06064999075907","-1.73553902788068"
"1931","-1.65467434316626","3.7754075681834","-29.3821412139996","-1.56970182922882","-1.01907657321898","-1.19229876477877"
"1931","-1.18751290908442","3.22209351924949","-29.8325094724769","-1.16670413461734","2.36492880540163","0.688286316533287"
"1943","-2.76728610246999","3.0636123934258","-23.0389251521981","-1.0487803743515","1.42931852039974","0.179945051814371"
"1943","-2.219767355596","3.01821996702575","-25.1973052750384","4.10787666833965","2.82050043381609","3.52416621674851"
"1951","1.36421055951977","-0.421938096185398","-34.4269926679676","2.61679941654973","2.25807648782796","2.39847685804351"
"1951","0.3907394467027","0.592726136686292","-31.9289967590997","2.18048566406675","-4.66068391972627","-3.11150479150779"
"1963","-3.31524045016645","0.883347945889168","-31.2518344980673","2.052813076763","-2.83687946151312","-1.5520302089222"
"1963","-2.37671334691908","0.966588325561675","-31.0682678532466","-6.52146370587367","-0.577763740825611","4.07135992008377"
"1972","-3.82147720506742","2.70400851755004","-24.1028350559784","-4.03043825656784","-0.86719172067401","2.54153476422869"
"1972","-3.23528886090716","2.20164328497672","-26.2146301132387","-5.00890673499727","-0.958227085726796","-3.07410384117275"
"1980","0.359764864275036","3.77133334812377","-37.1606069096633","-4.29522272097143","-0.986860936865289","-1.54225213287408"
"1984","-0.610533896688476","3.22092657439576","-34.1278665318118","4.45053065302501","2.37506176565447","9.28959857147505"
"1992","0.825129870663605","3.06327815514909","-24.6611556252978","2.00968207748569","1.43250569579365","6.12146939241033"
"1992","0.236335063433655","3.01812423394526","-27.0948986753811","-2.11931747370419","-0.549426150764425","-3.39960769154112"
"2000","0.0676914800857582","-2.13554386086345","-32.9413964878196","-1.32753072088344","-0.172814011384058","-0.888790852742918"
"2004","0.0193883057792096","-0.611666007699625","-31.5262780577764","0.611542655036965","3.3165729283611","1.50619595406863"
"2013","-3.42160345866562","4.96554064350574","-29.4137468347722","0.178947449102508","2.41410888199111","1.13233948575629"
"2013","-2.40717801588135","3.56297340476932","-29.8410771941244","3.46713004239251","2.13025193094119","-0.703962024899532"
"2021","-0.403046256679934","-0.265908914789643","-29.9569188539604","2.42930640475426","2.04096885203798","-0.184043297103335"
"2021","-0.829019520671283","0.637416273104466","-29.9883214675586","-4.70391202331379","0.327421624901277","-0.0481161398066901"
"2033","-0.951027488078246","-0.817430175910813","-33.4546697299773","-2.79120917434673","0.788450246117211","-0.012579447044991"
"2033","-0.985973212068756","-0.234129704116876","-32.3943350907462","-0.524137294297128","-2.43746896509693","-0.00328876108086564"
"2041","-2.70956076883216","1.64651852723106","-25.1912260845665","-0.860754737863053","-1.45213497346799","-0.000859811199040211"
"2041","-2.20323356997986","1.18517690678353","-27.2385913489482","-0.959254543810177","0.543252046727416","3.47689673069057"
"2053","1.36894619376514","2.76661702082407","-31.2514312296739","-0.988077208698965","0.170872036682174","2.38611875951153"
"2054","0.392095834902386","2.21957571612341","-30.3392407481551","0.710872341353984","3.42467438028584","-1.37617492386284"
"2062","0.112304738088322","2.06289124008658","-28.3630443468174","0.208012950650406","2.44811062274838","-0.359786126836593"
"2062","0.0321665089868311","2.01801341309257","-28.8273326514446","-1.64651552230871","-1.22998237990592","-0.0940622117286734"
"2070","-1.70436515989984","-1.42199725770486","-23.7664395942949","-1.18918108584809","-0.386873083320693","-0.0245915531904547"
"2074","-1.20174543506891","-0.407290808454045","-25.3945215005715","0.652026035991546","4.93470829016237","-3.48355071606527"
"2082","-2.77136260612227","-0.116656907565978","-37.9382900513873","0.19079355287499","3.60853437721479","-2.38785837239393"
"2082","-2.22093495452012","-0.033413064572982","-34.3386825995032","-1.65155420159235","-0.179523419239307","1.37572012079217"
"2090","1.36387613390314","1.70400811938537","-24.7183041116316","-1.19065548636166","0.628998049480205","0.359667223467237"
"2094","0.390643659963993","1.20164317093373","-27.1103906135717","-1.05578893419913","0.88330672791706","-1.6445296338166"
"2103","-3.31526788556271","2.77133331545939","-27.7588427181122","-1.01632476063747","0.963295827069522","-1.16850533791981"
"2103","-2.3767212050107","2.22092656503997","-27.9346265501525","2.40999017892466","2.67391976793707","5.91018913059535"
"2111","-2.10790111114436","3.77685649712005","-29.7111962066945","1.4125863399715","2.21197166950678","3.76083763590159"
"2111","-2.030905214868","3.22250852387401","-29.192792642155","-4.00142105321656","0.381208076098845","-2.0167694649716"
"2123","-2.00885192280142","4.77730960438799","-29.0522626562392","-2.58564875091421","0.805367992709055","-0.527262677107726"
"2123","-2.00253538238181","4.22263830360775","-29.0141674765522","-5.58613753910011","-0.746683201615473","-0.137847153826638"
"2131","-0.287147843768079","0.636611742162176","-29.0038405509077","-4.46412995759149","-0.234858350161764","-0.0360386551961887"
"2132","-0.795823705392708","1.60949607830624","-29.0010411050423","4.40110561475636","-1.75933581319056","-0.00942191864173842"
"2144","-0.941519487715485","1.88815122032807","-30.7292000112624","1.99521949757058","-1.23883804526316","-0.00246325925338429"
"2144","-0.983249914865792","1.96796408737756","-30.197673153354","-0.416165926368192","0.610341495832976","-0.000643992628264069"
"2152","-2.70878075753928","1.99082422087605","-23.1379145312086","-0.121777001675326","0.191974047944921","-0.000168364943596037"
"2152","-2.20301015785416","1.9973718581542","-25.224139535043","-0.0356339555870134","1.74584717912902","-4.40172029740583E-05"
"2160","-0.344568160814656","0.285668898611371","-29.2475135999671","-0.0104270820705756","1.23459539143785","-1.15078241127689E-05"
"2164","-0.812270127651873","0.795400103472753","-28.3381787484213","-3.41781820853464","-0.611675960938879","-1.73856376813549"
"2172","-0.946230099203529","4.36855484825369","-26.3627564575785","-2.41487695031351","-0.192393784551346","-1.19308955057358"
"2173","-0.984599136005905","3.39198374507318","-26.8272546097924","-2.12139982606045","-0.0605146690368112","0.688079574095724"
"2181","0.717989485609661","-0.31488405616743","-32.1399251558074","-2.0355235877924","-0.0190340097377599","0.179891001228524"
"2184","0.205647736991739","0.623388732040073","-30.5800956485968","-0.303011250310458","-1.69145140330017","1.7855913262657"
"2193","-1.65467637940264","4.31928706650903","-23.2415824678249","-0.796049616845531","-1.21748599063803","1.20538439965189"
"2193","-1.18751349230662","3.37787238547049","-25.2522420688007","0.767062776209901","2.30252200646631","-4.16198673716849"
"2201","-1.0537079248668","-0.318925855144063","-29.2551316970315","0.224455196990229","1.4096893686991","-2.56522817045274"
"2201","-1.01538311274573","0.622231073286596","-28.3402438790384","3.48044635864916","-0.556602694881908","3.06790945504559"
"2213","0.709172288033606","2.60537714332187","-29.8211518501634","2.43320297812644","-0.175071289045654","1.54063267726987"
"2213","0.203122300666463","2.1733931235009","-29.222599661406","0.419378787185895","5.00132746661781","-0.5972181630247"
"2221","-3.36897806370607","0.336085200808659","-29.0603428090045","0.830100673972434","3.62948847104952","-0.156136262930873"
"2222","-2.39210496314362","0.809840424204693","-29.0163578622517","-4.17186594894179","-3.54386167781565","-0.0408201459891139"
"2234","-2.11230735261429","2.65911252417084","-29.0044343255122","-2.63552373355255","-1.80013472299755","-0.0106719879629135"
"2234","-2.03216725784369","2.18878410023449","-29.0012020667765","-2.18596470749282","2.11925831483679","-0.00279007642723628"
"2242","1.41794329006169","0.340493509842137","-25.5424902865175","-2.05441633507465","1.35204643771104","-0.000729435461965643"
"2242","0.406129664330955","0.811103059375353","-26.6048950402381","3.10622749344344","1.11073109099315","1.73837005648555"
"2250","0.116324330744143","4.37305251487719","-28.6218118590282","1.61631684082362","1.03482885551195","1.19303890674695"
"2254","0.0333178073691414","3.3932719741927","-28.1685621353108","2.88772799079068","-2.35997415392078","-2.42665357391799"
"2262","-1.70403540311138","-0.31451507945055","-29.7746119830052","2.25976382536928","-1.42776010677813","-1.37298322676652"
"2263","-1.2016509855837","0.623494414962107","-29.2099835311869","-1.33875590068282","2.23638333896777","4.11816982710544"
"2271","-4.48491389839503","0.892160647085176","-29.0569228004951","-0.39174201738003","1.38888641197395","2.5537727107665"
"2275","-3.42531149682954","0.969112474026335","-29.0154307587738","-0.114630163798124","4.49324763381799","-1.3323436021864"
"2283","0.305338266340301","2.70473148833164","-27.2752652180462","-0.0335426731609375","3.46967934313066","-0.348326899389091"
"2283","-0.626122852963976","2.20185035946475","-27.8035372908921","-1.71719867472887","-0.223198252349387","1.64749443953017"
"2291","-2.60649183329932","2.05781431409075","-29.6756602400891","-1.20986413995059","0.61526076541431","1.16928045447369"
"2291","-2.17371239484945","2.01655927154476","-29.1831594736582","4.06074090649482","0.878985864846296","-2.43286496563485"
"2303","-2.04975499168748","5.43189962326855","-29.0496512755972","2.60300671660613","0.961936762382009","-1.37460712829919"
"2304","-2.01425090708102","4.41012706039067","-29.0134595777067","5.59121676563746","-0.697436770394453","4.11774527552216"
"2312","1.42307492090495","0.690312582239331","-30.7325664383242","4.46561622289905","-0.219368600877328","2.55366171632303"
"2312","0.407599474531724","1.62487716181479","-30.1985857318545","-6.10805424538434","-0.0689992055102851","2.14474889858799"
"2324","-3.31041137308643","-1.53459999357367","-24.8670797012115","-3.20208430586387","-0.0217026973870015","2.03784304210446"
"2324","-2.37533019466801","-0.439542670458455","-26.4218032435513","4.47778448668595","1.67863826406569","0.271332896645838"
"2332","-2.1075026956594","3.30126215003194","-30.3010967156569","2.72504053423946","1.21345580389418","0.809497825949949"
"2332","-2.03079110004528","2.37270965905559","-29.3527041780446","-1.20260827550351","1.06713942114484","0.950195256310127"
"2340","1.41833745145633","3.82033046216205","-34.282365188008","-0.351902980762497","1.0211177292415","0.98697908563835"
"2344","0.406242560690083","3.23496040890594","-32.6187086078591","-0.102972605786936","1.00664227484707","0.996595822039178"
"2353","-3.31080002259512","1.35371940460974","-26.9809675405057","-0.0301314797606335","1.00208923102666","0.999110014299528"
"2353","-2.37544151230364","1.81489124204816","-28.4526762111517","-3.42358403970552","1.00065713725844","4.47688884189184"
"2361","-2.10753457944087","0.233402498477113","-25.3937946832497","-2.41656412744087","1.00020669297503","3.38611669706998"
"2365","-2.03080023225075","0.780429874627148","-26.5645863069224","-0.414509985538689","-0.685399519870488","-0.376175463065989"
"2373","1.41833483579492","2.65068870587611","-28.6108848783656","-0.828675982452101","-0.21558245865205","0.640213732194544"
"2373","0.406241811508013","2.18637133625415","-28.1656000252026","2.46489930080994","1.61765620264801","2.64449851095523"
"2381","0.116356452124239","3.76695913129024","-29.7738090076395","1.428653653041","1.19427478267523","2.16849720118258"
"2381","0.0333270076280005","3.21967370396944","-29.2097658588472","1.12543111609365","-3.99528728676453","2.04405178029703"
"2394","-1.70403276795801","-0.364237383373676","-30.7857815795981","1.03670320962596","-2.62758862025342","2.01151686398182"
"2394","-1.20165023081871","0.609252870364662","-30.2130114101586","-5.8187941818992","2.85899471613257","-1.47411055890549"
"2402","-1.05775699291267","0.888081560306844","-26.5999080322244","-3.82482558533119","1.58471977278414","-0.385390344876239"
"2402","-1.01654285351805","0.967944135238971","-27.6204599698556","-3.24135754592716","-0.501549424843663","1.63780460049313"
"2414","-1.00473823148884","4.41797519545282","-29.6260312346065","-3.07062519157015","-0.157755082997067","1.16674715031565"
"2414","-1.00135713210646","3.4061388027259","-29.1697059329834","-3.02066609380353","-0.0496195688374455","1.04359424832761"
"2422","-2.71396705667512","4.82990529282901","-27.3170864738049","-3.00604723928674","-0.0156071142991936","1.01139724717125"
"2422","-2.20449562623778","4.23770284775526","-27.8148742894869","-3.00176952177507","1.68055554114408","-2.47414183143359"
"2430","1.3685847135226","-1.07265179081667","-29.678733498766","-3.00051779120422","1.21405885553705","-1.38539852074223"
"2434","0.391992299132942","0.406347643111519","-29.1839925794239","-1.29276797790474","-0.618135429866618","-1.10075829653776"
"2443","0.11227508320185","0.829965109237965","-32.5077126881579","-1.79305226669773","-0.194425516632646","-1.02634217251701"
"2443","0.0321580151851586","0.951298325120794","-31.4087140932761","-0.232060149789456","3.30977534344662","-2.74544763711364"
"2451","-1.70436759270858","0.986050785662813","-20.7372884039991","-0.775288156717323","2.41197080043973","-2.19488926405066"
"2455","-1.20174613187802","0.99600464293872","-23.8444547037767","2.48052145757968","0.444114896318017","-2.05095170116747"
"2463","-6.19851949500481","6.13959067716878","-31.6024233677676","1.43322495330991","0.825154418838146","-2.01332077405343"
"2463","-4.62970359307707","4.61282510352469","-29.7054706877722","1.12676875381273","0.945004863326368","-2.00348257305089"
"2471","-0.753204056207236","0.748369691289848","-27.4623227696077","1.037094624445","0.98270207895645","-2.00091048125327"
"2475","-1.64289064189604","1.64150597509384","-27.8542452660769","4.42562157047911","-2.37636987397259","-2.00023803552731"
"2484","-1.89771614651112","-1.52983714134779","-29.6894062702594","3.41716034249046","-1.4329171422555","-2.00006223182746"
"2484","-1.97070368936821","-0.438178486439735","-29.1868857779476","3.12206798420445","0.54929673625905","-2.0000162698417"
"2492","-1.99160890221321","3.30165288187679","-30.779579196616","3.03571910186568","0.172773305932062","-2.00000425357506"
"2492","-1.99759660788171","2.37282157311739","-30.211330054449","1.30306846094718","-1.63112119952739","-2.00000111205143"
"2504","-1.99931161645103","2.10678417212223","-28.3283700327992","1.79606635761973","-1.19851000176839","-2.00000029073388"
"2504","-1.99980283204439","2.03058529934436","-28.8179330616386","-1.47444141391011","-2.74790296842279","-0.261439316470549"
"2512","-0.28636518217711","2.00876029206757","-25.4928093188843","-0.431445832432345","-2.23524201008518","-0.806911255863479"
"2512","-0.795599534164244","2.00250913735534","-26.5914274135485","4.99590245522598","2.9824016407243","6.00472401276346"
"2525","2.48570140908018","0.287140326624152","-33.8049143835787","3.58403391828577","1.6235356275475","3.78555276369272"
"2525","1.42553705694359","0.795821552319901","-31.7603624006124","-0.243869132818467","-2.17480499394746","-8.96455099888877"
"2533","-4.01885200568972","0.941518871028808","-26.0193673642381","0.636023413081858","-1.36951783841307","-5.29792844238089"
"2533","-2.57824293337498","0.983249738233373","-27.4630857203785","2.60087799460237","-4.48715553047128","0.876352852466904"
"2541","-0.452042953520657","6.13593739624925","-33.041205447069","2.17582679387986","-3.46776316055426","-0.509447735413651"
"2545","-0.843053235687052","4.61177872475627","-31.5533344914065","0.344066278317842","-1.46166357240954","-0.871750388539972"
"2553","-2.66862539261443","-0.965508358899789","-29.4210813526982","0.808062993957075","-1.83067409988288","-0.966470518990433"
"2553","-2.19150879176122","0.437035842240962","-29.8430654514809","2.65121960836997","1.42418806549798","0.747326681586899"
"2562","-2.0548522651502","-0.874823470618352","-28.2285400489634","2.19055757887616","0.447957659499058","0.195380520010546"
"2562","-2.01571087658398","-0.250568386592961","-28.7908709286171","2.05576028485695","0.14089857201107","0.0510801347524917"
"2574","-2.00449993527817","3.35538847723516","-25.4854732559547","2.01631637736828","0.044317598268013","0.0133543516323525"
"2574","-2.00128887891134","2.38821261129111","-26.589438737369","0.297390904319114","0.0139394565055683","1.74205211108631"
"2582","-3.71394750748199","3.82477084340415","-33.8043752888375","0.794405011076922","0.00438445347366389","1.19400154030511"
"2582","-3.20449002692553","3.23623223025169","-31.7602162616165","-0.767544014934049","0.0013790661246401","-2.4264019037317"
"2594","2.08216466193755","3.06766202643555","-27.7482455347582","-0.224596015363872","0.000433765208720667","-1.37291743030417"
"2594","0.596377049182047","3.01937986961596","-28.6606716284316","3.34904658088174","-5.05625716188341","-2.8360560092722"
"2602","0.170815301639075","1.2919724696852","-27.1790963276283","2.39475323982864","-3.64676580844917","-2.21857784804723"
"2603","0.0489252014544605","1.79720558273433","-27.7774676151792","0.408127760736014","-3.20343078615506","-2.05714482657513"
"2615","-1.69956510746178","-1.48524140199016","-26.2107576422785","0.826808438399972","-3.06398619749998","-2.0149399000561"
"2615","-1.20037059610384","-0.425405300951394","-26.7860504344463","0.949321297706484","-3.02012592856711","-2.00390587612323"
"2623","-2.77096882247006","6.73246808810977","-35.5865910091423","0.985170577351302","-3.00633031835793","-2.00102114928699"
"2623","-2.2208221663546","4.78263803298564","-32.9722610307437","-2.4191064058665","0.368937954637783","-2.00026696849399"
"2631","-2.06324825042511","0.797007791645773","-30.5346448864001","-1.41525389806127","-0.569420459969557","-2.0000697960403"
"2635","-2.01811566858471","1.65543698031083","-30.8738505056035","0.585873409148971","2.5063616013577","-2.00001824742376"
"2643","1.42196796951753","-1.52584699977286","-25.7790497571814","0.171436205145594","1.47380415104623","-2.00000477059261"
"2644","0.407282419682948","-0.437035623484765","-27.3979398914431","0.0501650560953331","-3.90736538610393","-0.261440487681412"
"2652","0.116654504840274","-0.125176466725136","-22.6500388543252","0.0146791213146064","-2.59993406409418","-0.806911562063957"
"2656","0.0334123763803086","-0.0358532508101949","-24.3629673302929","3.41906242522163","-3.87416507367585","0.789041654094555"
"2664","0.00957002815200312","-0.010269147446711","-24.8273117736346","2.4152410286005","-3.27495592043368","0.206286450738811"
"2664","0.0027410633050365","-0.0029413062107134","-24.9531872933001","2.12150636136128","-3.08648338907391","0.0539313729986131"
"2672","0.000785099889245882","1.7127358908569","-26.7162276940367","2.03555476177539","-3.0272020932443","0.0140997771937927"
"2672","0.000224869609892387","1.20414299368612","-26.1941565888824","-3.11174670032159","0.362373041158873","0.00368623504021878"
"2684","-1.71351393712476","1.05847097417955","-36.4261391151539","-1.61793185162259","-0.571485358102092","0.000963726489076643"
"2684","-1.2043658429861","1.01674735321439","-33.1998475899107","-1.18081703321311","0.820247585515414","0.000251955921316637"
"2693","-2.7721131476956","1.00479680463039","-25.4095861960814","-1.05291004083078","0.25799695806941","6.58711646987497E-05"
"2693","-2.22114992587996","1.00137390872262","-27.2977848913827","0.691901187285625","0.0811491939122792","-1.73854353823143"
"2705","-2.06334212785092","2.71397186186129","-26.0807241875914","0.202461678635115","0.0255242996734909","-1.19308426168283"
"2705","-2.01814255711241","2.20449700254716","-26.750800677682","3.47401069308435","-6.73382983102882","0.688080956819305"
"2713","-0.291618076589745","5.48572905928486","-30.3902820684347","2.43131979642748","-4.85988644494655","0.179891362726727"
"2713","-0.797104076877287","4.42554497656098","-29.3768807409139","2.12621127354305","-4.27046478526594","0.0470306612368244"
"2721","-2.65546455848622","-2.73242808199046","-30.8310834517872","2.03693149653991","-4.08507076777271","0.0122956603521483"
"2725","-2.18773924386445","-0.782626574366723","-30.2252919419608","-1.40396030873703","1.02963582268385","-1.73534619143526"
"2733","-0.340194240351026","-0.224161198950499","-35.2478259969856","-0.410821900680786","-0.361607546930963","-1.19224834976495"
"2734","-0.811017342112313","-0.0642046216684941","-33.6093456474939","-3.53498032442961","0.886261601045119","0.688299496996209"
"2742","0.767707070355171","8.54950212923394","-26.2495116222795","-2.44916051434322","0.278760707329225","0.179948497704587"
"2745","0.219887929914519","6.01665427552119","-28.2543915215438","2.99071884765012","1.77314466164229","1.78560635810074"
"2754","0.0629806648774557","3.5776134558621","-27.0689610168314","1.58251710936785","1.2431814178715","1.20538832956343"
"2754","0.0180390262892028","3.87901934683074","-27.7476118913111","1.17045409657261","-0.608975351097529","-4.16198570973541"
"2762","0.00516676777064369","3.96534852105402","-27.9315820727605","1.04987767495776","-0.191544346971395","-2.56522790184142"
"2762","0.00147987417767337","3.99007506603999","-27.9814531168205","1.0145950288624","-0.0602474907901854","-2.14777275334496"
"2774","-3.42673282128965","0.570000594684617","-31.4528078422541","1.00427074573293","-0.018949972702956","-2.03863359639538"
"2775","-2.40864717641501","1.590417203181","-30.3938303661003","-2.41351738213909","-1.69142497067211","1.46702118097949"
"2783","-3.83062374537328","3.59626496198315","-31.8356781937058","-1.41361845770277","-1.21747767663899","0.383536903295925"
"2783","-3.23790862812228","3.17078319743802","-31.2265374947719","5.70850257490229","-1.0684044427703","1.83883235622526"
"2795","0.35901450621265","-0.378240683185272","-25.8746569269827","3.79255244531887","-1.02151562341031","1.2193036940859"
"2795","-0.61074881548681","0.605242022052272","-27.4238572946878","-1.89023671515396","0.678697105466474","-2.41978692786522"
"2803","-0.888510031385041","-0.826645578156808","-29.5727357461835","-0.553114383094438","0.213474311601705","-1.37118801603797"
"2803","-0.968066858634458","-0.236769194882883","-29.1552584739963","-0.161850374788124","0.0671452424752873","-1.09704311298131"
"2811","-0.990853656789577","-0.0678158247340855","-29.0420878108417","-0.0473600843147547","0.0211195602563972","-1.02537087774983"
"2815","-0.997380289237278","-0.0194239207792174","-29.0114092569368","-1.72124187671783","-3.36428621351798","-4.48375446208614"
"2824","-4.42640634740813","3.42159325775837","-27.2741750604255","-1.21104724741851","-2.42911640246097","-3.38791163959887"
"2824","-3.40855366722544","2.40717509412061","-27.8032417685509","-1.06175589920766","-3.82043686055566","2.11426695419326"
"2832","-1.40344027301509","3.83020210912571","-31.4044979154414","-1.01807079283713","-3.25805649178275","0.552752346636721"
"2836","-1.82913237548223","3.2377878623703","-30.3807344041915","2.40947926115693","1.97522567704962","-1.59404960587079"
"2844","-0.23748146748935","-0.359049096139243","-28.3742925389543","1.41243683702108","0.621278532455755","-1.1553078777552"
"2844","-0.781598179683752","0.610738908182776","-28.8303818362703","-4.00146480024122","-4.86097946255023","-1.04060357359798"
"2852","-0.937444989093711","-0.825071150932042","-30.6829373188786","-2.58566155201386","-3.58534404592719","-1.01061536744147"
"2856","-0.982082890225825","-0.236318244830939","-30.1851321602864","-2.17137421225991","-3.18411146334355","-1.00277527360112"
"2861","-0.994868151759405","-0.0676866628737277","-30.0501860358555","-2.05014691595635","-3.05790958526077","-1.00072556542235"
"2861","-0.998530127531927","-0.0193869260253657","-30.0136045417014","3.10747679576778","0.352714445790731","0.738371068265772"
"2873","-0.999578996694542","6.84876054315833","-26.5458523768767","1.61668240725183","-0.574523328915061","0.193039171266005"
"2873","-0.999879415536343","4.81594671046529","-27.6058064431357","4.59521849787249","-0.866172496197673","-1.68809274522363"
"2885","-4.42712215129963","0.806548118186991","-33.0798944965488","3.46678719563423","-0.957906503479279","-1.1798944446782"
"2885","-3.40875868896095","1.65816953643134","-31.5638224045892","-3.6929445268308","0.698704429764012","-1.04703146697988"
"2893","2.02365769362137","3.61567069742649","-27.6950066532191","-1.78799990431052","0.219767324710217","-1.012295871005"
"2894","0.579619386467455","3.17634142030698","-28.6462395145639","-1.23058174537452","-3.30180444598657","-2.74177538271505"
"2905","-4.97471948980741","3.05050800151098","-27.1751840382513","-1.06747201491919","-2.40946367047789","-2.19392919264992"
"2906","-3.56560242512124","3.01446658540116","-27.7764070631138","4.10240718657648","-3.81425537930667","-0.312139941290972"
"2910","-3.16200078287283","3.00414354333785","-27.9393879316795","2.61519895613807","-3.25611219668604","-0.820166388707444"
"2914","-3.04640053239832","3.00118680054184","-27.9835691463368","2.18001734300084","0.290372694675423","2.52413708182313"
"2922","0.413866572002705","-0.42681676392556","-27.9955458878144","2.05267603830883","-0.594132020769196","1.39846924103075"
"2926","-0.595037996003891","0.591328780596255","-27.9987925694082","0.308030339723912","0.813124406877996","-0.634385263816425"
"2934","-2.59758845711251","2.59652605749541","-34.9153438318531","0.797518285040558","0.255756465744055","-0.16585320153201"
"2934","-2.17116227510382","2.17085798084685","-32.790297859919","-4.18140009236907","-3.29048458467369","1.69520022450209"
"2942","-2.0490245821686","3.76251577035446","-28.7564001210207","-2.6383135808864","-2.40590317260376","1.18175261866235"
"2946","-2.01404170197754","3.2184010291749","-29.6628821917282","4.64275308255159","1.24325811998425","-2.42960425250245"
"2955","1.423134841777","1.34897643965561","-28.1796955720205","2.77331306137887","0.39104877443739","-1.37375464993449"
"2955","0.407616637167085","1.81353275417474","-28.7776300596756","2.22628413333332","3.49392777350711","0.640846627740942"
"2963","0.116750231965327","1.9465917427823","-28.9397194642949","2.06621446288145","2.46989327118598","0.16754245560878"
"2963","0.0334397947019282","1.98470271855838","-28.9836590189322","3.72675897829878","-1.22313096438842","0.0438021723393812"
"2975","-1.70400046329759","1.99561852732715","-27.2666524644738","3.21266164217286","-0.384718070135405","0.011451606666963"
"2975","-1.2016409780644","1.99874505134417","-27.8012025265868","-0.35253877496106","-1.80647201032552","0.0029938993490724"
"2984","-1.05775434272346","5.42679724482994","-34.8617806856207","0.604224886689412","-1.25366405108205","0.000782722771839082"
"2984","-1.01654209444647","4.40866562871207","-32.7757778436604","2.59157322225938","-1.07978634098582","1.73876539398566"
"2996","-2.71831635872496","4.11705068586009","-27.0235462166662","2.17310406430156","-1.02509563409065","1.19314226348271"
"2996","-2.20574136053051","4.03352585120382","-28.4642185329459","0.343269562817102","-2.69335799915198","-0.6880657928728"
"3004","-2.05892878105697","-1.13113250415319","-25.396923601394","0.807829861884694","-2.21808568265629","-0.17988739827607"
"3004","-2.01687847901806","0.389597500391663","-26.5654345009797","-0.763615682565332","2.98779791419887","1.69153113476484"
"3012","-2.00483436190013","0.825167505632806","-26.8821970224857","-0.223446520638004","1.62523294694951","1.18079337462826"
"3012","-2.00138466593799","0.949924187554495","-26.9680657080635","-1.77276766701563","1.19665793748894","-0.691294276995447"
"3024","1.42676009099126","2.69923554755706","-26.9913431814458","-1.22612454196345","1.06185589637606","-0.180731450712936"
"3025","0.408654987048088","2.20027620301039","-26.9976532904619","-2.77355130014552","-0.666008658835678","-1.78581105274056"
"3032","-1.59653070679359","2.05736344159332","-32.1861172073914","-2.22635384591873","-0.209483345104298","-1.20544184477459"
"3036","-1.17085931250653","2.01643013189769","-30.5926174922","-0.358851325605313","1.61957459018127","-1.05371055985684"
"3045","0.664640537530692","0.291127600925083","-26.7028124893151","-0.812389342209582","1.19487818359554","-1.01404204797372"
"3045","0.190367442971815","0.796963594025506","-27.6483555378934","2.46966503988283","4.43222516493671","2.47345037672062"
"3053","0.0545253581406079","0.941845976504605","-29.6335932269453","1.4300481867553","3.45048561233124","1.38521774734726"
"3053","0.0156172433371484","0.983343428325225","-29.1717558546073","1.1258391796176","-3.60016442573051","-2.37641048379871"
"3061","0.00447311668861947","0.995229197168466","-29.0465599572996","1.03682261573129","-1.81784393415463","-1.35984771144731"
"3061","0.00128119748652514","0.998633538755647","-29.0126215762991","1.01077490359851","0.428223607678011","0.644482447176172"
"3074","-1.71321138194574","4.42676530520975","-27.274503698642","1.00315291418742","0.134691512788805","0.168493001480381"
"3074","-1.20427918463089","3.40865648051318","-27.8033308565261","-0.706460941726567","-1.64309927415058","1.78261144186877"
"3086","-1.05850998221539","1.40346972096716","-33.1334398518097","-0.20672210249158","-1.20227753107403","1.2046053409385"
"3086","-1.01675852596059","1.82914081001341","-31.5783375980319","3.35427678205845","0.621841074268578","-0.685068894609409"
"3094","-1.00480000474685","-1.47609446132893","-29.427859250194","2.39628368280127","0.195591073228332","-0.179103891470349"
"3094","-1.00137482530528","-0.422785419065822","-29.8449028189389","-1.29880794277984","5.11791392615298","1.69173597418902"
"3106","-1.00039377973975","5.01964013436559","-23.0422847679934","-0.380052587207477","3.66615904764531","1.18084692769174"
"3106","-1.0001127870449","3.57846867049495","-25.1982160071257","5.0109409649004","-0.161398416565289","-0.691280276123207"
"3110","-1.0000323046521","3.1656859541709","-25.7826506202244","3.58843443380562","0.634699005676203","-0.180727790335532"
"3111","-1.00000925275193","3.04745604526176","-25.941080448963","1.46480206679765","-0.800364651300686","-0.0472493362355713"
"3123","-1.00000265018852","-0.413564250261117","-34.6286168886825","1.84339227342088","-0.251743070053793","-0.0123528305777285"
"3127","-1.00000075907138","0.595124587497565","-31.9836534992063","0.246790464538095","-3.45011118860354","-0.00322951464378852"
"3135","-1.00000021741448","6.02476994809279","-26.0798976095661","0.779598489327869","-2.4561114011534","-0.00084432185553073"
"3135","-1.00000006227222","4.57993796023433","-27.4794943932837","7.76504103466422","-2.14346321295711","-1.73878149840331"
"3143","-2.71357836248677","4.16610679057024","-31.3167357602429","5.80909652947596","-2.04512426880786","-1.19314647380943"
"3143","-2.20438429580493","4.04757658191989","-30.3569436448727","3.52937142889952","4.72766494556714","0.68806469212818"
"3155","-2.05854008833186","0.586470274048036","-30.096761073453","3.8622863318208","2.85794736981358","0.179887110498233"
"3156","-2.01676714900431","1.59513447600734","-30.026230206001","0.544935640765164","-2.7865387190645","-1.69153121000126"
"3159","-2.0048024745733","1.88403774642415","-30.0071105423111","1.57422421278315","-1.56192979184722","-1.18079339429802"
"3164","-2.00137553271706","1.96678589937276","-30.001927541551","0.168027458500386","-1.17674684998196","4.16841579093039"
"3176","-2.00039398235781","1.99048676231741","-30.0005225222308","0.756551137032809","-1.05559315315149","2.56690897738514"
"3176","-2.0001128450791","1.99727520271522","-30.0001416464831","-2.48600421801954","0.667978513705892","2.14821225245827"
"3184","1.42712436802697","1.9992195590512","-26.5422028254368","-1.434829299281","0.210102934327513","2.03874849870975"
"3184","0.408759323879663","1.99977646481154","-27.604817114652","0.580145324469062","1.75154935688912","-3.2055519005444"
"3192","0.117077522185089","1.99993597468129","-29.6217907347878","0.169760073262936","1.23638892858743","-1.57661781367631"
"3196","0.0335335377084521","1.99998166176223","-29.1685564089049","1.75705812863754","-0.611111829892415","4.06493175537209"
"3205","-5.13113030257181","-1.42716194176974","-29.0456926444757","1.2215276723973","-0.192216345328713","2.53985418972891"
"3205","-3.61040186902775","-0.408770085813265","-29.0123864632187","-2.34994442854996","-0.0604588581079041","-1.33598244975481"
"3213","-3.17483231375526","-0.117080604635926","-29.0033577498704","-1.39501596483823","-0.0190164552211245","-0.349278236933531"
"3213","-3.05007576071434","-0.0335344205891234","-29.0009102262683","0.591795361600761","-3.37691041392416","-0.0913150369735657"
"3225","-1.30076443762602","3.41755170504501","-25.5424111737464","0.17316906593008","-2.43308716124206","-0.0238733339090649"
"3225","-1.79972379274572","2.40601750590227","-26.604873594173","-1.65671141663623","1.23470779139966","-0.00624142628446503"
"3233","-1.94263655719114","3.829870550792","-28.6218060453814","-1.1921645723902","0.388359392835696","-0.00163175374720576"
"3233","-1.98356986775415","3.23769289688351","-28.1685605593345","4.06592009136289","1.80761733546468","-0.00042660446028936"
"3246","-0.281715709673873","1.35450204833949","-24.5878581971779","2.60452223136694","1.25402429646054","-0.000111531146075455"
"3246","-0.794267824553366","1.81511540816079","-25.6171934738953","-2.94525745142437","-0.6055648812076","-1.73858991815681"
"3254","-2.65465219440062","0.233466704506165","-25.8962279594475","-1.56921435637061","-0.190471633228951","-1.19309638721529"
"3254","-2.1875065651983","0.780448264624272","-25.9718692455168","-1.16656149203344","-3.43083914855551","4.1651993058067"
"3262","-2.05370594079297","0.937115628518864","-25.9923742527989","-1.04873863478303","-2.45004966102032","2.56606806195745"
"3262","-2.01538254446402","0.98198855422477","-25.9979327955669","-1.01426172695449","-0.456092048546227","2.14799240416756"
"3274","1.42275079545246","0.994841131885824","-29.4572751900513","-1.0041732161073","-0.828921658017851","2.03869102173961"
"3274","0.40750663798308","0.998522388455009","-28.395041384631","4.1209294572396","-6.00258339009056","0.271554591797579"
"3286","-3.31043796348437","6.14031181400731","-31.5649242654927","2.62061887747871","-4.62988350352661","0.809555785762034"
"3286","-2.37533781073381","4.61303165273172","-30.4242231343149","-8.06269791674121","4.22920195823274","0.950210409279376"
"3295","-0.393926532414912","-0.965149493195027","-30.1149993463941","-5.18881229737109","2.01569854874041","0.986983047219121"
"3295","-0.826407434150966","0.437138629150168","-30.0311742774058","2.48166809487695","1.31947321823066","0.996596857751846"
"3303","-0.950279329933181","2.55236265907966","-26.5506152197272","0.726176941934604","1.10048565816425","0.999110285075461"
"3307","-0.985758923374383","2.15820862716676","-27.6070975651196","1.9198748650766","-4.02478729292257","-0.738793365932795"
"3311","-0.995921047258934","2.04531437688365","-27.8934911381463","1.26917053004099","-2.63686741849215","-0.19314957644732"
"3311","-0.998831699603812","2.01297901883814","-27.9711273419397","1.07876372862575","-0.514852859296794","3.42662464051558"
"3323","-0.999665373466578","2.00371747206043","-31.4500087083402","1.02304756373622","-0.847404017118991","2.37297566243977"
"3324","-0.999904155714374","2.00106476450126","-30.3930715706822","2.71412763292314","2.4189259131529","2.09751047389881"
"3336","-0.999972548121055","2.00030497161101","-33.5643902839667","2.2089655025576","1.44630252594926","2.02549306423313"
"3336","-0.99999213718739","2.00008735047366","-32.4240783814207","-1.35362032626452","-3.91601562262066","-3.20901739126595"
"3344","-0.999997747920197","3.71360336371792","-25.1992889616482","-0.396091593028289","-2.60265487028405","-1.57752382893838"
"3344","-0.999999354955575","3.20439145669894","-27.2407770515171","-0.115902921242798","1.18137273270254","2.32613412789144"
"3356","-0.999999815245308","4.77212048401764","-24.3363525899541","-0.0339151029435125","0.37158362519517","1.34670349914575"
"3356","-0.999999947082255","4.22115202716146","-25.5490147771066","3.40484295516425","1.80234076154119","1.09064189948194"
"3360","-0.999999984843212","4.06334272970345","-25.8777459273882","2.411080177557","1.25236462681283","1.02369734935453"
"3364","-0.999999995658768","4.01814272949601","-25.9668590953507","3.82767236416942","-2.29155143831882","1.00619541701619"
"3376","-2.71357834340724","0.578039781313478","-31.1777694488086","3.24219056028366","-1.40623873591417","1.00161972511905"
"3376","-2.20438429034014","1.5927198003229","-29.5903545633231","-2.05128166369372","2.24315257342142","4.47754497878227"
"3385","-2.05854008676662","7.02408116496946","-32.6178701943564","-0.600238786428647","1.39101557629987","3.38628823700025"
"3385","-2.01676714855599","5.57974067783197","-31.4385758339228","6.65389439426091","-3.93340532919507","-5.591812894413"
"3393","-2.00480247444489","1.73889359531666","-25.9321367493696","4.77657319261194","-2.60812454977734","-2.93904083499445"
"3397","-2.00137553268028","2.63879181599894","-27.4394390521891","-0.894912507573211","2.86511685664618","1.23161939641429"
"3405","-3.71397232699794","-2.2441928799393","-26.1191241110964","0.44551740306297","1.58664540311488","0.321993639535963"
"3405","-3.20449713577237","-0.642785439595412","-26.7612102139554","0.837749263315708","1.18452078633543","1.82274253209235"
"3413","-3.05857240814212","-0.18410766964337","-26.9352683361668","0.952522763202999","1.05803833185952","1.21509718268543"
"3414","-3.01677640609786","-0.052732423501763","-26.9824523972653","0.986107378863465","2.70371964600722","1.05623484406665"
"3426","-3.00480512600536","-0.0151037080299573","-32.181996515612","0.99593479033187","2.22134478809768","1.01470199492024"
"3426","-3.00137629214462","-0.00432602905585346","-30.5915004459501","-0.708573083603536","-1.30130827780197","-0.734717081153481"
"3434","2.14034083407768","3.42591762089806","-26.7025096779448","-0.207340149978396","-0.409307607985811","-0.192083875650713"
"3434","0.613039964708312","2.40841368536941","-27.6482734511167","-3.47543821411695","-5.18513535640189","-3.52733978163238"
"3446","-3.25156876781427","2.11697852383083","-27.9046531884774","-2.43173751258386","-3.68730257165873","-2.3993065524363"
"3446","-2.35847639826089","2.03350518243595","-27.974153175254","-2.12633350416754","3.52567709263175","3.11128787683592"
"3454","-2.10267540339355","2.00959660981609","-33.1797467441364","-2.03696726323301","1.79441502598893","1.55197349891514"
"3455","-2.02940845900364","2.00274867686927","-31.5908905729179","1.40394984281378","1.24987170187278","-2.33281398676625"
"3463","-2.0084232195091","2.00078728057892","-31.1601799246185","0.410818838179336","1.07859351265301","-1.34844987637637"
"3463","-2.00241259247517","2.00022549420664","-31.0434219285715","3.53497942829126","-2.34620861701127","0.647462288520022"
"3475","-0.287112674079758","3.7136429310746","-29.2828531263218","2.44916025211838","-1.42343035718599","0.169272048938012"
"3475","-0.795813632032361","3.20440278964674","-29.8055942378655","-2.99071892438142","0.552280666639356","0.0442543559056827"
"3483","-0.94151660248694","3.05854538536864","-26.4894644832202","-1.58251713182069","0.173711857870287","0.0115698251950859"
"3487","-0.983249088473856","3.01676866619035","-27.5905206880919","-1.17045410314269","3.42556760477188","0.00302480631127332"
"3495","0.71837616845859","-0.422353780173083","-29.6179152278265","-1.04987767688028","2.44839157353","0.000790803064561856"
"3496","0.205758491333424","0.592607075790437","-29.1675058278983","5.81493911588046","-1.22989401092038","-3.47691477212484"
"3504","-3.36822300161142","0.88331384427029","-25.5875722782452","3.82369752954556","-0.386845288140481","-2.3861234762504"
"3508","-2.39188869700858","0.966578558119546","-26.617115966358","-0.173739614420374","-0.121676563693894","-2.10094782835518"
"3512","-2.11224540930989","0.990427375292439","-26.8962069485327","0.656544464754644","-0.0382715948888014","-2.0263917235714"
"3512","-2.0321495159399","0.997258192985222","-26.9718635498315","4.31426632850008","1.67342675813807","-3.74546059170367"
"3524","-2.00920831757419","-0.714363657554483","-25.2634549225972","3.38457596537104","1.21181660043899","-3.19489265088884"
"3524","-2.00263746156258","-0.204609221318163","-25.8003357298562","-0.302233813651961","2.75208836566124","2.16472969199622"
"3536","-0.287177081456013","6.79570886673296","-36.3193812848495","0.61894494657292","2.23655846596375","0.565945286479524"
"3537","-0.795832079699685","4.80075156148448","-33.1709074409316","0.888497017801197","2.07440602776766","1.88652106537856"
"3545","-0.941521886298352","-0.911382446188035","-25.4017410364286","0.967372391659921","2.02340333475535","1.23177139398552"
"3545","-0.983250601871867","0.452538675757156","-27.2956582081364","9.52737030626118","-8.10542601400584","-0.677966622334465"
"3557","-0.995202609662035","-0.870383123380038","-24.3512298953862","7.03216662508557","-5.29130209207135","-0.177247078801238"
"3557","-0.998625923518043","-0.249296574986638","-25.5530477499985","-2.23488873387728","2.33569782089281","-3.52346086073317"
"3561","-0.999606434739461","-0.0714039376805931","-25.8788391946079","0.053418298315118","0.734659806869216","-2.39829245030261"
"3565","-0.999887274386589","-0.0204516340289365","-25.9671554606489","-4.39913599910428","3.60200563035419","-0.365568516149889"
"3573","-0.999967712943206","6.84845558772948","-32.9067675743724","-2.70202669193003","2.50388759045446","-0.834134714737489"
"3577","-0.999990752287747","4.81585936462655","-30.787972989055","4.62410957730835","0.473025986869296","-4.43375782487946"
"3586","0.713580993395714","4.2336797897486","-31.9425232484882","2.76785766480411","0.834247982230974","-3.37484055674194"
"3586","0.204385049354225","4.06693095220148","-31.2555012887556","-1.19007927817303","-5.79399301702574","3.85624500770608"
"3594","-3.36861638513663","0.59201378482233","-29.3403440687812","-0.348236789870275","-3.87880990080192","1.74673452538607"
"3598","-2.39200137056906","1.59672225753976","-29.8211790098207","-0.101899817972902","0.0945121809772898","-2.28189581193423"
"3606","-2.1122776814576","1.88449252143899","-29.9515248101088","-0.0298175643842186","-0.655737099080128","-1.33513786742261"
"3606","-2.03215875938187","1.96691615678533","-29.98685923821","-0.00872511024547124","0.793747424749044","-4.56473970858618"
"3614","-2.00921096509614","1.99052407086114","-29.996437773203","-0.00255311090519248","0.24966171760445","-3.40908436093241"
"3614","-2.0026382198702","1.99728588869007","-29.9990343436738","3.41401999036827","1.76399199729502","3.84729233354802"
"3626","-0.287177298651736","1.99922261974581","-26.5419026553399","2.4137655291454","1.24030258030889","1.74439394505409"
"3627","-0.795832141909244","1.99977734146076","-27.6047357438776","-1.29369246672413","4.4465127488091","-2.28250773147846"
"3635","2.48563478518481","0.286357881121951","-31.3506864628208","-0.378555714694048","3.4549795642091","-1.33529784720348"
"3635","1.42551797441719","0.79559744298394","-30.3661470764875","-0.110771634537221","-0.227821854189887","0.650900745037508"
"3647","-4.01885747133852","6.08218971521381","-28.3703381738669","-0.032413603973631","0.613806478646219","0.170170996398303"
"3647","-2.57824449885516","4.59638422498291","-28.8293098782282","3.40528231848303","-4.17786515634898","-3.43263214303048"
"3655","1.26153494274258","2.45723901229317","-28.9537289439168","2.4112087424976","-2.68501583588366","-2.37454625933434"
"3655","0.361330926581363","2.84454149944197","-28.9874567396822","0.412942911734979","2.84093181999653","3.1177611890581"
"3663","0.103493002120344","2.95547331893204","-28.9965997452248","0.828217430857343","1.57903835129712","1.55366587674578"
"3663","0.0296426369843815","2.9872465943013","-28.9990782514081","0.949733592096703","1.18212809873291","-0.593810773252938"
"3676","-3.41866639614734","-2.14438788552355","-25.5419145579457","0.98529122147776","1.05728574674503","-0.155245437536988"
"3676","-2.406336777573","-0.614199127882721","-26.6047389704623","0.995695969243863","-0.667446132988055","-1.77914800881345"
"3684","1.31077303683955","6.67839344768036","-33.808522909896","0.998740569740597","-0.20993548170935","-1.20369986363113"
"3688","0.375433782998863","4.76714988496143","-31.761340607915","-0.707752066355106","3.30489690932476","-1.05325513762979"
"3696","-5.03320266835139","0.792571650650383","-32.9353036836501","-0.207099906814545","2.4104363598808","-1.0139229827326"
"3696","-3.5823532739299","1.65416637346356","-32.2535441931366","3.3541662302935","3.8145613246231","0.73492074550813"
"3704","-1.45322024406644","0.187367415561307","-21.6952246039546","2.39625133353475","3.25620842733928","0.192137121504901"
"3708","-1.843390437194","0.767244429974259","-24.8330519557399","7.23810027292397","-1.97580695886397","-1.68832857642803"
"3713","-1.95514362977757","0.933333764341448","-25.6836611407756","5.65490498721003","-0.621461366203191","-1.17995610020916"
"3713","-1.98715216418793","0.980905346426769","-25.9142461617313","0.0694853724205653","3.17545742270985","2.43007393292233"
"3725","-0.282741756948388","2.70810922236589","-29.434589232086","1.43509963660746","2.36972305039909","1.37387744282672"
"3725","-0.794561706712199","2.20281781563817","-28.3888916249236","0.127317317009764","-4.62556711593323","-0.640814524860462"
"3737","-2.65473636861503","5.48524810379075","-35.0210927474224","0.744638679394169","-2.8258339812024","-0.167534062656091"
"3737","-2.18753067451613","4.42540722049221","-32.8189645100582","2.63266060973165","-5.63068314193464","-3.5209214971696"
"3745","-0.340134501573026","-1.01888919366105","-23.5774177813944","2.18512691032529","-4.51290768497642","-2.39762856102129"
"3746","-0.81100023163263","0.421746415184713","-26.0721988352772","-3.06797942714885","0.895065937764302","-3.84251646851782"
"3757","-0.945866373483576","2.54795399567618","-28.477407392506","-1.60512482692215","-0.40393454864372","-3.22026686560544"
"3758","-0.984494957083103","2.15694589049685","-28.1294166528437","3.94508112204398","-0.812516274383717","-3.05758640204268"
"3762","-0.99555901994148","2.04495270175638","-28.0350825527551","2.56916275949087","-0.941029718647539","-3.01505534521094"
"3766","-0.998728007140265","2.01287542724949","-28.0095102560665","-1.24822067871576","0.704012777177001","0.473185461060562"
"3774","0.71394267095114","2.00368780118613","-31.4604136336737","-0.365249920890121","0.221436988247313","-0.61485151200169"
"3778","0.204488641638353","2.00105626612033","-30.395892160876","3.30788893244477","1.75511431884151","-0.899307071832902"
"3786","0.0585699752381947","-1.42685415181065","-28.3784015371925","2.38270983428989","1.23751023556302","-0.973674917340169"
"3786","0.0167757092614935","-0.408681928103682","-28.8314957126092","0.404603661996677","-0.610759139078236","-0.993117590384333"
"3795","-3.42235176288499","5.02367967959317","-30.6832392709425","0.82577722908923","-0.192105411558466","-0.998200668057536"
"3798","-2.40739234641457","3.57962568372589","-30.1852140141203","0.949019548884667","-0.0604239655025782","0.739031175515071"
"3807","-2.11668599023671","3.16601734781576","-24.8634548663659","0.985082280678144","-0.0190054802591835","0.193211749203885"
"3807","-2.03342139447968","3.0475509635781","-26.4208206152967","-2.41913224292675","-0.00597789762518654","-6.90372990519472"
"3815","-2.00957261113095","3.01361962570149","-26.8429947702089","-1.41526145841047","-0.00188026082634473","-4.75914894091888"
"3815","-2.00274180312614","3.00390095573866","-26.9574386747305","-1.12151233946003","-3.37152047300289","-0.721349803433444"
"3827","-2.00078531179003","1.28753897354945","-30.4462979541292","-1.03555651106551","-2.43139183365266","-1.66571066379394"
"3827","-2.00022493030287","1.79593573343214","-29.3920656512158","-1.01040442052856","-2.13568803222802","1.56451786922942"
"3836","-3.71364276956035","0.227973230321324","-37.7508709556991","-1.00304450474164","-2.04267869869956","0.409026363419477"
"3836","-3.20440274338556","0.778874814654632","-35.0167944023388","-1.00089087221114","-0.327959432320941","-1.63162521775766"
"3848","2.08218966183355","2.65024330302461","-25.6310459465491","-1.00026068387601","-0.788619405625573","-1.16513161718677"
"3848","0.596384209693643","2.18624376323213","-28.0867364770092","-1.00007628039393","2.43741575843183","4.17251039404263"
"3856","-1.542760992086","-1.37381244233789","-28.7524305024074","-1.00002232089912","1.45211823808468","2.56797946731279"
"3856","-1.15545850181232","-0.393489633873935","-28.9328883125239","4.1221440775165","-0.543257310599032","-3.06719015808421"
"3864","-1.04452668142721","-0.112703952296977","-28.9818072151873","2.62097429536885","-0.170873692356496","-1.54044462481862"
"3864","-1.0127534058016","-0.0322808525813131","-28.9950682596178","3.88909083866942","-0.0537458367699586","-2.87985419176267"
"3876","-2.7172311962517","5.13148909871956","-30.727580879102","3.26016261709608","-0.0169049719138537","-2.23002841161113"
"3877","-2.2054305464986","3.61050463601432","-30.1972342354236","-2.04602274398433","3.36561185103413","-3.79869921275483"
"3885","-3.77241810183811","-1.96587328550632","-31.782384479378","-0.598699939940541","2.42953336247733","-3.20881131553966"
"3888","-3.22123727135026","-0.563068680641761","-31.2120905167104","1.53219407709933","0.449638944985294","0.422530047342976"
"3897","-1.34978880083445","-0.161275063584781","-25.8707406081871","1.15572874882887","0.826891928070177","-0.628094824889269"
"3897","-1.81376543200833","-0.0461926706785228","-27.4227956503187","-0.661814740551732","0.945551371605573","-4.37989091257281"
"3905","-1.94665838675256","3.41392610810057","-34.7592013118858","-0.193657888987338","0.982873975193737","-3.36075763210249"
"3905","-1.98472180683466","2.40497905642381","-32.7479703999384","-0.056667486637978","0.994613257775016","0.382805317749898"
"3913","-1.99562399462284","2.11599477172272","-32.2027614718701","-0.0165818395452786","0.998305678514035","-0.638480428021614"
"3913","-1.99874661729606","2.03322341452869","-32.0549650286673","1.70253141707741","-0.685997456343382","0.833076161848621"
"3926","1.42751568525017","0.295937560735003","-26.8281466830444","1.20557225888483","-0.215770530880301","0.217798799000122"
"3926","0.408871405606499","0.798341270676427","-28.4112491947967","7.8896879727297","3.3030615794038","-3.42018036649342"
"3938","-1.59646871983184","4.36939726223282","-34.0271534869587","5.84557027570043","2.40985908352544","-2.3712908763341"
"3938","-1.17084155809834","3.39222503067958","-32.5495252549516","-4.99687343409513","-1.2420138456917","-2.097070004699"
"3946","-2.76251106652365","1.39876339790603","-25.2332953778389","-2.16955097003605","-0.390657406040638","-2.02537790830008"
"3946","-2.21839968189589","1.82779281717163","-27.2499955861014","2.07253720371468","1.56258892216094","-2.00663478107047"
"3954","3.0781806355356","5.37783282293258","-26.0677693569199","1.31384204370941","1.17695416984357","-2.00173459212369"
"3958","1.59523593774504","4.394641157939","-26.7472888535042","-0.615548187343999","1.05565836260115","4.95378954770745"
"3962","1.17048846261235","4.11303377372587","-26.9314945029567","-0.180119533801323","1.01750652912096","2.77223649583518"
"3963","1.04883158767939","4.03237532058095","-26.9814293782042","-0.0527059410194885","2.69097095646972","-3.01378935568844"
"3975","-4.12674860977552","2.2956946482626","-30.4528014071374","-0.0154226260757144","2.21733487306943","-1.52648355960024"
"3979","-2.60914685732381","2.79827169528398","-29.3938286216546","3.41025415834988","-1.30256953830145","2.33947805714014"
"3987","-2.17447285122553","2.94222064503242","-29.1067599346149","2.41266358469739","-0.409704319147107","1.3501921258733"
"3987","-2.04997280286154","2.98345074150517","-29.0289407194203","-1.29401491381167","1.55659799243575","-2.38556755567355"
"3995","-2.01431329291805","2.99525993398711","-29.0078453142893","-0.378650068020527","1.17506980995955","-1.36224172936312"
"3995","-2.00409963705109","2.99864234244612","-29.0021267251655","-3.52556631652666","4.42599472886761","2.38241731648931"
"4008","-2.0011742248305","-2.14112389647596","-23.8138231587578","-2.44640582064166","3.44852591920728","1.36141813322352"
"4008","-2.00033632341971","-0.613264250736671","-25.4073663421237","-2.13062569259949","1.45561277770217","1.0944888822389"
"4012","-2.0000963303106","-0.175652161862569","-25.8393475560521","-2.03822322823338","1.82877091033868","1.02470310160458"
"4016","-2.00002759108702","-0.0503105829663668","-25.9564499798427","-3.7185682822022","-1.42478668611169","-2.47066315895685"
"4028","-0.286429558034156","1.69916830419585","-31.174947722733","-3.21026490964605","-0.448145946913859","-1.3844890592521"
"4028","-0.795617972803784","1.20025694305556","-29.5895896435718","0.353240098357425","3.22997126920301","2.37660099146084"
"4036","-0.941460561446806","1.05735792512517","-29.1598272658114","-0.604019667917276","2.38686958861055","1.3598975176258"
"4036","-0.983233037106373","1.01642855186176","-29.0433263290413","0.823253900784718","-1.24924485723057","-4.12159094496409"
"4044","2.4319591105685","-0.708872851631426","-30.7406627833949","0.240897645153157","-0.392931815638102","-2.55466712522099"
"4048","1.4101440988416","-0.203036535596479","-30.200780507","-5.05165999194704","3.2473380718162","3.07067052668946"
"4057","-2.30968253757935","6.79615931798071","-26.5965924519195","-3.60034949150424","2.39233206399569","1.5413545297433"
"4057","-1.3751214403956","4.80088058047651","-27.6195611750065","5.36124553645954","0.437937817162451","2.88009207661507"
"4065","-1.10744290391514","4.22938954159722","-27.8968698011063","2.98355578241761","0.823211508355954","2.23009060404626"
"4065","-1.03077397439491","4.0657021322241","-27.9720432373746","2.28780461487681","-0.741070783073245","-1.41696680631826"
"4077","-2.72239267733853","4.01881851347161","-34.9080925637078","2.08421636863421","-0.23309304546977","-0.370450725602725"
"4077","-2.20690890645554","4.00539002977975","-32.7883321700973","-3.09750751300589","-1.75878056225335","3.38027116274748"
"4085","-0.345684846842856","0.574387131950575","-27.0269494712694","-1.61376523098468","-1.23866339914984","2.36085704441934"
"4086","-0.812589970712575","1.59167360244597","-28.4651410947378","-1.17959781141658","-2.76053263605425","0.355781432069408"
"4098","0.767256635468234","0.16946813263908","-34.0417626225005","-1.05255327646024","-2.23921448850253","0.831575986909157"
"4098","0.219758915608575","0.762117687730108","-32.553485531756","-4.43014502656497","1.29568762322465","-4.259714924674"
"4106","-5.0777913215656","4.35902204364265","-30.4211222970505","-3.41848398021389","0.407539712768666","-2.59077815356584"
"4106","-3.59512442979331","3.38925334339637","-30.8430765507666","0.292311770258451","-3.24274337005781","1.32266892732801"
"4114","-3.17045652432023","3.11149058696585","-30.9574608439851","-0.621848299823145","-2.39088686732845","0.345797559742402"
"4114","-3.04882243986089","3.03193331847463","-30.9884683914144","-2.59673012308843","2.93344581273161","3.56752657044982"
"4126","2.12675122990883","3.0091463939383","-29.2679561998133","-2.17461305838567","1.60813728328545","2.40981295598131"
"4127","0.609147607786729","3.00261972529229","-29.8015559460488","-5.46586172830877","-3.86511285150625","-4.84710185021183"
"4135","0.174473066174364","-0.426406343246547","-26.4883697741346","-4.42893527517225","-2.58664414335632","-2.74434414523535"
"4139","0.049972864427536","0.591446333966528","-27.5902239319295","2.70402062193964","1.1864086741875","3.02108151064394"
"4147","-1.69926503409878","6.02371641662764","-29.617834782509","0.791240952092585","0.373167607406247","1.52839001505314"
"4147","-1.20028464859448","4.57963620600812","-29.1674840206035","3.64629720196781","-4.93901914844133","1.13814188420283"
"4155","-4.48452254989282","0.738863672323931","-27.3164841528782","2.48173366539564","-3.60989029504044","1.03611570928188"
"4155","-3.42519940614372","1.63878324540584","-27.8147110109967","-1.2738038710521","3.55002599927583","1.00944206360338"
"4163","2.01894871619075","0.182961354558562","-27.9497714506687","-0.372735984161064","1.80207362073205","1.00246852593685"
"4163","0.578270633356774","0.765982438688282","-27.9863839336514","-5.23121929454819","-2.11864846273074","-0.737915389992706"
"4175","-3.26152745725537","-0.780606041942379","-31.4541444989965","-3.6528914996511","-1.35185461759354","-0.1929200390844"
"4176","-2.36132878257572","-0.223582474708831","-30.3941927099691","5.34587087984129","-1.11067075676275","1.68812389105071"
"4184","1.32366430127062","3.36311782678812","-31.8357764186839","2.97905690476778","-1.03480987825656","1.17990258741957"
"4187","0.379126120296757","2.39042646438485","-31.2265641218164","-1.1282789034443","-1.0109489413435","-0.691527163726699"
"4196","-6.74572344764108","2.1118265942213","-31.061417503709","-0.330152982763448","-1.00344383038803","-0.180792336443068"
"4196","-4.78643465500485","2.03202955822894","-31.0166491928713","-1.8039917346139","-2.68654773894441","-5.26294848973699"
"4204","-0.79809522640925","3.7227523037387","-29.2755955138588","-1.23526121820556","-2.21594361427567","-3.59162353435989"
"4204","-1.65574844517587","3.20701191124439","-29.8036268282122","0.638542230615492","2.98847167067915","2.061008671154"
"4212","-0.187820555160026","-0.367863995005676","-26.4889311534559","0.186847969428986","1.62544486725926","0.538828541570665"
"4212","-0.767374218968228","0.608214130257716","-27.5903761118787","-6.77485935324651","1.19672459394272","1.8794316841858"
"4224","0.780207405930715","0.887784042645935","-31.3467938219893","-4.81196953113873","1.06187686219493","1.22991795155114"
"4229","0.223468296722488","0.967858919738038","-30.3650918507934","0.884554956166505","-2.35146659648412","-2.41701194445544"
"4233","0.0640061594653521","0.990794098586653","-30.0989699071524","-0.448548193127918","-1.42508417821947","-1.37046252648303"
"4233","0.0183327501466199","0.997363230478206","-30.0268289815302","-4.25340319503936","2.23722501340893","0.641707317995598"
"4245","0.00525089664410068","0.999244772108793","-26.5494372873017","-3.36676641048967","1.38915114843808","0.16776747381523"
"4245","0.0015039705088716","0.999783686377235","-27.6067782485899","0.307445182620949","1.12240183854142","3.52098252000576"
"4253","-5.14030426422924","0.999938043094093","-31.35124014952","-0.617420014214316","1.03849971955229","2.39764451478522"
"4253","-3.61302949031179","0.99998225420045","-30.3662971711036","0.819332738839276","-0.673355004840313","-1.37316163915834"
"4261","1.96515011255892","4.42715160652004","-30.0992966480505","0.23975024861119","-0.211794031481912","-0.358998335972155"
"4262","0.562861548249065","3.40876712557394","-30.0269175551762","-5.05199573906558","-1.75208126692377","1.64470450725526"
"4274","0.161215736381988","-2.02365527719271","-28.2783790842444","-3.60044773663876","-1.23655623315904","1.1685510566988"
"4274","0.0461756780828916","-0.579618694349959","-28.8043814046346","1.94644971566299","-1.07440532547138","1.04406586024228"
"4282","-3.41393097514794","1.54756299874352","-30.6758890643111","0.569563232515875","-1.02340311385826","1.01152054503202"
"4286","-2.40498045045158","1.15683390050817","-30.1832215038348","-1.54071995738903","0.678103422775352","-2.47410959653452"
"4294","-2.11599517100246","1.04492062539844","-30.0496680908748","-1.15822356176894","0.213287577338694","-1.3853900932747"
"4294","-2.03322352889105","1.01286623988595","-30.0134641360294","-4.46106589176739","-1.61837802421559","-2.83931685280575"
"4302","1.4176407511598","6.14442020367824","-31.7325676740044","-3.42753193444315","-1.1945018211597","-2.21943036050391"
"4303","0.406043010637869","4.61420838450209","-31.1985860668255","-1.41771934643795","-1.06117772131768","3.1583145718318"
"4311","-5.02443552270206","2.46234423756787","-27.5959975782189","-1.8296150942891","-1.01924256319714","1.56426812233627"
"4311","-3.57984217356033","2.84600374651608","-28.6193999153268","1.4646245012252","2.36487659566619","2.88608258885882"
"4323","0.261077334108817","-0.471264551141785","-27.1679083002727","0.428573242158294","1.42930209858617","2.23165675901723"
"4323","-0.638800142441022","0.578597971805169","-27.7744347399556","1.83279112287186","-0.550433795710908","-1.4165573519522"
"4331","0.817033805764649","0.879301333516868","-29.6677710561541","1.24368839335357","-0.173130951458735","-0.370343678164259"
"4335","0.23401617512348","0.965429288147444","-29.181020856212","2.77869077222779","1.63100870732433","-0.0968223699289096"
"4343","0.0670273002573878","0.990098199484586","-32.5069071068509","2.22785774006459","1.19847461898067","-0.0253131668538775"
"4344","0.0191980702933181","0.997163909905436","-31.408495714512","0.359291389792014","2.7478918392811","-3.48373937419334"
"4352","0.00549874307292513","2.71276602703106","-25.9239825640085","0.812518112235684","2.23523850957539","-2.38790769503164"
"4352","0.00157495909328792","2.20415162533901","-27.4372285975697","0.945139712999547","0.388526322525401","1.37570722591923"
"4360","0.000451102390607019","2.05847344647186","-27.8474426823674","0.983946976821806","0.807669840772731","0.35966385224145"
"4360","0.000129205493449706","2.01674806133245","-27.9586444246052","-4.12684798785274","-0.745959188757827","0.0940302443513914"
"4372","-1.71354133739935","2.00479700745073","-27.9887892390691","-2.62235073697688","-0.234630622438849","0.0245831956636186"
"4372","-1.2043736910181","2.00137396681476","-27.9969609621085","-5.59687714447157","1.6116648795395","0.00642701200240807"
"4380","-1.05853705089126","0.286815189198817","-27.9991761708806","-4.46727254293654","1.19239029905821","0.00168027313634525"
"4380","-1.01676627901554","0.795728425920321","-27.9997766745785","0.985418969893186","-3.99588002370068","-1.73812147020616"
"4393","0.708776119260981","0.941492197611283","-31.4577750328558","-0.419033722119287","-2.62777505704295","-1.19297391653888"
"4393","0.20300882935081","0.983242098388972","-30.395176883125","-2.53738323857926","-3.88292205341862","2.42667056490862"
"4401","-1.65543221969747","6.13593520803237","-26.6492898519136","-2.15724718291055","-3.27771030115409","1.37298766887821"
"4401","-1.18772998133504","4.61177809800357","-27.6338465028583","1.36875395806678","1.96904385692381","1.09751361285295"
"4409","0.659808412637979","-0.965508538415335","-31.3585778718106","0.400519942848805","0.619334130770272","1.02549388487891"
"4413","0.188983417761189","0.437035790823822","-30.3682862971064","1.82458226563354","1.88026708272429","1.00666510189915"
"4421","0.0541289433487353","0.838754859305328","-24.9130825061227","1.24128634657769","1.2768752187046","1.00174251917811"
"4421","0.0155037015562553","0.953815899885195","-26.4342737857475","-2.34416271518442","-0.598377455688579","-4.21522671572567"
"4429","-5.1362944380882","2.70035021824496","-32.0333950440454","-1.39332414031923","-0.188210932980632","-2.57914719000891"
"4433","-3.61188098927081","2.20059546883399","-30.5512172300643","0.592290417308667","1.62626551828106","-3.88997256100992"
"4442","-1.46167762117307","5.48461157554033","-31.8783429732117","0.173313927380649","1.19698271779581","-3.23267375038184"
"4442","-1.8458128131448","4.42522490501705","-31.2381031576515","3.46548158118823","1.06195805130183","5.63197374911837"
"4450","-3.66941579535794","-2.7325197574119","-31.0645455310883","2.42882403786616","1.01948800465378","2.9495404583449"
"4450","-3.19173518022341","-0.782652832192688","-31.0174971454581","-4.70405317180678","1.0061296686614","-1.22887438286042"
"4462","-1.34133876305763","3.20298796954085","-24.0890720201151","-2.7912504767196","1.00192799820023","-0.321275985277383"
"4462","-1.81134515820052","2.34456180560123","-26.2108991990083","1.18323415627494","4.37153548810012","1.65456660996932"
"4470","-0.232386823271465","2.09868996273046","-30.2439243803634","0.34623379450704","3.4313965564333","1.17112939734171"
"4471","-0.780138963253449","2.02826694249162","-29.3372057748253","0.101313708552957","-1.92070407871624","1.04473993966162"
"4483","-2.65060538255889","0.294517919809453","-27.3624927017422","0.0296460591184286","-0.604129556015605","1.01169677584342"
"4483","-2.18634747065171","0.797934654772529","-27.8271831102763","-1.69870861134526","3.18090889173602","-0.735502763346347"
"4491","-3.76695229566489","2.65570245398187","-36.5977413459657","-1.20445364299017","2.37143773075975","-0.192289283806459"
"4491","-3.21967174609831","2.18780738228611","-33.9752836887344","0.647557034329378","3.80229487256669","1.68828879523149"
"4499","0.364237944150366","-1.37336458798011","-21.1619575580035","0.189485849412455","3.25235019310276","1.17994569984335"
"4503","-0.609252709746074","-0.393361358687425","-24.6884927443784","0.0554466791712693","-0.291555978232572","-0.691515892447374"
"4511","-2.60165985895286","1.60091113314495","-27.3733914959376","0.0162246111815439","0.593759836121939","-0.180789389688362"
"4512","-2.17232841275853","1.17211396147322","-27.1012197933318","-1.70263594797793","0.872223059991941","-0.0472654407235882"
"4520","-0.33578024459536","2.76287551040455","-30.4852744580619","-1.20560284634728","0.959809620393113","-0.0123570409228437"
"4523","-0.809753078141271","2.21850406651554","-29.402631488188","2.35460429483333","0.987358700146961","-1.74179137493191"
"4532","0.768069182934555","3.77616264108261","-32.5669818075679","1.39637951843126","0.996023862836392","-1.19393337364295"
"4532","0.219991646798929","3.22230978847919","-31.4247808973756","-2.29877989969669","0.998749363836977","0.687858965633386"
"4540","-3.36414631766215","-0.363482351684752","-25.9283971874312","-1.38004438133966","0.999606630569344","0.179833325519691"
"4540","-2.3907210464435","0.609469127790845","-27.4384253234602","-1.11120724290665","2.68534080350418","0.0470154880334984"
"4552","-2.11191096890217","2.60172184576749","-31.3056026658765","-1.03254107015424","2.2155639902723","0.0122916934813954"
"4552","-2.03205372496471","2.17234616712458","-30.3539256610054","-2.71690558919905","2.06780252053362","1.74177429054645"
"4561","-0.295602536313842","5.47652036378226","-26.6381073792996","-2.2097783782993","2.02132629751799","1.19392890711419"
"4561","-0.798245312427135","4.42290740675152","-27.6308151334263","-2.06138460721313","2.0067078769675","-0.687860133359272"
"4573","-2.65579143306155","-1.01960519445072","-26.171002762866","-2.0179621466867","2.0021098652203","-0.179833630809059"
"4573","-2.1878328678214","0.421541337053303","-26.7752735937259","3.11689458913562","3.68612815958628","-1.78557632738681"
"4581","-0.340221056279758","-0.87926143244302","-26.9390806682885","1.61943820864274","3.21581164168596","-1.20538047835639"
"4581","-0.811025022775011","-0.25183951496516","-26.9834858526966","4.59602489073009","-0.303048648597309","-1.05369451626707"
"4589","-0.945873474203615","-0.0721322907586955","-28.7244410945927","3.46702315946055","0.59014498367183","-1.0140378535498"
"4593","-0.984496990883091","-0.0206602501232453","-28.1963830956879","-5.40025901625674","0.871086060685308","0.734890713768929"
"4601","-2.7091379471165","5.13481749091175","-26.3243181781287","-2.99497176891147","0.959451993784247","0.192129270029814"
"4602","-2.20311246468414","3.61145795961567","-26.8168346759046","-5.7059121931267","0.987246213894223","0.0502301304269795"
"4610","-2.05817580835692","-0.252021888331676","-32.1371004970615","-4.49917799329049","0.995988481920259","0.0131321271471018"
"4614","-2.01666281133087","0.641393818210437","-30.5793299338507","7.80561705514412","-2.37219082900021","0.00343325334697956"
"4622","1.42238409929716","-0.816290920857334","-30.1570460409873","4.40620266844603","-1.43160268438991","0.000897587147345566"
"4622","0.40740160826327","-0.233803396798593","-30.0425723884589","3.41147805204912","-1.13575435226331","0.000234664502049853"
"4630","-3.31046804627058","1.64661198871331","-28.2826228311074","3.12040525246993","-1.04269955870289","6.13505091791438E-05"
"4630","-2.37534642709523","1.18520367617599","-28.805531808929","-0.379534513467227","4.04296307075234","1.60394305217096E-05"
"4642","-2.10750734497808","7.90735972210976","-35.8629542770622","0.596325489153479","2.64258434527551","4.19333653302762E-06"
"4643","-2.03079243171083","5.83273078430267","-33.7760959834264","0.881878192160903","-1.16881349660478","1.09630271819338E-06"
"4651","-0.295241274612186","-1.61580124890233","-29.752550244901","0.965435614307386","-0.367633299993223","2.86616549960141E-07"
"4651","-0.798141839252533","0.25077787622453","-30.6618385587869","-0.71749764463678","4.94075988441276","3.4771215940102"
"4663","-2.6557617961036","-4.3553284748681","-30.9083304478951","-0.209951623467784","3.61043781824363","2.38617754760702"
"4663","-2.18782437915485","-2.67461708066315","-30.9751500148776","-1.76881883792804","-0.178924719524763","-3.1147203138865"
"4671","-2.05379696959249","8.08824512693349","-30.9932636110202","-1.22496904956018","0.629186361775025","-1.55287087265058"
"4671","-2.01540861708346","5.17096193673016","-30.9981738847624","2.34893742493439","2.56883049095491","0.594018618519751"
"4679","-2.00441336161169","4.33538885626932","-27.5416694002333","1.39472129900133","2.17891736460434","0.155299776445677"
"4683","-2.00126408233848","4.09606263139838","-28.6046725125669","4.53026902330315","-3.00011773944254","1.77916221513646"
"4692","-2.00036206055588","-2.82679896070031","-28.8928337495317","3.44778191006829","-1.62910796894646","1.20370357772142"
"4692","-2.00010370198375","-0.809656437663572","-28.9709491355787","-3.69850578628421","2.17305229493847","1.05325610863874"
"4700","1.42712698680747","6.6224102414628","-34.1788781859681","-1.78962722038535","1.36896655241026","1.01392323659244"
"4704","0.40876007395511","4.75111508236483","-32.5906551222468","-1.23105792484961","-2.2548759970979","-0.734920679139206"
"4712","0.11707773702294","4.21513562524879","-28.7022805257239","-1.06761135287326","-1.39470300885085","-0.19213710415346"
"4712","0.0335335992426651","4.06161950190837","-29.6482113320254","0.68759934134439","0.561316436588266","-3.52735369765171"
"4720","-1.70397359564576","0.590492470437074","-26.4468007766912","0.201202887688522","0.176553927998624","-2.39931019062983"
"4720","-1.20163328258708","1.59628652015523","-27.5789553160772","0.0588752774763408","3.42646153662938","-0.365834593408024"
"4732","0.655826206078549","-1.5427889724853","-26.1569444887719","0.0172278754929314","2.44867274680503","-0.83420427777376"
"4733","0.187842827566494","-0.441888171353945","-26.7714626456623","1.71242469632971","0.455658960189322","4.25902778630665"
"4741","-3.37335443568423","6.72774703708416","-32.1248009466589","1.20846719527377","0.828785436368888","2.59059850863299"
"4741","-2.39335845085003","4.7812858217359","-30.5759957444989","-0.646382602853383","-0.739317585017891","-1.3227158935628"
"4753","-2.11266637863812","4.22377717836256","-28.4272244153538","-0.189142191427122","-0.232541602499181","-0.345809838559155"
"4753","-2.03227009067174","4.06409462985601","-28.8447307265051","1.65203741713947","-5.12953617816478","-3.56752978061434"
"4761","-2.00924285278847","2.3047797453317","-28.9579092616063","1.19079688318625","-3.6698146581194","-2.40981379524429"
"4761","-2.00264735319583","2.80087386382552","-28.9885899494559","1.05583030923791","-1.52521593472758","3.10854087125686"
"4769","-2.00075825928464","-2.1977690714984","-30.7258247244417","1.016336867655","-1.85066357189806","1.55125532386301"
"4773","-2.00021718187949","-0.629488655534149","-30.1967581731305","-4.11737017253836","-0.267563864576635","-0.594440986367701"
"4782","-2.00006220559344","6.67401419586093","-23.137666496344","-2.61957737217623","-0.769622857468574","-0.15541019997504"
"4782","-2.00001781702904","4.76589557240612","-25.2240722972028","1.23346853303429","0.757926314451982","3.43649119443598"
"4790","1.42715158611837","2.50579073302263","-32.70533094539","0.360933200189213","0.238394707917974","2.37555516680269"
"4794","0.408767119730457","2.85844776366336","-30.7333671017306","-5.01653561231729","1.76044812313192","-3.11749742105587"
"4802","-1.59649858956508","-0.467700315151266","-28.4698849912605","-3.59007151974825","1.23918790619097","-1.55359691743962"
"4802","-1.17085011343678","0.579618846177629","-28.8562952498637","0.242102431229445","-0.610231452162362","-4.62185347669452"
"4810","-2.76251351695785","2.59317207869519","-27.2321264119972","-0.636540379053204","-0.191939435307499","-3.42401614108654"
"4811","-2.21840038375331","2.16989732868689","-27.7918431278477","0.81373780529597","-1.74583629222692","3.84338858028578"
"4823","1.36460208985777","0.335083929471266","-31.4014079466853","0.238113078943259","-1.234591967121","1.74337335076626"
"4823","0.390851589470229","0.809553638410783","-30.3798967686206","5.19182641609389","-2.7592520262762","-0.54421379533519"
"4831","-1.60162998539868","2.65903038250902","-26.6451476846467","3.64136449486387","-2.23881169130685","-0.142278841300996"
"4831","-1.17231985632569","2.18876057308374","-27.6327236349856","-0.227093262239813","-0.389650214913047","1.70136348733525"
"4839","0.664222206152298","0.340486771156673","-33.0871912685046","0.64093230900563","-0.808023344790701","1.18336393741622"
"4843","0.190247623805931","0.811101129269907","-31.5658004296846","-2.51983619061095","4.11677706349033","-0.690622231012606"
"4851","-1.65908730531389","2.65947361740253","-25.9666250744382","-1.4447290914598","2.66580146401582","-0.180555751521627"
"4851","-1.18877687700774","2.18888752515565","-27.4487882236988","2.28463201861695","3.89488270712679","1.69135640099996"
"4860","-1.05406978560423","0.340523132979259","-26.1216585052064","1.37590447840963","3.28147235096408","1.18074769236549"
"4863","-1.01548675749715","0.811111544083324","-26.7618972431213","-0.597387697175045","-0.282396026684633","-0.691306220131529"
"4872","0.709142601932335","2.65947660043063","-30.3932901499595","-0.174805475389503","0.596640965767626","-0.180734573117362"
"4872","0.203113797924196","2.18888837955949","-29.377696178313","1.65623257628709","-4.18326431897327","-1.7858118690596"
"4880","-3.36898049907558","2.05410172234968","-27.3734689299571","1.19202445582057","-2.68671406402573","-1.20544205819242"
"4880","-2.39210566068619","2.01549590487265","-27.83015857052","1.05618951720107","4.52586219915543","2.42341090342476"
"4892","1.31484913689574","5.43159505202608","-33.1407123679102","1.01644197781891","2.79447324855596","1.37213546545571"
"4892","0.376601266324326","4.41003982459123","-31.5803090477963","1.00481119340517","0.564425482793049","2.83585157297615"
"4901","-3.31928993119405","4.11744428531857","-25.9705581027551","1.00140783440027","0.862996365443329","2.21852440037727"
"4901","-2.37787320597832","4.03363858661227","-27.4498543977219","-0.706971580802711","-2.4140215665777","-3.15855142535919"
"4913","1.31892562013285","-4.55825690359221","-29.5797830984263","-0.206871523892255","-1.44475993500469","-1.56433004514257"
"4913","0.377768859401104","-2.01916183248509","-29.1571688858437","-1.76791755008249","-1.13989277424115","5.80670501978322"
"4921","-3.31895550725223","5.5624033594734","-25.5847701171091","-1.22470531789807","-1.04400123919588","3.73378282857105"
"4921","-2.37777741971931","3.73392781189308","-26.6163563503139","4.05639813348707","2.35708911392738","-0.285281893712228"
"4929","-0.394625289258944","3.21021281878933","-28.6249188163365","2.60173594972607","1.42685265937402","0.663976877929208"
"4933","-0.82660757324292","3.06020950353329","-28.1694043761761","0.468694309347788","-0.551204231219491","0.912150370188376"
"4941","0.763241690547464","-0.409911383631557","-31.5037580857262","0.844531207671667","-0.173373280751881","0.977032659507242"
"4942","0.218608948438232","0.596170847604374","-30.4076420708942","0.954507271777271","-3.42546111025954","-2.48312608313123"
"4950","0.0626143368858564","2.59791293034319","-28.3815867288122","0.986688078744599","-2.44835807722874","-1.38774735668218"
"4954","0.0179341020194481","2.17125521126367","-28.8323591614048","-2.41866235997517","-0.455559985446921","0.637188385116829"
"4962","-3.42201997411371","2.04905120109734","-32.4123911227562","-1.41512396292284","-0.828754305301981","0.166586047435709"
"4962","-2.40729731492547","2.01404932621517","-31.3828741123044","-2.82885564234303","0.739327376842586","0.0435521297130424"
"4970","-2.11665877116029","3.71760237592175","-22.4592014309555","-2.24253680695836","0.232544682375343","0.01138623571265"
"4970","-2.03341359834675","3.20553686039413","-25.0401524852932","1.34379680988986","1.75860808261089","1.74153756835512"
"4982","-2.00957037814965","1.34529186313873","-36.1133091280218","0.393217070405895","1.23860914818481","1.19386701864429"
"4983","-2.00274116355194","1.81247741166951","-33.1150449444567","-1.59232174772807","-2.2958780242247","-5.90355859204992"
"4991","-0.287206783951469","-1.48086721946633","-30.5733510658241","-1.17332309517718","-1.4075996006363","-3.75910415294043"
"4991","-0.795840587137601","-0.424152440352119","-30.8843430624093","5.77881695412171","2.24272453319935","0.278661905901626"
"5003","-2.65510266766346","-0.121486444086115","-32.6975652475196","3.81312759031146","1.39088094246836","-0.665707602514275"
"5003","-2.18763559049594","-0.0347963484176499","-32.1890975315657","1.53055098366606","2.80841045225812","0.825957910029352"
"5011","1.37341379286903","5.13076860623809","-25.1355898326695","1.86263148896529","2.25427375982223","0.21593780865108"
"5011","0.39337545203316","3.61029827136512","-27.2235093506166","0.252420175754554","3.76544264815177","-1.68210614285808"
"5019","-1.60090709650553","-1.96593239281075","-26.0605894095695","0.781245835515533","3.24075886145481","-1.17832931190281"
"5023","-1.17211280529228","-0.56308561025374","-26.7453424974815","-0.771394606351683","3.07572720112863","2.43049923922154"
"5032","0.664281510052029","-3.58843660189359","-32.1177202390654","-0.225722761807552","3.02381889063656","1.37398863458255"
"5032","0.19026460972706","-2.45496264093184","-30.5740762906091","-0.0660501963307743","-5.41983077480023","-0.640785454972273"
"5040","-1.65908244017824","8.15115891516617","-31.8845396579496","-0.0193273748752611","-3.07565807274666","-0.167526462646602"
"5044","-1.18877548352753","5.18898180810006","-31.2397829686685","3.40911156456462","-0.652868083024416","1.6947627683872"
"5052","0.659508958169334","2.62697179300561","-27.6071653255721","2.41232924294453","-0.890814700085672","1.18163825046794"
"5052","0.188897647516578","2.89315664346067","-28.6224272930025","-3.00149628403941","-0.965657350608241","-0.691073393297637"
"5060","1.76768272154396","-2.17133728499506","-32.3554823271231","-1.58567076469155","-0.989198018706083","-0.18067370304675"
"5060","1.2198809558877","-0.621918019490023","-31.3674471499996","0.536006628285275","0.688862138382166","-1.78579595523457"
"5072","-0.650599677285511","-0.178130788633914","-29.3706906006727","0.156844364074471","0.216671574985634","-1.20543789769409"
"5073","-0.186345836537861","-0.0510205153492087","-29.8294054148669","-5.07625536581645","1.75361542735171","0.684851231603586"
"5081","-3.48053017226996","6.83969999813955","-26.4959192697949","-3.60754650282864","1.23703878102701","0.17904698581943"
"5081","-2.4240559027362","4.81335157416264","-27.5922704659262","1.94437249980406","-0.610907428251294","0.0468099079795177"
"5093","-2.12145879362236","4.23296150425265","-29.6183895614754","0.568955404956948","-0.192152053762892","0.0122379467882287"
"5093","-2.03478842872605","4.06672521968072","-29.1676344113139","-3.2482813540662","-5.11683223255644","1.74176023905182"
"5101","1.41719252995861","-2.83520183072815","-32.503278279733","-2.3652676754966","-3.66581881664384","1.1939252335021"
"5101","0.40591463037946","-0.81206320160663","-31.4075120040234","-2.10688333549811","1.84696996342461","-4.16498261286302"
"5109","0.1162627403638","1.48098585819821","-25.9237158975915","-2.0312758236591","0.580937561565262","-2.56601140991884"
"5113","0.0333001665504498","1.13776476570475","-27.437156309047","-0.301768284591251","-3.18820359656102","-0.409416833562916"
"5122","-3.41761880047454","4.46661550154329","-29.5763408724373","-0.79568590461231","-2.37373217415477","-0.845598385537457"
"5122","-2.40603672348626","3.42007043971303","-29.1562357596022","-0.940214331928974","2.93884157217495","0.778927400349782"
"5130","-2.11629771047356","4.83389561535659","-27.3134349493845","-0.98250572923069","1.60983444100641","0.203642187921945"
"5134","-2.03331018274717","4.23884576253899","-27.8138844261633","0.71250264797342","-0.493649970924274","0.0532400589361915"
"5142","-2.00954075768243","-2.78590277992306","-27.9495473782222","0.20849000520809","-0.155270424562709","0.013919040570393"
"5142","-2.00273267960869","-0.797942885867884","-27.9863231915966","0.0610076080352908","-0.0488380556343279","0.00363898339467362"
"5150","-0.287204353966398","6.62576525635814","-33.1830458191085","0.0178518305204746","-0.0153613006782139","0.000951373054754769"
"5150","-0.795839891137255","4.75207603128488","-31.5917848934648","0.00522373951700251","-1.69029620603782","0.000248726248830438"
"5163","-0.941524123663232","2.50183251717851","-27.7025867866068","0.00152855218461754","-1.21712264012664","6.5026801577019E-05"
"5163","-0.98325124270162","2.85731404492906","-28.6482943539035","-3.41431979311791","3.9881008252315","1.70005576139238E-05"
"5171","-2.70878113786022","4.67270999720414","-30.6335766410539","-2.4138532563658","2.62532822321288","4.44461287000287E-06"
"5171","-2.20301026678631","4.19267871096926","-30.1717513584671","-0.413716740031227","2.19668790525302","-1.73855959754248"
"5183","1.36901015263548","-1.08554767860559","-26.5887231660705","-0.828443865756882","2.06186532230075","-1.19308846021691"
"5183","0.392114154107904","0.402653981583816","-27.6174279515776","-0.949799850676258","2.01945883809405","-1.05048090038095"
"5191","-1.60126835954517","2.54248550923956","-33.0830448807848","-0.985310609828998","2.00612049474388","-1.0131976882534"
"5191","-1.17221627885011","2.15537959755942","-31.5646764177223","0.711681893731717","2.00192511267779","5.95079264456197"
"5199","-2.76290481631701","3.75808242619115","-32.881991519598","0.208249839004337","2.00060551621679","3.77145298775308"
"5203","-2.2185124603635","3.21713122340091","-32.2390922136831","1.76832086777641","-1.37073860795764","1.46312732363107"
"5212","-2.06258670061177","-2.07854394951747","-26.8780602879787","1.2248233352954","-0.431145909364855","1.85964041526568"
"5212","-2.01792618639208","-0.595339998737145","-28.4247798853209","-4.05636359965361","3.23531838396709","-4.99093854137919"
"5220","-0.291556103329857","-0.170518267933966","-27.1151502716893","-2.60172584455785","2.38855144585456","-2.78194870052462"
"5224","-0.797086326393602","-0.0488401245689485","-27.7601329767716","-2.17607488873555","3.80767774295082","-2.20443207434486"
"5232","-0.94188112971264","5.12674616462548","-31.3928118887317","-2.05152241128353","3.25404329675746","-2.05344656624265"
"5232","-0.983353496965261","3.60914615697989","-30.3775665302006","3.10707430318934","-3.66195250136659","-2.01397302968374"
"5241","-0.995232081045012","1.4608943059812","-31.8312693570652","1.61656463129687","-1.83727847543287","-2.00365309826746"
"5241","-0.998634364760341","1.84558845471088","-31.2253423375751","2.88780049836269","0.422110755144457","3.21472721537971"
"5253","-0.999608852494053","0.24219484494258","-24.1454151549212","2.25978504227859","0.132768803857217","1.57901660101785"
"5253","-0.999887966883861","0.782948193056192","-26.2261728207239","2.07601738038687","-3.32916856644602","2.88993841992329"
"5261","-0.999967911289421","0.93783166215859","-23.3323936427399","2.02224393702654","-2.41807065690912","2.23266482456208"
"5261","-0.999990809098398","0.982193641765146","-24.5479415769315","3.71389247851724","-2.13149804966857","-1.41629380406182"
"5273","-0.999997367526749","6.13563490735062","-31.7931261467198","3.20889669250693","-2.04136080057491","-0.370274776403973"
"5273","-0.999999246002654","4.61169208538519","-29.7571668192679","1.35374307510814","-2.01300943875981","-0.096804356305034"
"5281","0.71357856061183","0.748045170358792","-30.9341722437837","1.81089458401354","-2.00409192990688","-0.0253084573857335"
"5282","0.204384352552238","1.64141302527157","-30.2532374799129","0.237281105586153","3.05510653933857","1.73194413566252"
"5290","-3.36861658471581","0.183714580460909","-33.5264837490767","0.776815894339549","1.6464038968487","1.19135891888772"
"5294","-2.39200142773286","0.766198178898085","-32.4138025940253","-0.772690880072882","-0.482147580021609","2.7885894899482"
"5302","-0.398699353179887","0.9330340953763","-26.9254211646553","-0.226102072839803","-0.151652514658655","2.20616823728782"
"5302","-0.827774473375156","0.980819514745714","-28.4376185766178","-1.77354472531002","-0.0477000946499884","-1.42322105171362"
"5310","-2.66424922422136","11.275976361567","-32.3053839711565","-1.22635192201362","-0.0150033715876006","-0.372085830768547"
"5310","-2.190255362366","8.22473222771467","-31.3538663767566","0.641149237360998","3.36620997178243","-0.0972778369825422"
"5322","-0.340914911177295","-1.21710189123159","-25.9091735221914","0.187610822523629","2.42972149266673","-0.0254322438144344"
"5323","-0.811223757843335","1.07855235088596","-27.4332141297297","0.0548980154337681","-1.23576641353966","-1.74520974604477"
"5331","-2.65950874088152","0.0224990943723391","-29.5752722177408","0.0160640631389303","-0.388692367045785","-1.19482706999031"
"5331","-2.18889758528064","0.720022572504648","-29.1559460663212","-3.41006646330477","3.24867152876264","0.687625318339129"
"5343","1.37305233023375","2.63338674640699","-32.5001097772968","-2.41260866203704","2.39275148350021","0.179772240948544"
"5343","0.393271921306816","2.18141568038222","-31.4066530793686","1.29403098508632","-2.93285932481165","1.78556027766831"
"5351","-3.31451509459821","5.47911806878273","-27.6524008445973","0.378654770740081","-1.60795281203315","1.20537628233017"
"5351","-2.37650558937651","4.42365144571786","-28.6346898376421","-5.01134998901195","3.8651708742579","-0.684867340277529"
"5363","1.31931733514383","-1.01939208557834","-25.4431353400599","-3.5885541209947","2.58666239356965","-0.179051197258911"
"5363","0.377881055062972","0.421602376049301","-26.5779616814007","-1.46483708923966","-4.5573319981323","-0.0468110090150567"
"5372","-5.03250171663569","-0.879243949552745","-30.3434284906923","-1.84340252156402","-2.80437161650054","-0.0122382346421237"
"5372","-3.58215250617917","-0.251834507486787","-29.3641795693352","-5.36894407229256","4.48885472584075","-1.74176031430812"
"5380","-3.1667410844856","8.49576086674486","-25.6408870314697","-4.40057557340125","2.78283308562269","-1.19392525317705"
"5384","-3.04775825743311","6.0012616141585","-26.6315686476902","4.41970267390906","0.56076423869889","2.42642184818052"
"5392","0.413477690150733","3.57320466431437","-33.8157959581944","2.00066130325458","0.861844774319231","1.37292264456572"
"5392","-0.595149380187668","3.87775657345754","-31.7633122019488","-8.95149124606472","0.956545281453484","-2.37962490613131"
"5400","0.829536329346515","-2.88932654318851","-26.0201670029146","-6.15627139466082","0.986331949771338","-1.36068808758047"
"5400","0.237597168623843","-0.827565691344835","-27.4633024882012","-1.92357697389993","-0.689763618715469","0.644262739878218"
"5412","-1.64552537030711","-0.237032735225307","-27.8545108503621","-2.68502090068572","-0.216955122524034","0.16843556137128"
"5413","-1.18489244513336","-0.0678913083952138","-27.9605604792327","7.33646928813059","-0.0682400809672669","1.78259642477028"
"5421","0.66062114445398","1.69413280371627","-29.718226433602","4.26892230792214","-0.0214639257937008","1.20460141487967"
"5421","0.189216201753283","1.19881466667269","-29.1946984116286","1.66392402209442","1.6787133662005","1.05349083850345"
"5433","0.0541956177250896","4.48410151523744","-27.3238614902444","1.90165863581961","1.21347942617929","1.01398460418998"
"5433","0.0155227985415001","3.42507881270077","-27.8167108759418","1.97122369778069","-0.618317680950751","-4.21202615431851"
"5441","-1.70913227899675","4.83533012183835","-34.8659847232962","1.99157958020698","-0.194482841062661","-2.57831043766557"
"5441","-1.2031108412119","4.2392566362601","-32.7769174835003","-3.12461456244155","-1.74663628354607","-0.412632282035435"
"5449","-1.05817534335931","2.35494993716027","-27.0238551527569","-1.62169719993117","-1.23484359276485","-0.846439029943855"
"5453","-1.01666267814549","2.81524369321825","-28.4643022800253","2.23284823653305","-1.07386663932373","5.99438990153076"
"5462","-1.00477255185698","2.94708179277534","-28.8547818761431","1.36075169122059","-1.02323367795878","3.7828510215012"
"5462","-1.00136696220312","2.98484307948859","-28.9606339495014","-2.30920518850346","0.678156716375267","1.46610721691693"
"5470","-1.00039152757702","-0.431497959564199","-27.2604107776797","-1.38309499248307","0.213304340066077","1.86041947630299"
"5474","-1.00011214197672","0.589987984792422","-27.7995105163128","-1.11209990195148","-3.30383728388538","-6.72929562379202"
"5482","0.713546224760055","4.30972036919245","-29.6745686531217","-1.0328022768872","-2.41010307009747","-3.97498421533985"
"5483","0.204375090864046","3.37513227618885","-29.1828635638465","-1.00959848626318","6.29833069968739","-3.25489913272021"
"5490","0.0585374518374513","1.39386766287031","-32.5074066321158","-1.00280867510695","4.03744198977627","-3.06664063565262"
"5490","0.016766393855215","1.82639057263855","-31.4086311269267","-1.0008218645774","5.01177683377181","0.459699041908513"
"5503","-3.42235443101907","0.236696155780221","-29.381854844311","-1.00024049110626","4.31823969977821","-0.618377391181345"
"5503","-2.40739311062595","0.781373249404058","-29.8324318427478","-1.00007037165706","-2.64176045570767","0.838331884531106"
"5511","1.31047048017792","-0.776197780459999","-23.0389041081593","-1.00002059190543","-0.830927360904532","0.219172851146306"
"5511","0.375347124219003","-0.222319853157835","-25.1972995703738","5.82952811977488","-1.94682065836014","0.0573003837334288"
"5523","-3.3196491446519","3.36347946894284","-24.0534844043182","3.82796651227366","-1.29780867875484","0.0149805688014089"
"5523","-2.37797609249154","2.39053004652944","-24.7434164569289","-5.29464104877006","-2.77913592424639","3.48103802760651"
"5531","-0.394682193443239","3.82543460704128","-30.1171981237285","-2.96406621276512","-2.24506588245774","2.38720145703175"
"5531","-0.826623871833582","3.23642234653139","-28.5739347544278","1.13266542672614","1.29384715228933","-1.3758918642455"
"5539","-2.66391966702318","3.0677164798551","-35.0712546486164","0.331436551694002","0.406960819381946","-0.359712123945231"
"5544","-2.19016097004776","3.01939546625453","-32.8325625092821","0.0969837916888858","0.128003611724138","-0.0940428644689638"
"5552","-2.05446621982392","1.29197693690023","-30.4967751019381","0.0283790541576631","0.0402616759011538","-0.0245864950575713"
"5552","-2.01560030484259","1.79720686224146","-30.8635846805955","1.71568771479637","1.6981282572084","3.47069364448393"
"5560","-2.00446826513697","1.94191565378971","-25.7762668746118","1.20942200819839","1.21958609800587","2.38449702936515"
"5564","-2.00127980789707","1.98336338540856","-27.3971855014754","-2.35348674519827","-3.98732598035491","0.361961851778156"
"5572","-0.286788220045746","0.28165656865865","-27.8365877112309","-1.39605250500907","-2.62508450701711","0.833191791143544"
"5572","-0.795720701370855","0.794250885285887","-27.9557018349988","0.591492052881514","-0.511146715723264","-0.782170970964838"
"5581","-0.941489985133039","2.65464734262758","-27.9879915553643","0.173080312805253","-0.846238303516142","-0.204490184559928"
"5581","-0.983241464687291","2.18750517554544","-27.9967447242439","5.17279675804367","-0.951636492857824","3.42365976054425"
"5593","-2.70877833722517","0.340127198115631","-31.456953125047","3.6357961036203","-0.984787961653786","2.37220052647201"
"5593","-2.20300946462378","0.810998139764273","-30.3949540785366","-1.93610620152021","2.37571378988248","-6.59549597475334"
"5601","1.3690103823922","7.80017915292983","-28.3781472397552","-0.566536549985457","1.43271078053926","-3.94000373672119"
"5601","0.392114219915203","5.80203194825687","-28.8314267770969","-1.87316145812497","-0.549361644338014","0.231367656118217"
"5613","0.112310003954127","1.80256262896146","-25.4964672251431","-1.25550141809265","-0.172793721825047","-0.678072175255837"
"5613","0.0321680172448317","2.65702800600998","-26.592419006875","-2.78214745775223","-0.0543497541371505","2.56128608506187"
"5621","-1.70436472790209","1.18818704909225","-30.3473476144874","-2.22886922315879","-0.0170949253454909","1.40818144822138"
"5622","-1.2017453113354","1.76747919076697","-29.3652419740897","-0.359587366398103","3.36555210394264","-0.631846111745304"
"5630","-2.77136257068232","0.219822660265647","-27.3700928167052","-0.812604719863488","2.42951456989795","-0.165189367543121"
"5634","-2.22093494436935","0.776540314887244","-27.8292433662656","2.46960201683539","-1.23583149808954","-1.78174774232145"
"5642","1.36387613681054","0.935996307086163","-34.8693820585176","1.43002974517403","-0.388712838445134","-1.20437953598486"
"5642","0.390643660796735","0.981667956327148","-32.7778384406531","2.83321731963366","-0.122263974502716","0.68512792888498"
"5650","-3.3152678853242","0.994749305705285","-32.2108581664689","2.24381310554283","-0.0384563564223791","0.179119325346516"
"5654","-2.37672120494238","0.998496087448374","-32.0571598985636","0.363960192414877","-1.69756042020152","-3.43029269870686"
"5662","-2.10790111112479","0.999569246877463","-28.5576594594376","0.813884280748776","-1.21940749312724","-2.37393463678727"
"5663","-2.0309052148624","0.999876622977596","-29.6090071332148","4.36030654905134","0.616453093639784","3.11792109119225"
"5670","-0.295273578149152","2.71354300679967","-29.8940087880929","3.3980480918955","0.193896362220444","1.55370768143828"
"5671","-0.798151091685064","2.20437416917051","-29.9712676676332","-7.12782579293563","6.80284541157532","-0.593799843865883"
"5683","-2.65576444620064","3.77211553249512","-23.0765400309236","-4.20786978618968","4.88159429286323","-0.155242580166337"
"5683","-2.18782513820003","3.22115060893819","-25.207501999635","3.47609155989236","0.906363609082416","-1.77914726178464"
"5691","-0.340218842348809","-0.363814365807734","-34.4297568186447","1.72454515598786","1.6560125661163","-1.20369966832848"
"5691","-0.811024388657243","0.609374031756141","-31.9297460711845","-3.91013676766203","-4.85005437702222","2.42386643250737"
"5703","0.767705052072107","0.888116263553156","-27.7942020508406","-2.55893746608627","-2.89644318689716","1.37225455863307"
"5703","0.219887351834543","0.967954075000226","-28.6731296225496","1.25121276791184","-3.96742770934082","-0.641238810471407"
"5712","-3.36417618999849","4.41797804241569","-21.9957201096451","0.366125455449675","-3.30429032717622","-0.167644987563955"
"5712","-2.39072960252752","3.40613961815772","-24.1855931564559","0.107134336034586","3.64614802814536","-0.0438289782158651"
"5720","-2.11191341954992","1.40274883708502","-29.9659821485286","0.0313492705484645","1.83230740805398","-0.0114586147749508"
"5724","-2.03205442688329","1.82893433325857","-28.5329427931091","0.00917331268664","-2.10913886429032","-0.00299573154350182"
"5732","-2.00918108200919","-1.47615360074284","-36.7890602431969","0.00268426231853717","-1.34886351159895","-0.000783201779359086"
"5732","-2.00262966070697","-0.42280235787465","-34.0271468389371","0.000785459347222764","-4.48065901212351","-5.21588703829441"
"5740","-0.287174847122035","1.5924785934226","-29.8206056665885","0.000229838336543734","-3.4657197751163","-3.57931982423974"
"5744","-0.795831439738048","1.16969869948715","-30.6802871731588","3.41483432713397","1.90990820906939","2.06422534378267"
"5752","0.772056641651181","4.47576207171906","-25.7265781805124","2.41400381749002","0.600733872105301","0.539669506019517"
"5753","0.221133741325182","3.42269021548354","-27.3837157802782","3.82852786934768","1.87441664166283","0.14109078575387"
