Timer,AX,AY,AZ,GX,GY,GZ
"1011","4.04898341030706","3.86811071714846","-27.4542288534464","3.11468524822124","-0.769629413155876","-0.970271558924422"
"1011","4.15960694661756","4.12333898716715","-27.7230970641798","4.9235384669682","0.855591017845734","3.62075741450351"
"1020","-0.920069534491575","2.42734725663401","-27.7809146156503","4.35118624193444","0.501168825278567","2.98730145657668"
"1020","0.568366769606452","3.01211240960662","-27.7940937170219","-4.56713281880618","5.01218059430673","2.65595227472959"
"1028","7.81770865735708","3.15544744424335","-22.4830893841316","-1.74495540202088","4.02861096556769","2.45367381645751"
"1032","5.98347577297114","3.1905871548288","-24.2686671629915","-4.56727336607189","3.58793731222943","-0.302476666227592"
"1040","0.331768035901117","3.19920202049068","-35.3049870942539","-3.25655149110075","3.39015745832457","-0.200808430460259"
"1040","1.64324220106061","3.20131404575793","-31.828578495977","7.59821334453298","4.85235623512853","5.08603488390139"
"1048","0.333827246027352","1.44699239817524","-23.9483041647505","4.24920948917681","4.50889193125606","4.76572274163157"
"1052","0.942621311160435","2.01690190814793","-26.1463817039457","3.43130173579085","-3.40028221584548","-3.27175855063602"
"1061","2.82574309530508","0.401781813959463","-17.7923114073708","3.23154887731186","-1.95157118769714","-2.87872232031744"
"1061","2.38835192770025","1.00581805567994","-20.8820496227797","-2.08456303303872","0.249904000765307","1.30149017402645"
"1069","0.556439143811575","4.66358278900261","-26.9025693787103","-0.38288615774595","0.238386083758086","1.21921095112254"
"1069","1.00912971269049","3.56032246546413","-25.2792358903443","-5.23462293172004","3.3351965022311","-1.44205767698847"
"1081","2.84561340556681","5.0446859717165","-28.4507157498694","-3.41953441493742","2.72569214879782","-1.29984347233442"
"1081","2.39428845934192","4.40859337074128","-27.1759139539994","4.04685734807712","-0.649962837148445","2.7051217100237"
"1089","2.25944885248859","-2.76670918352994","-30.4270899076748","1.87033082785311","-0.165662195620088","2.50100571434087"
"1089","2.21916364395217","-0.525810427087997","-29.1705116121623","-0.417005408440961","0.0517931351936098","1.05662113238736"
"1101","2.2071278774241","1.7784090157963","-23.5691666076649","0.0243717522280301","0.149432528671257","1.04828259915686"
"1102","2.2035320247233","1.34331276121336","-25.2883496017571","5.39949416204041","0.193273491884366","2.34435057245802"
"1110","2.20245771370075","2.99148374954895","-29.224137310526","3.71222907817414","0.212958477493108","2.24914971409421"
"1110","2.20213674833615","2.39555028378193","-28.1241039837065","5.05593394002836","-1.329193820357","3.48457782911418"
"1118","2.20204085546797","2.24945089734079","-24.3298925253576","4.38409917137539","-1.021634030717","3.34704398018416"
"1122","2.20201220613947","2.21363308890305","-25.4622990177337","-1.04730656105248","0.667454105654596","1.94914128359876"
"1130","3.90323973400954","0.45001254180627","-25.7212378068765","0.626212773943309","0.42586982509829","1.97324973354649"
"1130","3.41150512670457","1.01764232827211","-25.7804473724999","1.03492667780965","0.317396316819447","1.99008011277893"
"1138","4.96582865864983","8.17616050011067","-29.3366615690443","1.13474449988105","0.268690738910054","2.00182958945469"
"1142","4.43020443872457","5.93114687495255","-28.1498340509978","-0.596653383489256","0.246821497681219","-0.593745495516211"
"1151","-0.833529010747644","0.11623976278669","-22.5644384268514","-0.0195026289447792","0.23700201226592","-0.405745628447545"
"1151","0.593857388244192","1.69065383734073","-24.2872684445729","1.87722735663528","0.232592975262198","2.32927671580735"
"1159","4.4227811083163","3.83147751762774","-24.6812148955082","1.34045470081695","0.230613278111275","2.23862654977757"
"1163","3.56672534052509","3.35632306521927","-24.7712956374318","-0.546413976312135","-1.32126665656717","-3.0322123980062"
"1171","1.60973068255678","6.74951279592433","-24.7918937162982","-0.00723295042604029","-1.01807466309174","-2.71184430094636"
"1171","2.02505130132218","5.58138911469483","-24.7966037224985","-1.63132771127415","0.669052293635522","-1.18630297012067"
"1179","2.14913411442797","3.54017181765607","-26.5690183213412","-1.02797093855827","0.426587425832828","-1.12130542302068"
"1180","2.1862055811758","4.03974582747177","-25.9743029017223","2.63093500068311","1.8687095588896","1.52784761900071"
"1191","3.89851728488811","4.16222167504324","-31.1523266376017","1.52452833960372","1.51623532827746","1.37725112888807"
"1192","3.41009422932731","4.19224792329399","-29.3363459852019","-4.01301036120401","-1.74401082774821","-0.0297707352374469"
"1200","-0.138301128337729","0.6899303096106","-23.6070866938197","-2.36541126443215","-1.20789058673894","-0.0120285107365412"
"1200","0.801566390642018","1.83130013715908","-25.2970204997599","-0.207251899645005","-4.06914985689604","1.30224629754503"
"1212","-0.618871199181723","5.62079787712312","-30.9974576164043","-0.680177177111204","-3.3538809263787","1.21975631106635"
"1212","-0.0432466913267612","4.54983329220301","-29.3009332627435","0.960098840220775","0.0692633031187537","1.16216912448063"
"1220","3.53120131342268","4.28727500718433","-23.5989891356236","0.360693921761182","-0.39371424217928","1.12196686235859"
"1221","2.59911738522322","4.2229060691236","-25.2951688926485","-1.54147106897288","4.05137778713519","-1.5098763125623"
"1228","2.32064434382814","-4.5670718205707","-22.1403462359274","-1.00602577288538","3.04726396785743","-1.34719560970811"
"1232","2.23744664838709","-1.7220277850972","-23.4189569078094","-0.875257079214236","1.04541682611272","-1.23362638283493"
"1241","2.2125901793658","5.99482255562551","-30.7966774859293","-0.843320200938511","1.14656950871695","-1.15434242926033"
"1241","2.20516396342399","3.88668996163978","-28.4836847982274","2.67603117749219","-0.359003062653643","-1.09899341027443"
"1249","2.20294527809233","6.8795378450395","-22.6407775407863","1.53554191685237","-0.0350186478104834","-1.06035363810641"
"1249","2.2022824149815","5.61326612947744","-24.3047243297692","8.2801100914983","3.21243532546405","-2.3352675408906"
"1261","5.60455654991599","0.0383079389452594","-24.6852064001548","5.9272967901564","2.6705712796908","-2.22529926394542"
"1262","4.62103328269826","1.67154802721003","-24.7722083444738","-3.42619618285767","0.876278431286988","0.455248349956073"
"1269","4.32719202310908","0.317114660647127","-23.0207648205739","-0.710545426899466","1.07062485276024","0.326568763296244"
"1269","4.23940285866846","0.985061008356319","-23.6202755365721","-1.80309363108534","1.15788813872444","-1.0651526642257"
"1282","0.81070244989252","6.41333341237545","-25.5286986947205","-1.06992033117607","1.1970701366205","-1.03672903298646"
"1282","1.78633050013812","4.74413175349875","-24.9650833190316","2.62068994425436","-1.8873188607866","1.58689134734651"
"1290","2.07781295381274","7.84458819388214","-33.6928936606922","1.52202624899696","-1.27223717862984","1.41847021918251"
"1290","2.16489739216892","6.60469785317859","-30.6886157418998","4.76525761825943","2.10592207796519","-2.60477274901937"
"1302","2.19091507971136","1.03620733546848","-24.6876375427111","3.55733317206614","1.62274587644946","-2.41344387844784"
"1302","2.19868822584211","2.67103304207034","-26.3154394503901","-0.249222817468181","-3.24717766943439","0.323902480197042"
"1310","2.20101056139446","3.07182783946493","-24.9163189478697","0.821124129690163","-2.43381701060062","0.234874735548589"
"1311","2.20170439145079","3.17008691929826","-25.5963926923893","-0.673247064334329","1.03337128450869","0.172723466513004"
"1319","2.2019116828332","4.9490156039029","-29.2945751837006","-0.0382086586003977","0.590169919617681","0.129334967141412"
"1323","2.20197361401768","4.38513876911025","-28.140210477013","3.62843470179943","3.49315059836423","0.0990449681288292"
"1331","2.20199211682068","2.49205897163245","-26.104913072322","2.52391770613435","2.79661495442335","0.0778991794182159"
"1331","2.2019976447905","3.02795045485422","-26.6395170779822","5.76571955784653","-0.618117861418118","0.0631370666823207"
"1339","0.500763209092846","3.15932991480277","-28.5330985118069","4.55744598888759","-0.151363515962606","0.0528314698843208"
"1343","0.992495752588216","3.19153897771342","-27.9660893917771","-4.51652269518031","-3.04376869523389","-1.25625174502459"
"1351","4.54187986581777","1.44459593697672","-26.0650981266477","-1.73260534619769","-2.34248455719711","-1.17013744886944"
"1352","3.60230775131923","2.01631439036016","-26.6304128968493","2.45884623330381","4.17636244088471","2.79564619494038"
"1360","1.62036142283052","3.91131664349892","-28.5310167278764","1.48250009980014","3.10338319814016","2.56420432428111"
"1363","2.02822738288173","3.37589647059727","-27.9656133660621","2.9998285663891","4.17259692954721","-1.50303413248574"
"1372","2.1500830129819","4.99947199022082","-22.5223140824455","2.37039688194947","3.65268348268948","-1.34241900690404"
"1372","2.18648907782057","4.39750868539545","-24.2776361907777","-3.05065299158726","-2.78472644868483","-2.53218054470741"
"1380","2.1973658961994","2.49509158732432","-26.4503499587233","-1.37460450534309","-1.67518123273474","-2.36276644482426"
"1380","2.20061549701647","3.02869393263714","-25.9471679088264","-6.23260035187094","3.47598761734025","-2.24449655781502"
"1392","2.20158636047143","1.40467275337097","-34.6887970799531","-4.41904045201228","2.78890862204151","-2.1619310205733"
"1392","2.20187641943598","2.0065268000256","-31.687679007906","1.29120217566937","-2.17256910666653","0.499486432788398"
"1401","2.20196307858715","0.399238246568205","-23.9160857493563","-0.314218444469668","-1.40031709689582","0.357451866070409"
"1401","2.20198896921423","1.00519447325575","-26.1390145636755","-2.46207680497007","2.04841304615904","-1.04359282311381"
"1413","2.20199670439928","4.66342991118184","-24.8759772094144","-1.98663577307682","1.59692380547958","-1.0216778656161"
"1413","2.20199901539344","3.56028498585089","-25.5871680535535","3.39680585809006","-4.80976304375437","4.20117626037246"
"1421","2.20199970583509","3.28983735032655","-25.7497906606037","1.71157252931967","-3.68642288842648","3.84730942031845"
"1421","2.20199991211414","3.22353425462154","-25.7869763366312","1.29999778481326","-3.18203308558699","3.60027100251044"
"1429","2.20199997374288","3.20727935007581","-32.8808296926869","1.19948127625412","-2.95555754120106","3.42781070681342"
"1433","2.20199999215532","3.20329428845868","-30.5029272439995","-4.09239471692897","0.248114074866929","-1.90014081160516"
"1442","2.20199999765629","4.95715674135928","-22.873839967157","-2.38479884439958","-0.313408641892588","-1.61964364229424"
"1442","2.20199999929978","4.38713465498616","-25.1293545416228","-1.9677626257596","-0.565537376944846","1.17995210777666"
"1450","-1.2004721747203","2.49254828414572","-29.1877811180915","-1.86591229310453","-0.67874543984549","1.13438136284326"
"1454","-0.217008074434655","3.02807041498748","-28.1157906893991","-0.085262168018124","-0.729576875235271","1.10256791367984"
"1462","1.77805159546593","-0.350319541436353","-20.7853163924901","-0.650384333728875","-0.752400645535565","1.08035858729834"
"1462","1.37410342860409","0.82143246084938","-23.1091125283623","-2.54417664694541","0.788342309842253","-2.8408122789465"
"1470","2.95465438098204","2.86353927913603","-32.4971653232359","-2.00668654047392","0.480149712794492","-2.57822572690937"
"1470","2.42686596780645","2.36418334485393","-29.6438600300215","-1.87541845464326","0.341768473127922","-2.39491110397661"
"1483","-1.13329033812618","0.486921527937251","-20.1347283990893","-1.84335961272193","0.279634055639986","-2.26693710561194"
"1483","-0.196936566068437","1.02669095624429","-22.9603475147597","-3.59130587812764","1.80272617792827","-3.47948578114749"
"1491","3.48528432509566","13.4428971654763","-30.6918107603097","-3.01819663877987","1.48660819854662","-3.32597963819772"
"1491","2.5853990461292","9.48686132137539","-28.4597057208059","-1.12245368897468","-1.75731367466663","-1.91692651272818"
"1503","0.615309711908501","-2.01203926696427","-29.7206448173706","-1.65946740280553","-1.21386368429319","-1.93325069085605"
"1503","1.02671811396061","1.1688837433891","-29.0089741805856","5.23248409838248","-4.07183183125923","-0.642758021089111"
"1511","4.55210427240474","3.70356006548137","-21.7608914729591","2.91566537056965","-3.35508515691729","-0.741850585728975"
"1511","3.60536243503664","3.32496275010482","-24.1035274675818","2.34984219363132","-3.03325947300263","-0.811028218709317"
"1519","3.32251013934568","3.23214561755197","-24.6392002422734","2.2116544866186","-2.88875685508364","-0.859321901713235"
"1523","3.23800408075629","3.20939051669562","-24.7616884658833","-6.60097334469522","-1.27288285096384","-3.49681378848337"
"1532","1.51152063278597","8.46833016186465","-24.7896969173708","-3.75323023766174","-1.54734093341925","-3.33807651485158"
"1532","1.99570968258182","6.75761478779401","-24.7961013971779","-3.05774248431168","1.43140699227784","-1.9253714782653"
"1540","0.439131810351302","-9.4553400593172","-24.7975658609173","-2.88788755116646","0.768891521629813","-1.93914621620229"
"1544","0.974082514752279","-4.43011726454135","-24.7979007287143","-2.84640486771906","0.471416134470052","-1.94876251555703"
"1552","2.83514256758006","10.8405846687307","-28.3406524954079","-2.83627379295936","0.337847018145426","-1.95547576220484"
"1552","2.39116015081529","6.58435861521508","-27.1507466258083","-2.83379953943339","1.82886432009434","-4.56393987907257"
"1560","3.95975031404845","3.786060389221","-25.1073222934186","-2.83319526687041","1.49834445876237","-4.38493799305694"
"1560","3.42838844870845","4.10002800912822","-25.6400679762663","7.70160717172466","2.90092911012706","2.24946904504727"
"1568","3.26963669873628","4.17700048888616","-25.7618868840228","4.27446076301566","2.53070219569884","1.88102315601572"
"1573","3.22220740475957","4.19587110567728","-25.7897422881392","5.19324451779321","2.36446699126086","0.321918178307076"
"1581","-0.194434931198718","-4.57369972754163","-29.3387869667854","4.4176337359943","2.28982589382143","0.233489472099558"
"1581","0.784795636062043","-1.7236526865291","-28.1503200495516","-8.06221984958681","5.35829343756846","-1.13013236343801"
"1593","-2.32511778269526","-2.77977297046464","-27.8785623489761","-4.11010198155874","4.73606287994915","-1.08209209125041"
"1593","-1.25424768397967","-2.03869201823524","-27.8164215802672","-4.90067500696504","-0.196297318738754","-3.65233216129744"
"1601","7.57187009303139","8.67202840550527","-22.4881995302738","-4.09375206364933","0.589028723110628","-3.44664563863327"
"1601","5.20879557443456","5.29787469899557","-24.2698354753182","3.1264212789032","2.49263819089934","1.90450148222843"
"1613","13.0089746214296","6.22550469557949","-17.5918782408388","0.889762264404127","2.34737591178236","1.64019742365592"
"1614","10.3393866336171","5.45292299163185","-20.0648804958724","0.343516028512231","-0.819830219932844","-2.44998249579942"
"1618","9.54181008096269","5.26351642293524","-20.6303631328734","0.210109484067238","-0.241934173709488","-2.30538306313742"
"1622","9.30352298937842","5.21708140113482","-20.7596677512168","-1.57824743127978","-6.18641779852899","-4.80821409812248"
"1630","12.6348035800513","33.2831282907228","-29.6459228434467","-1.01500745017714","-4.85554425081904","-4.55546857053678"
"1634","11.6300700037704","24.1638162633636","-26.6778752819815","-0.877450622074733","3.49698507069929","-0.473357791458441"
"1642","-9.08494117781161","-16.6783469681969","-2.97180562824958","-0.84385591716662","2.24734563398031","-0.623590381698877"
"1642","-3.27383897096611","-4.69123486899652","-10.5511187876147","4.43167615273334","4.78822838706975","1.87530808267509"
"1651","-108.715564835391","-1.75246766846627","-113.250465801893","2.72008869878039","3.92910752754253","1.61981718335143"
"1654","-77.2177474211739","-1.03199783491158","-79.7339452244072","-8.23257722121707","6.64533662360802","-3.76609893255936"
"1663","54.6816620348074","-0.855367041914883","0.554864391850828","-4.90748318274111","5.86494784442428","-3.52606750016566"
"1663","22.0884456925588","-0.812064136530612","-22.0861035081748","-4.09541478486291","10.1675193834675","-0.754721335791851"
"1671","12.3507688492222","-0.801447971688085","-27.2632416229102","-3.89708803825015","9.09941258606333","-0.820013433970091"
"1671","9.44150241446591","-0.79884530669451","-28.4470584622519","6.68600301139417","-9.99206933865234","0.43629418050671"
"1683","-40.7635279392089","37.8082602871991","-34.0317656573725","3.27064984959992","-6.56431591797122","0.313336644596111"
"1683","-26.7629792471267","25.2732001899727","-32.3087782218161","-4.58656524996343","-28.29008938868","-3.67816767893244"
"1691","-151.874063170733","-51.5031584329151","111.56354962291","-2.50548724250089","-23.0451564940909","-3.4646817038346"
"1692","-113.252740131449","-28.3256940553309","63.4617417598196","8.53741720860204","11.8806770984048","1.89191030242153"
"1704","-438.558827821463","51.0597624365912","-462.9965740655","5.23436160228281","6.56268956468388","1.63140737953267"
"1704","-337.748547419322","28.5219459722856","-292.377797373341","16.7181061933656","13.48081167258","7.95899117137226"
"1712","594.025052643928","-119.145431956253","529.567520114215","12.522714413107","10.5871105344797","7.37634852603441"
"1712","342.405379190808","-74.3476500762992","275.515511126925","-7.81543565686005","29.4506962031535","3.06393286165946"
"1720","267.230501026473","-63.3650004642964","217.423368394295","-1.7825038817017","24.9206153199423","3.05338702330103"
"1720","244.770960286009","-60.6724878567916","204.139879471217","-19.6226499173425","-88.7847859874825","9.55546866487662"
"1728","-37.5393861194547","120.736071646349","-96.4822714009498","-12.9796451305414","-67.8395307815889","9.09464492945161"
"1729","40.1164701802077","62.2102969769719","2.77674533868967","30.7813567744688","-59.9859144089666","-2.94406015672625"
"1741","-329.668298500216","93.4879101216469","-146.346196383156","17.4688520138017","-55.4595702335394","-2.34841546872059"
"1745","-209.146642864481","75.155947498771","-83.4450065037583","54.6004599554962","59.7951442914886","9.78440963957578"
"1753","168.809332082055","-115.351306738391","23.0476857640724","40.6688968246301","38.5455446131367","9.25447119673472"
"1753","80.7289380022265","-56.056173230179","-4.60143937425944","-50.5223184001539","44.5141941394449","19.29962531008"
"1761","185.408873549541","18.1451960464065","130.783253045584","-22.7934190641513","37.1941712982014","18.3122602843534"
"1765","139.683460679493","2.33644582032062","81.7406420747744","-40.6022124285219","-57.6010555382808","-26.6412482431113"
"1769","126.022357418583","-1.53923635077506","70.5264408257707","-30.9515505609787","-41.1649624256135","-24.0237977350292"
"1769","121.940912755947","-2.48940078986925","67.962174626159","36.3690794894025","17.3976948518567","-0.0644171668653186"
"1777","-471.308633986043","237.690658660112","-247.92226900032","15.8104058268136","10.6928531063197","-0.338104335983252"
"1780","-300.550189804552","159.573338248976","-142.153164789398","84.532064430536","72.8239424216576","-5.73672347232766"
"1793","252.330916853652","-219.320032063627","73.3367132197646","59.3155558314094","58.7213586595903","-5.50556016125559"
"1793","122.511839561339","-107.209745612507","14.6111464377741","-31.1201644381866","-11.2014602579061","-14.4574037897632"
"1801","-26.8537615909972","120.32697114213","-44.8719602854667","-5.20675495878192","-1.59743295638322","-13.706786427915"
"1801","-6.47881302069625","62.110001665343","-32.4735103764154","-88.4226398364568","-29.8559502687962","-20.9941045839658"
"1813","42.1393885175225","-27.6205992016361","120.925244755237","-57.7459719072703","-21.5442779388633","-20.0814632838077"
"1813","31.6647526396791","-6.61900419939522","71.0017726427281","46.3136820221391","-0.751361169211517","-16.8405606119374"
"1817","28.5353094402411","-1.47024125794226","59.5861515688028","16.727566704013","-2.41515508758938","-16.5780500353421"
"1821","27.6003447452656","-0.207967615180806","56.9758282281152","48.1289894805096","29.4085982146784","-8.58345587990139"
"1825","-232.968110315382","-50.7888514461787","-285.489210897533","33.7979765197132","22.6977488139981","-9.00233985649617"
"1830","-157.816561487078","-34.189289612289","-170.798089513086","-57.4907940161901","4.17460692721674","-17.1061000398055"
"1842","104.510297592704","3.22221760553898","39.646567988002","-29.7857200470157","5.85755012128915","-16.763426094077"
"1842","41.8840964293421","-6.60595606762726","-16.2326510364604","-33.5541256614751","-10.4476946554228","-23.0336453714317"
"1850","-541.636733439387","236.662083902115","-308.881467914364","-28.4744614698698","-6.76889577083643","-22.4109559138679"
"1854","-383.971699738858","156.3018145465","-217.799249467736","27.1951655154664","1.08688204810214","-23.2781381677091"
"1862","212.63217881604","-119.605911862247","27.9877043101333","9.79103506782918","0.61419673230721","-22.8835278445362"
"1863","67.8758879316168","-41.2476065450706","-42.8100603381412","42.4118174205557","15.911867115957","-14.7967133714687"
"1870","24.6279320726126","-22.0372399739085","-58.9988472935889","29.3786015644572","12.7806582938708","-15.1512173079535"
"1871","11.7070035619772","-17.3276156104841","-62.7006142122321","19.1724717398366","68.7613856724144","-11.4930342040307"
"1879","-135.057134925618","-161.824674358499","108.272677829089","20.6798879514349","56.8972342498501","-11.9392154684093"
"1879","-94.90496319074","-114.249655230255","50.3678415490072","-110.635150303174","-64.7542035937642","-23.9676984809971"
"1891","-47.1829854256742","107.994595384608","-14.2416077583977","-67.7054591422012","-44.3767900454797","-23.3649176485423"
"1891","-53.9253806246795","42.4801219074605","-0.0153596606318768","35.8351278395746","-2.65633694509146","-29.4535533851843"
"1903","-251.581915029992","-68.3427729404383","-85.3292314676311","8.12224381666034","-4.92347939177384","-28.7040984172076"
"1903","-195.634554628431","-41.5121766927018","-54.8373063608057","71.5851195705735","34.3843201755297","-21.6714516718172"
"1912","134.107937727884","38.7688836803195","-40.7795991192745","47.0842889901079","26.0338746580002","-21.7618819457624"
"1912","48.623094942364","16.450633971431","-41.5651300079146","-73.0248341669043","-2.53140678509299","-17.9193460503528"
"1920","23.0833088314178","10.9790792153776","-41.7447513881418","-37.3583874691665","0.642525699381553","-18.2368285592323"
"1920","15.4529424022551","9.63766974828276","-41.7858240444832","-12.8457961269796","8.27161397748519","-17.1565779045895"
"1928","241.138899964448","81.2572257901071","211.506060627067","-15.8592283641573","7.69714302510886","-17.4024427826937"
"1928","174.565719697207","57.8155167671549","126.424391507468","29.0549896515859","-79.4162974265544","-21.479750103044"
"1940","-309.76139594404","-18.1250432261541","-194.157978937916","14.0241281613388","-62.5310133437993","-21.3261641642841"
"1944","-181.460860061254","3.25732601746695","-97.4631139601313","36.6898653419737","-23.9295487205941","-26.4264991423109"
"1953","8.28072181204132","-182.778058394585","76.982399560003","27.225386643333","-26.5971449617959","-25.9871003081908"
"1953","-24.0313407771715","-119.386598743903","30.8715297852461","-22.4920148724207","68.3665244454614","-12.661463424418"
"1961","-256.546946455645","-19.6132197669327","-80.6385355364154","-7.63420698139034","49.0060635575125","-13.358686561944"
"1965","-195.014218582292","-43.1527215921343","-49.1366949747648","-39.1210870876176","12.3952044194422","-15.1473146316353"
"1969","-176.630460041009","-48.9236792096358","-41.9334084290578","-26.8109448739455","13.9566003734169","-15.3959759877434"
"1969","-171.138056408267","-50.3384904520446","-40.2862876216873","-6.24675226326448","-14.8111484672689","-29.8903456565721"
"1977","-111.655097441888","175.688940461186","-181.616660821423","-11.2244789820347","-8.72812565985777","-29.0090280105482"
"1977","-127.883735879475","102.101953611553","-133.933603502186","61.3024237668702","12.6150985225765","-23.186215209706"
"1993","-81.6951847799369","-8.94516376006817","23.9907395358031","37.0152478364612","10.1983975671966","-23.1212441564908"
"1994","-97.8957125294419","16.8304619665885","-22.89790077336","50.3972658811036","-60.6813193133047","-40.0004410396996"
"2002","-235.432260394342","-11.9471596693833","-223.152692849469","42.6654783972436","-47.5069477777653","-38.7839980727951"
"2002","-198.523217579824","0.997702289594701","-161.943434715874","-24.1865161112684","-5.91874306564661","-27.5196754714192"
"2014","149.348617743693","-29.1706772355477","0.845179494408342","-3.51339031310951","-10.2452662245458","-27.655925274599"
"2014","55.2801683985398","-17.5667742694238","-45.931184882132","-30.0684774942687","52.9537094627999","-0.411378792016329"
"2018","27.1759104063788","-14.7219548372893","-56.6271807402535","-18.553872148732","39.3306162576021","-2.39165471748414"
"2022","18.7793723238612","-14.0245172919154","-59.0729528502025","-45.5899157579852","-56.7437546596173","1.43344745242421"
"2027","36.6856227998871","-71.763234392353","204.297093052073","-35.1927716064754","-41.8820087094067","0.103794263851648"
"2030","30.0353642546867","-52.9184910222447","115.519920492181","-20.3631068281096","-47.616879774327","8.2887697640135"
"2043","-109.751616076739","62.2563812204552","-264.36161336608","-23.7413439611689","-42.1918883076067","7.00279314367987"
"2043","-70.5149212712874","27.4927182189794","-148.226237559973","-7.00863308724044","87.425246205617","46.4635900342387"
"2051","332.491887260725","-161.778422703364","326.47796865586","-12.9221003292743","63.6245018911415","43.0116158051723"
"2055","222.895778240403","-105.18024295385","182.024972921628","-24.9009669365604","9.51000534906434","61.4319739939836"
"2063","-163.70469026123","-70.2465279133473","-244.242942777003","-21.8264959296093","13.2121111518703","58.2914330541378"
"2063","-71.2069588996153","-73.6821585219449","-119.714388485368","-59.7027035608405","-79.7360631527762","37.8725434629624"
"2071","-43.5719747580343","-74.5244396704092","-91.2393900823454","-46.9529896859491","-60.4706268906202","37.6178871712611"
"2071","-35.3156387672647","-74.7309337944523","-84.7282285365905","5.32252153944857","75.3609914443298","55.6665514197639"
"2079","-2.2266939511297","-206.394515476016","-49.5839563418568","-9.91053408007631","54.3506060916728","54.266526763081"
"2080","-10.340911329276","-163.673233831868","-60.5477826280209","-41.7232277100587","100.75243185082","61.1004863885486"
"2092","-153.967741904241","355.703775336019","-190.591104507774","-33.4926570402831","85.587267706231","59.8713504033336"
"2092","-113.878255781901","193.034537459609","-148.327122916673","10.6560668564046","16.7383317016293","29.0698352336863"
"2104","-226.091198417732","-15.3101307085163","31.3854700136618","-2.56174681493984","25.8245420606514","30.566951345392"
"2104","-186.616376220181","29.6119722841899","-23.5210167290493","157.497293688544","115.208838798564","26.4045498797318"
"2112","-264.988236510094","-52.3813894112342","-41.3900786924908","103.587583191201","100.343189551318","27.4987306393602"
"2113","-235.402920139369","-19.4829284656491","-42.4760613313071","41.2598051345211","116.933245231207","17.8474804283365"
"2121","-226.563895260669","-11.4175231224171","-42.724384730562","54.0378540305474","109.382328996073","19.1098341949777"
"2121","-223.923113603063","-9.44020377431054","-42.7811669556303","-58.722640796153","90.4819895676636","-0.839122645673921"
"2129","-417.075057289466","101.599441229078","-188.043833911393","-20.2614812975906","91.995567683179","1.23428639688405"
"2129","-360.781887739411","65.8219835723874","-139.259944329709","68.14157567808","53.9004020068045","-6.43146478325971"
"2141","-98.9855235790511","25.4636519710851","36.6294936332437","44.7317406523829","61.7953310151637","-4.78301183006276"
"2145","-164.770217480231","33.5693805071566","-16.1512049094034","-25.9492123162011","34.32040427638","1.57534674980686"
"2154","-295.004655700454","397.053508682631","-164.613161251518","-6.21121079610271","41.9839158004032","2.01418832984077"
"2154","-268.914006037203","280.165483690079","-121.56082886718","3.87661406563836","-27.4716773524398","-4.18889524127061"
"2162","-150.538715786155","-36.284517798326","-76.2896271611619","3.34030492032006","-11.65786149293","-3.51933759270513"
"2165","-180.172450898492","50.1344203674473","-85.9378054154215","138.4040626317","-9.21028946674635","17.7783083177815"
"2169","-189.025941549886","71.3209362592247","-88.1439810346993","94.3898994432088","-5.11130767938038","16.646434271484"
"2170","-191.671045058343","76.5150345108312","-88.6484504521198","-56.8214887137343","-42.0456039235351","36.6864804712427"
"2178","72.9315230797217","83.0529408825413","31.68715298954","-13.750967489567","-33.6294341304833","34.6766619339424"
"2178","-4.0147783411198","81.655777716494","-8.79661882231825","-119.113307801949","-90.3391487081302","42.3868063604385"
"2194","-270.280316902368","-383.719201307351","-189.873482305103","-78.8453400103948","-76.8023190748603","40.7693448314128"
"2194","-206.830851031935","-232.810795094478","-134.278952944563","24.0451897377549","-81.5810984138312","51.3571756186447"
"2203","26.4813066472605","-273.026939688285","37.8538094801938","-3.82645398642834","-76.7268131887948","49.7486592775754"
"2203","-29.8134402336529","-238.886352504817","-12.7858995163952","-151.095448404304","-4.75259911316943","53.8332909911978"
"2210","79.2591913781576","59.0320796343529","27.0034932907822","-107.062099262958","-17.4355315936383","52.6848182936929"
"2215","37.8461575718362","-32.9300685829486","7.1018314437187","-182.341104935506","-27.7832551051389","54.486834120933"
"2219","25.4734375532414","-55.4755609946976","2.55106963221107","-151.726059112137","-29.4294757508167","53.7448416210378"
"2223","21.7769153091944","-61.0028267006612","1.51048150322867","84.0017309661228","-82.9023387013309","32.396628126813"
"2227","17.270055685505","-129.041792744767","59.7266788394581","11.5721595341999","-72.9121336623242","33.4932003746227"
"2227","17.9235686701415","-107.722264247302","40.0385343862348","95.7181031126235","-52.9165316876425","9.52284330670818"
"2243","53.8447725988274","-34.0568186680475","-107.941749423275","58.268578016184","-53.938327098559","11.788867657996"
"2244","43.5767320350529","-54.9969562517112","-60.7792766404172","-96.6068941510696","21.6014382117757","-2.25186042035486"
"2252","-29.2416675174766","103.069414999033","50.9712507515431","-51.431230876035","6.51947020832596","-0.0538504819803697"
"2252","-9.99717748757911","48.8210562195662","19.5243948245948","21.0539122439752","-6.4564327982767","-12.8401714243644"
"2264","-172.669990985775","-80.297904754061","-152.400715370803","3.75653760202894","-8.28272960438909","-10.766445767306"
"2264","-122.270757243644","-45.9527824540161","-98.7135241165663","113.657527949448","-24.612663575965","-21.0357534392481"
"2272","-107.213284971523","-37.532712792675","-86.4372819813932","75.4980082859267","-21.9449503612629","-19.2048725318225"
"2272","-102.714655639463","-35.4684437391989","-83.6301669612066","-2.29672608477252","52.1494553403358","-11.4172701850054"
"2276","51.7406203147698","-78.8333521890008","21.520632956424","17.7039179352899","38.4185079118875","-10.9806574693806"
"2280","7.88628290288023","-64.4647177382373","-13.4353325105885","-38.8635943350962","26.0492252581895","-9.37396446396628"
"2292","-205.961668829266","240.890287285718","-163.1354553564","-17.6787491938208","24.4953064301533","-9.25231402082175"
"2293","-151.851719621149","143.751293494378","-117.366245099481","62.9934622833293","-7.22223771588286","-0.0541671455638824"
"2301","-42.1176346782727","-16.9408330778675","79.089900216443","39.695567778537","-1.46369945166709","-0.632837442892282"
"2305","-64.3330500993071","21.663794037827","19.0120343884501","70.8769503789606","56.9576130509222","14.5858514630637"
"2313","-139.019658023961","-39.0654509991888","-44.322967478554","57.492198284418","47.1893062340117","13.2101892164"
"2313","-121.333321237141","-13.95386715404","-30.8053011672181","-30.0539208377873","-17.6854014034275","5.74038013242186"
"2321","-116.049282056595","-7.79749701694818","-27.7143191124","-3.43480085903554","-7.81472687026829","5.52562246495524"
"2321","-114.47060183592","-6.28819782265633","-27.0075277296896","-47.8512663394399","-14.2396427239479","10.5832527717221"
"2333","195.626018724291","-112.963382581079","56.4069559688764","-29.6988416394805","-10.1244875550773","10.114041326679"
"2334","106.271698411692","-78.1159313755026","28.4807122139144","-18.2424771820544","-19.1336832136082","12.3902570678213"
"2342","-87.1452844965656","79.5886413188768","-123.154652771397","-19.4445558532745","-16.178892850597","11.9793088568943"
"2346","-46.9312991014631","33.2515838001435","-75.8279596314972","-12.7150293025338","-45.8719861398317","-0.0245775651287854"
"2354","111.389492026203","55.2335137240307","135.155024242361","-15.0715161322887","-39.2044512874701","0.595374423616517"
"2354","72.6900310523016","41.622616130855","70.3989002196209","52.8282293747278","13.4210447026328","-1.57560764994033"
"2362","-71.5683861352952","99.7051409080539","-107.37144964626","30.4109897153925","5.05036429998181","-1.09119463305287"
"2366","-36.667595300583","78.9446856229652","-56.0208449382093","46.0054672410999","-20.422020722168","-12.4700193198421"
"2370","-26.2404984729287","73.8550406313276","-44.2788922963148","37.814015881683","-17.8593500103955","-11.4137047092672"
"2371","-23.1252582261334","72.6072603786706","-41.5939491952868","12.9883797780098","5.00518657957838","-11.9781683706988"
"2383","-23.8957729481174","-38.2535304063314","-33.8946532652178","19.9253589119121","1.27156853693574","-11.372226796204"
"2383","-23.1259749412846","-2.43222474802713","-36.1341137603611","4.06177892019202","4.24811365480024","-9.64732341148969"
"2391","-22.8959870767403","6.34974686261755","-36.6461941774636","10.1875089478477","2.5846091036826","-9.443148974104"
"2395","-22.8272750024453","8.50274000323162","-36.7632877159068","-35.7223864714009","23.5515551041061","-0.187391171059226"
"2403","65.6575302230124","-203.305002354254","113.773633182565","-19.9346934884236","18.9659018708813","-0.725842632266229"
"2403","40.0935968506008","-134.231908593836","63.1957671787661","-31.88093925024","26.212848646611","8.01147968531857"
"2411","-200.61332786289","40.6376392041231","-175.100701655703","-25.7985014437303","23.4667927329699","7.11110258551823"
"2415","-135.527870514976","-6.49124328338792","-101.59014472445","-48.8938843392782","0.51991454292452","12.9919830235305"
"2420","-116.082684614951","-18.0453868423841","-84.7810441681185","-40.5343355173048","4.21656046877016","12.0974917468199"
"2423","-110.273164791417","-20.8780072300471","-80.9374348511994","21.2036460651476","52.4061186248146","27.0957024778634"
"2428","-62.6041155618711","117.059861145711","-35.7751059728252","2.281554602999","44.0436623571979","25.5661219395529"
"2428","-75.3623238972442","71.8767871858679","-50.4481793494197","81.9375610294417","-1.5879133823471","27.1020821002249"
"2444","31.4063295324815","-148.026213362091","-36.0899835845418","53.3914846693712","4.92309992794778","26.174353149557"
"2444","-1.69504981039738","-82.9377576907403","-42.8068040455126","-18.5438626782158","37.315432914347","30.7342501911281"
"2452","-11.5845474201142","-66.9806349845222","-44.3426883492171","0.887785390859324","32.8598808903495","29.9175655601104"
"2452","-14.5391724210701","-63.0685777320503","-44.69388734405","-64.5975685052262","-1.71151361279783","33.2530951271791"
"2464","93.4572018373069","-79.6578898860435","45.564024123012","-40.5906760106172","3.76562025032936","32.5816658027323"
"2465","61.7226211729537","-73.7249350620676","15.202615002866","-6.63519917752876","4.67391143594456","38.622377255641"
"2469","52.2414736843671","-72.2704084926455","8.26010225044945","-14.3424503554008","6.08174232301864","37.8394658066154"
"2472","49.4088489633697","-71.9138159339756","6.67261060515935","10.1118896208953","19.1217992787118","41.1985728115768"
"2477","-165.793184075811","63.2962428306804","-115.912683276526","1.08423099107243","16.9769017832404","40.5436031614869"
"2477","-104.087785497158","19.4444175195485","-74.9433310855447","33.9949745775968","-25.8629343141746","36.1806952022815"
"2493","-17.6029956901212","129.777600024245","-70.8891933775938","22.0325742689242","-18.0984048707703","36.1349001254681"
"2494","-31.7644614944895","87.8269456207165","-66.9621645092655","66.5170136170953","13.305777066887","50.4237064493638"
"2502","4.83426966573379","3.83904321513309","-14.6954103258143","50.3811897799254","9.4065363611606","49.3988827221151"
"2505","-8.23135021135563","25.2485214290451","-31.7439687438339","4.30181183249997","-37.3229976348313","52.5891080470315"
"2514","129.067709313944","-141.476983170942","114.921362717586","17.0481130823316","-29.3049774271764","51.8162401982047"
"2514","87.0877135538558","-84.3515024342587","63.4582097716537","-57.0930674652763","9.96797930123281","68.2012463730313"
"2522","74.5456057635764","-70.3465871790917","51.6905215792889","-31.2001372225242","4.60188903660074","66.6398033188751"
"2522","70.7984765660899","-66.9131342124813","48.999693725461","-44.189991221061","-16.4194260053239","70.7572974231026"
"2530","10.1357065315456","77.8254465591089","-162.404771539887","-36.3624277907341","-13.8581849592655","69.6317663297876"
"2530","27.0118599981083","31.3096391071389","-91.7450244647301","27.0014059005094","-6.50420063107263","79.2611305205488"
"2538","156.24408000951","12.8864396400843","92.6892748242434","7.47638685252261","-7.20219572384203","77.9834978772065"
"2542","121.854003712767","12.3697976103316","39.8624648013544","9.73100813321615","6.44331751666658","84.9029007426324"
"2551","-121.489853995238","117.533503329315","-133.408761867744","6.28164118901811","3.57027532226094","83.733413643446"
"2551","-57.1922170664101","83.3154970652194","-82.0293768404163","17.7296530121347","23.9941280748099","98.5396467004077"
"2559","65.792997845257","34.5652842874089","57.2554637990962","13.5255344255668","19.1646211033209","96.8760443903697"
"2563","41.5365418619838","45.6136544749325","17.1046700902656","-13.8378501820135","26.3020753639106","107.431663779845"
"2567","-112.01671534087","-260.529461008537","-133.783314661847","-5.52065062064028","23.5068563291418","105.80066030001"
"2571","-71.8928872774491","-159.583680824416","-88.2857237622496","-96.5455072310102","22.2517779175375","120.284703585105"
"2579","72.7910793949968","-189.235778523633","49.6541717010601","-65.7759790971699","21.6882364563205","118.396176974549"
"2579","38.0174273894445","-165.505303612265","9.19583959702069","-72.3075224959932","19.884210253999","124.889107896218"
"2591","56.5493285391961","-54.3971609526484","54.8560057001306","-65.902683391348","20.0741863122834","123.42189594039"
"2592","45.0859918372892","-87.1578256850908","34.2967689793935","35.7407544262748","6.20056796983629","125.001396309393"
"2600","-19.5833386300793","-39.034586978825","-46.5718721754445","3.56454068563148","8.97118892803156","124.104063267467"
"2600","-2.90420083507422","-59.2366664853064","-22.0634899480705","41.3565020135472","48.9899984053199","127.383291272552"
"2608","-38.7507424603678","27.062230754682","89.8209114637581","24.5862131534768","41.9588027130666","126.672557194965"
"2608","-25.4603954946974","-3.7806826549852","55.4046674918241","29.269381992802","7.78191213973791","114.459386890425"
"2616","-52.1119690041022","55.341749650393","-133.141468485451","25.4131251087372","12.4361818049077","114.933235448846"
"2620","-42.0744973865684","31.8362386846789","-74.2548809183586","63.0984017174573","37.7908561134279","120.471589500482"
"2628","-64.5942044008858","-154.674847299705","-43.0763563556937","50.302057868267","34.1753322357126","120.337976704121"
"2629","-56.322280182342","-97.4000109162814","-45.9470000230786","-33.5888061066825","-0.0188820971422174","112.433367537619"
"2637","-47.045983387862","141.260967860884","-96.2008610310171","-8.07698440072528","5.6276090446565","112.915071046246"
"2641","-48.2745606617644","71.7712287704794","-79.6920296235276","28.00180835996","42.2847369238657","114.553242440986"
"2649","38.1214252348086","161.780290330001","28.5918376814703","19.8131222944006","36.7441160495584","114.696868301475"
"2649","12.9334280266832","122.846962909068","-5.64771306958146","119.648244059691","7.88948003432937","116.099023890723"
"2657","-125.58701529209","27.3149140676976","-66.6171389297983","86.0303957960896","11.9334897212452","116.077884465044"
"2657","-89.9719249331025","52.8942227943423","-50.558554325476","-1.18980741680362","16.8512683994983","125.1763481282"
"2669","41.4563410104397","-23.3121927160916","70.0217216463608","22.5089091108744","17.0593951242198","124.52808786026"
"2669","9.72236398895063","5.00499923817559","31.5938972430763","-38.4227718274678","6.29590865957287","129.283085129921"
"2678","-50.7956857705984","150.579573273776","-63.9886436854249","-15.3037622436979","8.4630067197467","128.602602160675"
"2678","-38.8762951084247","107.268718404531","-36.8447771303045","50.0388366866211","1.68109801680997","142.448325734222"
"2686","0.410746515702574","126.482875020493","-97.9488240962751","31.9970799761439","3.6359601951755","141.114180959577"
"2690","-8.85170320851907","114.19342855345","-73.9210222774204","36.3697256097235","9.16668394141207","146.692243309086"
"2698","-11.6189889297263","-136.251819146371","-1.11593868159769","32.4376314472912","8.65002849799449","145.586351321713"
"2698","-12.445754039476","-56.6511181082953","-22.4681533530384","-65.0903506197917","8.41804557100183","153.927537031067"
"2706","58.7591540461476","-28.3619679332599","80.7009913897576","-33.9090430324158","8.31388315656931","152.750612513265"
"2710","38.0326109924175","-26.4265838326296","43.2918958895592","-54.386226408607","-8.79378806350618","149.325210757135"
"2719","-39.6116477727142","-48.7650165961656","-78.6277640031146","-43.3872499300299","-5.47528584742367","148.933899296412"
"2719","-20.8089503235276","-41.2415194413428","-42.5062063450261","8.46068887303046","5.32069760235349","147.358831606142"
"2727","-84.9420624409361","2.7190917767603","-48.4172649692943","-6.87679027496204","4.16819097990667","147.259259150905"
"2731","-63.1027219536116","-10.5034998454836","-41.768901835583","-26.4245559858697","9.85466930341453","134.17085888121"
"2739","4.66658400333958","100.319405229772","-123.501538231733","-22.1985932309128","8.40794906185775","135.033699565096"
"2739","-11.0863929849859","62.4888114893795","-95.1907192319785","49.0645215035708","18.6152959308606","129.126614533299"
"2747","65.8665181608751","-73.1341974934073","51.218570860218","26.4686979691382","16.1984862052863","130.0028120886"
"2747","40.8572709918886","-34.3836112919501","5.69687087966185","29.7291303219004","-8.15154852684094","116.293719067024"
"2759","-116.323365225599","-124.909343275456","-27.7396191709748","25.5254067719678","-4.08493247062729","117.723247165459"
"2759","-75.2832671095981","-90.1026830686885","-22.3852873168108","-65.0458105218177","11.6999339004929","117.419328034086"
"2768","11.8324210221988","176.391934119025","35.5218501889916","-36.1654926933791","9.7874804455134","118.207158673023"
"2768","-6.14055513012026","94.7259056067331","16.7630353724295","53.4092426070799","15.1327358266991","109.643930761942"
"2776","-37.028773117883","130.859477592871","-134.547420884674","28.2855597710742","13.5328034242613","110.665845123401"
"2780","-31.2570579816106","107.718004593544","-86.1464333343915","73.0672471762076","-8.89945503185598","100.964144927683"
"2788","60.6328348402926","10.7929774396606","-30.7955073004883","55.0040185049478","-4.97174023083287","102.19127899305"
"2788","35.0862187614327","39.0307828132053","-43.1388315734893","-21.3942670984376","-4.75915209788946","97.8404000267752"
"2796","117.619324408876","-110.227130331955","79.8036836666823","0.947423490554761","-3.6636981199","98.8030025251084"
"2800","89.2772379830577","-57.8192849677529","36.9160145697532","-63.8272276285381","-0.0698473949323488","100.776894908921"
"2809","19.565146205939","97.1710461861722","-38.4302739910211","-39.6467643239605","-0.456176193022993","101.154891364722"
"2809","34.7376889010067","54.1685636720444","-18.6591373520875","-14.4277763509326","4.02333181110415","101.418774938453"
"2817","-32.1812185418657","166.464810971412","-44.2509609059141","-19.2686894431973","3.03467107312858","101.602995026806"
"2821","-10.174173166082","123.995422646264","-33.1028487638509","60.3147297432197","33.6105741944744","105.637267426666"
"2829","-41.0264561012903","-142.622953879873","-25.2396818656829","33.7509258232571","27.3394288729698","105.453638326283"
"2829","-28.2440048681119","-61.9872662771768","-26.4416712315622","-13.1194413020476","35.3805656200007","98.8160009778286"
"2837","-44.839902770289","-68.541166866318","3.39621814992515","-1.56631874340086","31.9911081250502","99.1821917509023"
"2838","-37.7981581630509","-55.1479248516871","-6.78097837885132","-93.5566604912955","22.7142561517042","102.041611168787"
"2850","-119.054907267167","106.071118914377","-108.303026048261","-62.0229271830248","23.548866429264","102.037803998655"
"2850","-94.3314915664071","55.5956711167519","-75.5173013741264","0.107423401808678","22.372622895012","95.5257023605527"
"2858","-78.4388467189627","146.756608247516","-83.9624771803226","-15.7188420585927","22.844479000646","95.9795310237973"
"2858","-78.6906979604823","110.105675294895","-76.893571369624","43.623930243953","13.7504004258206","81.9755775320829"
"2866","-31.1313315796729","-81.3829892318711","-50.4784520188392","22.1168707357853","15.6670775982625","83.1992602226622"
"2870","-44.9223091920953","-24.3284588268489","-58.4383073660094","-51.6109300436802","-3.63520059205801","72.3365280030124"
"2878","47.9279013494125","-13.8506166609637","1.73838889965241","-30.6170424619338","0.697903415136497","73.7531325647601"
"2879","18.6681935499394","-9.28186293324224","-19.5014631582864","-72.8957741472733","-14.4173953922414","59.1194149855259"
"2886","59.2622952924205","116.431815055275","23.4678963743479","-56.2212631429987","-10.204300097066","60.9034522892996"
"2890","42.3903479633504","76.2518516473512","6.29337335856803","9.30320915255363","-16.0675376948367","55.6394649702815"
"2899","-28.9985884392672","-31.8696992096661","-54.3165974561492","-9.69412968263562","-13.700183952441","56.9646162660255"
"2899","-11.3270264055781","-2.37683993710292","-36.1758189975354","6.73557035137696","-3.33127469638738","53.984052991766"
"2907","-63.8894283547755","-125.004471863596","-78.0824825473778","-1.25189946756534","-4.67554146143071","54.9032882743449"
"2907","-45.5931772243642","-81.0679316529069","-61.6649609150554","-98.0145265589845","28.84267343082","55.5450167555072"
"2919","43.2336506274344","-50.993190775446","41.2840144848541","-67.6463007726934","21.8926524784391","55.9930146199708"
"2919","20.7719012731156","-54.6200502455411","8.82457453375643","-60.2296454314268","15.6700486835148","49.7963231539184"
"2928","-36.9759414687324","41.0069556375269","-21.6250677565856","-58.4183187889606","14.8760437809178","50.4703432028602"
"2928","-24.2289129188381","9.45092663307798","-15.5877561176786","17.5224108273629","6.76457329520701","37.9219965539881"
"2940","-159.921919948361","52.6049762190075","-116.944830589279","-6.93102600190215","8.12245031080093","39.1618547397096"
"2940","-118.462093660562","34.184647489592","-82.1213827473864","6.41038710940555","21.1400775302585","24.4047485290903"
"2948","-170.722365052825","-87.9055327505629","7.32295998457768","-1.33131708140389","18.9851088820877","26.102646842649"
"2948","-148.335848215064","-50.8372305796444","-18.2244817171271","-31.3144414774744","13.3645355365349","16.8728586406203"
"2956","-259.032854872528","-147.039910568757","30.8452444086565","-22.6370457436862","13.8408477041697","18.4294397721438"
"2960","-223.105125710611","-110.62501415463","11.0656458741404","-52.1217803820396","-9.21014935500941","-1.31411363854748"
"2969","-134.114356756418","-429.852491443718","-83.795422120037","-41.32266581342","-4.56025373504854","0.902689846795805"
"2969","-153.527126425526","-321.114480820439","-54.4865818304221","-35.1737091860878","-50.5531309257051","-26.1912874909126"
"2977","-53.8503240392314","-152.314214404887","-171.778383821231","-35.6719852350658","-40.2043452067835","-23.1058975533075"
"2981","-86.0704925484466","-191.9310453582","-128.598609056916","8.10071895310211","-88.2913427392376","-58.7067262612782"
"2989","84.6343090875429","365.16960671321","-217.919923480818","-6.20892782694085","-75.882835831958","-54.5600648655074"
"2989","29.6347435485765","178.748718525361","-182.344349830617","225.570268834291","-113.739053883692","-86.8162305179927"
"2997","147.600509042098","633.17490621875","96.8050987291416","148.176355373861","-102.736835249203","-82.3346222557623"
"3001","103.844422710837","459.582288113879","7.63608229077858","278.515833414781","-104.000704556006","-85.7154049732976"
"3009","247.285403179636","74.8305340001276","217.520368440452","225.347886850925","-100.568193207996","-83.0755673817478"
"3009","198.140391752395","175.504575756073","135.513013556488","-22.9109703809203","-81.9660634711247","-73.4213345206942"
"3018","45.6575127788222","68.5729234635578","240.75464659246","50.4582113268732","-84.6135404122153","-72.6816060658304"
"3018","81.101131230139","117.357498943025","194.819451244513","-175.676097311449","-68.7413799369797","-40.9198630311285"
"3030","-98.8480364121456","401.317665229269","-253.204587467419","-91.9035656465647","-72.6146375564369","-42.7466332791696"
"3030","-40.6103538320618","315.933500639266","-108.650840532889","16.3445035400629","-9.21214157740678","0.242295788340101"
"3038","223.468196736788","-482.393198335774","-169.477726137794","-7.21869945491678","-22.7438523466527","-3.7466497187402"
"3038","157.365337776621","-235.11142461414","-130.38654793624","-107.785297363306","-50.5335862828503","36.4309517398735"
"3046","120.603828117531","-448.242636254026","147.795449608929","-78.346093268181","-49.0114260133719","31.4793868352377"
"3050","119.620815653389","-344.494004973465","59.4052134972782","-345.057353872902","-29.7160700081546","51.4566414449277"
"3059","-173.285480004629","163.521912348925","0.224262606061217","-254.194695430502","-33.0522821385323","47.4029873929466"
"3059","-88.7953109629019","13.0673827524195","8.69180419358963","66.47805143699","19.7344148504932","49.7806409920496"
"3067","-211.560237062788","179.743239161307","-37.1981025365662","-25.2059067372458","8.43611514186308","47.4405076897269"
"3070","-161.237966732173","104.605586645936","-20.6913988595592","226.303679227165","14.2200144901065","27.5803916653116"
"3079","-23.7144900676155","-452.550908747877","-135.596555372693","131.728404110657","9.81703716223946","27.7158214800799"
"3079","-54.6274380850919","-282.143711140619","-94.8710445195599","-145.956658303892","-6.11885843603635","-17.7557401132024"
"3087","38.2110538460739","-484.289267100102","-62.5312625975996","-68.7740677185877","-4.27421845834311","-14.4999482722637"
"3091","5.94784494872318","-394.847386242603","-68.1363703672979","-223.746017258934","-49.9756895544646","-66.9063714021405"
"3099","-206.138331962551","334.280527439175","-80.0460733611922","-162.593916092186","-40.4960598860307","-61.4918843340831"
"3100","-150.502028015575","110.03394027011","-76.7693746607271","110.439950360901","-34.6886301272639","-94.1648553988512"
"3108","-59.0255203184932","53.3026803491711","40.8881645719713","30.121425209857","-33.0810420898064","-88.9742236790075"
"3108","-75.6956409547151","40.3944124927678","1.79202016406749","210.66414082286","-12.196337217822","-117.897804392148"
"3116","31.6055103369515","-52.2669968518188","67.248380951021","140.757039285253","-15.81891745518","-113.08968113207"
"3120","-2.33677786116589","-23.9839205181072","40.2157896668658","7.80283057738583","-68.6281925516561","-134.468962727797"
"3128","72.5842956720422","111.05325311541","-20.8770131245064","41.3321966623081","-59.3400306157313","-130.394079470791"
"3128","44.9680087478382","71.1590431874787","-3.846640185674","53.0324305523647","-67.5774908819202","-124.945580151473"
"3136","31.6135505491229","277.223806298819","-159.372817970002","53.8899106957694","-63.2761844075232","-123.141921546257"
"3140","30.6237203650925","204.742760489381","-104.935807432367","106.772602392235","-44.2839578683365","-102.354435774841"
"3149","52.4440639606812","27.2828778014546","56.304248372361","89.6878349313776","-46.7562778471525","-102.842458347418"
"3149","45.9631951907276","74.776712318276","9.17378691040936","-19.8312271675082","-47.8663716871677","-78.4472659123248"
"3157","11.7034598211775","-25.8893959797152","55.0796254823194","13.4215686131104","-48.3648137756508","-80.416707919472"
"3161","20.4678872325813","13.4312438188484","33.5765648185239","-78.5365154514272","-29.9767263480903","-46.640600944131"
"3169","-29.6519368459451","170.477626532712","-97.1053461169216","-43.9949040365706","-33.720310205399","-50.061121087729"
"3169","-13.6259315937091","124.979206785074","-55.9873858335002","-3.95504238918598","-30.748239827684","-13.3923617807956"
"3177","38.7966708842674","-142.381768802466","-20.0151902869356","-12.1763396147649","-32.4137535772542","-17.7934888239941"
"3178","26.4586527168346","-61.9281372068156","-26.7897016303918","-8.9168518392755","-30.0596021198192","2.56803264260259"
"3189","-40.1732370948351","-426.513915054704","3.54529908527969","-11.1208060778274","-31.0025670055324","-1.21736039816928"
"3190","-23.0804412085266","-296.895971120622","-7.51822677151686","-160.900008875061","-36.0789397935895","-1.25620829635491"
"3198","-36.6873275896019","-261.609083609359","-43.7034535266264","-112.479713341637","-35.3582766957413","-3.28332845065216"
"3198","-29.7525742050811","-254.958130254729","-32.9776544111216","-74.3176687388673","-22.626764239309","-8.6041500971138"
"3206","64.1860285617958","360.866222745018","-51.7811185868486","-79.9975743109422","-24.9102009816963","-9.31867548406401"
"3210","38.2514930821746","161.842070380926","-44.0807638804187","178.470075247268","-38.3434128180655","-26.7420475921569"
"3218","-42.6499619649154","30.5717429693878","-146.828900526263","93.5941275752077","-36.3750453894746","-25.9054994652018"
"3218","-23.8203972215033","45.3894350534029","-111.323536303147","71.1095922031542","-13.7773563028228","-46.151716008135"
"3227","-295.496285006141","24.4543967881925","-257.311165401887","66.6183247667037","-17.6307912673039","-44.2858273043533"
"3231","-213.663236239002","33.3219509341365","-203.693047405531","-67.9175129524011","0.801865307301028","-44.285118193299"
"3239","-852.696548427188","-96.1170319273623","214.20371010217","-24.7744189314659","-3.92170660332895","-43.284623154903"
"3239","-653.616641150577","-52.8503663748431","80.760986666967","-12.4820559344492","-15.3485789453506","-34.7748337531874"
"3247","572.909206753493","-344.075468563096","783.581418300205","-10.4799635395827","-14.4793470927618","-34.8340541385779"
"3251","253.350868155518","-243.472379779017","530.290026717033","-55.6411752090251","-76.1286955126875","-40.0829516030179"
"3259","780.530776501402","77.7593946771223","-221.992529636229","-40.6706355437623","-63.809805768764","-39.7472659102127"
"3259","572.033108639079","-12.4872413159785","-2.01126632383382","-10.6778304701476","-290.927168744927","-44.7204750034979"
"3268","375.34387869725","655.0397393387","-54.4474028074133","-18.3528619483049","-242.904901304069","-44.1923281605951"
"3271","395.580234765137","425.691032492771","-8.43757575308043","209.779340829999","-15.0606652264776","-2.1631825312068"
"3280","231.502518958113","-120.136428318675","-107.739789206228","134.494743242952","-45.7565601268549","-4.82216364251511"
"3280","282.482018589435","25.0482018318686","-68.4464719070725","16.0292022096625","-53.3353280584908","-5.37653947606036"
"3288","615.844001685831","-474.584278925735","418.799583755886","44.0970514200956","-60.7382628193231","-6.76355547555076"
"3289","528.440532115959","-292.07446126648","260.21443744791","-335.318779066991","32.0991971303923","20.9097058312085"
"3296","287.971782565625","-222.762498801611","344.402933524415","-207.981302901804","11.7840491300861","18.2287205424087"
"3300","342.128398057201","-219.769938774602","295.65367729935","-62.7569832851361","56.9470516617921","15.0552058213337"
"3309","-78.9092340222146","-227.810478225534","-317.748227901862","-92.2896914734101","42.2256447794374","13.8397395304964"
"3309","52.2999156050805","-224.781701437382","-118.010181237562","102.411924955687","212.428578832247","-1.32956752824994"
"3317","671.621980289746","-25.7423088883397","260.673868713245","34.9627694997226","174.851222447744","-0.919431259094446"
"3321","515.653063583908","-89.9456985291517","159.264673359917","-14.8696862427048","23.0424326086146","-31.8784408077439"
"3329","-119.572506428061","157.540076984634","-214.648641191063","-8.0399773769781","41.8789246870894","-29.4912732919461"
"3329","36.6450167998386","68.2138300670155","-102.148558019562","206.076875760448","121.682266052583","-46.0512074896811"
"3337","-478.090733515678","274.443682985477","-25.0552283933907","137.369390761234","111.51468192979","-43.6118836541637"
"3341","-301.875200309393","195.003110686781","-36.4268824250606","20.5101397215692","235.681601216129","-49.7202968432113"
"3349","-266.240718994889","470.340439650248","-340.154543732812","48.9702838044351","208.433661392188","-47.9846487370184"
"3350","-245.594421928748","369.842295371896","-239.605640470333","126.151971841545","100.037648036244","-55.8861946226063"
"3358","-28.4727786138958","-391.828448479248","80.9708296990312","105.001607077292","113.366866042136","-54.402352603148"
"3358","-87.6046669156455","-158.560080010626","-13.7253844500442","-17.8008029001838","58.8631541678212","-65.083464671629"
"3370","-380.871387368043","-331.255840208142","-270.966748752881","19.2078780056658","73.390498796322","-63.5400690412975"
"3370","-306.488900248134","-242.594030719679","-196.788177134361","-356.268609293499","2.36385515731251","-65.0663847309754"
"3378","-47.7942812280054","619.710437120732","-110.744160431878","-228.969050229515","20.4722552607755","-64.1319228667216"
"3378","-109.505664643617","352.113489498054","-130.069128852736","209.460569401026","98.3976857677143","-42.6493443462614"
"3386","-117.735382490204","591.85133137455","-77.8052194396102","84.5356880821518","88.386902830025","-43.6521148592579"
"3390","-126.194125194834","476.625596652302","-97.8544283496469","387.623414063636","-20.0244276813057","-40.4464939376374"
"3399","97.5431073428206","-95.6234340092356","101.264895086512","271.644768409193","-1.70208721553295","-41.2086139473888"
"3399","31.3877183623854","74.0836690923085","31.7959979657523","-102.567856961405","-15.1890665089213","-15.7028832515319"
"3407","-119.372303217218","-138.762559030443","-147.051985919115","3.04036775822547","-7.24484115066979","-17.8970460185775"
"3411","-87.4139571497781","-45.944061029198","-95.9477955948518","-245.068575489226","-36.2486244192124","-5.1080393226542"
"3419","-42.1399988014619","275.134078168588","-146.259004570787","-149.66278116004","-28.2715831864519","-7.17989002498427"
"3419","-49.6137738598897","183.849776868418","-122.763286487437","117.690459275802","32.6968480754452","6.99639285983333"
"3427","104.667051888193","-80.697375944304","57.9717230111641","43.9845878375873","23.0722204217184","4.89301525522232"
"3427","58.7605950501351","-7.5539059613671","0.299024497299209","34.7627101454507","-18.4731084894834","-5.68859762216535"
"3439","114.79608196244","-226.52533481526","10.1388354646158","27.5105045367593","-13.1273337115012","-6.07574048835674"
"3440","90.5374632849009","-145.208494499067","-0.611169719542938","-193.732635765863","-33.9918983937032","-16.7611193697252"
"3448","139.430654330457","425.746770110486","21.7294346333893","-122.765562476543","-28.360275030534","-16.220702449421"
"3448","121.038175393789","251.7224865899","12.8378908978256","105.259410719262","31.5550425763331","-22.352875133983"
"3460","107.036985985322","272.232814130231","-31.7073731948222","40.9486250742959","21.4575574481282","-21.6338137986186"
"3460","107.853935854573","241.261137662108","-17.8932003018311","220.133490469945","27.7806333108002","-47.1696042389599"
"3468","131.915316215604","-431.41604116237","17.1496584154694","152.894769063003","23.6197510727584","-44.9964265173511"
"3468","125.103988358298","-217.329959820598","7.16264267991055","-181.321974830959","43.4653520975314","-64.3095269191725"
"3477","55.019565906442","135.233048316701","-39.4044522696268","-81.9457883584801","38.3762049150332","-61.7922193508932"
"3480","74.0808696322904","50.6675953418591","-25.052596077802","-87.5239084939348","67.1109528533391","-69.1480799816858"
"3489","-8.68857722185324","203.664584784468","-11.1428405757222","-71.8862203651645","60.0131123448372","-67.2832889534274"
"3489","18.5828989803089","142.173413485904","-13.962202464558","163.69528828354","87.8459389676246","-69.8871236659308"
"3497","-121.276907674449","9.52396105458772","-39.4056108926798","89.2299913879874","80.3431277008413","-68.7048899407031"
"3501","-76.0619707463065","44.0035460666064","-31.223561791407","-4.4545952561982","89.3822264268827","-70.4833368150823"
"3509","-21.723713181028","43.6823835183397","-78.9500875168724","15.6653624647887","85.4408628093273","-69.7248905643264"
"3509","-29.4894027391096","48.6036471258646","-61.863349551793","-51.4076653742633","86.7731372682762","-67.8935219512621"
"3517","-96.4564818523517","167.384388904968","-139.437784483395","-26.7885212621959","85.3713404469752","-67.6150229415058"
"3521","-78.4638284332911","129.504742924045","-111.176141146716","49.4551016686511","39.7631811499055","-60.9111558431665"
"3530","-112.216702904035","-41.2270803911837","-76.3723643228661","28.0756387137507","48.2847086528492","-61.2311108835537"
"3530","-99.3008437472872","8.91620897715471","-84.4140490985735","-6.99393207859378","59.8659060795407","-53.6431425210948"
"3538","8.33335019342763","-231.487512096182","96.1948924839949","1.44123040460981","60.0659675738163","-54.3458965334432"
"3538","-20.5094368797493","-146.425024695473","34.4933669775729","-131.69343624921","30.6869673535108","-54.8364970070346"
"3546","-27.4253847129312","149.938733917526","-84.1243703351155","-87.2081423599483","36.495532810324","-55.1789907110317"
"3550","-30.4916203479091","65.5954410568419","-52.2477871270492","16.7123604379455","14.2877742598993","-48.9086456048987"
"3558","0.915784754243834","108.092011128429","-76.8428877826639","-10.9077389525483","20.3162915316902","-49.5312472199784"
"3559","-8.70081600828691","82.5104943483991","-64.4668625880781","122.808829457172","27.6761229437247","-52.5696699282207"
"3566","19.048340291198","-100.999867533061","-4.95412781350166","75.4656500528449","27.9807532440316","-52.6908269667313"
"3571","9.33878680258946","-44.9893719267542","-23.3458029011534","-46.710575620814","23.4645618818014","-57.9829631047605"
"3579","-30.9892713082908","103.864829272241","-62.9780394627102","-13.5489653606384","24.4367514630456","-57.6774628159055"
"3579","-21.037839742883","63.3580096583594","-52.0404418909567","-5.4500979591664","24.87327330274","-57.4641896310342"
"3587","26.1674271576511","46.4079770575875","3.60070337255536","-3.47215862895855","25.0692755230954","-57.315301223905"
"3591","14.2706573990008","46.2524974522546","-13.6762586741543","49.6841763047164","31.3612464092276","-63.7208043635238"
"3599","26.0274567021865","-120.495366138304","3.62920084661518","32.6662391417877","30.1863977577981","-63.1925580905306"
"3599","20.5399640633575","-66.3753669444296","-4.4136912031596","-41.7209851796663","25.0059070796108","-62.8237834309063"
"3608","22.3029714659357","-35.5588829201391","-25.7375117948367","-19.888144778261","25.6798203111555","-62.5663376967218"
"3608","20.8296944557274","-38.0038962196902","-19.6134678416108","-51.4273290302396","27.5334044280682","-64.9903894604439"
"3620","-68.0747440856874","143.899983951282","-19.9844668358167","-38.1299607541918","27.3656803178259","-64.6826472382656"
"3620","-42.6361820046691","84.4956423777425","-19.0693003571534","72.2199026570702","47.4532541161013","-70.9772527443946"
"3628","89.1541767069036","106.783668397595","2.39601497864795","38.1700086539321","43.4727548786985","-70.3715875871912"
"3628","55.5283799375679","91.2478134969037","-4.6956744464466","79.01592355782","41.685475027592","-71.2506546964336"
"3640","-3.85364120479955","-200.354632491591","-73.6281058934591","60.9914840358244","40.8829703477379","-70.8643413243787"
"3640","7.40515381203306","-107.844053527584","-51.3903612776605","-39.9781896604468","37.4206564845371","-75.8022066658242"
"3649","26.0800002493496","53.4682076735307","-35.6773995827811","-9.63742642308469","37.8660465130645","-75.249385952568"
"3649","22.6593704408641","14.0156131151489","-38.0844360113852","-54.9007524036723","48.9229678600666","-77.4672331239672"
"3657","-63.4243946675468","195.620890840808","-26.2354715614676","-35.9551515233258","46.8876246933286","-77.0155371585548"
"3661","-39.1431171551099","131.143343722429","-30.5260588833222","91.5761292109978","50.6267104590655","-79.3039806528667"
"3669","-33.5899837663159","104.806955106323","12.776285049298","52.722352934867","49.3055934966166","-78.9015687738433"
"3669","-30.930907907088","104.350311136956","-2.32209695358913","43.233320899389","45.6104180680853","-78.6206405187802"
"3677","-69.2649020059784","-118.626247931624","-115.597460301667","40.9158697376176","45.9512511656877","-78.4245213468404"
"3681","-57.7177160740855","-46.2913076103062","-79.4992770278487","-63.240880691068","35.2473510524549","-69.1743870151286"
"3689","-72.9814305836966","-105.770567663715","-64.1596293248697","-29.6784786868194","37.4412039187301","-69.71676428487"
"3690","-66.5416776536023","-76.3525367910767","-64.6520286277451","-42.5510379675696","52.3851828243235","-64.8878489042502"
"3698","-161.588168844666","-16.4952126723948","-45.2799082627233","-33.6948283298122","50.0951633570052","-65.5167288095418"
"3701","-132.984630445539","-31.8205571443778","-51.8502326787179","-5.19529055392796","33.5570137523029","-68.5595344627365"
"3710","-144.853758442147","327.674035316768","-10.8405165046002","-13.2350140281732","36.1312362806421","-68.6837512843742"
"3710","-136.399825563278","208.807933485892","-25.4631362787635","56.7882992335555","18.6751928842962","-64.864802157603"
"3718","-81.1357767933858","165.627937085177","-202.397864202941","32.8896861888062","22.8372728693472","-65.1987508547377"
"3722","-95.6248733487928","163.041904678765","-144.856184174127","77.9705652712766","15.400137906966","-55.0167740973761"
"3730","286.226899279191","-158.727704707225","-67.9304118650514","59.9804064450383","18.0607976193653","-55.9086216976978"
"3730","173.310428957932","-54.6129246305499","-86.3403799554034","-102.433048429687","-35.0292284630749","-53.9274530061536"
"3739","204.222033787171","-271.255927835601","277.888172793207","-52.0983428748424","-23.8671262373686","-54.5443768781526"
"3739","175.457305795165","-186.36824936681","153.173548720426","-153.9308178437","-9.54929604896824","-56.276947128174"
"3751","-420.063006991921","-12.8861073113693","317.731801282726","-113.800771548177","-9.12046190504092","-56.486473890391"
"3751","-252.98298575899","-57.35512697756","246.360086663298","8.36960834546788","28.295873260712","-54.0289693538236"
"3759","-306.840906196602","52.8267438090187","-69.3159950505298","-25.793429595596","21.0961432659463","-54.3133578193352"
"3759","-261.931709238823","10.8389937388628","27.5007536959263","101.057867516756","86.1070053854821","-50.6062263171663"
"3767","-25.6525344070284","-62.628966464189","-451.649436029491","55.0380227914064","71.2974654356943","-51.0182361546456"
"3771","-86.0608436342514","-44.6404132536949","-278.213069565994","19.2180021527295","-8.24872934686488","-74.7398625678221"
"3780","93.2347196603905","-319.24979917251","-29.5368568250944","24.4698866301543","3.03431589752456","-73.3001965512191"
"3780","30.8017636880181","-227.573191964491","-90.6739565774644","-67.3035940733721","-83.4079665530399","-90.5215921935927"
"3788","-452.288402343255","0.218510696888472","21.1112567350015","-36.7168980522203","-63.2213265094542","-88.5440420261012"
"3791","-323.618310555124","-60.9359462903909","-24.3276678260313","16.4032840678494","28.0451806296179","-89.7672695543457"
"3800","-288.578802653826","431.21998845036","115.845854305536","3.37651751330536","16.0246607304506","-88.6212184384814"
"3800","-276.110262172594","262.877216529415","62.8982686417275","186.307301875461","23.0352677698317","-80.0098147033215"
"3808","186.94863132679","-50.393905001854","-271.59229624893","124.983424493534","18.1830931952892","-79.9980969805896"
"3812","55.2939181797816","27.8043691770594","-166.077712427309","218.864750444974","-120.482787594277","-82.5936942306055"
"3820","32.9726018212886","-769.024833859416","-76.4110030850046","179.792841221922","-94.7450114988414","-82.4057098402424"
"3821","16.3037980084186","-499.375933184203","-92.9075979033553","-244.112555340112","-64.5766268440552","-78.3688095388468"
"3829","9.62252487326033","-98.0943240902579","11.3718445406299","-111.640507408448","-63.0307516113017","-78.5506040716342"
"3829","8.62640156928607","-190.715897224629","-25.7833676197346","-79.2876288183387","-62.3366397697861","-78.6775168779857"
"3837","-1.8786206501185","704.357968766263","10.0040722403554","-71.3862732538328","-62.0249773287792","-78.7661161343495"
"3841","0.982857808144791","400.794785378773","-6.81268578224387","-230.987945621478","-51.0281008677217","-59.2996368413541"
"3849","231.504636088069","-310.633650951907","79.6801713991761","-177.966534761675","-53.090404726677","-60.7098688820282"
"3849","165.376224539787","-122.047849877483","48.4578359205672","356.447991953344","-67.9753169483714","-36.9584812404306"
"3857","-24.5041671635073","-470.652920327803","-61.4191189768808","189.964946809517","-65.6587760103259","-39.3773706090153"
"3861","18.7664240577674","-331.117137104943","-28.5438474620968","-347.578794281467","-18.0888973693355","-35.8584694128981"
"3870","178.000418701778","111.969122503305","-21.0265088949912","-195.859978983625","-26.7295952959362","-37.4018849423701"
"3870","139.573789983552","-12.40359880217","-19.3075761979007","32.5729890758515","-13.5484447849733","-35.8755831445059"
"3878","49.8364400203612","162.421327952075","55.4816581777253","-20.638154354052","-18.6299900089293","-36.8100547067909"
"3879","69.0261582260401","88.281506144181","30.5831441904982","-33.6336027517141","-20.9116493811816","-37.4624198060418"
"3890","-32.4185199754674","-293.146417220813","132.941383611795","-36.8074056089816","-21.9361348991779","-37.9178432131277"
"3890","0.273471037948531","-179.657503233446","95.3468645525904","-5.97856045883691","22.5826018708444","-48.6508895074334"
"3898","-1.86799442226575","209.66242645358","-51.413921101694","-16.4494107265823","13.5719138843016","-48.1437497437886"
"3898","4.49221297783354","99.1083212119427","-6.97259494082969","-47.0990586124031","29.6889176064259","-50.3934872994753"
"3910","48.9233156079421","89.553208400657","-113.718815966624","-38.5844440379464","23.9255968003543","-49.9640543697192"
"3911","37.1977256772636","77.2106715248196","-72.1276633231888","202.280540982791","24.4397961439973","-40.5510410816889"
"3919","-80.2882752957846","-268.008921224533","-106.900770375114","125.105596824038","22.6706762601671","-40.9797107215855"
"3919","-48.3888526391908","-157.643152368487","-89.8520725756745","-158.864538719032","7.91740627231222","-37.373303528691"
"3927","24.0872789164374","60.6916802988345","101.808108958466","-77.2169150269836","10.2930557538","-37.8556301384177"
"3931","8.74053156057848","5.21877170050617","39.6335865298725","-57.2765902737768","11.3597436736613","-38.192347765069"
"3939","114.735822944252","321.528815346949","-33.0375298601695","-52.4066806146414","11.8386961147704","-38.4274141242772"
"3939","81.4033909305267","211.075565037266","-16.6546819256","-130.227242327902","22.910687285979","-26.8745177335968"
"3951","-261.99740998127","-702.197130048061","-165.243573943038","-104.232905969653","20.8821106054422","-27.8093109314621"
"3951","-168.593176901256","-421.095581922525","-113.220266975181","19.7525190462502","19.9712614854425","-23.2543455202478"
"3960","-9.69218404069971","30.3744294029195","325.567868381336","-16.9672409702035","19.5622820628925","-24.0744729778394"
"3960","-39.2183016747017","-76.9429265768631","184.902217596384","-219.070433724763","3.86873630575494","-24.6470131726014"
"3968","-19.1186266238447","1309.39283302559","0.402238554178282","-158.428922250846","6.82219353529316","-25.0467099167888"
"3972","-30.1135690607587","844.267694086887","44.2140300868981","384.869720604","-32.1774445402586","8.5233651054997"
"3980","-33.3984610836111","730.237351236725","54.2321395961928","216.556391527374","-23.6886317496194","5.95901174008251"
"3980","-34.3798682773015","702.281607713176","56.5229045850034","175.450205084764","-19.8770786866364","4.16880783740373"
"3989","246.030877066682","-2894.97351786899","-320.248191858588","165.411080001063","-18.1656571828007","2.91904637457781"
"3989","164.807488521238","-1730.87862457983","-193.401575960446","261.282728175988","-9.64225841657242","28.084349091914"
"4001","300.45706335506","-1182.26254541409","223.526409833172","228.696903785601","-10.8151759404142","25.652529727323"
"4001","246.984261094534","-1197.76351630738","99.8621647303615","-1175.10311181014","-9.7908353933758","18.7472942521637"
"4009","-420.564903953107","2643.28945428828","-100.234945615449","-722.945033396429","-10.3308973023971","17.9266717657089"
"4009","-237.004504452031","1393.9641789485","-48.9896315985745","958.902257051722","18.8954396828717","22.5613410336128"
"4021","28.7899935475329","-77.5344975112451","208.944171074704","474.650049091913","13.0183270645814","21.7968557340906"
"4021","-15.8002022441702","225.712052432003","128.923934077546","753.189278980362","103.438912772678","-3.47272652223756"
"4029","-29.1221436089405","300.056148597302","110.626314437898","595.215296754407","84.0385665655459","-2.11370587571349"
"4030","-33.1022589364315","318.282389376199","106.442336771235","556.634228920468","75.3276371538067","-1.16495828965971"
"4038","-573.583213424856","-1244.32086864771","-351.519481771383","547.211798883362","71.416351736209","-0.502626937781372"
"4041","-418.059418151673","-734.409569589178","-198.238131448362","-766.65391660624","4.51852612880866","-44.3044638847021"
"4050","285.082609129652","950.652829494192","-1.99672825313355","-340.531706605152","16.4808025519654","-40.8830185037221"
"4050","109.156072415286","474.763682908447","-48.1236975303605","583.484948247583","-55.6975797124524","-52.8152454146185"
"4058","-482.696267709087","-793.080238121654","3.32561476791714","342.152167230343","-38.1063205795468","-50.1452671158439"
"4062","-342.520388611605","-447.905572837883","-19.9098618754628","-64.4307461095768","25.6279896982099","-56.0926578319898"
"4070","117.863182964817","-749.347031367549","337.901265701645","34.2718712540124","18.2452665245023","-54.2445981278888"
"4071","9.40918017225428","-603.248590298166","214.719217771344","-473.622632440854","21.1343217495539","-46.4450030700567"
"4079","-22.9929620548495","-567.431013628308","186.552114747873","-294.66275615888","18.4315334520331","-46.0000181080979"
"4079","-32.6735528479212","-558.649956218585","180.111357299322","-250.956425349844","17.2179572702884","-45.6893691053999"
"4087","207.710996446606","1661.61985593954","-294.308540307699","-240.282282114637","16.6730506824327","-45.4725015455335"
"4091","136.529224957151","941.942462277139","-135.790533883926","501.506217923183","-53.3662137424932","-33.6041050071"
"4099","-111.001719214109","-1036.71415326025","77.5903340539013","261.668913419842","-39.814471517984","-34.3186440062187"
"4103","-51.9550326200422","-494.802731287431","26.3825159621222","-413.182467325718","-16.6687163774659","8.14485743348285"
"4111","193.65162219364","741.846583532594","-68.5796538319879","-226.997499089185","-17.2760647692008","4.78910499465799"
"4111","133.030027381851","416.024230898862","-43.2939317228418","-151.678437278865","-3.58985034709023","27.1823029824891"
"4119","16.2467894582509","155.396976557203","-35.7407001591422","-150.283700424437","-6.44461734598523","23.8152461532335"
"4120","39.3561723532299","194.501451072411","-35.0135600832179","396.103204995984","-41.8482360513766","30.5778872754305"
"4128","46.2604220080435","204.088326222008","-34.8472904865097","218.544104342623","-35.74477831769","28.2989630416026"
"4132","48.3231626494801","206.438649970719","-34.8092708810652","175.179876826714","-33.0042710649827","26.7080204233476"
"4140","79.5616846850926","-673.91453862519","167.131908889314","164.589283491131","-31.7737587341298","25.5973655024823"
"4140","70.8946277568059","-387.74242561896","99.3082642174216","-208.46589151851","1.34956402756005","26.123893582622"
"4148","73.4089321786987","572.119284366802","-180.129755347812","-88.5749894221294","-4.7777670324776","25.4914687525062"
"4152","71.1601156056141","300.439525556438","-95.0267242488502","205.827416343932","3.32794360754804","12.0310782516967"
"4161","147.043874293695","-276.82391315636","27.1707199570194","126.727605395881","-0.0325196304075741","12.6342283748042"
"4161","124.715202953101","-127.3461451765","-2.88731887263948","51.2246922227909","-20.1532901527075","-18.1900360333058"
"4169","-26.5608656797211","-324.093735376013","27.4376273021057","64.7850544182282","-17.1876965420698","-15.7088014206275"
"4172","13.2433041509388","-239.328486171433","13.371802349825","-235.652392257697","12.0617201741645","-25.6936225110533"
"4177","25.1353536730914","-218.547389603244","10.1554770232225","-136.026484286853","7.19497056203587","-23.6641383240024"
"4181","28.6882689188805","-213.452684182935","9.42002434684976","-111.695427619919","5.00975634558671","-22.2473326056171"
"4189","62.0732374372173","396.725619892035","3.93784117842433","-105.753195016099","4.02857556737877","-21.2582446115067"
"4189","53.0474612586059","199.317278971481","5.68427200423793","101.123811709798","42.3627924222615","-27.0771949772653"
"4201","99.6867315823392","-287.789320062121","-31.1144744750423","34.6481810857498","34.575199536647","-26.1394696211425"
"4202","84.6208624718039","-157.208650135566","-18.5289642536419","-50.062032545318","15.5685901698696","-31.9942768216951"
"4210","-59.3816346875104","11.682056723877","-70.5625967726321","-31.7503158453687","17.0344521301252","-31.0815835249022"
"4210","-20.4043841837988","-24.9126017989204","-51.4607321947442","-18.499272618185","22.3456103935193","-21.3312007437487"
"4222","-231.621315745766","117.032022190119","-73.6629179109509","-20.2630473207358","21.730368079441","-21.5243489491275"
"4222","-163.725312657097","65.831246708793","-63.739723037364","123.279812659818","36.9640290925395","-12.5459665481205"
"4230","-143.440437114616","53.278835554127","-61.470661457186","76.3364513540691","33.8040794890978","-13.2780568946433"
"4230","-137.380048328011","50.2014793165589","-60.9518123848631","64.8717469681297","32.3852337815859","-13.7891373928044"
"4238","-24.989077189761","-178.682093356587","43.6757471435913","62.0717888270649","31.7481593359896","-14.1459284321089"
"4239","-56.4107108953489","-104.795319840628","8.60013627210956","-89.6087483505388","-16.618614822862","-10.489341980367"
"4251","-43.6822919917311","192.338273284","-165.926071344465","-40.6528046658833","-7.33573012961837","-10.9366378855764"
"4251","-52.8794997570359","106.183713488785","-111.833653275667","97.7192793485604","-7.82060476056484","0.468098673998526"
"4259","-6.29144700491103","-7.94447719366409","-12.6692087255681","59.5130894713498","-5.03831781777642","-0.570126566986229"
"4263","-21.3726180775413","17.0757908527308","-38.9940285930837","-6.00261222375898","-28.6049025579235","3.91263177255396"
"4271","20.055046599931","9.17105849387806","47.0960299213565","9.99686860421849","-23.1865104300407","3.0420957467614"
"4271","5.43213779483777","15.2331298257449","14.7815895318359","-45.7920486952973","-37.8145051393484","2.43436476404531"
"4279","1.06334034452282","16.7193106714678","7.39249195722465","-25.4170518280032","-33.3826059344377","2.01010093531195"
"4279","-0.241898675721259","17.0836636104679","5.70288315357561","-20.4409847239341","-31.3926434501741","1.7139175885834"
"4287","72.5212947595125","-14.414121207971","-26.5675436099031","-19.2257087665696","-30.4991324505581","1.50714866571474"
"4291","51.2603111340043","-4.13613599750175","-15.9465769230413","-4.88270249955704","-25.4449649008164","1.3628009569847"
"4300","131.671336927285","112.448183822021","-27.6886619437237","-9.37979341330808","-26.1755983497846","1.26203019933631"
"4300","104.69524962108","76.0300617878234","-22.3736353148033","24.6374244034475","-18.7487041555027","-2.7139852849517"
"4312","-63.280423975079","-36.4337522031458","-118.581856419542","12.945251867295","-20.4139620646084","-2.48968637711599"
"4312","-19.4654934645523","-5.0054446231442","-85.5810593967109","-9.22379340961581","-5.65176746926632","-4.93687831281717"
"4320","7.23471530944328","-185.06828222953","14.0745372051206","-3.63801053315963","-9.02340972196453","-4.64529050474749"
"4320","7.21177415385592","-122.21258961674","-15.1379746542576","-76.0164112595418","-8.986316294355","-7.04550730300063"
"4328","7.20492016444976","-106.802852368233","-21.8177777988119","-51.6929675429841","-9.96966101273805","-6.72112562357046"
"4329","7.20287243975687","-103.024992445014","-23.3451976340109","-45.7525942058021","-10.411191609037","-6.49467112774909"
"4336","-57.4447106621955","-44.1891088790865","4.64694043700888","-44.301811339843","-10.6094428060218","-6.33658069931369"
"4341","-38.7590755392068","-62.7648702962755","-4.95231002081951","87.7356906880361","17.2193792210948","-17.9432148523244"
"4349","-74.0061481718807","339.803833924831","-85.0861519830247","44.9824426568205","11.7147698549456","-17.0459365902485"
"4353","-60.5367015044063","206.49780576179","-59.409748806915","73.1681331131963","10.7941419220981","-19.0233140757922"
"4361","-109.250835620451","161.532548264986","-184.617502985031","58.0517605315928","9.38077172489192","-18.4037435202785"
"4361","-92.8048609349184","157.508840235775","-139.247808865868","80.6966138352139","-8.31474552943877","-19.2731031146912"
"4369","-4.53082891345056","-111.968047535252","7.51952939990331","71.2270347886276","-5.26019145400776","-18.8800128174403"
"4373","-27.1577337129879","-25.0331541705099","-35.9202984250758","-61.0130754303115","-14.7456065140032","-12.0961482535207"
"4377","-33.9178363241938","-3.72014640953799","-45.8533538193192","-19.3093092204241","-12.0046429325539","-12.3602561641723"
"4378","-35.9375110308717","1.50496266045802","-48.1246701298404","-9.12424070215977","-10.7739257060038","-12.5446328646509"
"4390","-143.718790445809","-70.9173028170104","-0.817919641470244","-6.63680059424106","-10.2213226353253","-12.673348311286"
"4390","-112.919947204419","-46.6723864945441","-17.00064442077","-27.0986172702031","-31.6870733620244","2.85945913254536"
"4402","-20.3577960140965","31.2199276887061","-34.8717259277251","-20.0958878717111","-27.3253879237264","1.70308656724604"
"4402","-41.7035655524322","9.3160516091959","-30.9581703602131","41.310725586205","-47.0808265109631","6.10336493193901"
"4411","8.05987969918639","-24.1313459987415","-28.2919497443556","22.3077060122838","-41.9511955855161","5.17524870879315"
"4411","-10.0725986857958","-16.3313289654359","-28.6822853327633","-26.2276863013288","-76.8717300918386","8.43298662912555"
"4422","-25.6973453993805","145.271316024969","-44.7135787837697","-13.0812031704548","-68.5513632209085","7.70725008186733"
"4423","-24.3654558631721","93.8899121210564","-39.3793328593107","18.2218989838255","-53.9585066560064","7.200605242377"
"4427","-23.9675353339911","81.2932179998686","-38.1595913707475","9.86687374871813","-54.4061832028423","6.8469107862387"
"4430","-23.8486510397316","78.2050053251137","-37.880682351555","7.82637447910491","-54.6071939867295","6.59999271157951"
"4439","-39.1242574881147","26.5575538012079","-5.9328295899833","7.32803519799816","-54.6974496311776","6.4276164287871"
"4439","-34.688057440178","42.8956352946182","-16.6275568231022","-56.0016004729314","-76.4518496855434","-10.6172752970052"
"4451","-115.022013144406","4.78494223061142","44.6951146641235","-35.4682294411374","-72.2197703837136","-9.51650576179189"
"4452","-91.0229000768402","19.4417031051969","22.7173040535423","-77.8594304078232","-68.7685377948316","-8.74804617877802"
"4459","-44.7244011475002","663.551355909898","-258.636860133606","-61.2123871226736","-68.218903414895","-8.21157590790389"
"4463","-53.8920804531758","456.461643687522","-166.97197926741","76.2921851056494","-58.6661664522468","9.08749392266752"
"4472","161.127166975385","549.588245886686","-151.325680177047","33.8741278652473","-60.3769018957231","8.16416897886184"
"4472","97.3671586525084","490.419216497029","-144.747959836956","188.557538348385","-85.9608939766592","21.8403618409031"
"4480","78.3179690893472","475.913303695135","-143.243882501079","132.334968964137","-81.4483358350728","20.387865771365"
"4480","72.6267586808464","472.357025885836","-142.899956563925","118.604057502341","-79.4221567649654","19.3738619420255"
"4488","215.531497807672","-790.244385429942","129.964676383571","115.250636774036","-78.5123841935481","18.6659744733578"
"4488","173.226276818928","-380.784463491406","38.3585589080964","-547.495830095543","-50.1860495586652","70.2473407550045"
"4500","26.1893525736237","-68.0654654337308","51.0670983559825","-332.354549073876","-55.4672713026848","66.2568722291837"
"4501","61.2600257681871","-112.399098516558","34.9730635182843","81.8779728782616","15.0579913235972","51.7540824485751"
"4513","323.520818228198","-500.558435212566","79.1190779792771","-22.9564250189796","-0.275533350511292","50.6295219199401"
"4513","253.874878743011","-380.71979833504","62.2136117063182","-88.9423645511434","28.5123703304778","5.58023567008765"
"4521","146.304144905621","-212.707774957196","-79.8163654326057","-82.0577271779796","18.4383972270931","8.13082267381792"
"4521","165.16589156757","-250.517852020672","-34.2932812308955","200.547797423693","40.2819405287995","-20.0320254006048"
"4529","170.801100801489","-259.787391956907","-23.8838634285446","109.566902729958","33.0898873443815","-16.6928261363018"
"4529","172.484697961348","-262.059917624739","-21.5036209453293","87.3471674272752","29.8605909727577","-14.361693603869"
"4537","-39.666814870631","100.63471129712","122.518996417644","81.9205705732512","28.410607944493","-12.7343037856395"
"4541","21.9499690610325","-17.4468677802005","74.4515541168647","222.813104971021","88.248202845984","-31.1265360944214"
"4550","-3.87329774945859","30.8171203713451","-138.472148837273","176.222470046854","76.1158195261184","-28.9663601616477"
"4554","14.4116420183952","-1.35045292130776","-73.1597943019885","173.622789026227","52.056378228405","-54.7979810682174"
"4562","-134.937961772519","-605.882080607719","-155.648882264634","167.987884034973","53.2534733424492","-51.8313259196344"
"4562","-88.5582337679263","-414.089397301328","-119.511035297442","-361.87681491266","13.4652129275756","-66.6848245266529"
"4570","-54.2868117101841","-186.320932704647","72.9714417518831","-190.282591768173","21.5999272162084","-64.0542188282812"
"4574","-56.0477475608965","-233.481086749047","12.9849473913485","273.011062795014","6.64059448168918","-54.4064308556035"
"4578","-56.5738516457474","-245.042896860665","-0.731708526127995","146.158580265136","11.9237199421406","-53.6712016497428"
"4579","-56.7310325606483","-247.877396784717","-3.86819202235686","115.178135482851","14.2958906481682","-53.1579298786032"
"4590","-61.8817008075594","558.653834725052","-29.3841142391069","107.611961453249","15.3610165666534","-52.7996090870069"
"4591","-60.4205346062552","296.383488852695","-21.2186463149555","183.01825437478","-13.6295619700676","-26.5116860761814"
"4603","213.91501917336","133.814133875848","-81.3483267147825","157.434295176679","-7.64659169431108","-28.1597915978465"
"4603","134.876582625473","149.958538611232","-60.0977238960067","-70.0416786058121","-23.5720767855035","42.293529324348"
"4611","39.8108344004897","206.56169301819","-71.1805483786726","0.403185976124176","-18.7227623967778","36.4777844166932"
"4611","53.4086194928147","190.438554454132","-64.7147736512621","-43.8446273925518","20.6784080377534","61.059300302473"
"4623","-151.780891760777","-113.591746360409","44.815299379937","-19.6510137672311","14.3698868768745","56.2199327901583"
"4623","-90.0841129970212","-17.1279873338051","8.86070902423604","-145.42553383663","16.1902774052515","61.9547372786395"
"4627","-71.6513419698328","6.52112253696565","0.639246012931439","-101.142714110264","14.0076490761065","58.9582687399554"
"4631","-66.1442951750275","12.3189517250812","-1.24069347122214","-90.3277783362372","13.0276293844861","56.8664003786955"
"4640","12.0566355995551","-258.259761277359","31.9848494024702","-87.6865094080372","12.5875917550194","55.4060435672198"
"4640","-9.5797483419727","-169.594992011232","20.5822818600275","-127.424291276116","-15.5278276787701","53.0846633036248"
"4652","101.341370954648","-68.8901124142043","-29.8511717615406","-114.129218861152","-10.1519031181631","52.4640816538671"
"4652","65.4805985617006","-89.2012470191076","-14.3834064325531","140.193700273742","-3.08509168531059","1.25718491324094"
"4660","-62.6185961330875","-29.2516772818978","-129.526129084385","59.3055091717053","-2.91202998319426","4.50907483394824"
"4664","-31.8900127595156","-51.554406765727","-88.8549406752769","60.6199659488113","6.47162247034992","-20.5604082689301"
"4672","62.3523834050443","48.2682093974","-15.7868155111633","48.9409880903546","4.68496656608906","-17.0616961546624"
"4673","40.5086104295808","12.7407785886806","-35.0788824656437","89.9830944366224","3.8827420439637","-34.1475373386033"
"4680","33.9824793463299","4.03085350282636","-39.4902528444672","75.0065696107069","3.52253603990635","-31.0753550803148"
"4681","32.0327068888147","1.8955233290899","-40.4989673935655","71.3489399676251","3.36080031408335","-28.930630120526"
"4689","-108.051173914509","145.26885806775","-233.8054206143","70.4556583311002","3.28817952288929","-27.4333735236132"
"4689","-67.9031822557372","98.4183461240709","-169.007338624715","22.8315504742894","31.1734107287456","-31.5956769149717"
"4701","-903.123982632194","160.635704225876","175.278339616539","38.2005913133917","25.694129589677","-30.5014276885711"
"4701","-654.657816958217","133.888947023649","68.0035299463345","-10.7191914412739","-7.78593743310734","-19.3224099106578"
"4713","-229.970459142205","4.49293655830461","68.2725406055395","7.33341424552983","-2.81878774526059","-19.5182119697551"
"4713","-309.089202427991","42.7701372478362","54.334053229169","24.0327279156406","-101.402910133378","-9.23979349188347"
"4722","589.342931549032","-663.820291132463","-195.069080835187","21.1111042685596","-80.6680650987791","-10.0643140433021"
"4722","315.762031231354","-429.048401285129","-113.09820065906","-149.912680479822","-263.680821827219","-21.0550312019914"
"4730","234.025931000295","-371.491591623203","-94.3545422637076","-94.6808257631174","-221.855190690963","-20.7277743644858"
"4730","209.606133882791","-357.380931524102","-90.0685723035607","-75.9245433581115","-151.892403170516","-2.27287002092624"
"4738","74.7176732033735","-8.21818581683945","-266.222291866397","-74.3438054822693","-153.478484210912","-3.38929390191153"
"4742","109.417868906715","-119.617249057431","-206.502024589314","235.058791523023","-76.6410971753108","20.5672045177898"
"4750","289.908643873598","307.575506532867","345.640384846471","134.622390128673","-92.1404213882191","18.2915052884405"
"4754","243.832774016982","153.306324768616","167.894594705077","1.23529113558192","21.8775436229141","-0.221739823550331"
"4763","112.681676834883","-246.011318494439","136.10750328628","30.658934941281","-4.92736767722621","-0.146044288642243"
"4763","142.498461880031","-137.908258383137","123.838990594265","-116.663370775516","17.1587895107617","-11.8101992427807"
"4771","171.821474292646","102.684759952333","-171.237060581909","-64.6430415429618","5.07567213682574","-10.9530768983926"
"4775","168.582132214493","39.668680775766","-73.7098593613302","-51.938418777965","-0.349755914526204","-10.3547101574083"
"4779","167.614333700507","24.2196230663227","-51.4090552220359","-48.8356425752365","-2.78582175990898","-9.93698361106351"
"4779","167.32519042972","20.4321233166007","-46.3096997700696","157.347900211356","16.2832462588538","-3.13592020478854"
"4787","221.678359646973","331.864996780217","-50.4576816937966","90.702908918508","11.8454287934123","-3.38802141031077"
"4791","205.917125152381","230.216056662506","-48.4061692059641","-37.9430619372724","34.6686654835895","-3.56401609500684"
"4803","-77.794481244816","-63.1946883738568","118.568668734115","-5.36151995304055","28.9165034155981","-3.68687996222679"
"4803","1.44272913694381","17.8725669700284","62.7495363329935","-132.599056634276","114.740219942506","2.73679120116717"
"4812","-325.33868582909","332.560085987682","-183.830763458019","-86.6735409547422","96.2758382524594","2.22122822974421"
"4812","-216.96917997651","241.709056619817","-108.214407215116","117.677920019023","115.903003894074","14.8801955451776"
"4824","218.600670293755","-282.448111064532","199.575576462501","57.5854900296123","106.715777265807","13.7175628899411"
"4824","111.733223034014","-124.950779561004","105.955573592808","6.0381729843427","88.6317108308362","19.4153597774674"
"4828","79.8050863456822","-86.3386444476197","84.5481988154347","14.4490712375971","89.5118028400026","18.3930558166641"
"4832","70.2661113020366","-76.8724715049953","79.6531370678211","-173.120571441318","27.8673307277644","13.7737076470354"
"4840","-209.885272428229","-55.2485054162659","-316.474463756296","-110.929615473849","40.1884099775659","13.5488887774426"
"4841","-130.584395992255","-60.9471616262821","-184.053952653627","2.58236573199454","89.1484339663635","17.2976064839674"
"4853","-94.9835032533908","-160.615255655163","72.9568520353458","-25.695262614403","83.1319237664929","16.9146284430959"
"4853","-91.3472412415321","-129.049942112377","3.72556010160216","30.6065856741965","49.4106360780247","8.8359345970269"
"4861","-93.6633295496163","-333.64694331936","108.345923191126","8.35685896218445","54.269475523931","9.19610763447923"
"4865","-92.3552931548012","-262.806060169034","64.2686667646285","-137.539127327725","6.81942495183735","-10.080782949984"
"4873","-256.984399547262","-89.2579595545397","-131.800592323528","-93.1704563886048","17.5139267558823","-8.53819690127987"
"4873","-209.169635524697","-135.710808782986","-71.6342601612028","-61.265243950455","2.15297053673409","-23.083965388686"
"4881","-194.884309538362","-147.099215644788","-57.8764820999103","-65.4732192892557","8.25576345119131","-21.2385298355325"
"4882","-190.616369651855","-149.891203929773","-54.7305955154809","137.169085314465","6.3429990953864","-30.3653206325721"
"4889","-235.274637587904","123.179262166058","-201.032270124391","70.6592379951734","8.48415074769136","-28.7368358551378"
"4890","-221.616916452868","34.1253725014633","-151.485962528882","66.706355084166","-49.4921122109256","-41.9207487127152"
"4902","112.503318680185","-129.849123656338","67.0899141090366","58.7409654574674","-37.5239741579703","-40.1245864398033"
"4902","18.3263874556314","-89.0492041297792","0.0699991875805184","-57.329803028021","-74.026930741219","-45.3801091816054"
"4914","5.50084377801874","89.4179128355489","52.0558931322683","-20.6770924321136","-63.417085572557","-44.0490486693817"
"4914","-7.33096583417967","37.1710124454113","25.9431125372889","76.0631766258509","-46.2452416890996","-43.1198203672998"
"4922","33.0674907871324","-23.0185319725924","-24.3113385470042","49.6894904669516","-46.5349298038813","-42.4711156469206"
"4923","19.1370917561525","-10.7746348176044","-10.8026420677915","87.1427935827709","-43.5630202992678","-36.810692543582"
"4931","14.9751912355655","-7.77291404716586","-7.71371107633664","71.2897961951993","-44.2286062823032","-36.8590875631345"
"4931","13.7317655515817","-7.03701048070939","-7.00738869470251","-23.8822313745751","-66.2413348177362","-32.98720638424"
"4939","178.380175292816","-52.4824211995361","9.09615905559836","4.87445729134026","-62.1252473203614","-33.2842026209354"
"4939","130.571178414259","-37.6238438649687","3.77843497280634","6.6302088545852","-66.481051256317","-25.6802064596075"
"4951","17.6158823816119","157.296391563639","-22.2362549568775","10.0590058577791","-64.4368462824664","-26.3717712854446"
"4955","41.8689161736906","96.0831470270706","-14.1848364562504","70.5927785717069","-18.5402399643673","-9.93000655658301"
"4963","-12.1296516958644","38.9599268916158","37.2536729718209","51.376590174176","-26.9322521683372","-11.4518258263131"
"4963","7.7375248848306","48.9555658467281","21.0157261181857","15.0795675480269","-13.6394395379246","-8.60855867485404"
"4971","117.448521617852","16.3093137044887","20.8453933741353","24.214956601482","-18.670847468963","-9.62364192369782"
"4972","89.2262082729037","28.305740014521","18.8064446796578","-24.4714589005304","-19.3790037142039","2.68660467244408"
"4980","80.7943995112669","31.2467906922612","18.3402137726233","-7.36185928549894","-20.6969722184209","1.28052616413605"
"4984","78.2752793341273","31.9678203443838","18.2336042933054","-18.9852634709824","-16.6357787964458","4.20459324184205"
"4992","-87.4972433304566","-67.8812592905846","-183.723259402421","-12.8239799420277","-17.812266532874","3.24591732954328"
"4992","-40.0240908272459","-35.3603162816302","-115.903201054578","-18.3423487038549","-4.38160078005688","2.57665490153848"
"5004","81.337047462027","-81.7874858687137","67.8817681876816","-15.6900678442651","-7.35111142299372","2.10943527935682"
"5004","54.5953759924505","-62.1695970950764","14.9064807963017","-37.8674022312912","17.6823992298396","-2.12240227542534"
"5012","-91.1941934768263","39.1561044502955","32.9057634664095","-30.2836437560379","11.9226699908162","-2.0766956299378"
"5012","-53.7508556887963","8.99717090633701","20.0215226848661","-5.60642095470576","-4.6224193816914","-7.25234235494874"
"5024","-115.717289337021","147.255062582502","-147.659015334873","-12.5796462071422","-3.05131287132634","-6.86551949775403"
"5025","-91.230623512584","98.1504457164834","-93.0012500094045","62.9714591491433","19.3680025007658","-7.897362875989"
"5029","-83.9148914208094","86.1119299967475","-80.5030740753084","37.4228666506063","15.4344761389535","-7.61770433422207"
"5033","-81.7292146764806","83.1605606554541","-77.6452111394661","6.60242100320035","-8.04558693048033","-4.81869403946416"
"5037","63.5288540763713","-138.672767267283","-55.735674164456","13.0753226326976","-4.58834579659929","-4.86467349733092"
"5041","21.9267230546758","-67.0575517498857","-62.7257868022907","-99.4692658672493","-27.8518700525678","-11.4062160834343"
"5053","-38.1371028310287","-116.184223347203","4.75800355112273","-61.9553768209419","-22.2974010497168","-10.9729404768475"
"5054","-28.0820064670432","-90.2281460173722","-18.810990817485","-24.7011646970732","-5.84447536383858","-9.36857714475512"
"5062","-123.749599595138","149.528905192638","-54.3130728517589","-31.6027849208697","-7.45696419594071","-9.24855307273758"
"5065","-94.331624040932","75.3078798414879","-45.431064223139","79.0813243175877","-17.4869323383275","-11.7685404431672"
"5074","11.4278624142295","-60.4624308288838","15.0540579266306","42.1130612308228","-15.9904779739309","-11.5277719461588"
"5074","-13.9750196025826","-26.7479571926946","-4.11526872765786","36.5960687467638","4.84432688230307","-10.0577999906639"
"5082","-21.5644840289111","-18.4824977154462","-8.49857301455704","33.2486857266766","1.19934109041503","-10.0315960489434"
"5082","-23.8319421165558","-16.4561329823868","-9.50086990364733","-39.5556343939016","-29.9061198402801","-8.711414020778"
"5090","-29.6130850285712","-8.93999052374422","-50.4708222610289","-16.3362104963528","-24.8727507237681","-8.78978011067"
"5090","-28.3402819050998","-11.0973287759288","-36.8391099969985","50.7866878485059","-22.612722855758","-2.33504454885604"
"5103","45.1931374882105","-120.426267883069","-3.6093107629854","32.1797233203188","-21.5979500771382","-2.82892111463933"
"5103","24.1622695836345","-85.229412598656","-13.0109050358513","-3.96851209987395","-35.1012272961245","-0.56992437147327"
"5115","-29.7556052431036","-143.284430044756","-16.9320337670372","5.20321438842284","-32.1643198526115","-0.992893358395003"
"5115","-17.8643204932055","-119.517231046775","-16.8286484831856","-103.170704176504","-9.13174761426996","10.4288260962231"
"5123","31.6217406221324","209.200004586215","-55.7744353010019","-66.6382366439883","-12.789916144004","9.40245680512234"
"5123","19.4063898672617","105.788508500485","-42.6798724816555","31.8284419593316","-17.5344486828084","11.2897143925748"
"5131","15.7568838801907","80.4360874720059","-39.685638287818","4.87638677307722","-17.664786337403","10.6072301234335"
"5131","14.666543191909","74.220673554462","-39.0009695034352","89.5943850545097","-8.41736291563268","12.7345577093063"
"5143","-87.7333764936794","-273.006469121274","46.1797931861571","58.2845695544894","-10.2651868767386","12.2196690039761"
"5144","-58.3267771636633","-161.132872343728","17.657431028752","-63.487472428522","1.31305185835729","13.1621081744198"
"5152","-117.590589977541","-131.951038477637","71.3609174884443","-28.2271507339285","-1.48821512642439","12.8200355504665"
"5156","-95.2964785779703","-125.796803537037","49.6408857244459","-49.4639160043089","-8.9499732534392","16.4868970933711"
"5164","78.0853339259701","-147.100940435995","-314.907201215267","-37.6504477985007","-8.30036956275872","16.0467743447742"
"5164","31.885562628372","-139.323874720429","-195.265642598301","65.3139080798071","-18.8656289109244","2.72063208816974"
"5172","195.01129126218","-267.275362911105","28.7103569563189","33.4602944824549","-16.6095250979292","3.41750241924256"
"5176","139.747372218106","-224.644022321479","-31.074752885259","-11.1904205058137","-59.0242631765539","-20.8318910486082"
"5180","123.236507530906","-214.192498684874","-44.7453597348064","-1.09520520214614","-50.0688609108187","-18.7606651439355"
"5181","118.303656994164","-211.630197222717","-47.8713135405302","22.4396002984638","-35.1908677592268","-34.2392729689888"
"5189","-97.5258477273761","-246.098810600422","-29.10138807522","16.1873691062341","-35.5105154217922","-32.0450630407235"
"5189","-36.0079150436803","-234.549155404399","-35.8094118237503","72.6010247416614","-6.18521046338939","-50.0415918607479"
"5205","399.17426460646","-59.7433709654095","194.70194062366","53.3786040883529","-12.0178855742873","-47.6051708755447"
"5205","284.190995355394","-114.887885714168","116.411220275673","122.426608000764","-34.7996924290012","-74.5458307685328"
"5213","62.702174335687","268.186565603614","119.765127238283","97.289800820279","-32.0289279933815","-71.3534081997822"
"5213","106.529307538684","136.101315342954","108.532039662084","289.553450991665","-23.0298747515541","-99.0681836532968"
"5225","318.667895547683","1047.8228353614","-384.697059640546","223.508885201415","-23.9892191506132","-95.416179856884"
"5225","265.047250145334","733.341000276744","-220.480010465425","321.504632280884","65.5375065201995","-99.3761187751266"
"5229","249.027336321046","656.242455234274","-182.929745471103","280.437564224721","47.735809140999","-97.1405966358657"
"5233","244.241164185072","637.34093220651","-174.343411663338","207.200063633551","21.1307949933696","-76.0516220780378"
"5238","-58.3075587735716","-55.1900335824108","17.1530829872252","225.313694381591","21.1849050714094","-76.3291719406811"
"5242","28.301800959467","167.028682087415","-46.0588684774239","-316.308795764904","91.0037974624093","-23.1454933781521"
"5254","-447.687093586786","88.1401515507893","-25.0863132152726","-137.586109650936","77.3531062185705","-27.0173696938548"
"5254","-294.89539814433","144.799794664119","-40.2906783426594","-176.459169493374","100.692653068255","30.1665129884916"
"5263","-167.587421190817","-283.52903217906","-146.504925656572","-138.952911042211","92.172318891684","24.0872241232489"
"5266","-177.552391872605","-136.538370287469","-112.792130626115","166.933136451496","43.3678724895013","62.8055333921872"
"5275","-197.541926376435","-551.495790501574","-113.93996990732","72.6379086014473","50.454238420841","56.8352202103691"
"5275","-193.51407791874","-396.22698697743","-109.202437595034","-252.384706369099","10.2083313467696","81.3088302469124"
"5283","-192.310702153577","-358.161199047344","-108.119142074629","-159.76309120849","20.1375581816618","76.3941324485965"
"5283","-191.951176901475","-348.828968890029","-107.871433118325","-117.829118367804","-4.87295955836237","92.4914581136132"
"5291","-91.4708345823494","71.1107109702351","-35.1899498953786","-118.587827821625","2.89709370469205","88.7291820625964"
"5291","-120.450934357186","-63.9366389534519","-59.5704273250299","332.461260173116","-37.0418316267505","80.8951398229305"
"5303","-307.738931519473","78.4390194360809","-75.7733514530206","185.618358292419","-26.9747672366838","79.426106896215"
"5304","-258.693826361749","13.3439165928338","-73.478351011502","61.96697903333","-42.6174484809989","64.0797821193724"
"5311","247.616310372989","-397.453708132827","159.091654576887","81.7683211041302","-36.6411526290964","64.3663403301945"
"5315","109.883507886037","-273.165086787577","81.2716708020109","-320.735700113647","-63.4265718267884","42.4342808840359"
"5324","46.6178477674547","-97.0427449624237","-97.7145550230855","-187.03691862585","-56.4534652339359","44.123263711522"
"5324","40.7163516080664","-136.864491755727","-47.6419754330004","-56.0609966610078","-129.321038457612","21.8683638887774"
"5332","38.9531975244412","-146.627213783811","-36.1922590850232","-80.0735082231293","-113.039232245453","24.3319682212789"
"5332","38.426430711646","-149.020648252981","-33.5741394370574","94.9069640338261","-49.8928780711004","22.1461718059497"
"5340","176.069174865251","38.1603953118996","121.130897074961","34.6414281185784","-57.539598807494","23.6202427643619"
"5340","136.191859669465","-22.9501938911339","69.5061224012154","16.4115748107615","-74.9319642831518","16.837975694266"
"5352","18.8013195419845","39.2808344481365","-43.2647656617543","13.9594036547185","-73.741292340706","18.1031988333086"
"5356","45.7292624543139","10.5374286490797","-12.0512278572461","22.13940319116","-31.3299120732301","22.8921316111991"
"5365","281.739995733204","-19.3222336452266","0.400147479895764","19.1371569513054","-39.286822026281","23.2353394016166"
"5365","218.251485857293","-13.6426453877071","0.247308878800449","16.6481599854025","-21.1456714848861","32.5881579508739"
"5373","-23.5785171980265","-77.1792933254785","-139.723309766152","17.0402867177488","-27.0001322183895","32.1174656873695"
"5377","35.1714048701638","-55.7559739676505","-92.7293277036202","-19.7352384608697","-37.3837927497627","30.4869813665935"
"5381","52.7237614606879","-50.5038208440078","-81.9835708625955","-7.71671130565507","-37.0461494396139","30.3487219388275"
"5381","57.9677721935588","-49.2162000055447","-79.5264202867455","-32.8739092090652","34.4510429479778","40.6673115742972"
"5389","-204.157100166025","-238.42318490014","-148.046728635652","-23.0179054871045","20.5539234520833","39.8708349594425"
"5390","-127.470552659814","-176.809276622478","-124.714746962118","-31.1454858231046","31.3748935436047","49.729915779541"
"5405","-45.0161166180509","1868.64524790096","-52.0687712724262","-27.1304375464871","25.2336061473586","48.6126508967016"
"5406","-55.3817066830767","1213.11003917847","-73.457367939938","326.761072196967","-58.1754206741488","92.0968936331015"
"5414","348.116853925267","-435.705183438743","-202.341767665485","212.189939475494","-43.6268216536268","88.4537321646235"
"5414","229.66766267937","8.07034148642472","-161.812784150305","131.535623097919","-55.7062626296176","128.872729346517"
"5426","267.432470593319","-2299.54729820051","-150.773991811707","141.837888018908","-49.1300399453255","124.089685509115"
"5426","235.715232369733","-1488.28414747294","-149.249835034967","-1002.16765367391","-91.1559969447296","118.146811330294"
"5430","226.239266176606","-1289.39441334623","-148.901317684625","-628.561480331532","-81.0260284881876","115.998024079858"
"5434","223.408189439714","-1240.63449333074","-148.821624869986","-486.40031681348","10.3779160278946","144.441373077494"
"5438","295.715517628509","912.223624411024","279.860296477714","-480.681121818466","-4.58089325658116","141.297994659963"
"5442","274.31833791829","220.019541514094","135.883734517421","1034.19439225483","13.5183237641224","163.839453338726"
"5455","-91.0351816245519","750.499329692925","85.2483319821323","542.163637474202","5.64503450380673","160.575898963968"
"5455","10.8103713418724","481.552055415593","83.669919187328","464.136444425958","79.6594086706743","137.467354787512"
"5463","308.332212940865","-1616.48727413484","65.5956195504532","421.080316413813","62.8925263654813","137.335020403407"
"5467","240.221002463914","-972.843786035369","71.4627067721481","-976.497921551413","64.6699920576658","91.6765296137482"
"5475","48.0469859072495","1122.2949504236","-191.125012996998","-527.82033453617","59.4680900921594","94.8018240819809"
"5476","91.6323247929634","531.940351276794","-102.168951863973","-118.004750794813","-62.2939200700268","76.1534070808945"
"5483","104.654051176752","387.20868294022","-81.8280452091835","-188.917871848408","-39.9661544842936","79.1347376009591"
"5484","108.54447310186","351.726185048679","-77.1768446246596","871.809776012441","32.0988537951056","68.1971503216031"
"5488","-97.8440118667443","802.795207153362","-145.195456227398","516.865126512624","24.4566887262914","70.5614977249465"
"5492","-37.505443181364","651.379544428803","-121.748755370564","-258.085060530118","69.10601010245","51.3818550263146"
"5504","-36.4908171840755","-449.174301634841","55.4323705362408","-55.3466421711736","58.153955775027","53.9923309169923"
"5504","-26.1876835511533","-112.986706696523","-1.05296753789681","-629.133428773017","-11.9052382081248","54.5128447109121"
"5512","94.2758109871804","1297.84668542183","-214.130189165978","-414.266041904464","-1.3624445339692","55.8762212399974"
"5516","61.2659559583227","886.727399964147","-149.852938579504","677.629051169763","-9.03656389929117","67.2431198123756"
"5525","161.984148182385","236.672420294628","22.4938981434222","352.296245728343","-4.48231230887388","67.1784794473043"
"5525","127.075109375793","390.304572811032","-27.0968601098358","371.165550238256","-2.43741250637237","85.3597959495923"
"5533","116.645548351788","427.969118451861","-38.4364020333627","319.77389084611","-1.51923415823952","84.0523773220269"
"5533","113.529571892049","437.202979821984","-41.0293289327408","-646.163460422321","0.444027186369642","93.5547637810701"
"5541","-356.942529509613","-625.720777237782","-213.441980785435","-339.068727527123","0.325549134849058","92.1884865562359"
"5541","-221.502615361478","-279.307768337998","-155.866271977869","-16.504375939632","59.2100106777235","125.083780882524"
"5553","12.9028572783238","560.199997518909","22.0335244915373","-78.7263584835206","47.6496619330022","122.048355530023"
"5557","-31.0652465470966","336.014197509186","-30.2874806451563","366.090790482894","-30.4376168626777","139.457622408784"
"5565","-316.399103242821","-963.128478266927","-38.7086521854239","212.725898341517","-18.499505257942","136.611227262717"
"5566","-241.6465627077","-572.627033447254","-42.6342575016081","-342.683382180735","34.9415359228307","143.73734815716"
"5574","146.452557550103","319.805624752593","0.751544093294601","-183.327763777566","27.9370426238613","141.712173237134"
"5574","47.4025692510042","84.5949213651334","-14.3277542800288","-209.372971941325","18.5879981910488","136.392709580578"
"5582","17.8100071894732","26.9305319268447","-17.7758228739475","-178.733841805818","18.3901934069516","135.679132221641"
"5582","8.96881755983717","12.7934975087591","-18.5642665225858","422.201198745484","-45.2892550639699","122.162088228468"
"5590","-92.3443039080504","639.315010532389","-210.049014472513","230.964072204857","-32.8818984470424","122.725687911882"
"5590","-64.6130084901503","433.913379986466","-145.834376979075","87.6916703415744","-24.2089020022923","116.609699374776"
"5602","101.88705794914","-528.959505338965","141.635086321673","107.701084061915","-22.3146488270212","117.340059045357"
"5606","58.6312692707532","-245.017967982611","53.3685444427428","-305.286775886431","-18.3621300995662","103.529154957528"
"5615","45.7080005963513","-175.406699651631","33.185304917158","-168.148401419618","-18.5874137483302","104.887607606455"
"5615","41.8469942817392","-158.34076162874","28.570156877192","21.6081540874981","-24.8925322583872","98.0246260951855"
"5623","18.5773957937325","242.436845243491","-80.5367474095425","-21.0487048661281","-23.723587007996","99.2335015757734"
"5627","24.6252795014633","114.691710638608","-44.4853942720734","149.378366752979","-9.23980081237789","101.379319896121"
"5631","26.4321689018083","83.3736409903571","-36.241805250618","88.0007802556757","-11.7364509330666","101.877339780327"
"5635","26.9720022489519","75.6956852738721","-34.3568063798258","-125.391777626099","-11.3064781920477","94.4136804864359"
"5639","27.1332849719744","73.8133532959944","-33.9257780093381","-64.507402204828","-12.1134165757241","95.2032160565408"
"5639","27.1814704293627","73.3518797207648","-33.8272180266007","-49.6379649401822","-12.4757391458874","95.7543997108557"
"5655","69.7267686865382","87.2774600602782","28.1921348486659","-46.0064886699996","-12.6384252288715","96.1391872141516"
"5656","57.4377684627316","82.6914632339734","7.37362907804472","184.887036803707","38.4712313469305","104.219144266274"
"5664","-50.0091426504388","299.167247326638","-75.3256347581405","110.276821014989","28.4199254545832","103.859853087163"
"5664","-21.1104022269148","228.238573325418","-50.2358471111374","-2.75669223961338","27.0087810437211","101.005250353362"
"5676","-32.8913345116632","-419.137697017883","-51.5841063798285","23.6377895545677","24.3751645493788","101.012420104783"
"5676","-24.411051936832","-218.848830603879","-47.8924025833878","-170.074481863237","12.3357098971924","98.4136478648841"
"5680","-21.8774495335968","-169.745898523338","-47.0482487240095","-103.383704423361","13.9298867994338","98.5994157591296"
"5684","-21.1205005662676","-157.707795846566","-46.8552224744523","-29.155601596107","36.3595609843528","93.5215473658891"
"5688","-94.047503283029","20.7274155195519","-11.3843326782993","-44.0273033155284","32.4306858223882","93.9766303753287"
"5692","-72.8354599594139","-35.5273068653828","-23.2734737990271","98.0700596182035","16.7076663479215","82.5773300807286"
"5705","30.4723900748205","-35.2800310462653","-49.0194621388645","49.7736729671965","18.6478896140853","83.6193504393852"
"5705","4.33704756826532","-43.2194087662121","-41.9066016871501","20.4207689613714","7.11113899551372","71.3279089423237"
"5713","-3.47124961990947","-45.1658311107196","-40.2801579276797","23.2520797594239","9.93103451664267","72.747115501632"
"5717","-5.80408703972006","-45.64301711658","-39.9082513901232","-37.5085990081795","-13.6186636345898","59.4171031681059"
"5725","-59.2393733799814","401.724051072607","-27.4238471651786","-17.3478265577903","-8.19268927686072","61.1112717549876"
"5725","-44.2039086056179","256.400815226624","-31.5691333014374","22.6914379636638","-2.65439606920472","60.9921011226381"
"5729","45.3499500430797","-86.3236124426965","-32.5170043883658","12.4699949054882","-2.1676527565689","61.9089067649518"
"5733","22.1054112543281","4.65387249946182","-32.7337468683544","71.4258246086313","-6.60207374323883","65.1527166108799"
"5737","-40.9800089835726","53.2805557972421","22.128157798237","50.8242643575878","-5.59316853012543","65.4172567183559"
"5741","-26.8276559709758","50.2019010523366","3.67301272451719","-31.4612706498691","-5.14016104248918","64.3000463783251"
"5754","13.1265142219749","-108.488412648936","-12.9463482689194","-7.55738877730786","-4.93675661837958","64.5201092847058"
"5754","4.06337843927851","-57.3930199544994","-9.74657128153938","-73.7062908058099","-18.8043455041577","64.6737376727238"
"5762","93.2223892429056","-2.75029811483216","-37.3563041483188","-48.861452816298","-16.0310172658513","64.7809873768797"
"5762","65.8598841670219","-13.3540574389129","-27.6696119977639","48.5065997401684","-8.5818038865333","75.2709696963832"
"5770","33.8676498664834","178.833495959656","-52.0246936610689","20.2862334976215","-9.23704028141959","74.5941442403687"
"5774","38.3095247694172","114.950305546808","-42.5937851470582","29.1961197043652","9.08064509657647","78.0273110692488"
"5778","-57.3338602782272","-53.382364304494","-12.0958893884259","22.3721294452818","5.30545008771153","77.4240434145231"
"5782","-28.9086522231855","-7.65089711229939","-21.1221672733452","-89.908330084096","20.6712550381621","73.09722919931"
"5790","20.413440250047","-156.129733070495","61.8380670203852","-54.329934353923","16.5706392475386","73.0766315708001"
"5791","11.1491015820936","-101.530888701296","32.8079535051834","-52.6639327192979","-3.88246640792707","69.1565858489518"
"5803","81.5344032646547","-110.958317678188","-12.7995691409852","-48.2570548197145","-1.0660942521613","69.4199578769365"
"5807","59.5629913950352","-100.269551512772","-1.22829484090847","17.7829163390967","14.1574013966026","56.5849332297594"
"5811","24.0777129330035","-27.4555102230351","-39.3231442022869","-3.08852520382034","11.9928874534209","57.624658283168"
"5811","30.4759922948605","-49.6043785651766","-25.0340039797821","35.7085591459524","12.5719923164369","42.7278368837789"
"5823","-37.3631123056365","60.7849948799065","-145.760246672626","20.1837456416419","11.8320155928191","44.3281984539339"
"5823","-16.6309886331611","21.8481162791913","-103.365799370451","60.286605892824","22.3566966388124","35.0303187552141"
"5831","106.948311775362","129.87657104111","-68.873056832939","45.0806944502222","20.0823728042724","36.5393644476833"
"5832","74.8693470996348","89.3608882770744","-74.9858634558173","50.1459220970219","9.75523481105397","29.7815136324796"
"5840","220.097794036578","312.821685084124","44.0673241264644","46.3829732157055","11.1182572476771","31.0637820334532"
"5840","172.48681308526","234.605460761396","3.29031202320851","20.8831087321004","36.5461230705607","42.374058110101"
"5848","307.97114580513","343.533205446682","41.7922576020347","28.6554249861082","31.9634628391099","42.269888944435"
"5848","260.44897516409","297.237993110277","23.5962049786565","-1.05035195498701","57.8236458943413","57.8198324228627"
