Timer,AX,AY,AZ,GX,GY,GZ
"1011","-1.11424364031321","3.77987691178983","-21.1616213112974","0.993308367798764","1.89089869330873","0.987116256836296"
"1012","-1.37695387351554","4.37949473125051","-23.7610641399824","-2.47937761744879","-4.69316372319161","-0.504991407828722"
"1020","-3.23555369512283","2.75229812840998","-20.7177827079847","-1.3624490722176","-3.13036933860255","-0.329827402185469"
"1020","-2.59296605306531","3.37032339828794","-22.077623970372","5.87817516271996","-0.921595812179903","-1.50788789058395"
"1032","-0.661686030902601","1.75030029027519","-27.7324931607242","3.78191674963365","-1.02242646657889","-1.39265866813023"
"1032","-1.29035007841315","2.36984573545618","-25.9223840938187","-5.45447691795699","5.30241526596459","-1.31395724883727"
"1040","-3.21895165008599","11.3411159095429","-20.1727597838025","-2.88336185832685","3.88620833600406","-1.25644240200969"
"1040","-2.58977252953785","8.44797785656539","-21.9629295763604","-0.470207085790432","1.71618411821099","1.12422622366271"
"1048","-4.27652294860975","11.2988466623635","-27.7083583114094","-0.835621740543646","1.8296346794167","1.10515572044451"
"1053","-3.60084202147054","9.96836022214585","-25.917305692175","2.54234709112903","-1.30692642793865","1.08973190632055"
"1061","-7.08637684170892","4.36043788080678","-36.2779201751289","1.43064880808723","-0.588351729140162","1.07704623262757"
"1061","-5.75655626395287","6.04344285033301","-32.4579903352406","-7.54684765105695","1.29667345415166","-1.22673157499942"
"1069","10.7686639163593","-5.91739296400265","-8.38965153706604","-4.907652595142","1.06679047420181","-1.19328383688329"
"1073","4.94604216218561","-1.72634080047215","-16.3252157061903","-0.739563991029911","-3.80149293782564","1.12035307471818"
"1081","5.63422605900051","8.08368148305888","-19.7845901973004","-1.64348511995996","-2.79040425540599","1.1040365934991"
"1081","4.76654626526758","5.38752055390501","-19.5125083254316","-7.09228096359694","-2.37732934718873","-0.0504263963743403"
"1089","-6.24663949588578","17.1104213037537","-28.4031621192353","-5.52514637607694","-2.20856978853879","-0.042673596567723"
"1089","-2.36419414707421","12.8634911735839","-25.2739246180857","5.30914661085174","1.04328666045552","-0.0360288120694787"
"1101","9.2286541169961","-9.31573566516637","-24.6154735859212","2.15823182805134","0.371815332156171","-0.0303252250592979"
"1101","5.45766307902535","-2.52442611208346","-24.4769229768354","-5.61848492278928","0.0974892892133741","2.25206053354214"
"1110","11.9634997575601","7.89625478109866","-17.2894453041321","-3.66352180335914","-0.0145851578479088","2.21783261326918"
"1110","9.21440617258646","5.34350424625393","-19.7770634249964","-1.41239592834156","-1.65182789167781","-1.2267942157331"
"1118","3.26264907501949","10.0394660633526","-23.8796675433695","-1.82041918742215","-1.32071471019016","-1.19474176882033"
"1122","5.11827802761995","8.14229131662408","-22.7429334077573","5.02040652038634","0.4060151346063","-0.0289408105273663"
"1130","3.66734262180638","-8.18964250993302","-26.0829049412505","2.81933289436113","0.111461436764828","-0.0242523664381783"
"1130","4.38836475983371","-3.02512281411765","-24.7856984181984","-2.97057408669719","-0.00887691121448786","-1.15830324086908"
"1138","9.95017545873267","8.77866844016581","-17.3544175243608","-1.49314121762083","-0.0580405037971375","-1.13575816597556"
"1142","8.01956976206181","5.55073507668946","-19.7907348147378","-2.84165271048836","-0.0781260282888665","1.15973360804855"
"1153","-15.8520681180934","15.383596938621","-34.6200302512648","-2.19626968126698","-0.0863318625844306","1.13837840707528"
"1153","-7.44197506426609","11.6927997804719","-29.7403957981003","4.92156942163126","-1.68113962663216","-1.15602526872903"
"1159","-18.4790073155081","-6.82551265625397","-32.2927899820074","2.79334178286787","-1.33268986374166","-1.13380563436672"
"1163","-13.6011470383639","-1.17445402303225","-30.8298622190193","-1.24037813503337","5.17548869141696","1.16130854403997"
"1171","18.0680747554759","12.5087532383537","-7.25748144569219","-0.301122181948233","3.83437045532443","1.1397418513709"
"1171","7.15725815467072","8.72219216766059","-15.2974046074628","1.68290400542672","-3.07935752946848","-0.0168195085256435"
"1180","5.05938648135397","0.772317328477216","-22.3579002095634","1.20464175867068","-1.90392435774208","-0.0138091198034043"
"1180","4.65601927991279","2.905325416176","-20.8435626481248","-0.658157288593812","0.167747932305651","3.40268215935747"
"1192","-17.1142440886277","15.7623345237011","-43.7894702230527","-0.148016039375045","0.0141186374293223","3.34781646228453"
"1192","-9.30011032691963","11.7817445780358","-35.6177251960648","-0.0138646098736961","1.54280951945425","2.16255828445165"
"1200","6.66415233731487","-10.3349334809602","-3.47535779731523","0.0214130824611536","1.16734805576191","2.14082131693934"
"1200","1.73367276406406","-3.52893463172005","-13.711992925796","0.0306900285294755","-5.35186598621769","0.984122583898871"
"1208","2.59339284175391","29.8422051613555","-23.0242994656711","0.0331295794937979","-4.01525623962273","0.987002836318566"
"1212","1.75869507933658","19.6792654117714","-20.9837857145608","3.5078327324659","-1.87773611641322","-1.28643388382431"
"1221","-16.4790511274696","11.9970816225549","-49.187718814611","2.42157259525468","-2.00446362897015","-1.24622780794048"
"1221","-9.98570443787122","13.1929557346117","-39.1223622713646","5.60998127647001","2.7181284613689","-0.0736093042085848"
"1229","23.8018596906665","-5.94289875476629","-8.371124025048","4.44843451481248","1.64751836377457","-0.0627644328714611"
"1233","12.2983462772343","0.563132938895993","-17.9004791615042","-8.01623218445977","-1.97278433042433","-1.19137473021831"
"1241","-2.56756445759966","16.2122812837958","-23.4847985553856","-4.29405545110599","-1.45183975766068","-1.16428308405898"
"1241","1.57410017029246","11.8874125261552","-22.6598454693659","5.36991640348685","3.53535532137262","-0.00297012732582957"
"1249","-6.66819094580959","-8.54496329168665","-26.065421660172","2.91124322412683","2.57284736869516","-0.00187057806942487"
"1249","-3.25297324839405","-2.34341372929484","-24.7820196036413","-1.20937368889344","-2.59474608271095","2.27499481897582"
"1261","15.480941107152","11.4690738205669","-15.5640624339214","-0.29296896795713","-1.70593892641997","2.23774667311136"
"1262","9.0829948942115","7.71287363704326","-18.6244290853437","5.15910967571909","-1.34282148588519","-1.2082389292933"
"1270","-2.99352001005057","3.30043801945845","-37.1641983615539","3.5928383634561","-1.19447178517985","-1.17882076214229"
"1270","0.684474272415036","4.26419760332293","-31.0653181108624","-0.293104356202881","0.45759101075773","-2.29141978607346"
"1282","6.81483527580229","18.6117685757382","-24.4132548210442","0.685012446543531","0.132532486889581","-2.25052610116747"
"1282","4.99354729771114","13.9812302979078","-26.0135343020376","4.41628865307473","-4.77463438781621","1.19860198978055"
"1290","11.8742621334316","-31.2350943534214","-1.29612954210506","3.39749932313344","-3.77943133753482","1.17189291527588"
"1290","9.19724805411533","-16.8539423397992","-10.0951178992926","-3.81853413104124","-0.189935791798611","1.14886858993957"
"1302","-20.2410816521197","58.8947423991862","-51.3173742033822","-1.71612858098928","-0.723466461355891","1.12902067036635"
"1302","-9.90132141785014","35.6839761463766","-37.9913202370738","4.04783173635928","-2.53289289524603","1.1119109436473"
"1311","-7.91324931490963","-12.1306759012686","-36.9768462581911","2.56357569422489","-2.27212444942477","1.09716165221737"
"1311","-7.53099376962236","0.6402707528273","-35.7633816559504","5.64732371594074","10.5660536257984","-2.32942884879285"
"1319","26.8892889514978","-17.5423852010377","3.86273630960841","4.45825442575624","7.81102305567836","-2.28329149072195"
"1323","14.5074311813711","-9.81249917097139","-9.79917549302485","-11.4877114767023","-7.63762786983963","1.17035681703153"
"1331","-0.527362764751623","13.1846840038911","-18.0426443344635","-6.68100916409875","-4.94909211051779","1.14754441119646"
"1331","3.5818299301932","6.58546777240488","-16.7772268214964","10.216282752698","-0.667794484962038","-2.28599682154771"
"1339","-29.9748618810902","20.9220628595529","-59.4609028820806","5.6597498685434","-0.918693091081622","-2.24585128849687"
"1339","-17.4269576111125","15.2889469450377","-44.4423594025077","2.72449130788289","8.52753550099164","0.0646731502231821"
"1351","12.1015669383796","-1.92035565602037","-14.4384575020415","2.95260875090146","6.38674199452843","0.0564407220938919"
"1351","2.77914887139875","3.03811797753179","-23.125066406586","3.01259660940536","-5.62805501461558","0.0493440287623564"
"1359","8.21758776141366","-11.6837980388732","-14.2154079957561","3.02837156777884","-3.53663648543917","0.0432263857698402"
"1360","5.2632608133816","-6.14117299032962","-18.3406465643567","-2.1785725436026","-2.68219855925203","0.0379527246373117"
"1372","-9.7665849849833","26.9332692174597","-26.3669991389796","-0.547838402705675","-2.33312248503628","0.0334066107533793"
"1372","-4.65644088746282","16.7006513907568","-24.0558962378207","5.09208686770252","-5.37341993802904","0.0294876726705589"
"1380","7.17246252467888","-6.88428695226868","-21.7800152737761","3.57521343012952","-4.61551730614893","0.0261093860524811"
"1381","3.44685886939432","-0.423102346131503","-22.3011266725407","4.91335326876939","2.05994104278134","-2.25272016560097"
"1388","0.922794822649359","-14.7921135320712","-29.5691024048311","4.26524281406915","0.787164077500621","-2.21716543575003"
"1392","1.43748170090623","-9.16661039077532","-27.0984226053319","-9.80143677016686","0.267177811938807","2.36531886886082"
"1401","5.15189388121173","29.2227590179826","-26.5785446275401","-5.50054006254436","0.054740186377847","2.31560975893838"
"1401","3.86608058062986","17.2383276469671","-26.4691524222662","4.31561731311354","-1.6235053906929","-1.14111754188755"
"1409","-7.22750158638173","-3.22770702592381","-21.0773912297459","1.896964236483","-1.30914370292003","-1.12095936095799"
"1413","-3.3605144153269","1.9659379075996","-22.9428622203322","2.99796381669436","3.59365303624259","3.44825248198796"
"1421","10.0370871477406","1.42048722220761","-17.9666497706671","2.28749278105851","2.59666459030816","3.38710196156683"
"1421","5.61310412592622","2.29239061203625","-19.9195601130275","-6.58449327508156","-2.58501568338692","-0.0794883080179241"
"1429","1.14703403198936","7.79261681179945","-27.4888135501633","-3.91755223428138","-1.70196362348399","-0.0678324138838929"
"1430","2.28832269223265","6.08431989373628","-25.0815283046571","-1.47919810420413","1.84171323110936","-0.057784551337381"
"1442","9.73866543363457","3.91797958721798","-26.3645707436033","-1.83798610129059","1.28946357876859","-0.0491228784881841"
"1442","7.17117626811553","4.40922442900756","-25.6345472531922","-0.195305476027634","-2.1190657101166","1.09630250597023"
"1450","3.06206257948761","-7.83149082555788","-5.79554546140083","-0.7633310876976","-1.51160223798702","1.08370653418775"
"1450","4.2719848497259","-3.70616707434815","-12.6210425027348","4.29838811843214","5.10239499166876","-2.34102770743034"
"1462","-24.4189861608168","13.1490374017373","-42.6905527458819","2.62946430228635","3.80450841271606","-2.29329018705871"
"1462","-13.9355279161358","8.10740543565053","-33.0177490833303","0.453557950269381","4.86571906197488","1.1617375220383"
"1470","4.34970325802163","10.4537102271061","-29.1928263916941","0.881361626150989","4.29927103340045","1.14011422283242"
"1471","-1.13451328380143","9.00472922527323","-29.3879899760076","4.46792243718079","0.88494107335592","1.12147404510549"
"1479","-5.8044392347383","-1.92648468259503","-20.4811511128972","3.41107741735539","1.49003471210842","1.10540544140243"
"1482","-4.70234685498318","1.50636949807267","-23.6069829679152","-2.07793269752497","-1.44566812538364","1.09155364080545"
"1491","8.16363597828729","-1.21774943194807","-15.3168123976616","-0.521373224214847","-0.645033919161987","1.07961281611872"
"1491","3.63743623750031","0.142503639530748","-18.5724029794574","-7.06016929766439","-0.317939068822344","1.06931933165792"
"1499","-8.07918957255119","18.113498407854","-29.9949270884666","-4.77967118427794","-0.184306205915293","1.06044592256563"
"1503","-4.33199779883417","12.3339047120007","-26.3984432123586","7.97924524211749","-1.72116652395918","2.19075534156654"
"1511","7.23484465336274","3.91597523454981","-27.4312556622161","4.33444712024515","-1.34904263993958","2.16512878273404"
"1511","3.45885336123441","5.93906282138063","-26.6485790272184","-3.57214573068513","5.16880785160081","2.1430376297319"
"1519","2.73282656963183","11.7096393887721","-21.1151459969009","-1.6513360236908","3.83164103371987","2.12399414269357"
"1519","2.59323014015288","10.0648330237126","-22.9508065407596","2.32783936934865","0.102438007944285","-1.30629812358467"
"1531","-10.087689277276","-4.44267868464017","-28.7058073943527","1.37423988691182","0.578891928944362","-1.26335185021664"
"1531","-5.52590656299892","0.150298239523312","-26.9167689307537","-0.613558206713756","0.77354464646779","-0.0883717229386243"
"1539","0.774384408431734","11.8198652759676","-30.11948323852","-0.136287855077422","0.853068979817224","-0.0754902847468662"
"1539","-1.01423037209329","8.56040996601921","-28.7933951870065","1.72625035433396","-0.705897090441856","-2.34030328141573"
"1551","9.48821771036887","-6.32629469597043","-21.3560370707724","1.21604051279706","-0.342804394018647","-2.29266570188974"
"1551","5.50757053599066","-1.82236951060317","-23.7910755980775","4.55593267186824","-6.56028605859863","1.16227585406607"
"1559","8.35764466386996","6.29597502494202","-17.1451299831364","3.43422139720832","-5.10040515263875","1.14057828729267"
"1559","6.90564120697836","4.20253127843577","-19.7466967391722","-3.80887735708119","1.8618426898174","2.25983275227852"
"1567","1.20328144940895","-6.88003177095032","-22.0836968176912","-1.71358914699312","0.706232048102253","2.2246763661222"
"1571","3.10686314781423","-3.48272124711541","-21.5754460420003","2.31146871613306","-1.35734185264735","-0.0815472208057482"
"1580","5.28059885605371","2.61058532055731","-21.4685004209891","1.36993490954701","-1.20040400385854","-0.0696072818136138"
"1580","4.69855277595152","1.04157062675937","-21.4459970301425","-5.8257827224689","3.63807806244569","-0.059314560858161"
"1588","0.971189139613116","7.73371288017434","-26.8100048829525","-3.71803473718304","2.61481419868652","-0.050441809939031"
"1588","2.25451220562009","5.30533202083221","-24.9386940623208","3.78436128913427","0.605309870773103","1.09516553253941"
"1600","-1.11418853360641","-5.85588948462316","-19.1761917130664","1.75726027183172","0.784337556215592","1.08272641609302"
"1601","0.238096257232901","-2.47705154108493","-20.9636517194344","4.69825679182534","0.8574783657406","-0.06595528088768"
"1609","0.498106122740996","15.9679986943576","-26.7085102640306","3.47164825530694","0.887359654797939","-0.0561663851024512"
"1609","0.548099386452538","10.2997347667079","-24.917337665894","4.88611881895714","-3.87479844550595","1.09023071211994"
"1621","-1.25001369658184","1.90795057846452","-22.750859917346","4.25808099294688","-2.8203528310269","1.07847239690781"
"1621","-0.595744968615111","3.93717826743314","-23.2949918315364","-1.11816604284733","3.97625657759918","-0.0696224212676627"
"1629","-0.469945784066716","9.70919680985742","-26.9886495218061","0.468046645680244","2.75297523395409","-0.0593276116933492"
"1629","-0.44575781029297","8.06472908606943","-25.7658652869012","0.885171706602145","2.25321014158918","-0.050453060298427"
"1641","-0.441107080024887","2.38306966975729","-25.508568248472","0.994862744700328","2.04903376888144","-0.0428028301613272"
"1642","-0.440212863244731","4.04875782293148","-25.4544280624157","-0.713322705322224","1.96561859681566","1.10175064886941"
"1650","-2.24776644037894","7.970246207738","-29.0221979343981","-0.162522844156049","1.93153977154079","1.08840305856904"
"1650","-1.59531287857976","6.89118990140866","-27.7729245103992","-1.75471026565052","3.50907236262392","-0.0610617804260749"
"1657","-3.27758821638408","10.1680875459976","-25.7204726452841","-1.17340649724256","3.1535649196199","-0.0519479854288967"
"1661","-2.60104684528621","8.93765203897954","-26.2885977720741","-2.75757233105297","1.41686892891333","-0.0440915174173806"
"1670","-7.89414173631076","-3.70739200714733","-24.6185610963404","-2.17415913225424","1.70735101080384","-0.037318917239838"
"1670","-5.91186884531913","0.322976968166413","-25.2671536456482","-3.75777025087001","-1.35688470638184","-2.30739798478928"
"1678","10.7388012693294","-9.3214365436026","-16.4557248528518","-3.17421117906759","-0.608761925128555","-2.26429997603841"
"1682","4.94030033702381","-5.58638314837342","-19.6016327996507","-8.23184556381685","4.47124560374626","0.0487696178375758"
"1691","0.209945515885765","20.0029408750876","-31.0010775980617","-6.5618475655141","3.54665568424131","0.0427312198182719"
"1691","1.30041896557509","12.012477120562","-27.3997373964496","2.56246451578857","-0.0139912421580701","1.17548453555088"
"1699","10.5487167506033","6.60564398081131","-26.6419469851895","-0.0381225553457755","0.531325377526194","1.15196471672101"
"1699","7.32692847017125","7.3358738338245","-26.4824934830903","4.48909561650362","-2.42879904344797","1.13168966068445"
"1711","19.3615393642287","0.446746779317128","-17.5010364465476","2.67961449798626","-1.63814214538036","1.11421172429985"
"1711","14.6754880096646","2.82886665494249","-20.6111672199774","-4.74434653290349","1.86778715683791","-0.0388136437501017"
"1719","11.9667543734892","-7.2026306538454","-24.8447598294657","-2.69661952863037","1.30011594256678","-0.0327691719747055"
"1719","12.4459340010276","-3.55848212605579","-23.7355881614339","3.05296201599492","4.25110751271597","-0.0275585874526031"
"1731","1.69171494522751","-27.4148341734537","-25.2917783638978","1.56492479968915","3.45671943697626","-0.0230668482120482"
"1731","5.62395298466617","-19.0173898401135","-24.6192303532978","-10.9855988289663","3.13217641005275","1.11876388110783"
"1739","-26.1590371801595","-13.5149791643034","-22.6881324741262","-7.28599982252043","2.99958608104184","1.10306916801029"
"1740","-14.2700953346126","-14.2227630681123","-23.281792785533","5.84609641182447","-0.237493621388619","3.36545700542202"
"1748","-31.8691357651498","-14.3889828955686","-28.7754531896697","2.29943308060888","0.440014668194932","3.31572883837104"
"1752","-24.2529822495693","-14.4280188652917","-26.9314237295011","1.36676990825962","2.30826239364217","4.41081976725666"
"1760","20.5968220595695","61.4644594825852","-42.6496338723086","1.12150823219339","2.07152507390713","4.3548334141683"
"1760","5.22029521069898","36.2874625041695","-36.9570439645458","9.7421660342619","1.97480729996393","2.0306535347263"
"1768","60.110997777449","-29.6404954050145","39.4031870368821","7.00913340684838","1.93529376738276","2.02711440733765"
"1772","38.6650794980364","-11.1233761674022","13.4708306403911","14.9755841046957","-12.4039471028489","3.16202219766268"
"1781","-101.037836869945","-10.3050241234753","-86.8336228047557","12.0705151670336","-9.26216776090307","3.14035962498792"
"1781","-52.8991435577042","-8.11283787169984","-54.9395857996979","-11.2748290198869","6.34448732014106","1.98372692748149"
"1789","-50.8742030069276","25.9399235910675","-57.1763793515553","-4.41393519817087","3.72050331891706","1.98666173215438"
"1789","-46.484858599717","14.9370595873671","-52.6470432185255","-2.60973152859957","21.7459523678359","0.85123299066835"
"1801","55.591729031549","47.6561781239516","-8.7440408786341","-2.13528155664528","17.1101537885889","0.872446481908509"
"1801","19.2184526339477","35.3401141507612","-23.5060149393437","10.1486998585304","-11.838517424978","-3.66110126947423"
"1810","-34.7760637721302","-257.037604050252","0.231500179810144","6.37900846293643","-6.66534321452191","-3.56920682796517"
"1810","-19.1578317577077","-161.70118005121","-9.77367557770769","-20.6677664149439","-6.14332569541196","6.75163795895822"
"1822","-21.5780207335344","166.059882706719","-47.670574634955","-12.7802348123247","-4.9300582120081","6.64863278333067"
"1822","-19.0433613292223","70.0330760858451","-35.6448023153115","-3.75793378781099","3.52289234123198","15.6635073795688"
"1830","15.7907737414142","374.035209991779","-72.4851332598847","-5.38534662360197","1.97630037033512","15.434701916543"
"1830","3.48848921981251","260.428727098143","-58.2370389323761","112.304789238365","-5.02137281691389","17.5133794784614"
"1842","176.472448448881","-454.66151375613","123.719130652266","75.2536685698625","-3.88023501156171","17.3052854601654"
"1842","112.732850605954","-232.597201203707","62.0061662728236","-38.711483292511","-6.59693985335631","14.8499824858568"
"1850","-49.5638654346195","11.9554378472684","-67.302178972201","-8.68080661049161","-5.70683517975932","14.7334098306447"
"1851","2.23061661828911","-39.6124882552019","-29.5111119351945","-111.953636021582","-14.8919195297393","4.39129140342119"
"1859","-40.2346657285348","179.512265483194","-118.196527212306","-75.1112079986823","-12.6444369309031","4.47595782175189"
"1863","-19.3996561407305","99.9727162815117","-82.8576237911673","77.0137420169941","31.2430536210287","1.13506778081028"
"1871","190.68709304758","190.732797543691","-68.2633230079988","35.0179164268794","22.1730546655911","1.25508246791075"
"1871","117.081415139735","150.047389421429","-69.1924048016098","62.1889862076896","-13.3615514902524","-2.05533590421035"
"1879","757.325556540538","-320.212731710248","367.269862234737","47.3341403346273","-7.87902600245927","-1.90905337902266"
"1883","518.428170890469","-169.651180187862","215.109816896326","-52.1089211274126","-15.1879012331648","-8.6107037821941"
"1891","210.374099159556","-240.201758443975","254.675691922634","-23.25938214101","-12.1739033689227","-8.38780344629473"
"1892","296.143160305128","-196.770240549269","223.001103860843","-92.1021981091239","39.9840194916507","-2.50586082090663"
"1899","-791.885925353509","282.960564723833","-415.385923626314","-66.2057374468345","29.2928617063972","-2.43538314434684"
"1903","-390.086160501767","129.623160254536","-196.714684870833","93.4629453111159","196.802219924277","2.17720618378652"
"1912","-612.912751546248","-132.327213830566","-415.560088732039","47.4508889862821","157.237278070666","2.15344884866545"
"1912","-489.756620205854","-65.8450665935662","-313.609320215402","68.3547213971001","104.469759103344","0.995010379342107"
"1920","-137.070794912104","50.3817725153305","-211.625796338239","54.8517852088627","105.911869638611","0.996388534066192"
"1920","-251.258308502105","20.6771165299459","-235.166525018623","51.3009290589404","106.501036234344","0.997576560405169"
"1932","612.571846791808","234.345432401228","532.97904946003","50.367163304465","106.741737116168","0.998600688217118"
"1932","288.664347440583","159.524463608175","262.611474669756","-5.46337433654485","-225.774086454634","-2.41439246455377"
"1941","-532.859516216482","-334.638629511466","-313.257490009823","11.854914576888","-152.621659167939","-2.35653364027364"
"1941","-270.817596310386","-180.690582136534","-144.43126286837","19.8831525568567","-73.4005090001716","-12.5482849219495"
"1949","227.882306647181","196.138244582698","152.371809067266","19.9943317705336","-72.0351290844821","-12.3339958086445"
"1953","75.769575050472","91.6347789355622","68.8248152688744","-91.1464035616848","39.9245616080479","-12.149269735212"
"1961","391.79775032766","418.358371799472","-86.5527966326005","-56.3729923613182","15.6650982808059","-11.9900282241549"
"1961","261.561905857051","296.087920097314","-42.247198669579","117.789270553446","-108.830759157258","-20.9564247746916"
"1969","294.368091959896","-353.961141382912","101.294115885326","68.5885792174389","-87.6928801360548","-20.6858292324033"
"1973","268.675884589243","-154.62220396981","56.497936046691","55.6503134228422","-79.0571119897415","-20.4525646897287"
"1981","-421.392040549882","386.434912710176","-187.363142142191","52.2479481871912","-75.5290148044905","-20.2514810118194"
"1982","-175.074497397979","233.499713272284","-107.676146853153","-134.509066036067","65.9604381886708","-24.6299732272559"
"1990","-87.9439566855948","384.689960547887","-78.3814218425337","-76.6204062106195","35.7652023266442","-24.4044145044515"
"1993","-93.1909765990454","314.196301791288","-79.2172550405157","225.212611757979","110.95914144717","-8.27855225983233"
"2002","-108.661648763001","-362.526615751931","-70.4452252381562","139.585395066921","86.6792256903202","-8.37739243319681"
"2002","-103.63626432913","-147.4519119962","-73.5994234812045","-105.271868560456","21.0588591407685","-6.18667941940052"
"2010","-135.209070330885","-8.68486936070492","-140.477623651977","-41.6617840783732","29.2500070970227","-6.29819424712799"
"2014","-123.279715433041","-26.0960611674629","-117.550067790707","-189.952219131045","-10.3728364130577","-8.67024196701029"
"2022","-54.1001608786833","102.201591160475","30.4408054691557","-133.948034259028","0.439461428769868","-8.71504515150313"
"2022","-77.7986974610371","57.3317107043573","-18.4191026672265","-119.220659301318","4.85676825493006","-8.75366734850131"
"2031","-263.127872664598","126.226178433074","-155.760406632023","-115.347813483803","6.66143548495739","-8.78696127878443"
"2031","-198.761944899852","97.4057305208426","-113.659626752327","154.91040166524","-3.74146450667893","-7.67770335848631"
"2039","70.3110036258751","-108.825084918618","18.6802661940768","70.9799847508048","-0.991514016705152","-7.72147717937636"
"2043","-19.9531330175471","-44.2574530101275","-22.4729056009432","-46.6278234613029","-38.0629638946679","-12.3110466801032"
"2051","145.271653076281","20.330288860809","-29.3427339432278","-22.5550531576589","-29.2083077426783","-12.2674453022199"
"2052","76.0401641930828","7.49842598826397","-31.7882763672555","-26.6468412036604","-63.7857125631509","-20.1955697631778"
"2059","-38.5039135546652","161.58367660623","-35.8820269594896","-21.7228553790055","-53.9121275564102","-20.0299407620997"
"2063","-4.52781743326748","108.769896204399","-34.7434298737427","49.0532336942891","2.63969849307736","-16.4732857235228"
"2071","0.19719353345238","38.1167200839395","-32.7142664132731","27.6651642884874","-7.2563534937776","-16.4073020638916"
"2072","2.10569259689196","54.5241433373046","-33.2872918629279","20.303730254777","-3.34205637460476","-15.2124627573912"
"2079","190.476101546356","-5.16821190880261","100.810707540174","19.3678999326565","-6.74289108734712","-15.1824618858191"
"2084","122.694925442362","16.8133102251809","54.0274747512676","-43.4113038785056","-28.8212031197064","-20.8463932165503"
"2092","-184.996923964838","18.4452615168089","-192.04129813438","-23.9203000577429","-24.8411801752173","-20.7289361454937"
"2092","-81.1582167075071","20.8285178478044","-111.818843760262","15.9458496308777","7.02248801570043","-21.7656419595134"
"2100","242.505203594297","46.1003784851053","55.3862888589469","6.42941859855741","1.040220329894","-21.6593252240284"
"2100","136.737421949966","38.0353598996669","6.56942600205832","2.18985965486283","16.10220511152","-26.1195104610806"
"2112","-221.643694873456","-112.131655427043","-118.235753432324","2.07498628670678","11.2556989538753","-25.964374499737"
"2113","-103.551240545152","-63.3976953057516","-80.4971347393829","-1.42928349575012","-1.86450258060985","-31.5204342105542"
"2121","-80.8450743770283","-51.9527466441186","-72.5562122553277","-0.350798471053315","-0.22469119608386","-31.3099873441966"
"2121","-76.479257907323","-49.2649525567633","-70.8852912708887","-0.0671901410458161","0.445245031020431","-31.1285734464543"
"2129","72.5936692192076","138.472646237846","42.2099051261069","0.00739011088884123","0.718943916527601","-30.9721871677528"
"2133","19.2565899261766","76.5619665950447","3.00728348843524","-55.557983600721","39.0256896790115","-25.147582409066"
"2141","-74.1541432367833","-130.379320904309","-116.195714907243","-38.1699647443838","30.6757070962159","-25.1265323436963"
"2141","-46.1146441100049","-69.9785401244927","-79.2782908708435","23.7245652686709","-4.56474019678953","-26.2463449816571"
"2149","-161.840973095356","134.842999948324","-87.6163923284692","7.0009194985652","1.03796233124045","-26.2116697636775"
"2153","-117.092193725111","74.9444061360356","-80.3708873161615","-40.8226543592631","-6.22181520830339","-20.4919849703296"
"2162","70.4766806161902","226.802022038881","-134.323306318633","-28.3987806903839","-3.18775874324497","-20.5613802520091"
"2162","7.54138985596279","168.465091766036","-114.675920483232","96.4604721845823","-38.5516833207884","-21.7591605177365"
"2170","-4.55946093902635","154.764929284099","-110.541737162887","59.2946083876404","-29.9994267811917","-21.7916966177285"
"2170","-6.88614582748526","151.547508498438","-109.671826434334","49.5211314052408","-26.5054478190798","-21.8197440808199"
"2182","361.44249651768","71.3599570018748","192.950407966852","46.9510081101822","-25.0780012812966","-21.8439221533627"
"2182","228.262697563871","97.5282756056556","87.6278765272196","-11.0468719558402","-88.1530381459115","-25.2786406445868"
"2190","218.925149545599","-67.5462055230787","72.6243385602827","6.70147268239512","-73.922009272892","-25.2395099600827"
"2190","208.129777283149","-9.31319587563698","65.4673090740839","-54.6384304581447","33.745142048106","-27.4816950214027"
"2203","86.7442188051571","180.878016594143","-102.469698737528","-32.7689349103516","13.7319845714041","-27.4145512262672"
"2203","129.404872723406","125.5435569523","-44.8068363282491","49.4114243285925","-10.3588377052578","-28.4946291638591"
"2211","150.261506689879","-279.315799678784","123.020072456954","27.0223265752191","-10.2010151264935","-28.4257009917048"
"2211","147.271705302857","-152.395176365846","71.3340431204109","-30.9762406495572","34.4242112428534","-30.6421993869741"
"2219","146.696842772566","-122.588445816887","60.4583204075691","-16.2280767129006","24.655610335254","-30.5529126239299"
"2223","146.586311374003","-115.588470849638","58.1698616877773","-12.3497640344952","20.6647003453124","-30.4759437434662"
"2231","-135.440120898424","156.124087970984","-115.901030313571","-11.3298873029859","19.034235276827","-30.4095933869536"
"2231","-33.6666087075263","66.9345453744715","-55.5288536941774","-49.2763690368076","34.2826705779994","-37.1801486235651"
"2240","-267.179730489249","-95.2235768667584","-218.204338337685","-37.255124483333","30.5123377893075","-37.0166471023118"
"2243","-172.078346372637","-53.3056736119982","-154.434351474118","0.646708684574499","32.1548989923388","-35.7377433681364"
"2252","426.48711296537","90.6903011341694","172.160740163878","-9.38627706597398","30.8259586431808","-35.6352754850571"
"2252","220.575980069815","48.5071002276557","65.8825534202649","15.7678498391282","-68.3872023456645","-51.4783652362366"
"2260","331.025739974797","-137.914887729859","165.211111286862","6.38261013805611","-46.9202120437101","-51.1357634849637"
"2264","269.262410987322","-81.6952428715944","118.111727308062","9.12567372454297","-44.5158084887704","-48.5645092848745"
"2268","257.386898541901","-68.4923152298294","108.201121934147","6.84701492544341","-39.5335021935265","-48.3479818801292"
"2272","255.103540469185","-65.3916677826042","106.115742241671","6.2477978738657","-37.4980074328419","-48.1613263069541"
"2281","-278.614517135932","-9.94370371123794","-126.968591005814","6.09022225304728","-36.6664168650902","-48.000421487362"
"2281","-86.234883287516","-27.9220017890171","-46.0139638008762","-20.0066774766215","49.6119120010842","-38.7580455663732"
"2293","532.842427203224","116.12885918768","124.924393890624","-11.8693579786389","30.8604647717899","-38.7907354835662"
"2293","329.875199981733","65.9585480625242","74.8930725278696","25.0111225755204","-43.6414625377685","-42.2327915367207"
"2301","249.272093548301","-157.642267421354","166.371648698793","14.7095525586161","-32.0788290329349","-42.1999861339029"
"2301","256.774172544336","-90.153900942271","128.620479405491","-17.5289667553521","-49.6353509557118","-48.9994585071992"
"2313","-482.950829064435","-1.93322866919678","-362.509953410288","-9.00670396558319","-42.807974690983","-48.8608847530748"
"2314","-215.181074856002","-22.2150054312917","-195.853128959004","-20.6618579543289","90.4806493532418","-37.3618418047349"
"2321","-163.695782519275","-26.9780883662954","-160.785366273402","-15.7268043217183","62.9350084037628","-37.449191463724"
"2321","-153.796474306389","-28.0966767085221","-153.406442645026","-14.4290372807382","51.6813831728356","-37.5244904804209"
"2330","656.160214066536","231.118347164128","347.439321529533","-14.0877645372112","47.0837743870956","-37.5894013453417"
"2334","364.894221457477","144.993815383062","173.826787407333","36.3758732591192","-35.9587752670619","-45.6110678450126"
"2342","-235.234177257263","-381.831495438688","-324.416486237264","20.6462550574609","-18.8853676357986","-45.5260759479189"
"2342","-49.6235577298185","-218.554021188643","-171.256338654908","-124.189645713638","48.5651842569647","-43.1768920905835"
"2350","4.14188419072865","418.178343657241","36.3504045522156","-81.2770247705437","38.1217487969786","-43.151798500697"
"2354","4.47960699693444","228.712040666967","-17.9651917236142","53.3368599972526","-25.0287078831771","-48.8199601110863"
"2363","-147.304400548924","51.8301505445547","-256.671012027488","17.7361638174884","-13.828491375012","-48.7061497159562"
"2363","-92.4885928548834","85.2902439458465","-179.899252518984","135.177527048421","44.8567782386456","-39.5043711355288"
"2371","-81.9489115075844","93.1481945461696","-163.745015497702","93.060986843417","34.8323332827011","-39.5720576384001"
"2371","-79.9223996750373","94.9935984694813","-160.345857064829","81.9856345114799","30.7368995663769","-39.6304062017355"
"2379","504.362587292622","-291.141863869939","345.031231882759","79.0731581143335","29.0637318849224","-39.6807050752021"
"2383","293.705683886624","-162.82401922755","169.372174597258","-147.506739141146","-38.4609550702402","-44.2758994409666"
"2391","-88.4583861229336","1.46258839738243","-125.289492642552","-77.0902704859255","-24.0478070960398","-44.2371469292529"
"2391","27.0612130633158","-35.9554497554471","-43.2919066050828","68.230340377057","20.0355354538548","-33.9621126824653"
"2403","-30.2672377102975","-48.2732147666634","-104.779620290566","33.4451832526981","14.0455507914172","-34.1046084372948"
"2403","2.70996378127357","-49.165985800016","-73.7178036425055","-60.816751074658","10.0069190746188","-25.1237763526945"
"2411","148.245502746877","88.3064061007562","56.2992816770485","-36.6047352985222","9.35695754822185","-25.3819278679189"
"2412","99.2282739570807","42.5911714631515","14.6573470192362","27.0842956358081","-11.5974998621406","-25.6044651448835"
"2424","26.5331184712536","-141.129989430221","-49.5819182513253","10.8325483138269","-7.15833208405715","-25.796301476333"
"2424","47.5556946852265","-86.2760676320951","-32.0990803418821","1.34774709581736","-6.93618899234435","-17.9959616727261"
"2432","-74.9429860956862","-11.6134644874688","-107.161922945871","1.85353663179259","-5.84543361270514","-18.271746330493"
"2432","-28.4963571980822","-29.0792920580709","-78.9565713775215","-34.4911033807051","10.5147418418402","-13.9576494475016"
"2440","182.899401950139","-24.355289382046","57.6177834023798","-23.0486238122624","7.19860458496325","-14.2387196086917"
"2444","111.545413261851","-28.2458788607183","13.3556228405765","0.804765493181621","-13.2536494378364","-5.37734439042677"
"2453","83.3640575372041","-135.068839251115","29.0961571579757","-4.92252811681765","-9.60930913449941","-5.73847266225045"
"2453","85.9455017999519","-100.155725162067","18.4082646807521","-2.95456823422736","-14.4862545259968","1.91593049097438"
"2461","-16.5985065224962","-47.8276754500455","-89.4259498674482","-4.43705542408882","-12.4787046493492","1.51434240820293"
"2464","20.6848968011244","-60.5386712109704","-53.1163176793581","-11.775027127445","1.07311169694976","3.44407420983178"
"2473","172.471585054939","5.31723686108589","-4.31571815670841","-9.70468757962996","-1.39036574983344","3.10758278940774"
"2473","121.656292792647","-18.216802952752","-17.0471447057868","22.1063025639738","0.78610425843681","7.36934793363976"
"2481","189.61800552582","39.8018988397316","7.11763619437649","12.4716127759063","-0.324710485560287","7.04316565047669"
"2481","159.685309031085","17.4273268118668","-2.7976347238919","49.8896949382352","-11.91871514466","5.62402437503228"
"2493","20.1583272409529","-7.24393964345422","2.27432785625235","36.7294975790971","-9.65538413698562","5.40066593457985"
"2493","67.3308482840343","-2.03787424872459","-0.658434839206651","5.47627817046606","2.40947491710748","7.48403905511229"
"2501","89.0549991909226","80.3818559332404","-24.5400968122003","13.2576444751751","0.338508970362693","7.27999280243525"
"2502","86.2319991792695","53.7377543312061","-16.5652522918158","4.88171916642918","28.1386224909871","11.6559311559622"
"2514","-60.7365581908238","95.1396812973983","-91.839176378262","8.67910889861501","21.4962111385751","11.4281708986266"
"2514","-7.99486228074796","77.8627353533672","-64.6782403648022","16.6258286412342","17.1910339646175","14.64570813548"
"2522","70.8395897495533","6.72945025181821","-26.7506053510204","14.7155710703194","16.4321767081346","14.4193582323964"
"2522","47.9974436340749","28.0241220967839","-36.7699102413629","-6.63113756726865","0.207596468080753","17.6381112529129"
"2530","34.5668541286039","22.4341515141403","-22.7719333960438","-0.244664180273802","3.57913042927808","17.4128094056022"
"2534","36.9844944106894","27.1213723724665","-28.8264930775545","-17.6725574109733","4.95655271261675","19.4945072290909"
"2543","60.9497766162923","61.7600813533486","-30.1004874835808","-11.2555563228935","5.51929126678042","19.2890168011128"
"2543","52.5576889771752","50.894824456613","-30.3685601151121","-11.3051135776681","-10.1653580278633","20.2498342225567"
"2551","43.7132025760246","-105.225277746967","26.8416242437344","-10.3181456086603","-6.5732381481401","20.0780985557812"
"2555","46.0126334834564","-54.8893729758762","6.8797341435303","-17.0067266968503","-1.92278603188781","19.9300553122282"
"2563","31.9929512857361","-30.7121330373171","-72.4830287643208","-14.7656174269971","-2.02286853253968","19.8024359168331"
"2563","37.2973240721571","-32.034218310336","-47.1824621351979","-40.231736941383","-6.83812264849486","12.8646707362262"
"2571","139.549848316351","-25.2840858066555","-45.4379041497409","-31.928541683087","-5.80536912905513","12.8840303740363"
"2575","103.210400040885","-27.6988479197371","-43.0708159994254","-0.215533354472914","-5.38344316679447","8.34888452436677"
"2584","74.5305450905695","-28.26594380822","14.6938562613746","-8.87598934075728","-5.21106755704959","8.43940133909429"
"2584","81.016140670037","-28.3991236957923","-5.15135904785257","18.3761014135422","-0.366278475543833","2.82763725282442"
"2592","26.2236643596726","137.494127571124","-61.2250183892518","8.54256155999867","-1.38696564175823","2.99006464496957"
"2592","46.6884690422195","82.4534023629896","-44.0239818290733","23.3269517117469","7.74476992478513","-4.83562687995309"
"2604","5.43019107513813","41.2848657899726","-31.456651892124","17.2147907684788","5.47549196397412","-4.58169645388835"
"2604","22.4972768118207","47.6166224052761","-33.8122468683776","22.555604027621","20.4629436526721","-8.9146325879642"
"2612","11.3170378822898","-25.0328845953459","-2.09545084938319","19.9600733476592","16.5859873959844","-8.64980263994023"
"2612","17.1673631687174","-0.0942905604194942","-13.4216342828924","-13.7260566940414","13.4106222056113","-9.55946694227152"
"2620","-3.40047467990678","85.1943795829671","-71.2818894344873","-3.58447092026402","13.1133436311417","-9.34363517237727"
"2624","4.64485483275165","60.2240354693466","-52.4567865817541","0.819484457466141","8.21752610713858","-12.571455258476"
"2633","-33.5781948246478","-53.3145638792468","-39.5477222362649","0.977589022206605","9.2173658743385","-12.3539695964895"
"2633","-18.9275121193881","-18.9785870250008","-41.831409799308","-12.8770808539161","9.625845098027","-8.75261197268469"
"2641","-39.6109912651238","-10.9149391834174","-67.3660750286357","-8.52043212574022","9.7927271141849","-8.64809283678004"
"2645","-30.5878966236352","-9.02122819948098","-58.7390538038319","-23.0080450702411","-2.87073663735366","-7.42003435684584"
"2653","79.6105450093149","-17.4022715601493","41.5031902802777","-17.8178408660983","-0.0443274587334224","-7.36139718464027"
"2653","40.7988939298122","-14.3705214367249","7.59606324355239","2.65436185752233","-10.0298002068625","-7.31084951839789"
"2661","26.1055015492927","-11.8933741702605","-72.911461505859","-2.96207963859087","-7.10931203478409","-7.26727534068015"
"2665","27.2803370553954","-12.3116274125287","-48.8517745210204","-0.964969065747961","-13.8734386819715","-9.50562992717561"
"2674","0.390345267457786","-125.37974365738","-16.9454442267994","-2.43979052229667","-11.6368866787557","-9.43518410440656"
"2674","10.22008586969","-87.9332759882052","-25.2317460472614","-6.30168474775811","-10.7231552429967","-17.3401675442424"
"2682","98.8809187950807","-54.4269798016759","26.7120885315515","-5.31724393204687","-10.3498551205342","-17.1545900264097"
"2682","67.9281350330587","-60.5581786875887","7.64205836619469","-3.32133551808781","-18.1546219095011","-27.2362425149177"
"2694","54.7458023406363","130.403783416003","-53.6372302846832","-3.7964731053807","-16.3432179061931","-26.9270436909051"
"2694","56.2111760742917","66.2503308166412","-34.5315570488394","72.5079361268829","-4.46299122816996","-32.3502948458248"
"2702","76.3779106926382","-54.725088616746","-7.24680737971924","48.5736445781013","-6.609387751012","-32.0253615145656"
"2702","69.2554592618262","-23.1356151015356","-14.5055775832014","24.9093552597599","-9.07774195840781","-34.0211728805662"
"2714","20.8851302437432","17.8209654369629","-21.4017037593718","28.6863763396068","-9.08617495287549","-33.7416447760673"
"2715","37.5847500074409","8.43943191193259","-19.8527797473617","-25.9053695180133","8.41638824662571","-31.2247626666828"
"2719","40.7956608438339","6.23622147522418","-19.5268567025057","-8.26131653658789","4.56696743224204","-31.0551062516264"
"2722","41.4130370802485","5.71880753479858","-19.4582763006625","-3.62147427078297","2.99430701454993","-30.9088554090025"
"2731","59.6089979019562","137.983886681735","5.61028829037528","-2.40133872288967","2.35180495810186","-30.7827811372981"
"2731","53.1076169488408","94.0457383514121","-3.11480936559165","27.4490431530526","8.4551354134397","-24.9843065816071"
"2743","-9.60510015892083","-91.023236466036","-17.4778026927963","18.2987738030467","6.94861863754945","-24.9857818313267"
"2744","12.336844281114","-35.4858426317384","-13.5000494151352","-25.7962046025274","6.33313921446875","-14.7454255777322"
"2751","85.2492898733796","67.5797436526904","-43.0859315052313","-13.391825219362","6.0816883668591","-14.9178151961291"
"2755","61.2684930033245","40.7842273611884","-32.3113632893522","-34.4482870428822","-0.386861796918852","-9.37662885088148"
"2764","-55.4213841885898","2.71864040379236","-139.208630272909","-25.9854876871972","0.970446407884892","-9.59989717315928"
"2764","-15.8578705562244","11.7791106094142","-100.701846513295","14.4546456667268","-3.24939848000714","-9.79236369588702"
"2772","40.5577725923117","-134.366061642544","-22.805628582391","3.0891546521541","-1.97339368447811","-9.95827779419254"
"2772","24.4050614821758","-84.6875899855364","-45.4147841420223","0.100380721552337","-1.45208870602121","-10.1013026050864"
"2784","-70.8946938955714","-140.096700093818","60.7818417809587","-0.685574728748158","-1.23911232731467","-10.2245959040896"
"2784","-38.2184055475697","-115.109277339701","21.1276298285841","-47.79208874866","5.21371929664826","-21.7104664684886"
"2793","7.83437232606636","53.1531239846736","-65.9579337873205","-33.1796504372592","3.84998936593223","-21.6117616700544"
"2793","-5.31085339686262","0.668782881418957","-40.2823911762053","22.7738949774137","-3.07297650653937","-21.5266740537846"
"2805","68.0861265730644","-52.2554803922606","-2.66731115979415","7.48795331820102","-1.90131742473349","-21.4533250114146"
"2805","40.1984933022919","-41.6845026718881","-12.7523835607686","64.2643001285489","-12.5628295314871","-21.3900951049669"
"2813","61.9522955825254","-48.0277294448087","-14.8744744309679","44.1947298833212","-9.91853364686618","-21.3355883119644"
"2813","51.1349967734946","-44.5174073733925","-15.3210026741314","38.9170513148891","-8.83822061513147","-21.2886012033267"
"2821","49.0551061856908","-43.6930242164899","-15.4149607014443","37.529184473131","-8.39686446685643","-21.2480963734419"
"2821","48.6551962882566","-43.4994215852902","-15.4347312557859","2.42360199586863","-22.539648584341","-20.0752208713649"
"2829","-29.1538932073621","173.660055097747","-53.0200923130831","13.1919155168506","-19.3176078800419","-20.0641537070924"
"2830","-1.11459603572598","101.658969527002","-39.92876647839","36.8680199249713","5.87056943839366","-20.0546133540218"
"2842","203.126451808844","-47.636749072553","95.2548910876524","31.0941058496767","1.16106543054363","-20.046389175319"
"2846","132.396794669344","-7.698168881673","49.7001014059574","-26.0092416596409","-21.4518964879945","-4.10787829136347"
"2854","-114.399305003665","-7.14454791733449","-126.316524786886","-9.0256625223306","-17.6903019133463","-4.36822308189609"
"2854","-32.8518986574574","-2.01453255434966","-70.3537676143183","-25.4038742837005","12.4926732137603","5.6489769269965"
"2862","9.94346981167305","59.2054829910643","-76.4739500777028","-17.7108393131474","6.82376730802505","5.28421740137517"
"2866","3.17192736396257","39.582724923339","-67.7617527640025","-15.6878081622965","4.50776592510055","4.96977961274519"
"2874","108.525737728512","-32.1014634755963","46.8150619713435","-15.1558133055229","3.5615758674597","4.69872124147963"
"2874","69.7825876533348","-10.9361687619045","7.92420098584428","-4.59373017189653","3.17501494751418","6.74097504994712"
"2883","27.9864835852214","-69.5111595568865","-5.62791816538384","-7.81622775848073","3.01708753787547","6.50148225057973"
"2883","38.9501590838066","-47.2672294686215","-5.47954155282684","8.70666280264357","-9.77907537851795","9.70890555123039"
"2895","10.3268604670902","74.4568567224401","-50.1878452428742","3.05167389842076","-7.00687973852884","9.47383701707477"
"2895","21.8233303866319","37.0432041867875","-34.5953218886127","-22.7538453192125","-10.648679883562","9.27119822393981"
"2903","-22.9670550655647","112.984196754596","-113.635084590764","-15.5399017249071","-9.13651798009811","9.09651520806663"
"2903","-5.57910348641047","82.818593119859","-84.2665525806958","0.253389661245041","10.5787314984844","6.67001389890941"
"2915","53.8036468756659","-21.3491619582082","6.02345152021354","-3.59346134476901","6.63329190508835","6.57826946959121"
"2915","34.2214347852387","9.18751500999126","-21.9778159219234","38.8207057021116","16.1615907238471","8.77509930806206"
"2919","30.4562749857095","16.3589145705458","-27.8698146731893","24.9743247226508","13.0543265723708","8.66885743604651"
"2923","29.7323308137984","18.0430851078535","-29.1096031705014","-2.98527820842864","7.01050437329245","6.30135522194853"
"2932","-57.1776897670104","-32.7508771383862","-7.89550625343824","3.66220774327896","7.54133293104752","6.26047045133287"
"2932","-25.8882694582132","-15.6796079204175","-15.4316571507909","-41.4895402354217","6.16674480341501","9.6391020823444"
"2944","48.8214572688706","-131.701007651603","36.6700234366484","-26.3630586876216","6.60516412850424","9.55162220595449"
"2944","25.1862317084316","-90.9481051636747","17.6332070709041","-3.27792119031851","2.0099120718286","17.4419215874568"
"2952","-19.1281804486269","70.425819983703","-45.4286737633567","-8.20724135362421","3.13254626348449","17.2436858043665"
"2956","-5.64871134794705","22.3237516116938","-25.6980917957996","-9.50350066884321","-5.95753938756659","17.0727983651528"
"2964","-12.0955808919382","56.9212182216783","-71.6546703709949","-9.84437692695284","-3.67124557511105","16.9254863288201"
"2965","-8.33514943137354","39.0462757419031","-53.3248077723483","17.8584761305344","0.445718240587308","11.1087039421443"
"2972","-7.61211439841502","34.8484268804211","-49.467856376656","9.14347287333654","0.127681929728979","11.0943970847904"
"2973","-7.47309320779695","33.8625811869995","-48.6562805130251","57.2255891335893","-0.00225011501053525","9.94410531794323"
"2985","-9.25408849178616","-109.346458957418","3.41233941088191","40.8697041500499","-0.0553331614231557","9.95250626695043"
"2985","-8.59652844777588","-61.9784500423881","-14.6314335466899","-27.7015297102003","-11.2172071563165","4.26995491012318"
"2993","116.262963915203","63.8807571251062","-18.4281862456109","-8.73365132183476","-8.77733146214567","4.3713607490154"
"2993","71.2702588553147","28.4382189246549","-19.2270951595426","-43.6973924669393","-6.18907789886722","-2.36897521274633"
"3001","89.7351922186436","64.2435640071956","36.0818101605586","-29.8917790461738","-6.13166065970515","-2.17942342744155"
"3005","78.2855278231987","47.6522862875485","16.7198548224061","24.1125654699343","-15.6569350360788","1.39785404000072"
"3014","52.5836178074708","56.1119821199476","0.118664516784627","9.31404403535897","-13.548435264738","1.4816150857538"
"3014","60.6417962239101","51.0987031714251","3.62545861985949","43.6371667752977","-15.8699295159403","-9.82576607475511"
"3022","62.1911783514709","49.9213574345","4.36335473541786","30.6630904534249","-14.8183636557266","-9.57319603220565"
"3022","62.4890850064423","49.6448631483273","4.51862209966907","6.40693839510229","3.1172564429651","-5.94159422212261"
"3034","6.50687397750161","-8.67017051626125","-59.8736226227506","12.0283178114713","-0.555241276541385","-5.8110033474853"
"3034","26.7429230264254","10.6348093205604","-37.4229744969012","-0.389679119213075","20.2247536927351","-4.56046995107327"
"3042","-21.7902408617708","43.4109687885375","-47.0155795065317","4.34477032523819","14.7143102114486","-4.48245847185022"
"3046","-2.12193008931879","35.1083006183923","-41.034045879703","-6.56943104586211","15.64595843806","-7.82908534538837"
"3055","-65.2260596614845","100.234329802456","-52.3024845288874","-2.43952970587227","14.0265783702145","-7.71401604512138"
"3055","-40.3593738525585","77.5288812547186","-47.6735781440929","-25.6719242922683","19.730810505177","-12.1666562095392"
"3063","-42.8090466243828","52.779909955099","-30.5933393004648","-17.7813282059438","18.0612442313268","-12.0050160837049"
"3067","-39.2800562018444","57.9677267209147","-35.9993324882395","3.40099437519333","22.1535177444657","-10.7277169493224"
"3071","-38.6015213759265","59.1860618696066","-37.1368561798917","-2.02870747940092","20.8253943417023","-10.6266322975917"
"3071","-38.4710564398238","59.4721823325187","-37.3762127798957","5.22860230448859","5.95969875674817","-12.8154104782594"
"3083","4.93944093192237","15.4105126022039","-82.1661029055911","2.13705115729916","8.8863978226021","-12.7022277443978"
"3083","-10.7138279211114","30.0628300671873","-66.5907468876994","-33.4165477964638","-9.01537859530589","-18.2944528714652"
"3095","9.77687948659336","-19.4507764663724","53.0093688489859","-22.7660488040164","-4.32905421986232","-18.1151820888335"
"3096","0.716719757913932","-1.0788215384023","13.1755058471774","-51.231850380247","-5.59739192775367","-17.9606432639442"
"3104","-53.4493576672554","35.0085303830189","-30.9979158124287","-40.7174790746549","-4.1155645582995","-17.8274244089386"
"3104","-34.8641124599039","25.4834806855802","-20.292843115108","-34.4784617756232","-21.0161803155951","-23.4023775713754"
"3116","-96.3687623966373","169.754394006257","-196.998392196438","-34.8377924695624","-16.9208370724786","-23.2082176412855"
"3116","-72.1945374600742","120.635761172244","-134.180597490553","-27.9841621174915","-8.88188509716235","-23.0408437558358"
"3120","-67.546450742618","109.100473875342","-120.962539817657","-30.1818685166268","-9.59761398705981","-22.8965605480825"
"3124","-66.6527422498044","106.391464170781","-118.181209313107","7.45488030721541","-9.89002122160652","-29.5999344455254"
"3128","-59.2500028582826","172.831138579037","-149.808422487101","-4.64781445774672","-10.0094826434132","-29.3785198329296"
"3132","-61.826644933517","150.434193631522","-138.463389120746","-18.2526351378697","-19.6070198567831","-23.4978579624424"
"3145","315.492564582629","-1711.76821640025","522.489628724582","-15.8302837697791","-17.5280426834886","-23.4284843495479"
"3145","179.041422326583","-1097.09797428035","293.566703140502","-36.0376497576049","-45.3248832600782","-32.4723507430419"
"3153","-743.826505214352","-296.107972732023","-511.595792540419","-29.3515643604236","-38.6811347637735","-32.2685374076433"
"3157","-425.270463282328","-479.999117564377","-258.017281368431","-331.573722215995","-74.1617941580968","-22.9891725723812"
"3165","369.916294469611","2256.9333048387","-648.475631598678","-236.048837324596","-64.6572290075605","-22.9899765165125"
"3166","116.810421015672","1324.68942370942","-482.635487995608","-82.3884558470049","17.2071209655058","-45.7498428381032"
"3173","68.1446188400654","1105.75619248644","-447.73957047908","-115.980510274069","1.65236611554764","-45.3697883994552"
"3174","58.7874266537439","1054.34071987892","-440.396806339687","689.85326584056","-128.835960815714","-62.1115457299607"
"3181","-140.053803511684","-256.887720595547","183.922438049943","432.762718706405","-104.14627336166","-61.5436325790072"
"3182","-69.2858991937538","171.176249835887","-32.7089295859534","406.844566086693","57.1288220803861","-76.9854892698317"
"3194","-308.760608347944","543.538925550817","-418.312675387084","376.028890566838","28.0169052989087","-76.297008035334"
"3198","-214.805485389803","476.986604673528","-309.451030764699","-733.352218085451","-37.9860942776948","-85.9451367322629"
"3206","181.074319803833","-514.773372552341","-216.750813221794","-391.085266168521","-30.9512690113107","-85.2622224799543"
"3206","48.1919065747988","-194.683687982532","-236.244925956742","-17.94358158835","26.032252145625","-68.7421008638491"
"3214","125.682362830399","-850.286067677812","-127.603254833302","-82.8188162030181","15.3125669008675","-68.5010731620551"
"3215","83.5818006157452","-590.251301764724","-167.742982814632","242.316066286177","-0.207090739275454","-26.1888267363321"
"3222","75.4869365801501","-529.183320859662","-176.18914431896","130.816521960904","0.452435604119754","-26.7139213163613"
"3222","73.9305007439568","-514.841783570501","-177.96637719384","-502.991145513405","-64.5277862891966","-15.7869879051734"
"3231","-202.95076552699","-140.791282756824","-26.2259559358981","-321.663032467859","-50.0751106353998","-16.3675196336637"
"3231","-103.187969178551","-262.947225593895","-79.2968879243916","-112.435460401568","-13.9328958323208","27.5124259323754"
"3243","337.193915734453","211.434054904318","127.864861278899","-150.415055902278","-18.1671860361501","26.3387528130427"
"3247","188.868117089157","37.8403388966128","49.4556298088649","475.350758352517","-42.1774571944192","24.1890394052997"
"3255","189.272458323553","-968.466895328011","-122.736709250231","273.907885704823","-37.9867258842884","23.3358975881874"
"3255","173.350202827291","-657.79356783454","-71.9692493954323","90.657306297802","-4.4455185962505","10.082908768045"
"3264","96.1720133067355","-110.006776600354","38.9297247290359","117.468050435726","-10.7424365984594","9.65828458518074"
"3267","122.332616447925","-250.361542607624","6.26497619250249","-552.923567095197","-35.595383382844","-46.4677335694016"
"3272","127.362633017238","-283.323220406242","-0.60830759671818","-339.215905648922","-31.7489227217401","-45.8506812198341"
"3272","128.32977687669","-291.064120371432","-2.05457711244173","-223.958328042168","41.4380174734228","-66.9399712123858"
"3280","-233.02936847463","406.119167397454","87.1201501969445","-227.649136577084","26.3381529709135","-66.1198109238747"
"3280","-102.509513056159","173.849488438557","55.8842073253276","367.181863403487","42.4495579666213","-81.3442201553442"
"3296","-23.1821093426048","-141.940862007343","-310.394209190023","180.604087799794","35.0317868607656","-80.4682902225669"
"3296","-37.9294734256795","-68.1027880994806","-186.466148065067","402.516688705902","60.6474915468385","-64.9197397759096"
"3304","-129.343565399213","7.48784763281356","-146.072681133743","304.872864924756","53.1126515731339","-64.5162465826318"
"3305","-97.9201631104322","-7.7600357096621","-145.573128132777","-36.944060006609","0.699218006784317","-75.5480054156625"
"3317","-191.303147702079","140.462359842236","-4.09111385067044","55.1686211821382","10.2859882509903","-75.0578375338198"
"3317","-154.258313232965","89.2717146201702","-53.3206095976261","-189.848357977754","47.6231738847629","-47.3242846120789"
"3321","-147.135536660061","77.2498246472589","-63.6794309640486","-99.2802737593897","41.8770826636757","-47.4168156112064"
"3325","-145.766008442847","74.4265385196114","-65.8591238183693","11.3878823608203","26.797905117911","-38.3929118418691"
"3329","-158.156761691817","176.142466684895","110.850746183657","-9.50980261066487","28.63738726313","-38.6139337844574"
"3333","-153.539187426125","142.029989328749","49.0338606815929","66.6351983813037","3.92561289361444","-5.80366256668632"
"3346","67.8911667899798","-287.853108777133","-296.835652294484","39.6589873771896","9.82974879461542","-6.51985254557045"
"3346","-11.5334252714266","-149.809197223063","-183.613170053891","11.7207053468843","-43.4590838497566","8.79418339047007"
"3354","244.354078802984","-131.511449493957","29.9065774514875","16.3737980385321","-30.22995324696","7.99551538180423"
"3357","143.554717581369","-119.21430674459","-31.1648103607955","-93.5725539995019","-59.8372791486373","23.2384518468962"
"3366","-0.559488309642347","146.681649602112","156.417680932605","-58.4850567954398","-49.9331948108831","22.3784931553352"
"3366","40.7310265690534","60.1261043960549","83.888601552323","-101.36905057959","-34.7467465871503","20.4992145518976"
"3370","48.6701391680395","39.7989286689549","68.6271050496318","-82.6462195552033","-35.5424038669275","19.8791987146744"
"3374","50.1966279765359","35.0251839937092","65.4157961857697","56.0286807055721","-43.8247419906785","13.6549261121479"
"3382","164.376840099389","-34.9369357663754","86.2150477547852","15.4959064679065","-42.2084472183573","13.2893458448886"
"3382","123.330781901339","-12.3672210729733","78.591605513292","65.6331142437862","-4.94464635499302","7.28440722091145"
"3395","115.438672085411","-261.249081925156","-195.028823283974","43.8176550050766","-12.72071853406","7.10790190945766"
"3395","113.921220712952","-175.697853852896","-100.603760851561","-40.0855251627251","-19.080502128467","-13.5275089246301"
"3407","-141.259843693707","87.984790845284","-84.3140954420743","-17.1494762281544","-19.678757919738","-13.3160860401673"
"3407","-49.3246521468198","11.9094594751951","-78.886440302907","-45.8586183519616","15.0888447650561","-21.0995414254554"
"3415","-230.49766662488","124.664951156286","-72.3756155312057","-33.4082381123009","7.29296408506249","-20.8092017011706"
"3415","-155.332615185456","77.1450650316099","-74.005614280232","35.8729991542124","43.8943813122831","-20.5589168574779"
"3423","-140.88029342005","65.9852361207237","-74.3485969903423","16.0918297842743","33.847695818611","-20.3431609765471"
"3423","-138.101480655196","63.3644011087563","-74.4207670699236","106.426686481076","45.6577289893107","-15.605335831088"
"3432","86.5907776595788","66.2792190436375","167.157481697413","75.1819702936158","40.4826552820636","-15.5211347149798"
"3432","5.79336653797198","64.9637507652479","82.9901357196468","65.2285418703627","1.76493419637351","-9.7587565502636"
"3444","-26.0114439102561","71.7154372399916","-201.367841920843","63.6110968912249","8.94701499481769","-9.7913483810686"
"3447","-23.1266975485238","69.3010400699395","-112.202163800468","11.0748343066569","-4.03333720145751","-6.40556789314685"
"3456","-147.305094761734","119.923511916008","-118.494144764728","27.2594160530436","0.663608887027414","-6.48688515937806"
"3456","-102.181432480787","102.81196895831","-105.818097120135","-10.1732771599692","-22.8807637731804","5.96056130451964"
"3464","117.998581499888","-30.0628813506933","136.653037900667","3.9830779430512","-16.4996921074756","5.69077467874515"
"3465","43.3335809101479","11.7320649983454","53.6735721572975","-9.66454499750676","-4.34400730348682","21.389628757505"
"3472","28.9774061657357","21.5474178670623","36.2131157850648","-3.25344930503929","-5.37786687276451","20.9226898945422"
"3473","26.2170800200954","23.8525088015706","32.5391039799092","-22.4118984412089","-12.1660659620189","36.4515905954448"
"3481","36.532692797548","-60.3335696182562","40.7139270721119","-15.4499802324421","-10.9393486270874","35.8381448956484"
"3481","32.5161219605976","-32.1042868581667","37.4340651890958","-36.2006108325042","-61.3647498284217","34.1713706808679"
"3497","75.1292501532231","9.82832273228887","-118.949626896971","-28.6573872886638","-49.9657795259971","33.7345424106581"
"3497","59.3226675496925","-0.323994813491885","-64.8557273223717","-44.0440600580742","-32.5771482712482","28.8061437274862"
"3505","52.6680139514351","-230.413157671235","25.2682209528926","-38.090280885045","-33.4731153762201","28.5576603444032"
"3506","53.3884938393942","-155.448550033172","0.232012209639171","-5.25806578089853","-21.10751546332","20.377746746001"
"3517","156.567377936649","-146.669225987117","66.5471580688696","-14.6242048714698","-24.055615330352","20.3263231027536"
"3517","119.406045027441","-139.607441704846","40.5011248812658","-43.1426730491185","-25.2600458646704","11.1783244812413"
"3521","112.26086877664","-137.949013816593","35.0205445706095","-35.6421514368772","-25.752109559059","11.2923715317228"
"3525","110.887033672831","-137.559539577421","33.8673263309949","-37.1438069935638","10.6503326566585","1.14905682360515"
"3534","-93.6501026475233","325.002419491294","-93.4355835546894","-35.5386961342805","2.52235697940049","1.40510026547094"
"3538","-19.9773757680457","171.632989656121","-49.2225348106979","56.9460316585629","10.3419029073138","-13.1676423414748"
"3546","-13.0428919918544","10.288904065595","-25.6026212328556","28.2666653251273","6.53653684268518","-12.7299488413438"
"3546","-7.70956767568241","43.3979801216791","-28.6325425893356","107.576416336137","25.6707938415788","-15.7665149451966"
"3554","-41.0308902065038","-0.0159861327730262","36.9444013067563","78.432437071211","20.4879928580304","-15.3841604449208"
"3554","-28.4377304286832","18.7884415446939","13.7430363987586","32.553790652821","10.4133104876158","-5.9508857454332"
"3567","13.7535741858522","10.8484939040014","-60.9326305714548","42.4891203089911","11.297352542574","-5.81901302464948"
"3567","-0.134114330094465","15.9838333490698","-37.6458098926289","-64.3311353564521","10.0670679122287","-0.0155399661698006"
"3571","-2.80436252611864","17.1898444378996","-32.7458203245093","-29.4215711311792","10.5644416642983","-0.0127062998696618"
"3575","-3.3177831302878","17.4730706514613","-31.7147694095378","-13.2933081600232","15.5420070097936","7.95544708859357"
"3587","47.199813527836","86.3806125949642","-65.499855666028","-13.0520719607007","14.5755648806521","7.82432467764372"
"3587","28.9130585497804","63.5632351025523","-53.6088798002392","-2.56644939480273","-9.69109962627203","16.814961054792"
"3595","-140.913765020109","3.48488674513964","-81.5296694903543","-5.80905375471091","-4.6051164562465","16.56526124501"
"3596","-81.5671305354213","20.3757601542578","-70.4047341933527","-3.18769716037302","-12.0759969436292","17.4879683519188"
"3607","27.4608908715352","-44.4985226819996","-12.5868254738059","-4.4983611482357","-9.12818546609826","17.2833800187022"
"3607","-5.57580215742231","-20.7339526506148","-31.4208388205109","-4.84302539139773","-3.14950680962043","17.1070164186933"
"3616","107.381968417781","-91.0545973402023","41.5681097984254","-4.93366146716889","-3.70694941552873","16.954983705395"
"3616","63.1008658973005","-64.5690805942247","13.926371527387","-32.7499889722257","-24.6236087125759","5.44433857791334"
"3624","54.5867395912919","-58.3490775679962","8.11002454551082","-24.064825998237","-20.1689987161587","5.52168667889954"
"3624","52.9496903168043","-56.8883381753178","6.88615461801698","-28.7290190055184","-18.3490914741539","-4.65326404065528"
"3632","20.0958682863246","-54.7801356265721","15.5765341189944","-25.9555580480977","-17.6055780415155","-4.42449214834099"
"3632","31.7789164833911","-55.2850338560887","12.4051551010123","-14.8040383965635","-28.442006778048","-11.0550333073039"
"3644","102.718838055225","174.066484949051","-58.0558222271796","-17.8715323413157","-25.8691721530071","-10.7708338635554"
"3648","78.3587751394826","97.9286449635332","-33.8821507599356","31.6957048507319","3.82814141382025","-10.525842195497"
"3657","73.6749565197674","80.0480198784157","-28.7955509339513","15.7303609110461","-2.03917894153611","-10.3146492507595"
"3657","72.7743776937491","75.8488364829405","-27.7252336747479","68.8539842298945","-9.21060743562602","-11.2705508670399"
"3665","-1.51552663925145","-149.31195081718","-27.5000185851911","49.8238602582071","-9.14045643753887","-11.0945775730158"
"3669","25.2004200569737","-75.1899366170014","-27.4526290508003","-48.9801398773096","-7.52034130600394","-7.52900532633219"
"3673","30.3372150238797","-57.7827190400484","-27.4426573922662","-20.9625474535042","-7.85845187839223","-7.45533466471508"
"3673","31.3248896450362","-53.6947132425663","-27.4405591658287","-110.868509490144","12.6923339266785","5.12571779950283"
"3681","4.39891159381081","56.7049185769904","17.2994072896733","-78.5110072226443","8.08824825938526","4.97110506868509"
"3682","14.2217329557018","20.6317694894404","1.7135463829208","6.42737461538017","6.20727352636561","13.9414918191214"
"3697","54.0726466580951","-190.832618906882","25.2777000541295","-15.2364481777145","5.43881129478893","13.6743359940837"
"3698","40.7349606782823","-125.494067780235","15.2360457537413","34.6516199774769","9.89922607588445","15.7199539587137"
"3706","-91.9857729407687","-85.4374427790095","-124.674645965332","15.7706446952952","8.72150483182267","15.4833612010176"
"3706","-45.5045840168047","-90.0303267647084","-77.1145140927663","-67.360856612544","5.05744244792874","14.1414497997603"
"3714","6.81797506851495","-91.1089446585618","-92.1610925781706","-44.221879915636","5.56050923200878","13.9846667031983"
"3718","-7.1217316833671","-91.3622531602708","-81.3271786073129","-12.0815798316093","8.94894512142639","8.15971987111301"
"3722","-9.80198165906163","-91.4217415086504","-79.0475172412864","-18.6296712524121","8.33327259772172","8.13837492433411"
"3726","-10.3173253502939","-91.4357120764327","-78.5678331716387","43.9185225564543","11.2646534879833","13.8097680200346"
"3730","-50.1863740631296","-70.2571383678406","-89.2043845161142","23.3667702232265","10.4622535731877","13.6987432988179"
"3731","-35.8521749831608","-77.2834467528317","-85.4425170352558","33.5955699412586","-2.59720516042682","4.4993660844514"
"3747","-89.1355650755806","247.620048968031","94.3071511610607","27.2854290858748","0.0674223726044066","4.56912266412892"
"3747","-68.3806016134438","138.92215573825","32.1298969614682","48.2074570465832","-2.02686883685133","-5.61237226059387"
"3755","-64.3899516446113","113.394950386042","19.0466211826777","40.7093057273054","-0.882480381301014","-5.38924174364284"
"3755","-63.6226514658952","107.400002427702","16.29365134978","96.0595398047045","-11.5551337574938","-8.61077000808073"
"3767","14.2570778078768","166.007370986123","-120.293781659446","77.614945853693","-8.91538957929697","-8.38786053574649"
"3767","-13.7686371365971","145.771044668194","-73.034373005606","62.3424011013354","-11.0198467511388","-3.64386869879977"
"3775","-19.1572671225619","141.018635563079","-63.0900953992655","64.3261924262093","-9.8796115454989","-3.55435163972559"
"3775","-20.1933631930161","139.902553921207","-60.9976304292466","-8.10742573315951","-28.5112382801346","10.1783197385462"
"3780","-184.895599645157","69.0342651193997","-234.146692839735","14.8447645966462","-24.1230903731272","10.0164501144718"
"3784","-125.563637797257","92.3911701389017","-173.580545757773","24.3545450510443","-17.5559699224102","25.8083331095084"
"3796","-517.278404445526","85.5203510757589","-352.321444311685","24.8553242845511","-17.8730077602927","25.4215890177797"
"3796","-369.595160563545","90.9067704998047","-282.93192581064","-70.54968092917","-53.014548793359","48.9853315773644"
"3804","29.3842895119403","176.899165109922","84.2164040214281","-40.6382575745685","-45.371438638424","48.2982516845531"
"3808","-98.9021410850982","149.094087483442","-35.5286108115557","-50.1427830277586","-64.5292609972491","60.2235057247928"
"3817","1109.30045050672","-791.202566805279","599.630150911137","-42.6421803578707","-58.3560875162731","59.5035676447015"
"3817","659.606984954495","-483.026955142602","364.27962369515","-31.9845989070587","-205.430869816124","48.6413232807758"
"3825","573.142404201847","-410.653315785809","314.757400626787","-34.1819833788241","-171.517490561613","48.2776196419651"
"3825","556.517471225447","-393.656696080936","304.336983869522","-198.040724219845","-49.4433983290893","51.3779680646892"
"3833","153.813582554949","997.74636112609","-658.860665725457","-147.130524062099","-67.570676655628","51.0505965597594"
"3833","297.383898628817","538.511034420438","-324.535753928638","111.178634527141","157.37599596504","59.8720581058279"
"3845","-542.719438245529","-1825.20580967575","293.424345744759","38.1059839251836","103.276763685784","59.4765225987165"
"3845","-224.249877035738","-1102.31394913308","117.454893223791","458.358924132361","168.704852097142","38.6522986822329"
"3854","-163.016305276652","-932.546086820399","80.4275766333184","315.872498102855","140.435149929306","38.7009568849733"
"3854","-151.242651630974","-892.676877264516","72.6363256278194","-440.72779812306","214.824300294153","31.9151502804949"
"3866","-515.947157384947","-389.070500148234","169.423853253869","-225.690362815264","191.215592367861","32.0655044922228"
"3866","-383.070529424376","-550.800835269334","134.789788227678","-620.770154714493","124.277988896597","24.2294053867286"
"3874","-225.557781452521","401.469235927856","-85.4580159282488","-464.663966343218","132.930986708352","24.4743640481373"
"3874","-268.272098515457","64.105526714327","-12.8023390820998","488.328327967464","87.1310082462319","33.7891978551857"
"3882","486.375194201467","-911.821317256446","-219.422247812972","213.93593670589","99.4196704290232","33.8189696308646"
"3882","209.474615872543","-633.013293425753","-138.899002811463","282.478688552257","-6.96173392246913","27.0168821455778"
"3894","-127.579206411665","-528.703098208238","110.69014777716","219.503320271859","19.5767086460974","27.1532015650692"
"3895","-35.3860574498351","-526.20632375818","33.2084477661361","-246.948241716254","-10.9589898345573","-3.4541693999869"
"3902","-196.624492663781","641.147191712725","453.56258927298","-110.610629691487","2.56581281947629","-2.83898834511588"
"3906","-128.626530206993","254.294850168749","298.01308823578","257.01484658971","70.1580563203181","-20.5160154777693"
"3915","88.7207260747718","1238.4234616099","-488.131082679207","162.689019163996","58.7725082138559","-19.7543435561816"
"3915","17.5110584494337","860.541585529149","-232.550754589338","789.270787943757","52.5295477243087","-8.85612289579367"
"3923","-37.7584306998705","-499.113530641899","-336.254924829192","579.042486194024","50.9790193917241","-8.46140620233162"
"3923","-25.3853434166011","-98.4223445239399","-270.076252839324","-73.7796790894561","-24.4528404794323","23.741698507199"
"3931","-319.473298398844","-653.898719112136","-130.880332865715","98.5482069282673","-8.27012598092909","23.5021059006353"
"3931","-212.018909308973","-416.349816746913","-171.590866295654","-695.120751745422","15.8472444862174","24.4335258345054"
"3944","105.108812316373","43.6578540526644","313.767219321789","-420.831232460272","14.7002680295971","24.2364483182792"
"3944","2.08438255666097","-77.3114387535158","139.895783333553","-58.6173948130379","-54.2009016109199","61.6191952790345"
"3952","-62.9177247106826","1205.78930625501","-95.3335614844438","-130.366316450017","-39.3501083231197","60.8446683965127"
"3952","-50.4159715909384","764.119674601375","-33.8302854735556","507.363575326647","-1.45378936223412","126.178596744968"
"3964","-163.706636194618","-77.4390306308993","-396.700837082462","297.066886416656","-5.97144963379315","124.499143596772"
"3964","-121.489540702952","142.924738839874","-263.055696424776","17.6883622379045","-49.1949538960199","135.568930870553"
"3972","396.406324151331","-663.188945787643","242.883907154104","73.2204189026961","-40.8536868703814","134.111545076564"
"3972","213.984486295996","-366.501074599662","82.3432136359567","-527.085269154594","-80.4152000324055","136.269094273545"
"3980","-173.597054020269","163.880059471381","102.24983105625","-330.947167822862","-69.5778460027922","135.128990864877"
"3980","-53.1190961623721","27.4376541227081","76.4385616279883","-227.257966405758","-39.6870175794219","103.421290660277"
"3993","-105.878730037688","329.008986879911","33.4261791163073","-229.990901420796","-43.4752784684857","103.08794242792"
"3993","-74.0230616171797","210.831641403292","45.3755565124735","217.444370665288","-11.6023907285928","109.628334459044"
"4001","-4.62763636107587","-357.059063288844","-82.7494802711887","77.1060603474983","-19.5808918166586","109.266422740732"
"4001","-26.284666514822","-184.425609829364","-36.7094226486268","71.4679636311695","-27.6148319801717","93.0230185777553"
"4009","464.868029450141","-535.747739946317","-34.1800436612408","51.9853179221219","-27.897055541195","93.0205327588333"
"4013","285.304162494666","-396.25414272739","-29.6478142589128","-255.381379061034","-40.7439989897204","67.9832992628"
"4021","64.5828841923957","250.779077854071","168.159762703651","-162.209349440892","-37.9925494662834","68.4001690607989"
"4022","125.143813461941","54.7318839362211","99.7822356457341","-28.2750353451437","-94.1608506907207","22.1032228167645"
"4030","-159.67884888457","668.858895718968","33.4964556990717","-56.0544376719643","-81.1081116746626","23.1933414435547"
"4033","-50.4429803989159","439.083828478021","48.5486680326924","325.73533762485","22.894744958663","33.2367380759343"
"4041","-45.7092393471459","453.963227598396","-105.767188289183","202.134284394008","3.38455935956697","33.8945611226113"
"4042","-35.799061711075","418.457586739841","-50.2381767766828","214.793817069401","20.8770617360472","42.4273424313214"
"4050","305.958808912859","-934.928520552779","-38.553817589486","192.122884083339","12.023530625882","42.7829526268436"
"4051","183.670128436101","-490.765086240863","-36.0952063897405","-281.100161458932","-10.6909962296769","43.0895033147353"
"4062","-31.4617692593819","-245.242961632669","-57.0528398500837","-136.543240958378","-7.97089547032704","43.3537626791467"
"4062","33.1738553034099","-267.583208465839","-49.4627241681061","-317.395107569408","-43.4630849830606","37.8917718524523"
"4070","-147.824992896849","223.178715593439","27.2967823130933","-238.953575877963","-34.9632304011292","38.1833099853152"
"4070","-75.6264537255699","57.4319191493048","1.44844106459818","156.872785562386","36.9419185239032","65.7456358529607"
"4079","-45.4749869771836","440.378976709692","4.95736388424005","44.9629219762893","23.3183850094881","65.5055000554344"
"4083","-48.6776291519477","291.312349720912","0.695707922214094","274.351667299906","20.9354734164513","91.4715423536113"
"4091","185.710901051304","-133.794425121057","-154.104991296223","185.673839137236","17.9619475480335","90.8553441359054"
"4091","100.77783564055","-12.6288157937958","-100.677999942168","-9.61174772785937","-32.5879853796638","89.1861971369099"
"4099","39.2542361868681","-300.13628901805","-76.9088787533358","38.0341602847118","-22.2398918522767","88.7473234286263"
"4103","52.4248176147661","-188.656110159156","-78.9074039932133","-230.835425752362","-40.2926076287101","88.3689961509892"
"4112","-174.623955637621","-90.1041610317889","-29.2196637371133","-139.539842169474","-33.6679487260924","88.0428623992907"
"4112","-91.2796422186183","-107.959684460229","-46.7644190183826","-87.7394237789768","7.23344800204694","76.3821349801418"
"4120","40.4397757357162","71.4231006386247","135.660254871111","-90.117509874749","-0.0565037168415969","76.3301059419732"
"4124","1.76605935520031","9.55033103663554","70.0458726999503","84.6972388833657","1.73959118975024","76.2852547604217"
"4132","122.678601713847","-98.5333985090145","34.7643879080509","29.668131219036","-0.526623780704316","76.2465911879749"
"4132","74.9269988635334","-70.916370316129","39.3404930873522","29.0934180267329","-63.519231112146","60.2818402883822"
"4140","-49.948848897063","23.8270906587306","-201.290042151011","20.9422861658634","-50.2545260913835","60.5195651007895"
"4140","-9.95928856287462","-3.92283887328464","-116.92327923825","-15.9418266141332","-35.2865694601749","49.3449070713172"
"4148","64.615527619106","127.242271627628","86.9455146068731","-5.64121176070385","-35.1714903190021","49.7118899390071"
"4152","41.9543622027094","80.0458006686527","25.8433827565834","28.3340871878213","-9.66119032257245","36.3727403672925"
"4161","-154.021706064512","141.333260999182","-78.2822977459164","19.2685439263427","-15.2390928221048","36.8738420550689"
"4161","-85.7029042101622","114.726342032182","-49.1923195248673","22.0956778255982","-20.700825875127","27.0641844434251"
"4169","12.3961574967307","78.4702008505479","-1.9108723850974","19.8391269282881","-20.932187890003","27.6078540943589"
"4172","-15.7418956606604","86.9556111586785","-14.9619574625408","19.2457235736677","-3.52070115713306","33.7663131284906"
"4181","190.351759509315","57.1755891884632","-48.1310307253623","19.0896767760109","-7.40733077797381","34.0751593793518"
"4181","112.978311494387","68.1818866093348","-38.1104340201968","-33.0622831170641","-44.0072095649696","34.3413976139313"
"4189","34.8309784813187","-13.9607530814651","-89.6893400001128","-16.7766416043795","-36.9598955497191","34.5709059772491"
"4193","54.8052400538881","14.7484219608994","-70.5425219231571","-26.3902662029133","-29.3063869164276","41.5965036598443"
"4201","69.492134040031","-66.7670866224922","67.7049072753658","-20.9183532465658","-29.1795866354432","41.6528592693551"
"4201","66.3160490584781","-35.9106326947152","21.7947933630817","-62.9051790737364","-3.66449802963019","53.0810267785038"
"4210","-71.681769982312","73.7148290876213","-7.55095796773859","-48.9464205212079","-9.24044416824591","52.9325795612549"
"4210","-22.2152299548497","41.4598696914219","-2.72586167713153","-19.2202349379959","4.39608580821829","49.3907359305577"
"4222","-10.896350795999","-204.410925293816","0.0790112670772051","-26.4031640861147","-0.0327823351335921","49.3375203167569"
"4222","-9.72001910334677","-127.152562111291","-0.330790167129717","-10.9217449924237","2.93219306229539","51.5675635868144"
"4230","-90.8414885790096","-59.584459778196","-143.583500012078","-16.8506088015969","1.14351800488005","51.4899530657229"
"4230","-61.4390775714104","-71.7163985649973","-93.7265922583873","-51.4133027458886","-1.17869099876632","50.2850909240406"
"4242","43.6391591163552","-11.0199652570695","-42.0753885307486","-41.5022262688246","-1.12741714686546","50.2464499542421"
"4242","8.84302325362493","-32.7656842295367","-54.2069937877781","6.26688259456366","-9.06374605740585","41.109470525622"
"4250","-39.4250727273112","50.3851603090936","14.8235258588545","-7.17131368961684","-7.30609105973857","41.2330165758612"
"4251","-25.7057961587606","19.9127575851515","-10.6511410862157","17.0873477702986","-9.77092107881757","35.6497250558849"
"4259","31.1638360825676","175.150671389945","-21.3802380761685","7.46662824922606","-8.77791428487615","35.8366969771049"
"4263","12.0984154927117","119.607588689769","-20.6378439576753","22.3069835907559","-21.1038691485217","30.3080811796587"
"4271","129.550230832159","71.2604575359033","33.2057998104114","16.2095397679382","-18.1395725072927","30.5421858337522"
"4271","85.1332184668397","79.9063538961401","14.535525598744","40.6615621205912","-23.2943461231567","23.9162417358756"
"4279","-77.0637083726163","-103.404424743416","-127.190791711116","32.0916905562564","-21.4003014911802","24.2044040363028"
"4283","-23.2500394021757","-41.454126541344","-80.0127019634573","-44.8542465648197","-19.0350443077863","29.0046465083287"
"4292","66.63687877248","18.9886373191976","39.0789054748419","-22.0886570833203","-19.0687310546116","29.1426539399934"
"4292","39.9198399237502","7.18334523190175","3.13804266435359","-56.0537172302558","9.56370205693117","32.6754980439826"
"4300","34.7828349637808","2.64577157884207","36.7357651318965","-41.9854814794486","3.26133045039898","32.7209556937605"
"4303","33.7951199663156","2.58014306479571","20.8053643646174","-7.01941432706528","-12.0451124907362","36.1740180601647"
"4312","15.5279524490172","46.69359432546","-48.7611915912728","-15.8244160795881","-10.2984784150954","36.1507005543206"
"4312","22.0156421712105","32.0534375171315","-26.3993168714584","0.967478713380727","1.55528685316998","33.8546825715886"
"4320","-52.6614121232175","63.9183543981828","-34.2210204946436","-5.61677036672648","-0.601920338011259","33.8754201632522"
"4320","-25.0199044875246","51.4016850551451","-28.8668555653529","11.7591139507705","20.7971385242791","39.5830901465959"
"4328","-1.62789264298588","-112.166862053948","36.6846784021273","5.32843612107533","15.5396103067453","39.5033376020538"
"4333","-7.1302055471432","-59.580190658114","14.477966762309","-36.3143427006357","10.2087644641479","39.4345876120412"
"4341","84.0058411801235","-117.83663240347","54.5447776090699","-24.2651103868327","10.0308757235495","39.3753222788301"
"4341","50.5289778840338","-91.5178925211699","37.975595962709","-69.7333963300768","-10.7307188587945","26.8066878031507"
"4349","13.3608974333526","-64.1552016492536","-128.362745517669","-53.6901545134296","-6.21275799720739","26.9720053533933"
"4353","23.2144238024708","-69.7291982730906","-72.3634933343636","-26.8898756874247","5.18176278842784","14.5969706065133"
"4361","-90.5854272432437","10.1588834225899","-133.953007490507","-32.8422281563748","3.83693370431734","14.9291791255371"
"4361","-48.4662353139111","-17.0797643005212","-105.912611595891","14.2293493221794","14.4276981268639","16.3535152653913"
"4369","73.5189180096097","-2.29478207509161","82.5248823163558","-1.39227622309469","11.7544986518171","16.5813518936977"
"4373","33.9735508831683","-10.8225963115696","20.1757117338803","44.8736111899708","18.6196537820716","12.225921827352"
"4381","24.5622601621614","-14.5904692128559","44.6374624383504","28.0401139832973","16.4243764287423","12.4713610759598"
"4381","23.7527090593143","-14.4753370095926","28.7846796099428","25.3504537236197","-1.97850092271891","5.85518786707655"
"4390","25.4047785478802","-37.3953079213901","-42.5551250546606","23.643155952147","1.50310132919819","6.15177307770126"
"4390","24.7224293625917","-29.7779587414502","-19.5663755585173","17.9830968060616","18.8400445683268","7.54540045320561"
"4402","10.129426924834","-110.951322944911","-59.4686307799861","19.4946756547191","15.9229605992461","7.74676485727801"
"4402","15.3235648557608","-83.0145179671996","-42.8648235031698","0.784835371143913","17.9141120733206","10.1962666259535"
"4411","23.5531671147832","-78.2188410598166","-10.7377709785526","6.86472388510491","16.7275864269702","10.3078384021136"
"4411","21.135509673872","-76.0925981715683","-19.9776286475647","-10.6437917203662","17.8342929934659","8.12810055619521"
"4423","-111.293306563391","-54.4114050766542","-191.932065082746","-4.24799183262454","17.2864320801109","8.24907643229833"
"4423","-63.7559893743657","-61.319675587061","-133.114545995239","40.8596767912896","25.0198829855839","10.6292799669583"
"4431","-273.350563037939","50.0278399102025","-442.862801957161","27.7216037314031","23.1793432570507","10.6811138009148"
"4431","-192.650252333171","12.1772969888978","-328.039720862914","52.0591883515751","12.8786686473682","5.03600338623708"
"4439","-466.369723380938","-81.4391492239687","-529.365968468832","42.4592231897813","14.6703827739082","5.16968486490503"
"4443","-358.998994475457","-55.4245454061","-445.728836576226","39.9347281571016","15.4023780590431","5.28492382531747"
"4452","-786.67026959874","-149.928943643045","464.870923228637","39.2708637510735","15.7014308429236","5.38426457266158"
"4452","-620.900544966596","-115.12287131542","157.478415952327","-7.80354408620054","-33.511507467032","4.33194173875313"
"4460","571.532522765811","507.324960659977","796.10252352904","6.81733716194236","-22.6171918934261","4.42479595755557"
"4463","158.806980090792","305.504000158776","537.481170929409","94.0396574449731","-150.257168225153","11.3325921189011"
"4472","1312.31918709968","916.509914593122","332.737520179045","68.9764400876472","-119.403802269943","11.2873979477011"
"4472","852.110155864612","687.001871849435","373.655565512399","348.995670363267","-334.376933474858","23.7659840126845"
"4480","769.04687664307","294.193278775294","-274.510726471005","257.632099659798","-279.203063850118","23.5230410102192"
"4480","750.07592717639","393.943969045637","-43.8972307915925","-693.968158444329","77.5435433392555","15.3479034489243"
"4492","489.73127485127","-1603.73199836559","149.584291662249","-410.209704553409","13.2904739362712","15.3005969470837"
"4493","581.673640175965","-927.877104420922","109.296480531799","-335.589974663197","-12.9597761241334","15.2598167870556"
"4501","344.462514153923","196.383880779675","401.468767174875","-315.967284968713","-23.6841762911045","15.2246626034401"
"4501","439.852866399374","-86.5885453093712","294.947368156523","-206.585273428183","96.0679415068008","7.22864759306393"
"4513","-740.328017075926","978.420737026099","14.8335779732529","-237.821174793997","66.992032864093","7.33575213424866"
"4513","-304.246691948534","587.533318276535","99.8923137828826","698.909507959264","260.410960411794","33.6011299577733"
"4521","-21.549572180994","-189.144778871144","-660.677446021481","401.240813929066","210.431235423069","33.2429713361228"
"4521","-77.1941282773006","16.455906024019","-385.715775867738","246.533763722863","247.3046756797","52.2795210948081"
"4529","166.996140422116","-207.093510295318","-249.117051722546","249.85057652543","226.369123749148","51.6898138735081"
"4533","72.9476992601875","-105.59307295645","-264.374084506824","-374.608296631801","39.5730200866625","-14.8201406638412"
"4542","-753.18872054869","-94.1122392212587","-58.2034773591804","-178.821738746379","75.2584645796573","-14.1544707021906"
"4542","-465.033677514097","-84.4160176877535","-131.821263951452","-127.335906817084","89.8375632929445","-13.5806356793977"
"4550","-239.702616062307","715.710953631704","228.500164430614","-113.796719458762","95.7937765981619","-13.0859661699502"
"4553","-290.377201637944","451.61713007925","94.318639807438","105.155490458677","117.324619661008","13.5135086764374"
"4562","-12.6922751825859","479.618780156935","-146.875841453345","38.7331750663926","114.120931178304","13.4433554985872"
"4562","-118.300548180709","435.19484019356","-78.6277434998301","266.187497446777","1.41020928958787","14.5208392238842"
"4571","-93.4131869728741","-473.701587198969","-418.604084431156","185.000975655641","25.3628428126474","14.4496747334987"
"4571","-113.627982344133","-178.151775206663","-292.141566810006","-557.216365409965","-44.4242017496843","4.14670002132816"
"4582","-25.3207706473831","-788.327750223866","-88.3629312584262","-337.396656078722","-22.9353279536057","4.26510994006251"
"4582","-59.3415467500145","-546.624799986558","-144.484034126869","-60.7249634025038","-55.5340009225867","-1.32260913757601"
"4590","154.659638439878","676.905196825427","384.160480795065","-113.96883334654","-42.852015533004","-1.13945395407641"
"4591","73.8066067092329","303.245646167717","193.397332063321","-127.970330532103","-37.6708577948263","-0.981566615075087"
"4599","41.9911018368914","1043.35088710219","-145.602885978341","-131.652292862103","-35.554123333838","-0.845461202492149"
"4603","44.873791933705","748.161233431906","-49.9349735528717","487.499464781452","-26.7320661479768","-0.728132710850289"
"4611","510.013516332885","103.39690299607","125.888919929539","293.317299044717","-28.1278615655683","-0.626990701214445"
"4611","342.44801859364","277.976935434962","75.8856081323793","-544.621585528856","9.496821171165","-18.7471407389597"
"4619","73.417406244952","-1172.57933582543","-20.5359267367709","-311.973692660866","0.868185363717717","-18.3674590783007"
"4623","152.68968305513","-668.235872131252","7.17515012008342","-290.746174145613","40.3122955370266","-27.1438271078604"
"4632","-161.074323746837","168.62479713824","-49.6292476703141","-262.163990862163","29.4269771402594","-26.7094191255519"
"4632","-39.4031374423791","-41.8422846894753","-26.5819723653323","412.372074872982","72.7234975759889","-16.0933135084656"
"4640","-3.3547938311415","556.54220019843","121.434092140402","205.754275601041","60.4120609200231","-15.9417916437168"
"4644","-3.42361702752598","330.070072187797","72.5794847208368","151.420160931425","55.3822888978492","-15.81117353306"
"4652","-238.441166559346","354.550924312681","-130.975200796625","137.131962976875","53.3274022666627","-15.6985753224993"
"4652","-153.629045517804","316.300140979355","-65.8069745854936","-174.079846743345","17.4758723441117","-25.8431389905173"
"4660","-110.20595570284","-532.896448443074","-209.577469280617","-78.918963293133","24.828920311166","-25.5881722037121"
"4664","-116.856803350303","-256.326401301088","-151.829513298376","-203.279233077647","24.650058355518","-28.7822562875652"
"4673","31.905625838125","-28.9809660284818","35.7006917689972","-149.982152103141","26.5769852540198","-28.5356887971459"
"4673","-22.4911542869152","-67.589925598447","-22.8393896267865","112.428744219902","-9.23925122459564","-32.8749720860993"
"4681","-280.608662495453","152.813027878619","-106.740575051984","38.4347242546006","-0.871784308572688","-32.6156136479431"
"4681","-193.238074176503","74.5736580662574","-84.3949787598355","81.509686262589","10.5039764050725","-23.2883666381153"
"4689","188.721614406577","-62.0658567642927","50.9463721625995","56.8370739967455","10.1514829932425","-23.2478941685338"
"4693","60.1627178862378","-27.1550247386157","6.42476415958624","-41.7136958843498","-63.1994707634076","-48.2480958441715"
"4701","147.523103663503","-149.577811679646","-36.9454671270793","-14.6295117064457","-47.1666131298672","-47.7993030862602"
"4701","102.320277092174","-104.328245834124","-27.0713879130296","-40.5107912651231","-23.1104658885539","-43.9985491845566"
"4709","225.592889157556","-7.20901822056614","75.2228418666252","-28.3167703060999","-24.282454768745","-43.7221422149436"
"4713","176.29506750126","-33.4010097737214","40.7474916121742","86.0598535099373","18.2080288816811","-48.0357026394"
"4721","-77.2265900550105","294.062130722337","-59.5649890771189","52.1373812729971","8.56729018040144","-47.7541700287779"
"4722","9.02766309407478","181.965358414623","-28.6726411567636","57.1130628368214","34.866268582383","-30.4420973147212"
"4730","36.4585085114776","-95.0120047033431","-38.2785331179931","50.4215137718375","26.6105764543604","-30.5183750307398"
"4730","35.7327602638215","-18.0588774267985","-31.2997953182602","-98.9857765598964","26.4206679347432","-38.5498402259122"
"4742","71.747727635389","-210.04017760875","72.1747806083561","-53.2752902124769","24.3430818182375","-38.4732952093756"
"4742","58.6724870396175","-136.126111916313","36.9477976122205","-37.7807791595373","36.2259375631609","-45.2350622276442"
"4750","-142.691354491532","40.0961796465669","-210.268482720513","-35.7062001868322","33.0806151316299","-45.0639848989134"
"4751","-71.4084839818457","-8.51881747345311","-128.287485718254","56.9019832540642","47.7101635071616","-47.1924264988197"
"4762","0.14460982441976","177.761481690582","116.239660597745","28.2550819520128","43.6869877537968","-47.0272311382943"
"4762","-18.0975557140183","109.508561864241","40.6928186993112","43.3032301805128","-5.70031874244842","-52.5746192312059"
"4771","-294.571611092492","162.320701937248","-57.5243982866404","34.2604294842212","4.12275963525058","-52.3566970717673"
"4771","-196.730518478278","135.723392593665","-32.1911670687996","5.82698934120356","14.5017473623152","-53.3067978268195"
"4779","2.85437870992835","57.1057989226773","-114.550042736905","13.3498707065739","14.7420276437217","-53.1258239506347"
"4783","-58.7705374121084","79.642814974191","-82.87991516482","-41.9938601307127","-34.4949218597994","-52.9698169887043"
"4791","140.884448333565","-61.5722972882783","-20.7389075898566","-23.5475560279367","-23.610415931728","-52.835332538883"
"4791","62.2730084530151","-11.7360234880007","-38.6632587896482","-25.6448696895534","-43.0354385864381","-53.8573600485709"
"4800","25.4653279688674","-28.2746743211761","-1.27451992858827","-22.1963985577825","-35.9714283664295","-53.7383900080158"
"4804","30.3881500569513","-16.1587011732371","-16.4072188095942","-21.2895569082792","-17.1709113890411","-52.4978742509365"
"4812","96.412801591904","20.2246164617129","98.5209196583677","-21.0510854970798","-19.4900600848635","-52.4284983909031"
"4812","73.1076576474594","9.76907296464263","56.7039838620815","3.33005651968818","-7.70589344804375","-55.7825695251411"
"4820","101.16573225235","-227.451919338197","-41.5741439344748","-4.25845438894016","-10.8915347902513","-55.6739174853101"
"4820","88.560584175446","-150.162189375979","-12.2537295086154","-37.5205535683652","-5.82719037573481","-60.1320895934849"
"4832","156.638230761508","-123.185275410404","1.07416682632692","-28.2674607435228","-7.75817937737623","-59.9752182318351"
"4832","130.727825388956","-121.849869984355","-0.121390527469434","1.95831056266659","2.59311252574768","-73.495492606836"
"4841","-56.8343612655121","72.6307447011587","-141.74985735092","-6.09324293410363","-0.177922174539758","-73.1505279863901"
"4841","8.10221536627568","8.30363164116519","-92.5511780015614","71.6928639932136","35.2934585472894","-72.8531542242551"
"4849","73.0119022311654","144.999993538678","-48.1968020296884","46.1482132825032","26.785102644413","-72.5968057491795"
"4852","56.4923790258778","91.1025117878675","-57.8637985012055","49.8529421346728","5.80305059956528","-71.2378641029271"
"4861","60.5469982118366","-25.6991850317287","185.274678467815","44.8271716685413","8.23094473636906","-71.0664002312244"
"4861","57.3265980390102","5.87046823747357","99.435634151215","-29.449745255398","42.643409579106","-64.0908392997036"
"4869","2.47563187906565","-87.329351926499","-8.10558178825398","-6.98228570288956","35.702439220961","-64.077617437917"
"4873","21.9291904557435","-52.216905377836","19.2657028746869","-21.918405890524","45.5983851782419","-57.2384676599683"
"4881","9.40008385694557","106.067229818976","-153.932958516909","-13.8461452714182","41.6413213115126","-57.3428378511941"
"4882","15.9910563031652","58.239538344074","-90.3772480030546","40.3875349334568","40.0246838968055","-57.4328092702325"
"4889","-243.054141603577","-55.3715413106414","-150.376739738264","24.6493217184792","39.364215271923","-57.5103683524638"
"4893","-148.861924346179","-24.0525861263044","-122.0017729126","-35.0743294334367","48.6431162093073","-43.9217235141857"
"4902","-53.0189669940554","98.0375738396407","18.1874341363806","-18.7798094144009","46.4339618787088","-44.2077499691542"
"4902","-77.590811460666","61.7098920633823","-27.3140928184105","23.719825154241","2.56213013708721","-46.7302339252567"
"4910","20.7250039262343","153.79231089452","77.6447051569818","12.8959194994825","11.6385264162652","-46.9047193637394"
"4910","-17.3713730283563","118.417447730074","35.7300306831679","6.57550420433886","-13.2995557692682","-43.6412570308897"
"4922","-1.1959027353481","-133.481506109246","-150.258132088002","6.91342973342678","-5.48787672388964","-43.8280176028841"
"4922","-11.0857724699586","-54.638828588987","-90.3935756911342","-62.4789387897359","12.0266410648997","-43.9890129357987"
"4931","62.9371294052043","-27.2972119595669","-24.109505537486","-40.7269935159959","10.1821042344424","-44.1277975676057"
"4931","35.1698449481591","-25.8761577733086","-40.1620776440464","-14.1625323968557","-3.30311399809543","-48.7992703146693"
"4943","-28.0163118388483","-37.898511536502","8.35800509357565","-19.1768976564321","-0.812428245840981","-48.826272920646"
"4943","-8.16539777064111","-33.7219065831858","-10.4324475174661","-6.59927470651103","9.75386006692275","-45.4356742898885"
"4951","-35.0799071434945","-50.3925954522385","-9.01757281006534","-11.2917474264786","8.07066100729146","-45.5128381178345"
"4951","-23.2548806473438","-44.307630835891","-11.7198562861105","8.31864659532373","7.38299897608729","-46.717315191561"
"4959","82.0591244611678","-14.6361317552037","-51.6592500333262","1.47557596564668","7.10205830751096","-46.7556242168646"
"4963","45.3083208507742","-23.6679152826049","-38.0632574080351","-0.3239407536065","-8.92727165022752","-43.3747721869242"
"4972","79.8197656914008","7.74894797729357","47.1183236978083","-0.797158202046684","-5.4759692237605","-43.4603379876559"
"4972","63.4554360711083","-3.87294471880214","19.0421469870083","9.50058506903522","-2.47450264377721","-40.1202232515205"
"4980","9.69267863348792","23.4053340894397","-2.97184307937798","6.20857424373754","-2.24826942247605","-40.2409062834116"
"4984","27.3554719848619","12.8115136767546","1.3959950997487","7.07990764692597","28.081807924869","-34.6551467232746"
"4992","16.2897724318198","-185.608552169988","-44.2140346962309","6.3090414834644","21.4729998495032","-34.8399910918583"
"4992","22.1621207181939","-121.206601279928","-27.8112516493006","-21.6861655746442","-9.87318922307953","-34.9993345782255"
"5000","-36.3637184257554","-121.968487293098","-10.043146426136","-13.048042411271","-4.67950819338852","-35.1366952500286"
"5004","-14.6167441697792","-113.147412754626","-14.304399456786","8.33085675748892","6.99107447611309","-34.1171471625792"
"5013","-48.397591590036","-171.091078352311","-52.7822490239539","2.9528484883016","5.75902900764886","-34.2382545675922"
"5013","-33.8927867249595","-150.698884415718","-39.8787197308475","29.3310910366251","5.25568337866211","-33.2046954923317"
"5021","-20.2575297257525","-20.5838972657306","-135.590526861425","20.2677560308989","5.05004419674467","-33.3137248466994"
"5021","-23.6358176703121","-61.026984912736","-100.730109802094","120.369196168056","-12.5399770528279","-43.6493406367884"
"5033","-13.439023181222","736.150770680394","-193.611351518764","87.6927904865089","-8.72628676004419","-43.5590686764575"
"5033","-17.4784397437077","466.364337241612","-157.155329709806","145.107073552784","8.7463292834472","-40.0673745219312"
"5042","-177.334961568508","148.823966020932","-292.650769818234","122.205260886059","5.88467371761649","-40.0573898295471"
"5042","-120.071292422647","218.25105551722","-241.161585107963","-172.164325146812","-15.9733595394983","-32.0830719610078"
"5053","290.446388429364","-760.99147634086","469.398887954119","-83.5744558282757","-11.9033428719561","-32.2088803353197"
"5053","148.378465244913","-426.96212671505","227.914313590911","-176.65911440671","-53.2098526701318","-25.4895803677825"
"5061","153.601487302628","1130.68266048987","-5.43589134774693","-134.137511384146","-43.0854077432144","-25.6972660496438"
"5062","136.605741193503","658.488447219523","47.4627914012612","427.683127746387","34.2578248762611","10.5383775694137"
"5070","-548.17462528654","173.383020828531","-990.100785364628","258.424644391323","19.8559915569485","9.77500019017316"
"5074","-302.840419501789","271.458219997522","-622.423877749519","-242.924225199597","77.6304116485422","29.6001932942918"
"5082","548.768942185809","-1467.13350961861","88.4540035019613","-111.763529779466","61.2338439606607","28.6903292357806"
"5083","267.511696003513","-877.43386196988","-115.963782146791","-627.911076112957","-83.9214989585698","-36.9576550646854"
"5091","-397.578120070257","609.632493823903","671.388414445569","-446.641976682729","-56.2239429451073","-36.5489311288068"
"5094","-187.457923791789","194.863257261612","373.062277913182","684.93343838749","103.097090584809","-35.058635536815"
"5102","-452.562782240589","1839.66413394016","-423.439419181069","358.502905182665","75.1868521931186","-34.7739391342941"
"5103","-334.535683110111","1238.93813148403","-181.038511413532","772.926607471134","66.9671832427707","-25.4248497518248"
"5111","342.554552339973","292.949888706482","-362.678284039153","593.90727148601","61.6090811728586","-25.3655482541592"
"5115","110.74173055038","526.788856724858","-270.898743727342","-643.035404720655","-93.3596531036092","-40.1078905494467"
"5123","304.789806588475","-1195.80576084821","81.2754811725239","-283.313214500724","-60.6713059802689","-39.816398991167"
"5123","210.100301015802","-593.349264266794","-30.6203698768627","-652.504589738515","60.9023058849493","-53.2206251920697"
"5131","-290.768786926926","326.568058886554","137.319783592781","-482.590545488154","42.5705589639271","-52.7756222486332"
"5132","-120.073134262166","101.606454088447","65.6575830897255","-437.90838743203","35.0812211752092","-52.3920113169388"
"5139","-324.064757176852","1159.05745906331","39.8410083875679","-426.158356659938","32.0214920203628","-52.0613228370402"
"5143","-232.287141986716","778.395013286451","40.4087105024308","808.486385879626","2.12526028076647","26.7428921472176"
"5152","139.673552357464","-96.4956050161411","11.8948698476762","424.159909911752","7.91131367369969","25.6753828811158"
"5152","15.1921043414001","143.040316421467","21.8950159525344","-404.722021667233","-53.3830375221093","30.4449390897572"
"5160","247.954520417932","-384.971919928312","-187.171321042027","-203.692429234639","-38.4245189817564","29.5564936939501"
"5164","150.708794746371","-177.973189734766","-113.162851034345","-187.305487849193","-29.1303850943431","9.44531974312371"
"5172","-231.341905300855","-129.360480359373","-115.485872611713","-161.996227197601","-27.333316084156","9.10865649059021"
"5172","-103.800507963168","-117.944006883391","-105.974680493759","68.7363033888924","35.4676241582848","19.0600668305706"
"5181","-173.27927775253","218.351310403349","-25.2317810301399","0.411849344142408","22.1246145668399","18.6385938908932"
"5181","-134.638272626227","108.328734604358","-52.2419407025074","-17.5553767800713","16.6733989037087","18.2752667950654"
"5193","96.9493703559585","190.164861298594","192.615948167282","-22.280203624457","14.4463337125827","17.9620638201277"
"5193","17.4777657894097","148.38370307446","104.138700786951","28.5882368957028","-42.1644579283483","-10.7568967013408"
"5201","155.854072264981","-182.68654031384","-179.336581007641","11.965069337177","-30.2924960205313","-10.5138277855675"
"5205","97.4603057151767","-78.436879698183","-90.9851669082606","-77.5208213619167","-17.4849925010591","-17.132044319333"
"5213","-63.8085433516864","59.0155698513272","-151.135914433769","-52.0528532763501","-17.2525549979249","-16.8372205392189"
"5213","-11.8164287028891","27.2956518433209","-119.792774700554","24.1256701073874","1.93986987742558","-26.8246982338834"
"5222","-36.1664562214915","132.816264886653","-20.139370623345","4.15827445937906","-2.21916692930354","-26.4343168448085"
"5222","-21.8483452903619","93.5973004523905","-51.1704007866886","-4.566596964541","19.9535103954349","-15.856163970954"
"5230","-19.095337844924","84.3869052085934","-57.6999191861944","-4.86096930852768","14.0120398896852","-15.7373589396695"
"5233","-18.5660047484637","82.2238858180852","-59.0738539316754","-4.93838016446601","11.5846836878474","-15.6349440918281"
"5242","79.1529501607396","208.807038358869","65.9077139469099","-4.95873683430785","10.5930002106849","-15.5466582596122"
"5242","43.9418121635163","166.534515433403","22.2062107343714","-17.123305703059","-31.189984969417","-0.677089585359937"
"5250","24.5175300550592","-109.931331583137","-149.841286773219","-13.3222124872285","-22.2602015277704","-0.858906745996662"
"5254","27.7827361619203","-23.8580770789701","-95.0433495036986","-132.177768200237","2.07693312665881","2.39823533929546"
"5262","-49.3216450312727","-227.818793324933","73.9703055906042","-94.4331170423379","-0.980259839085592","2.20602645265529"
"5263","-21.1468504317446","-148.718038956011","21.533990228107","-54.9779129952219","-5.41217040726154","-9.33925219695219"
"5270","-194.694381940015","-59.5354048078804","-28.8703888765013","-61.6024100687408","-5.22280391848434","-9.29175962363498"
"5274","-129.063144668405","-78.5912692031766","-17.4764280265643","25.2441227914283","-6.7368945598504","-16.0785710488582"
"5283","51.6745404964815","-65.4149066727335","-16.8685031530931","-2.91791507892746","-6.35546824542333","-15.9290830341471"
"5283","-6.574213663654","-72.3204979209583","-15.7405842078969","-10.3236632785976","-6.19963855158361","-15.8002181862933"
"5291","166.614039210834","12.5503284977913","-70.9802595655555","-12.2711468609079","-6.13597515825257","-15.6891313607408"
"5291","97.9137218239387","-16.5181443122281","-51.6037369277939","21.9573412273751","-45.8963486685305","-34.9386672205172"
"5303","-161.146266173035","54.322057509802","-110.161883299492","10.9583789081056","-37.140237977442","-34.5325628222603"
"5303","-74.9568926726609","26.958556390972","-87.4836300208308","15.0141139829535","14.1806839365455","-45.5620706886634"
"5311","13.9241454585759","29.3581354956899","92.6672432015194","12.0806473377897","5.14757386243129","-45.0699623805427"
"5311","-8.98629846028291","24.9216657237829","32.5744101631218","6.09814356001139","-17.6403190245569","-44.6457446773631"
"5324","84.2257853293316","69.7737993670607","78.9859091373199","7.52492940605848","-14.9501915674766","-44.28005148194"
"5324","48.148090996043","54.3071187532631","55.751770435043","14.8482533723237","-15.4426096044175","-37.1370568447918"
"5332","41.2112707973788","50.6748392268256","50.8628661558548","12.7740619209961","-14.6437843766744","-36.9795002077859"
"5332","39.8774972467726","49.8218149168514","49.8341477963177","12.2286134816057","-14.3174285748792","-36.8436798739927"
"5340","81.1987334012733","-253.985097029335","-29.1238780041536","12.0851773490139","-14.1840976463276","-36.7265971320515"
"5344","66.1437529178291","-153.332767147247","-1.73814699680392","-55.6967436457969","6.5592930786872","-21.8322043312792"
"5353","-178.986154379167","173.911557352664","-112.298433674722","-34.5213002950122","2.03389512792447","-21.9926220687362"
"5353","-92.1183817472978","78.7633971044674","-70.5624188636787","87.4282533037763","27.2398081822353","-20.9929501249574"
"5361","80.0484687910151","130.554776069538","90.3340165482224","52.4972282541107","20.5375500150286","-21.1311915874064"
"5365","27.1517617931017","100.717745627012","39.1896839207462","12.0448903637438","-25.1699154224497","-17.83648544905"
"5373","24.211976598003","-116.342736907872","-91.4739823739152","19.4071719612918","-16.8434575350601","-17.996312569217"
"5373","19.6467309053957","-48.3184030121272","-51.9681006396286","-96.7748701255287","-5.4844508421389","-15.858172824495"
"5381","18.7689506282031","-32.3431978935421","-43.6553124300562","-59.327167263236","-5.84378902010397","-16.0150079833107"
"5382","18.6001758750117","-28.591493702333","-41.9061438307579","-49.4795752909898","-5.99059472316966","-16.1502063730812"
"5389","94.4921963085083","-243.059278487332","-12.9047895524542","-46.8899620373156","-6.05057141302393","-16.2667529735664"
"5393","67.08429566489","-171.426061328895","-22.8023535271602","-40.9978811063035","-4.4836192568921","-25.4708902761125"
"5402","-100.88084049151","290.215620883101","-15.9370840716707","-42.4484453748401","-4.84344928037048","-25.4052370892068"
"5402","-43.1762510129644","146.630068217904","-19.4925009240529","97.8695967816102","22.0642844145857","-23.07272399943"
"5414","-77.2742684328955","79.3717183796078","-64.9801531387863","53.7689182321798","16.0572960265503","-23.0620013002748"
"5414","-58.8304472670494","82.5764011295912","-49.5516195233372","-18.6242798060263","0.871530329650103","-20.7768405615223"
"5422","-100.477308804641","-133.785003703172","-58.8322298625644","-2.66146022982482","2.66746645213782","-20.8069375462866"
"5422","-83.4849377749432","-61.5964945917996","-53.785046628545","-54.0487165653667","-28.4279196697689","-8.31533708254468"
"5434","-2.48554131390301","188.357049078931","-75.9875763426573","-35.5619815799529","-21.1317744273592","-8.54706113532252"
"5434","-29.9114238478621","115.057500837518","-67.6594104880517","45.7288158644903","-0.644964606094064","-8.74681684726378"
"5443","-35.184721364334","-48.6643922305739","-98.1194641031597","23.105790769337","-3.27518732159932","-8.91901452797417"
"5443","-36.1986419432906","-4.11373343506649","-86.5288381871928","-43.639446203893","-13.8984827191924","6.86396525532605"
"5451","48.5695060704851","-110.1514145249","62.6556915831895","-26.1913868989011","-12.2385736011295","6.46954622706122"
"5455","17.868258310945","-69.0538811672849","12.0469514585395","-7.70683842586698","-32.2493456344718","1.57770606345637"
"5463","111.390094794809","117.113142709129","-18.2874801108855","-10.8459717440568","-27.4246402104004","1.36073763540742"
"5463","74.3719580021495","60.8336206972017","-13.6704209294306","10.9099334903","7.96702914696867","4.58757787519238"
"5471","32.9075299793673","-158.906451491603","14.1448110252031","3.63106619963179","1.42610758973247","4.36924754518086"
"5475","43.9349783196816","-93.5114070266165","4.99766437484302","-41.7088219411907","-20.3436149223059","3.0430791114755"
"5484","-80.4855105535585","3.0434308654693","-14.8228790744321","-28.6318154588435","-17.2375193691506","2.89986710368792"
"5484","-34.408396322542","-20.2811050442562","-8.99349804708632","21.7068662568745","3.12892323176621","-1.77542222447913"
"5492","75.6836858988041","-188.15298496391","81.7121643888258","7.94438845630183","-0.550474871974623","-1.8057148811276"
"5492","40.8515846179133","-135.576931686697","50.7983593587333","-16.51908889781","-11.6024052990583","-2.96978706774883"
"5504","-54.4242899127752","153.899579840113","-184.772860383018","-10.9522296458945","-10.1176127445047","-2.97326541020846"
"5504","-23.7434098871373","64.8818206620627","-106.341521352412","91.2594699659819","-3.14518738039737","-21.1836025160023"
"5512","36.3875059710403","-31.9252405741957","-18.2548373462064","60.1379975026085","-4.29664004972583","-20.8816658359355"
"5513","17.94914701816","-11.6599381685429","-39.7197252038642","12.0023004926414","-14.3157918032151","-14.9315906148624"
"5525","-50.6741974447109","-116.340306430775","13.0302464484956","22.344095389996","-12.4090630098046","-14.8023798245221"
"5525","-27.8687158519116","-78.9240143350844","-7.87015715833124","26.8006995981593","1.10156341870639","-12.4150774533948"
"5533","-23.4838035597968","-70.1369684829096","-12.2679992276894","26.972649183029","-1.37874195010371","-12.357124128969"
"5533","-22.6406967948158","-68.073370769626","-13.1933887670904","27.0178666255467","-2.39205752805811","-12.3071659677801"
"5541","62.4845102003319","251.904229803531","20.6139306506024","27.0297574196384","-2.80604222261919","-12.2640999677859"
"5541","31.8519157735469","146.04951252461","8.72763306440621","63.5105314075979","-23.6640925523283","-11.0890166312072"
"5553","-98.7710109719396","-173.590796206671","-204.944027570016","52.1038508799892","-19.1855381737563","-11.0760462223321"
"5554","-54.8864673058735","-81.6568674742871","-131.904605166744","-32.5362028399721","11.2903470712813","9.4183907659238"
"5562","132.516236558074","44.0775157490318","-41.3733208804878","-7.79392894424668","5.74110803768699","9.08544259911916"
"5565","69.5489954544277","14.6056632135814","-64.3238183868099","42.1382970316743","-23.580744419433","8.79842751672994"
"5574","-54.6369803333477","-31.1490673369975","66.8551166757129","30.2689338957042","-18.5600314229258","8.55100865177722"
"5574","-16.5147752189429","-19.8943574975942","18.4576572813463","-5.8559283262205","28.051902984935","23.1311860005238"
"5582","-68.839789659904","-100.213504110122","-36.4656127748852","3.64434602910365","19.0949610889995","22.6999015551446"
"5586","-45.9005550102702","-72.0760900202079","-23.0225124493546","13.0907487039439","12.2527394469696","20.0521992069858"
"5594","-142.722554101287","31.615353977069","-93.5666496104332","11.574861534294","11.4573861550434","19.7697703385763"
"5595","-105.338954383549","0.96681752006454","-67.4104765522358","58.0760618721102","-23.8795681149791","13.8365116575184"
"5603","3.08158678764003","293.845422232943","-138.858703631841","43.3044447139209","-16.3162929995663","13.7217974197926"
"5606","-32.0719091924936","192.626629150809","-110.892768272061","49.8421494396353","-13.2263571428055","15.8988263339458"
"5615","187.134659399762","250.052965843762","-108.587366058209","45.5613643354223","-11.9639802686073","15.775515246686"
"5615","104.28249009657","217.539279569154","-106.102265625049","16.6431567474473","-27.3627960455156","15.6692159923334"
"5623","-213.538028857359","266.388534061341","-297.064520052731","25.038559211991","-23.653900401056","15.5775816411408"
"5623","-107.646806349143","245.860559081074","-230.246607058324","-52.657126031861","16.0562767424821","24.6022583580614"
"5631","-87.286625779664","241.039657615409","-216.186848487081","-27.0886972045734","8.27965859250803","24.3819027282401"
"5631","-83.3718824893064","239.907490854488","-213.228408119478","-20.3649882660452","5.10256257269334","24.1919470668077"
"5639","-370.047533669321","-123.980231218464","-414.828548818234","-18.5968599936582","3.80457687705312","24.0281974347267"
"5643","-266.167947662514","-3.43760606258162","-344.249049236891","-127.564837966085","-41.2864570748068","27.3009144764655"
"5652","2286.42888913187","711.516401670819","1959.47631501014","-93.2200585295257","-31.7081593797171","27.1221318460821"
"5656","1376.22813846703","490.420095390194","1165.22390714868","181.57727459976","62.9179561450279","61.1067737613859"
"5664","-1598.94706306487","9.56407813845462","-1562.79229995678","100.840505849745","44.5769527945159","60.402939867062"
"5664","-621.997351032101","139.637231697361","-705.818747827887","-705.528704109755","258.296121994018","84.8312965741465"
"5672","650.480461772497","-2532.2673006168","-206.949810571639","-465.578959578415","206.609952855587","83.8895498158022"
"5676","295.145481456708","-1628.75191555495","-279.978306641213","-468.486741265318","-5.4807945692031","-2.26917464947593"
"5680","226.823630121763","-1416.56544084015","-295.344889905271","-431.25139825115","27.8706576317673","-1.5415565588853"
"5684","213.687081151307","-1366.73441328237","-298.578311020589","-421.459650375491","41.4962161971056","-0.914319688284676"
"5693","507.628241928698","-313.590637213729","679.642121614626","-418.884722398488","47.0628657420408","-0.373615578630794"
"5693","400.145628058277","-656.264616089539","338.478288833123","874.143329278681","151.190230931517","-6.73525827234975"
"5705","-882.312943991145","2361.10620012722","-957.382466994648","470.169864642125","129.730912641391","-6.21925723648846"
"5705","-430.897009046934","1314.72199902313","-546.056194029667","282.296842908674","-11.1269688764541","-56.9825829135424"
"5713","234.370922532225","-493.178345866516","-470.24281614378","279.892027146613","14.326292155609","-55.7426679783731"
"5713","42.2849733213241","-32.7555109709503","-448.290240827111","-861.969609518332","-93.0426065495929","-61.5015620382168"
"5725","-43.4568430049257","-959.007872282588","137.942822497673","-505.244035642346","-62.9075995516376","-60.4659667649943"
"5726","-32.9428068214463","-590.5340223542","-63.7026013497253","-414.910263166876","-7.6268091022148","-31.1242742219038"
"5729","-30.9212258996369","-503.999616262662","-106.13263020333","-389.155264471138","-12.0421359291263","-30.8305223940535"
"5734","-30.5325274633651","-483.677404960366","-115.060714531592","-382.382493406007","-13.8459942409824","-30.577296176046"
"5742","-294.385715452933","-357.109162018904","-86.5164761609727","-380.60146330608","-14.5829509684934","-30.3590047088725"
"5742","-199.117952026022","-396.385186395891","-97.5102260087942","516.174792300681","-18.0669413513963","22.1752701226255"
"5754","538.674362248637","247.498202604844","438.840360502876","235.999315051485","-17.4903071082234","21.461986561787"
"5754","282.533001572973","28.7112850806125","250.698715664758","-207.665765579058","-171.625891715533","52.7099492522838"
"5762","-131.877000819324","256.224592911392","-553.040947611146","-111.336011079819","-137.597165722259","51.6469847439694"
"5766","-9.5574717653543","151.655057447435","-295.163045464413","-66.8969149224271","-47.3050554736238","49.5927067351283"
"5775","342.967496252288","-271.827550797117","-81.6279258266628","-66.2108019402057","-58.4166936485587","48.8218341767464"
"5775","228.749053911916","-145.280513338854","-125.696079050193","-123.352392200101","-15.2126349555244","47.0193515025356"
"5783","206.787761414474","-115.561517727028","-134.968855873606","-105.378869727814","-27.5618463651217","46.4655369307096"
"5783","202.565165148269","-108.582146910331","-136.920024319006","-100.652387137895","-32.6070510621548","45.9881258775524"
"5791","-67.5978337049007","-46.9278186562396","310.064662251774","-99.4094678544182","-34.668242630645","45.576577815671"
"5791","29.4567140701446","-66.4485803616431","154.118733930933","55.5131239865361","55.2026214083216","25.8765090795135"
"5803","319.276654362654","-538.798898850311","-71.9700004586246","7.25299199239811","34.9188853329508","25.8942355152946"
"5804","225.001634934423","-384.728220661097","-11.5433663232706","-220.829756503651","-16.337220731221","-9.36720216153244"
"5815","4.40969649499043","-205.567904559864","-197.471945043986","-156.808491417166","-10.2776304860994","-8.7640189907274"
"5816","73.9954945204136","-244.492919993102","-125.594851030684","-16.6436836628285","33.5758210729295","-45.7966860906254"
"5824","40.3742048759806","25.2601366799998","-97.9434776526022","-50.7846581383847","25.4919156678265","-44.7203758972926"
"5824","59.909688630677","-69.3895860747616","-99.1251032611173","174.736477335574","66.7500278663397","-27.8611307187775"
"5832","63.6658637633882","-91.6176425485217","-99.373739742456","99.0415869555665","55.6058103572676","-27.327764488319"
"5832","64.3880804130888","-96.8378004129124","-99.4260575827321","79.1361631813144","51.0528995148932","-26.8679807506644"
"5840","-400.058512387865","297.330889091489","-122.701619223843","73.9016500768841","49.1928319846485","-26.4716281633815"
"5844","-232.359743125599","165.899611275634","-114.599239676482","147.217459386227","38.8841793953485","-14.7503692054228"
