Timer,AX,AY,AZ,GX,GY,GZ
"1006","-0,274925373037465","9,72506830394569","-27,2749033793389","-3,93540340887202","-1,04339080821568","-0,0529976474329465"
"1010","-0,274925448722801","9,72507318678114","-27,2749196239492","-0,405996137185516","-4,3767246149207","-1,81770352029105"
"1018","3,2269060331484","-0,919035475550587","-22,1288773095214","-1,55445639492035","-3,54339165868263","-1,24347386269514"
"1018","2,10044646759583","2,67309598625902","-23,660562352132","-0,0901354830988346","-3,23386796972166","-1,10060582741269"
"1026","-1,68109098209767","5,26020610832437","-25,8125561404565","-0,7240937005849","-3,11611909676798","-1,064899547607"
"1030","-0,626466535230288","4,84630743588593","-25,4289140127758","-2,63258050278456","0,164941492155482","2,44402730177873"
"1039","-0,362810732904556","10,0728958294888","-28,7461879620193","-2,10970192284652","-0,581853386076175","1,32125854351795"
"1039","-0,296896787157355","8,25696857044656","-27,6963269001784","-1,97898228744915","-0,867100056768197","1,04056637453914"
"1047","3,21958169931305","0,751765717274449","-20,5413105856454","-1,94630237874961","-0,976054389723572","0,970393332616099"
"1047","2,09870132081522","3,05147758805261","-22,4919589712912","8,5618675984434","-2,63570522906316","-2,54714992786646"
"1059","0,0684812261955614","3,57247253930323","-26,4778236001029","5,18891009272019","-2,26963542895923","-1,42653574297988"
"1059","0,560926202540949","3,69050286417934","-25,6194615450751","0,845670716290309","1,10625876954399","-1,14638219675854"
"1067","0,684037446627288","9,03759861583394","-28,8007647536866","1,75986087218288","0,395735610450674","-1,07634381020322"
"1067","0,714815257648872","7,2489720604261","-27,7119588848653","5,48840841115602","-4,72976205275905","2,44116578643562"
"1080","-1,02749028959573","8,61721450211788","-25,6865229609128","4,42054529589931","-3,68752795083068","1,32054318559532"
"1080","-0,463066676406883","7,92718698748369","-26,1063942507703","2,40357951708513","-3,2894299481293","1,04038753538525"
"1088","-0,32196077310967","5,99741061069264","-24,5130761359942","2,89933807238158","-3,13737004195087","0,970348622832732"
"1088","-0,286684297285367","6,56022377779881","-25,056715324062","1,2732777112057","0,156779651382956","-0,797161105305398"
"1096","1,47213482167071","6,68772793268293","-25,2124253602211","1,86676262091173","-0,58496712979357","-0,23903853733993"
"1100","0,911839601409727","6,71661373433591","-25,2570240865323","2,01513384833823","-0,868289189157171","-0,0995078953485632"
"1108","0,771765796344482","12,0435139792746","-28,6969548168502","2,05222665519486","-0,976508586071451","-0,0646252348507215"
"1108","0,736747345078171","10,2503121737362","-27,6822254709149","2,06149985690902","-2,63587870620059","1,69409543027374"
"1117","0,727992732261593","8,07061395098892","-27,3915850119205","2,06381815733756","-2,26970169217392","1,13377559655485"
"1120","0,725804079057448","8,57680784260874","-27,3083392905439","-4,93560226755531","2,724267447535","0,993695638125133"
"1129","-1,02474308424359","5,14458086712731","-25,5709175685758","-2,68545737377853","1,63179392013574","0,958675648517703"
"1129","-0,462379875068847","6,36701696944986","-26,0732823629298","-3,87292115033433","-0,403527824271182","-0,800079348884155"
"1137","-0,321789072775161","6,64395733125394","-26,2171705189179","-3,16978709447328","-0,180951552592901","-0,239768098234619"
"1137","-0,28664137220174","6,70669759542845","-26,2583832027412","-2,99400358050802","-0,0959349819010278","-0,0996902855722355"
"1149","3,22214555294162","8,49436334756818","-26,2701874078632","-2,9500577020167","-0,0634615415036905","-0,0646708324066395"
"1150","2,09934228422745","7,89935531339913","-26,2735683878344","-2,93907123239387","3,18501018649624","1,69408403088476"
"1158","-1,68135853295109","5,99110540269367","-29,7016934630157","-2,93632461498817","2,42581597509911","1,13377274670761"
"1158","-0,626533737245721","6,55879534601316","-28,6835827217937","2,31436203936326","-1,10023838709221","-0,756305074336678"
"1170","1,38717246168062","3,14050017340868","-21,5376603793613","0,627033702951116","-0,447071307269466","-0,22882452959775"
"1170","0,890599011412205","4,36609249675742","-23,490913473044","-3,29479838115192","-1,81561767185959","1,65304560658698"
"1178","2,5164556488451","2,87029581837525","-25,7639458021035","-2,27525640217768","-1,33835586795291","1,12351314063316"
"1178","1,92291980820333","3,53142618542719","-25,4149914844553","-7,27037090743412","-4,39212605789243","-0,758869975855289"
"1186","-3,47546415195712","7,22810804891874","-25,3150434111532","-5,51914953374823","-3,55856247661811","-0,229465754977403"
"1190","-1,82506014199723","6,06558365259639","-25,286416118549","-5,08134419032676","-3,2401695203554","-0,0971146997579314"
"1199","-1,41245913950726","5,80221616343937","-23,5646382973625","-4,97189285447139","-3,11855423284161","-0,0640269359530635"
"1199","-1,30930888888476","5,74255080539244","-24,0714838436745","12,5554699794925","-1,45406733781303","1,69424500499815"
"1207","0,466478673770859","3,95558166685392","-27,6438120733569","6,93731068798341","-1,8182899177409","1,13381299023596"
"1211","-0,0895744355652349","4,55074751738849","-26,6670042383537","3,78277086510615","1,27865741369662","0,993704986545409"
"1219","-0,228587712899258","8,23248525657297","-24,6736469766433","3,99413590938684","0,461586032937471","0,958677985622772"
"1219","-0,263341032232764","7,06657529990552","-25,1027062900415","2,29697717045701","3,38556051422207","2,69992123539211"
"1227","-0,272029362066141","10,349344970097","-26,9391765134788","2,87268748572455","2,50241938383545","2,13523204783445"
"1227","-0,274201444524485","9,09304962546101","-26,4651813548754","6,51661506454144","-4,30704646610882","0,244059750945031"
"1236","-0,274744465139071","8,80843852258598","-26,3294188769207","5,42759695924566","-2,90803097555584","0,771266676722677"
"1236","-0,274880220292717","8,74396046794254","-26,2905335632506","5,15534243292172","-2,37365460895221","0,903068408167089"
"1248","-0,274914159081129","1,63554479645197","-24,5658176226897","5,08727880134073","-2,1695409996943","0,936018841028192"
"1248","-0,274922643778232","4,02514797965626","-25,0718216279869","-3,67973710655452","-2,09157653852419","4,44425644924347"
"1260","-0,274924764952508","11,6603159232042","-30,3574871667495","-0,871491083528328","-2,06179676427178","3,32131585129729"
"1260","-0,274925295246077","9,39004737395548","-28,8714162399848","-0,169429577771781","4,42171405231492","1,29058070181074"
"1268","-0,274925427819469","8,87572274608591","-26,7321950005237","0,00608579866735629","2,89819481782345","1,7828969144391"
"1268","-0,274925460962817","8,75920356912744","-27,1194757119588","0,0499646427771405","2,31626225276194","1,9059759675962"
"1280","-0,274925469248654","5,18590224040616","-25,5168229497622","0,0609343538045865","2,09398379206885","1,93674573088547"
"1281","-0,274925471320113","6,3763782408033","-26,0577884926637","7,06367678156145","-1,2269870024487","1,94443817170779"
"1289","-0,274925471837978","6,64607810784966","-26,2127327389485","4,81436238850066","-0,495484970308656","1,94636128191337"
"1289","-0,274925471967444","6,70717805296452","-26,2571121264563","0,752033790235468","-3,45214403437057","-1,55315794053524"
"1297","-0,274925471999811","4,94756804320784","-27,9834016887403","1,73645164066917","-2,58148730369677","-0,42803774614739"
"1301","-0,274925472007902","5,54893204758382","-27,477848402782","-5,01744389672241","-0,630892036363341","3,35324230244957"
"1309","1,47507452799007","7,45862189014778","-27,3330469937505","-2,7059177810703","-0,885830942536661","2,29856231459881"
"1309","0,912574527989569","6,89125816040225","-27,2915727344788","1,37196374784273","-5,83731090588983","-3,21510768236388"
"1318","0,771949527989443","4,98927100948795","-25,5661152638331","0,391434130070983","-4,72860795727666","-1,59352518160455"
"1321","0,736793277989411","5,5583797680397","-26,0719068788559","0,146301725628047","-4,30512111433366","-1,18812955641472"
"1330","-1,0219957845106","7,46076225160823","-26,2167765504925","0,0850186245173132","-4,14336353411782","-1,08678065011726"
"1330","-0,461693050135599","6,89174305484878","-26,2582703616526","1,81969784923963","0,77252432983638","-1,0614434235429"
"1338","-0,321617366541849","6,76283293682737","-26,2701550877318","1,25336765542021","-0,349773591016236","-1,0551091168993"
"1338","-0,286598445643412","6,73362861714373","-26,2735591306488","1,11178510696535","-2,39648724002849","-1,05352554023841"
"1350","-0,277843715418803","4,95356036362426","-27,9881124669066","1,07638946985164","-2,17826228871285","-1,05312964607318"
"1350","-0,27565503286265","5,55028959533704","-27,4791976716623","1,06754056057321","-0,476873785753671","0,696969327468124"
"1358","1,47489213777639","7,45892943977367","-23,9062767642754","1,0653283332536","-0,827001205691566","0,13449407085345"
"1359","0,912528930436147","6,89132783513168","-24,8829148435493","1,0647752764237","-0,960737979714534","-0,00612474330021808"
"1371","-0,978061871398913","8,53619094517122","-23,4490667942415","1,06463701221623","-1,01182088184554","-0,0412794468386352"
"1371","-0,450709571857678","7,90883126882254","-24,0383816624394","-4,18539755383564","-1,03133281421561","-3,55006812272324"
"1379","-0,318871496972369","9,54015631174535","-25,9207525471612","-2,49790619534861","-1,03878570919478","-2,42726529169439"
"1379","-0,285911978251042","8,90972961438976","-25,4599043319447","4,92396664427315","0,576401526987655","4,85343541606282"
"1387","-0,27767209857071","8,76690775456012","-25,3279074232776","2,77943485417859","0,19334815301434","2,67361059300213"
"1387","-0,275612128650627","8,73455175864376","-25,2901006501961","-1,25669809334505","0,0470347836618587","-1,37134561276305"
"1399","-0,275097136170606","-0,140038802620773","-25,2792719716667","-0,265731330225961","-0,00885195042227214","-0,382584664204343"
"1400","-0,274968388050601","2,84944112501705","-25,2761704036371","-1,76798963944619","-3,26626676082197","1,61460557293533"
"1408","1,4750637989794","5,30015367343996","-26,9888603920385","-1,14355421675125","-2,51048850293736","1,11390313222025"
"1411","0,9125718457369","4,8553575148093","-26,4794118936167","6,01255463892249","1,01426108111616","0,988727522041483"
"1420","-0,978051142573725","8,30149401926788","-22,9063381220822","3,80158185284092","0,360595620392556","0,95743361949679"
"1420","-0,450706889651381","7,08220909186575","-23,8829324177539","-3,75116134367947","-3,12515034583179","-6,05038985613938"
"1428","4,9311291735792","8,57943469770857","-31,0169635511276","-1,63934714280957","-2,45658682878165","-3,80234572504843"
"1428","3,27658818938685","7,91862805120708","-29,0603045576622","-2,86139359259209","-2,20121828890667","2,00966530772431"
"1436","2,86295294333876","7,76892367695229","-28,4998750497997","-2,16690520503772","-2,10367618633185","0,462668065917498"
"1436","2,75954413182674","7,73500846167764","-28,3393559024511","1,50671689185087","-2,0664184184824","0,0759187554657938"
"1449","-4,26630807105126","4,18042088903057","-23,1526447086003","0,425122416073019","-2,05218721750887","-0,0207685721471322"
"1449","-2,02277112177077","5,37513645202576","-24,6670583026386","-3,34527620287144","1,18931659506208","-1,79494040405036"
"1461","-1,46188688445064","9,19270093419739","-26,8143974957772","-2,28787585760756","0,427460876801816","-1,23848336202617"
"1461","-1,32166582512061","8,05756224424405","-26,4294419420725","-2,02352577129159","0,136457886949858","-1,09936910152012"
"1469","0,463389439711898","6,02694685451669","-26,3191823351445","-1,9574382497126","0,0253046356542513","-1,06459053639361"
"1469","-0,0903467440799752","6,56691515253441","-26,28760159601","6,80908363068215","-1,63518611713051","2,44410410488802"
"1477","-0,228780790027943","6,68924384974127","-26,2785561884299","4,00071410078084","-1,26943714668939","1,32127776520842"
"1481","-0,263389301514936","6,71695716219918","-26,2759653878175","3,29862171830551","-1,12973347133116","1,04057118028853"
"1485","-0,272041429386684","6,72323555561729","-26,2752233264174","3,12309862268668","-1,0763714156976","0,970394534058551"
"1486","-0,274204461354621","6,7246579126153","-26,2750107839629","3,07921784878197","-4,29205690165493","-0,797149627498943"
"1498","1,4752547806534","6,72498014464109","-26,2749499072012","3,06824765530579","-3,52033946016091","-0,239035667888316"
"1502","0,912619591155399","6,72505314563773","-26,2749324707783","1,31550510693675","1,62853233902839","-0,0995071779856598"
"1510","0,7719607937809","1,4047134573351","-29,7020841659106","1,87731946984449","0,595226362602873","-0,0646250555099956"
"1510","0,736796094437275","3,19940154336288","-28,6836946275636","0,267773060571424","-4,65356336586296","1,69409547510892"
"1518","-1,02199508039863","3,60598440436126","-23,2512707762479","0,865386458253157","-3,65842264233558","1,13377560776365"
"1518","-0,461692874107607","3,69809490765406","-24,6953069441948","-4,23521019232641","3,1938232454623","-2,50630435907267"
"1530","-2,07161732253485","9,03931857752578","-23,3953318291518","-2,5103593549713","1,81114827532939","-1,41632435078175"
"1531","-1,47409843464166","7,24936171417759","-24,0229908047882","-2,07914664563252","-1,95305454536742","2,35617065129098"
"1535","-1,32471871266837","6,84385070185758","-24,2027659275849","-1,97134346829783","-1,39085208232538","1,29929440180917"
"1539","-1,28737378217504","6,75198302365822","-24,2542574158469","5,05560732603584","-1,17610985000223","1,03507533943871"
"1551","3,97196245044829","1,41081436530744","-22,5554273485007","2,81234502461926","-1,09408561607481","0,969020573846097"
"1551","2,28679650860412","3,20078369140153","-23,0688456284541","0,501529449265117","-2,6807891353656","0,952506882447944"
"1559","0,115505023143081","10,7001058291666","-30,0702131206877","0,923825555426581","-2,28685594966561","0,948378459598405"
"1559","0,57268215177782","8,39906169456695","-28,0755563875222","1,02939958196695","-2,13638686202474","0,947346353886021"
"1567","-4,56302356606349","6,10431284620217","-27,5042435041553","1,05579308860204","-2,07891278480211","0,947088327457924"
"1571","-2,84694999552382","6,58444225737694","-27,3406071223789","-5,93760853473919","1,17910833672469","-0,802976179149099"
"1580","1,08206839711109","10,2401187299836","-27,2937381190352","-3,6859589405745","0,42356166908287","-0,240492305800856"
"1580","0,0643229952698239","9,06830464746336","-27,2803138215129","2,12695345796668","-3,10109945536937","-7,09987133746379"
"1588","-0,190113355190494","8,80283259917904","-27,2764688119946","0,580181557601971","-2,44740020608471","-4,81471609537953"
"1588","-0,253722442805573","8,74269045762984","-27,2753675180036","7,19348858251079","-5,43377728877804","1,00657271514154"
"1600","1,48037528529066","6,95561330477845","-25,561473738905","4,846815338738","-4,57447183114314","-0,538105082228196"
"1600","0,913899717314715","7,55075468489463","-26,0705774456026","0,760147027794801","2,22588960195468","-2,67427453157063"
"1608","-0,977719174679271","11,2324868803566","-29,6435524613208","1,738479950059","0,823396533614111","-2,20831689390624"
"1608","-0,450623897677767","10,0665756677703","-28,6669298798446","0,233063180625052","-1,33034213825575","3,15817251550986"
"1621","4,93114992157261","2,70863260038222","-24,9600473341053","0,856708988266564","-1,15299710802499","1,49979486786388"
"1621","3,2765933763852","5,04170586994227","-25,8983158991691","2,76262044017694","3,76884463203698","1,08520045595239"
"1629","-2,38704575991165","7,34371085235557","-21,026321300785","2,23909830315454","2,64882088949272","0,981551852974517"
"1629","-0,802955543985862","6,86522530328932","-22,6308765430627","2,10821776889894","-4,2511260669519","-2,54436029776995"
"1637","-0,406932990004415","6,75682539524941","-23,0904559116554","2,07549763533504","-2,88667128374236","-1,42583833545607"
"1637","-0,307927351509053","6,73226762106794","-23,2220893951721","3,81731760194406","-0,747461943918789","2,3537921551224"
"1649","-0,283175941885213","8,50015618380598","-30,114105454023","3,25277259359632","-0,930356685157408","1,29869977776702"
"1649","-0,276988089479253","7,90066766842572","-28,0881281022933","1,36163634150938","-1,00021625994694","1,03492668342817"
"1657","3,22455887362224","2,44449856298321","-27,5078443155106","1,88885227848765","-1,02690024307693","0,968983409843463"
"1661","2,09994561439761","4,20841477647312","-27,3416384727279","0,270656262732213","0,580941371072537","0,952497591447285"
"1670","-1,68120770040855","6,3814784091243","-25,5804551754587","0,866107258793355","0,19508221915114","0,948376136848241"
"1670","-0,626496029110087","5,87378146488837","-26,0760141400813","-5,98502999219136","3,28376511548717","-2,55265422680152"
"1678","-0,362818111285471","7,53221585141025","-29,645109648353","-3,69781430493754","2,46353700141706","-1,42791181771396"
"1682","-0,296898631829318","6,90793071958134","-28,6673758919321","2,12398961687592","3,7682717291204","2,35327378455793"
"1686","-0,280418761965279","6,76650021867489","-28,387331770927","0,579440597329281","3,26663604880074","1,2985701851259"
"1686","-0,276298794499269","6,73445943223481","-28,3071210702179","1,94330334244262","-3,39710768611128","1,03489428526789"
"1698","1,47473119736723","6,72720065856774","-21,4298336099415","1,28426902872096","-1,9424313005285","0,968975310303393"
"1702","0,912488695333859","6,72555619845912","-23,4600295512558","-0,630489549709459","-3,00482835261762","-2,54750443343773"
"1711","4,27192806982552","4,95173157392564","-30,8958350120532","-0,109179194317063","-2,41062791696797","-1,42662436937301"
"1711","3,11178791344843","5,54987528682649","-29,0256107209905","0,0211483945310356","-2,1836635466798","-1,14640435335683"
"1719","-2,42824712564584","5,68538350353154","-23,3492029497178","0,0537302917430603","-2,09697087146493","-1,07634934935279"
"1719","-0,81325588541941","5,71608260877755","-24,723356839432","-3,43812423395393","-2,06385721610851","2,44116440164822"
"1731","3,0904919246372","5,72303742735476","-25,1169442712287","-2,31108786537818","-2,05120892525411","1,32054283939848"
"1731","2,06642887715135","5,72461302706864","-25,2296762349686","4,97067122676576","4,42575824695226","1,04038744883604"
"1735","1,81041311527989","5,72496997591365","-25,2619651106337","2,79111099980174","2,8997395627178","0,970348601195429"
"1739","1,74640917481202","5,72505084193364","-25,2712133438511","-1,25377905693926","0,698818304057732","-4,29716111071472"
"1747","-3,51959181030494","5,72506916196263","-23,5602838934676","-0,265001571124514","0,858141189811786","-2,61403853869226"
"1752","-1,83609205658419","5,72507331232717","-24,0702366481029","-0,0178071996708272","-0,699036871765776","1,30674210431335"
"1760","0,334782881846004","9,27197840360158","-32,7841898834888","0,0439913931925946","-0,293825964752729","0,286937265064758"
"1760","-0,122498383546449","8,07552239039647","-30,2800547938047","0,0594410414084501","-0,139049170885918","0,0319860552526088"
"1768","-0,236818699894562","0,710659461824168","-22,7085028975964","0,0633034534624139","-0,0799296962985322","-0,0317517472004285"
"1772","-0,26539877898159","3,04216505119517","-24,539846469921","5,3142690564759","-0,0573480664031866","3,45231380218631"
"1780","-2,02254379875335","7,11726695442435","-23,3508045827689","3,62701045722928","-0,0487226513045353","2,323330189533"
"1780","-1,46183005369629","6,04047283269037","-24,0102372371711","-0,294804192582379","1,57260595284597","2,04108428636967"
"1789","-1,32165161743202","5,7965273593074","-24,1991130296364","0,724742144964707","1,19189837269904","1,97052281057884"
"1789","-1,28660700836596","5,7412620186235","-24,2532111467697","-4,27037127064852","1,04648101685763","-1,54711755836887"
"1801","-3,02784585609944","2,18183761937734","-29,4094410529823","-2,51914962455183","0,990936529480355","-0,426527650605799"
"1801","-2,46315556803281","3,37545740934538","-27,8862969580815","-2,08134421302766","0,969720423189924","1,60361982633497"
"1809","1,17801700398385","3,64586949539406","-27,4500355050844","-1,97189286014661","0,96161659169591","1,11115669557016"
"1809","0,0883101469880123","3,70713079224568","-27,3250807775519","-1,94453002192635","0,958521203504299","0,98804091287896"
"1821","-0,184116567260947","7,26791356291698","-27,2892910376483","-1,93768931237129","0,957338870423478","0,957261967206159"
"1821","-0,252223245823186","6,07460150917599","-27,2790400811006","-1,93597913498252","2,57492124812252","-0,800432769212041"
"1830","-2,01924991546375","12,8980674421667","-25,5625256405066","-1,93555159063533","2,19278273680069","-0,239856453316591"
"1830","-1,46100658287389","10,443909487121","-26,0708787330006","-3,68544470454853","0,428784825136139","5,15028762565727"
"1838","-1,32144574972642","9,88792509603227","-26,2164820672547","-3,12291798302683","0,754997578964116","3,49782364540074"
"1838","-1,28655554143956","9,7619679861817","-26,2581860152762","2,26771369735359","2,4976337521126","-2,1652923496634"
"1850","0,472167010632161","4,41307643784326","-22,8429742398018","0,6153716174487","2,16326154023027","-0,58107134842943"
"1850","-0,0881523513499093","6,20129615923956","-23,8647836297018","-1,54771390252752","0,417508731434805","-0,185016098120938"
"1858","-0,228232191845427","6,60641362565583","-32,7253436898618","-1,08848528252158","0,750690494430535","-0,0860022855438152"
"1862","-0,263252151969306","6,6981921468475","-30,2631999696151","-0,973678127520093","0,877954603463292","-0,0612488323995345"
"1870","-2,02200714200028","8,49243645584529","-22,7036753109514","-0,944976338769722","0,926565167565832","-0,0550604691134643"
"1871","-1,46169588950802","7,89891878007859","-24,5384637445628","0,812199108417871","0,945132750840697","-3,55351337829195"
"1879","0,428381923615046","2,444102355958","-28,4911435742349","0,251492970214769","0,952224936562752","-2,42812660558657"
"1883","-0,0990986231041883","4,20832501659389","-27,6232766741155","3,61131643566399","4,19100188795384","6,60322008758978"
"1887","-0,230968759783997","4,60800599870099","-27,3747007999604","2,4512723020263","3,42810460140547","3,86105676088386"
"1887","-0,263936293953949","4,69855289565589","-27,303503286605","-6,58873873138312","-1,71739819838063","-2,07448407079261"
"1899","-0,272178177496437","8,26597025824807","-25,5695324323223","-3,84874148973548","-0,682805378691168","-0,558369278711734"
"1899","-0,274238648382059","7,07416125753659","-26,0728856299112","-1,41374217932357","-1,90566007483628","3,32065941930849"
"1911","-0,274753766103464","6,80415940203568","-27,9306352306406","-1,80499235172059","-1,37274900546129","2,29041659381354"
"1912","-0,274882545533816","6,74299104206322","-27,4627349465061","-1,90280489481985","-1,1691950899411","2,0328558874398"
"1920","-0,274914740391404","1,40877725054003","-27,3287181725859","-1,92725803059466","-1,09144441275551","1,96846571084637"
"1920","-0,274922789105801","3,20032218727902","-27,2903328663551","-1,93337131453836","2,17432168078086","-3,29763183330199"
"1932","-0,2749248012844","7,15309712534759","-23,852181794102","-1,93489963552429","1,42173332920478","-1,61415621933908"
"1932","-0,27492530432905","6,04859008354719","-24,8674208726462","-0,185281715770771","-0,483763830309922","2,30671268415165"
"1936","-0,274925430090212","5,79836630564158","-25,1582073300982","-0,747877235832391","-0,211598979778158","1,28692991002433"
"1940","-0,274925461530503","5,74167862809876","-25,2414948685947","-2,6385261158478","-3,34370923491785","1,0319842164925"
"1948","-3,77492546939058","7,50228822791619","-25,2653502232409","-2,11118833585165","-2,5400688958691","0,968247793109545"
"1952","-2,64992547135559","6,90115067859381","-25,2721829134076","6,77064610914739","1,00296237641682","4,45231368726381"
"1961","1,13132452815315","3,21806006344326","-28,701296633137","3,99110472039715","0,356279899226254","3,32333016080237"
"1961","0,0766370280303383","4,38366352886851","-27,683469061123","-3,70378062679041","0,109269172868438","-9,20891572081299"
"1969","-0,187034847000365","8,19463272575809","-29,1055195477372","-1,6275019635873","0,0149194709855514","-5,34197719121683"
"1973","-0,252952815758041","7,05799988761268","-28,5128256021036","2,39156770221348","-0,0211189083052912","0,874757441182212"
"1981","-0,26943230794746","8,57395015273145","-26,629486876429","1,39633511866367","-0,0348843442949327","-0,571058900718028"
"1981","-0,273552180994815","7,91738553892574","-27,0900578810378","1,14752697277622","-0,0401422729730147","-0,932512986193087"
"1989","-0,274582149256653","7,7686421883738","-27,2219753905837","1,08532493630436","-0,0421506230176193","-1,02287650756185"
"1989","-0,274839641322113","7,73494469102442","-27,2597594220374","-0,68022557281361","-3,27898572197314","0,704532612095956"
"2001","-0,274904014338478","5,9538585174304","-25,5570032422215","-0,121613200093101","-2,51534671379552","0,136384892010408"
"2002","-0,274920107592569","6,55035714146301","-26,0692969985423","0,0180398930870262","4,24847338719265","-0,00565203801097855"
"2010","1,47507586909391","4,91204059119038","-27,9296073689035","0,052953166382058","2,83202277198039","-0,0411612705163253"
"2010","0,912574863265527","5,54088337706681","-27,4624405446459","0,0616814847058159","2,290986780355","-0,050038578642662"
"2022","0,771949611808432","5,68334640503827","-22,1878988155658","0,0638635642867554","2,08432942069111","-0,0522579056742462"
"2022","0,736793298944158","5,71562110834192","-23,6771558423135","-1,68559091581801","-4,46674262167477","3,44718726256786"
"2030","-1,02199577927191","9,26983702640686","-25,8172896498059","-1,1229545358442","-2,96902947910934","2,32204855462838"
"2030","-0,461693048825927","8,07503726583746","-25,4302703176169","-4,48229544085075","-0,778919975296872","-1,45923612235648"
"2038","-0,321617366214431","7,80435785989808","-25,3194195998391","-3,32213066710239","-0,942372583924675","-0,404557291602702"
"2039","-0,286598445561558","7,74303600228004","-25,2876695537566","0,467910526334705","0,613228063879233","-1,89088758391426"
"2051","3,22215628460166","0,635335360674872","-20,1378406190482","-0,584579175306022","0,207414638418971","-1,26247015699214"
"2051","2,09934496714247","3,02510053241565","-21,6628180908031","-2,5977016007162","0,0524077029841734","0,644634199738383"
"2059","-1,68135786222233","8,88685309862138","-32,3810747305376","-2,10098220706875","-0,00679967785995897","0,121410288921015"
"2063","-0,626533569563533","7,21482097637526","-29,4510155397494","-1,97680235865689","-0,0294148849575581","-0,00939568878332687"
"2071","3,13717250360117","5,0625734938891","-25,1846264467509","-1,94575739655392","-0,0380531254062231","-0,0420971832094124"
"2071","2,07809902189234","5,57498629374082","-25,96264022037","-8,93799615602818","1,57668134909528","-0,0502725568159338"
"2079","-1,68666934853486","5,69107235002986","-26,1854802132945","-6,68605584589674","1,19345503554865","-0,0523164002175641"
"2083","-0,627861441141666","5,71737140514449","-26,249306412946","-2,62307076836388","-2,18899236834263","-3,55282736106797"
"2087","-0,363159464293366","5,72332940149679","-26,2675876187048","-3,60732449898067","-1,48097231147025","-2,42795510128057"
"2088","-0,296983970081291","5,72467917320452","-26,2728237519201","-3,85338793163487","2,02553526303815","3,10326296366628"
"2100","3,21955990347173","11,0453411877104","-22,8471668045619","-3,91490378979841","1,36490197469141","1,48606747990299"
"2100","2,09869587185998","9,25072612401492","-23,8659844710406","1,3197172456607","4,34863049014235","-0,668231391037833"
"2112","-1,68152013604295","8,84415980607438","-29,2985309475245","-0,371627495474524","3,48831336984234","-0,206806108773039"
"2112","-0,626574138018688","8,75205305057699","-27,8545299020813","-0,79446368075833","3,15970147099117","-0,0914497882068404"
"2120","1,38716236148738","6,95773438077848","-27,4409367323193","-0,900172727079281","3,03418289473767","-0,0626107080652908"
"2121","0,890596486363895","7,55123521026012","-27,3224746919948","0,823400011340481","-3,48589689017125","-3,5554009380299"
"2132","0,766455017583024","4,13878744034496","-27,2885445983091","0,254293195945422","-1,97634575864536","-2,42859849552106"
"2133","0,735419650387806","5,36570448063663","-27,2788262847094","-3,38798350790334","-1,39974853415833","1,35310211510616"
"2137","0,727660808589002","5,64365998963739","-27,276042749241","-2,29855268386553","-1,17950799222314","0,298527267762958"
"2140","0,725721098139301","5,70663023330236","-27,2752454844044","1,47380502214392","0,522650397845304","7,03488355592716"
"2149","-2,77476382947312","12,8147043133452","-27,2750171304902","0,416894448646281","0,172817048615647","4,71897262796821"
"2153","-1,64988506137623","10,4250237433074","-27,274951724984","0,152666805271872","-4,81490936664155","-4,61000510402153"
"2161","5,63133463064799","8,11019449445986","-30,702089680732","0,0866098944282693","-3,72005133068413","-1,94224953701896"
"2161","3,45163955365405","8,58577473258231","-29,6836962071279","1,82009566671737","-3,30185277380435","-1,27531064526832"
"2169","-5,84328421559444","-0,173743929086943","-20,824114539368","1,25346710978964","-3,14211513912243","-1,10857592233066"
"2173","-3,16701515790656","2,84180529857143","-23,2865384923855","2,86180997055771","-1,46306680320656","0,683107758403754"
"2182","-0,747947893484589","7,0718758683159","-20,5646733478793","2,26389568574973","-1,82172740764065","0,131028678587358"
"2182","-1,1431810773791","6,03018957634211","-21,7850722275522","-1,38558288545227","-3,57675755685878","1,74300890863326"
"2190","-1,24198937335272","5,79419770892469","-22,1346208948546","-0,297952528252765","-3,24711942257931","1,14600396614473"
"2190","-1,26669144734613","5,74073424116451","-22,2347392027685","3,47395506104711","3,35092709572693","-0,753247269477397"
"2202","3,97713303415552","11,0489784300343","-29,1177286328546","2,41693195837208","1,87115660636701","-0,22806007838293"
"2202","2,28808915453093","9,25155013371427","-27,0891658591719","0,402676182703321","2,92396856373047","3,40323671939069"
"2210","-3,38417181537522","-0,0229138937833122","-24,794563206903","0,899112238786132","2,32610694768101","2,31106091883409"
"2211","-1,80223705785175","2,87597553002038","-25,1373393168711","1,02322125280683","2,09774413091906","2,03801696869494"
"2223","0,343246631529112","10,626521214348","-23,5219394730517","1,05424850631201","2,01051729668266","1,96975598116015"
"2223","-0,120382446125672","8,38239125280532","-24,0592539757339","-4,1879946803117","0,35916562198551","0,202690734276458"
"2231","1,51371028446063","11,4208924187476","-27,6403091743367","-2,49855547696762","0,728405409630259","0,760924422555534"
"2231","0,922233467107208","10,1092585514554","-26,6660009322178","1,4238043238684","-3,98465950773792","0,900482844625303"
"2239","0,774364262768852","9,81211062112824","-26,3869379526897","0,4043942740774","-2,78489011498786","0,935372450142745"
"2239","0,737396961684263","9,74479237424582","-26,3070082721465","7,14954176162965","-0,708584996869257","-0,805905148477894"
"2251","2,47815513641312","0,862281187589383","-19,4298013021311","4,83582863351771","-0,915507012763317","-0,241224548133054"
"2252","1,91334468009533","3,849966713984","-21,4600202975993","-7,99259964851027","3,85955777643548","-1,85005439804684"
"2260","-3,47785793398412","8,07372482003853","-32,3229890509069","-4,19970671901727","2,68347022742657","-1,25226186052529"
"2263","-1,82565858750398","7,03060845251735","-29,4343785432375","-3,25148348664402","2,23424475745073","-1,1028137261449"
"2272","0,337391249116056","12,1146488309797","-26,8934395953206","-3,0144276785507","2,0626558965321","-1,06545169254981"
"2272","-0,121846291728936","10,266427626749","-27,1656596557167","5,79483627347263","1,99711478375206","2,44388881584897"
"2280","1,51334432305982","-0,792995504123643","-22,1028943420826","2,99715226147846","1,97208030633058","1,32122394294866"
"2280","0,922141976757004","2,70151513950906","-23,6528087203063","5,79773125847992","-1,27354999065363","1,04055772472358"
"2288","0,774341390181301","3,49318927293587","-24,0967377621669","4,49787600773028","-0,513270449185179","0,970391170167316"
"2289","0,737391243537376","3,67254140473695","-24,2238886531943","-2,82708780495713","-0,222869505295417","2,70284953152825"
"2301","-1,02184629312361","9,03352948447643","-27,6874641111828","-0,658328758128981","-0,111946215094578","2,13596412186848"
"2301","-0,461655677288851","7,24805020716257","-26,6795071272872","-3,61613899642194","1,54845670036807","0,24424276945354"
"2313","-0,321608023330162","6,84355358266537","-26,3908064194389","-2,35559155599518","1,18267417905538","0,771312431349804"
"2313","-0,28659610984049","6,7519157119219","-26,3081162847965","-2,04045469588849","1,04295768840457","0,90307984682387"
"2321","-2,02784313146807","1,41079911597329","-26,2844320395511","-1,96167048086182","0,989590737764814","0,936021700692387"
"2322","-1,46315488687497","3,20078023669652","-26,2776483588222","1,55802557289485","0,969206376496366","-0,805742835840484"
"2329","2,17801717427331","8,92665297100141","-22,8485486764572","0,437949586334013","0,961420243330775","-0,241183969973702"
"2333","1,08831018956038","7,22383755485797","-23,8663802690763","0,157930589693805","-0,659587783647442","5,14995574649299"
"2338","0,815883443382145","6,83806825653934","-24,1579092787011","0,0879258405337526","-0,278757753916715","3,49774067560967"
"2338","0,747776756837586","6,75067302267289","-24,2414095002202","0,0704246532437396","-0,13329362649621","3,08468690788884"
"2350","0,730750085201447","4,95742173832107","-27,6924824611911","0,0660493564212363","-0,0777312739654225","2,98142346595863"
"2353","0,726493417292412","5,55116438176029","-26,6809444914037","3,56495553221561","-0,0565083437935655","-2,29439239452392"
"2362","0,725429250315153","5,68567554531326","-26,3912181116485","2,4396820761642","-0,0484019058087818","-0,613346359644562"
"2362","0,725163208570839","5,71614877023706","-26,3082342023606","2,15836371215135","-0,0453055220262876","-0,193084850924721"
"2370","-2,77490330186524","3,94960034058713","-27,9980441583457","2,08803412114814","-0,0441228086635888","-0,0880194737447609"
"2370","-1,64991992947426","4,54939246033705","-27,4820423231647","-3,17954827660266","-4,89777301860767","1,68824687055023"
"2382","0,381325913623485","10,0056303467194","-25,6206698787183","-1,49644387604036","-3,75170242930325","1,13231345662398"
"2383","-0,110862625602078","8,24172971540862","-26,0875325019582","2,42433222410021","-0,07787444019579","0,993330103142414"
"2387","-0,233909760408469","7,84212168837675","-26,2212520673274","1,40452624913535","-0,674597017177419","0,958584264772023"
"2391","-0,264671544110067","7,75159131924272","-26,259552246593","-2,35042524460586","2,33354321776981","0,949897805179425"
"2403","-0,272361990035466","5,95762977650304","-26,2705222473384","-1,28916311804116","1,48255054459356","0,947726190281276"
"2403","-0,274284601516816","6,55121151237863","-26,2736642931111","-1,02384758639999","2,77553425636726","0,947183286556738"
"2411","-0,274765254387154","6,68568622265703","-26,2745642430625","-0,957518703489696","2,26941008736482","0,947047560625604"
"2411","-0,274885417604738","6,71615118916713","-26,2748220082173","-0,940936482762122","2,07608785733368","0,94701362914282"
"2419","-0,274915458409134","6,72305296409969","-26,2748958377397","-0,936790927580229","2,00224533624271","0,947005146272124"
"2423","-0,274922968610233","6,72461654688596","-26,2749169841137","2,56424546121524","-6,11612994074854","0,94700302555445"
"2432","-0,274924846160508","8,49842284882993","-26,2749230408931","1,43950455841411","-4,21707336313235","0,947002495375032"
"2432","-0,274925315548077","7,90027498498445","-26,2749247756859","2,90831933271383","2,98043765795756","0,947002362830177"
"2440","-0,274925432894969","7,76476582789151","-26,2749252725681","2,27552302628876","1,72964223361195","0,947002329693964"
"2440","-0,274925462231692","7,73406650960257","-26,274925414886","-1,38267605031751","-0,366153094265126","-0,80299767859009"
"2452","-0,274925469565873","7,72711164276093","-24,5613471109982","-0,297225819469076","-0,166675676050938","-0,240497680661103"
"2452","-0,274925471399418","7,72553603211284","-25,070541176628","1,72413673824303","-0,0904820822811954","-0,0998726811788564"
"2460","-0,274925471857804","5,95172700528174","-23,502807039149","1,22947737767106","-0,0613787191861559","-0,0647164313082948"
"2461","-0,274925471972401","6,5498742518097","-24,0537740323447","2,85581253752807","3,18580575382901","5,19407263115935"
"2473","1,47507452799895","4,91193119354167","-29,3523179445306","2,26239632749232","2,42611985477989","3,50876989677626"
"2473","0,912574527991788","5,54085859325655","-27,8699356628","2,11404227498338","2,13594566211714","3,08744421318048"
"2481","-2,72805047201","9,23024494133543","-27,4453492758062","2,07695376185615","2,02510898317804","2,98211279228154"
"2481","-1,63820672201045","8,06606776113825","-27,3237385400047","-4,93231836642566","3,60080712777335","-0,544220062943195"
"2489","0,384254215489438","0,708517535188887","-20,4345932131455","-2,68463639849611","3,20267026299862","0,574196723250621"
"2489","-0,11013055013559","3,04167980216154","-22,4613928046843","3,12728409348627","-0,185472464670803","2,60380091979907"
"2501","-0,233726741541847","7,11715702226292","-28,1826471327062","1,58026421648187","0,520372172095258","2,11120196893619"
"2501","-0,264625789393412","6,04044792778736","-26,8213382680128","-0,556490752769231","0,78998083256307","0,238052231220466"
"2510","-2,0223505513563","5,79652171715331","-21,2906948955936","-0,0906794950820064","0,892962177200444","0,769764796791536"
"2510","-1,46178174184703","5,7412607404052","-22,7065988657185","0,0257733193397998","-0,685736438105141","-0,847307061815697"
"2522","0,428360460530294","7,50219355632654","-28,2528794586093","0,0548865229452514","-0,288745651159479","-0,251575026467505"
"2522","-0,0991039888753762","6,90112923094167","-26,841454327057","3,56216482384661","-0,137108663766804","3,39735798236954"
"2530","-3,73097010122679","3,21805520452219","-23,0100349151748","2,43898439907195","-0,079188488534442","2,30959123457881"
"2534","-2,63893662931465","4,38366242809002","-23,912633424886","-4,84181070712171","-0,0570649502300294","0,287649547631121"
"2538","-2,36592826133661","4,64772832536107","-24,1711571841533","-2,66200948367013","-0,048614510549154","0,782164125894199"
"2538","-2,2976761693421","4,70755190631669","-24,2452039872297","-2,11705917780723","-0,0453867298109404","0,905792770459969"
"2550","2,96938685365652","6,49455688992678","-25,9799909397909","-1,98082160134151","-0,0441538272771751","0,936699931601412"
"2551","1,28615260940618","5,89939916001877","-25,4768714904219","3,30323779277493","-1,66171688916399","2,69442672188677"
"2559","0,865344048343596","7,53801948707229","-28,7599238741965","1,62425264130403","-1,2795709998584","2,13385841945811"
"2559","0,760141908077949","6,90924552119508","-27,7002611725558","-2,29549364656369","-1,13360425880472","1,99371634385095"
"2571","0,733841373011538","6,7667980842516","-27,3967508274399","-1,27543021853062","-1,07784992494927","1,95868082494916"
"2571","0,727266239244935","6,73452691306299","-27,3098188919762","2,47958563847765","-1,0565536644366","-1,55007805477629"
"2579","-1,02437754419672","6,72721594620931","-27,2849197031179","1,41833960272971","-1,04841921675403","-0,427267774707654"
"2579","-0,462288490057129","6,72555966184259","-27,2777880362283","-2,34697190620727","3,80878983203069","-1,89656520469049"
"2587","-0,321766226522232","3,178280283039","-22,1350103384404","-1,28829978344152","2,66407859820291","-1,2638895621862"
"2587","-0,286635660638508","4,37465150218122","-23,6620074371463","2,47636824724992","0,608803825434627","2,39427934843987"
"2600","-2,02785301916758","11,7394952208346","-27,5265291631726","1,41753525492278","0,823758718457361","1,30882157609639"
"2600","-1,46315735879984","9,40798527949629","-26,6334118730746","-2,347172993159","0,905864181543947","-2,46254286698948"
"2612","0,428016556292089","0,0125261638110556","-28,0911820850742","-1,28835005517945","0,937225677780974","-1,40538397776095"
"2612","-0,0991899649349274","2,88400440151222","-27,5087190423141","-1,02364432068456","2,56723869215536","2,35890574454618"
"2620","-0,230991595241682","3,53453183648459","-27,341889013427","-0,957467887060839","2,18984826154171","1,29997817512296"
"2620","-0,26394200281837","3,68190747670205","-27,2941052803911","2,55907622134509","-1,19037003342354","-0,714753717232839"
"2628","1,47782039528746","5,48874719762282","-23,8532622951749","1,43821224844657","-0,481498532706049","-0,218436690321791"
"2628","0,913260994813915","4,89808298628538","-24,8677303515521","1,15799625522195","-0,210733713088112","-3,59435743359403"
"2637","2,52212114469553","10,0846254616627","-26,8718743162094","1,08794225691579","-0,107310754951794","-2,43833761941209"
"2637","1,92433618216593","8,25962589474395","-26,4459045481249","-0,679571242660752","4,78629526608891","-0,399332665866603"
"2649","1,77488994153353","9,61962810617046","-26,3238975820214","-0,121449617554886","3,65548643857532","-0,889581427480231"
"2649","1,73752838137543","8,92773378447235","-26,2889521448258","3,51808078872158","-4,86661404250593","2,48785638211636"
"2657","-1,77181200866409","-0,096273815620334","-26,2789430148574","2,4279633902907","-3,12176677073713","1,33221583451551"
"2657","-0,649147106173973","2,85935599198737","-26,2760761832832","2,15543404068298","-0,837260429349082","-2,4566943023847"
"2669","1,38151911944856","7,07585194148266","-27,9888334052888","2,08730170328105","-0,964656654453518","-1,40392183660976"
"2669","0,88918567585419","6,03109034746566","-27,4794041640272","0,320268618930563","-4,24938565990477","-1,14072872016602"
"2678","-0,983897685044402","11,1147580032801","-23,9063359081603","0,878510347842942","-3,50404049615451","-1,07493044105509"
"2678","-0,45216852526905","9,26645235950702","-24,8829317836388","-2,48192921992896","3,25279197804731","-1,05848087127735"
"2686","-0,319236235325212","3,52736632555827","-25,1626499909007","-1,32203911187194","1,83367232690336","-1,05436847883292"
"2686","-0,286003162839253","5,22718829609171","-25,2427673428559","-2,78206658485768","1,29161685426927","0,69665961927819"
"2698","-0,277694894717763","3,83882736001135","-23,5521363427745","-2,14707345310412","1,08457008751093","0,134416643805967"
"2698","-0,27561782768739","4,52429707149792","-24,0679030131463","-3,73832517016573","-5,46665069512956","-1,75614410006209"
"2706","-2,0250985609298","6,45304088744563","-29,3563647906002","-3,13613809943113","-3,96899436629354","-1,2287842860291"
"2706","-1,4624687442404","5,8899937958235","-27,8710947671502","-1,23559133174748","1,45716141410511","-2,84694433252086"
"2714","2,17818870993195","9,30934079684373","-27,4456812683929","-1,76045463982657","0,529768493965689","-2,2514843441438"
"2718","1,08835307347504","8,0839867630395","-27,3238336298709","1,60832953315366","-1,44249806935145","1,39738065295047"
"2726","0,81589416436081","4,2594811988965","-23,8617771382437","0,450525576398716","-1,19583686166365","0,309596902224037"
"2726","0,747779437082253","5,3930474011355","-24,8701691869989","-1,58892541279002","0,516413324716888","-3,46234903545757"
"2735","-1,01924924473739","2,10295032050799","-25,1589945068445","-1,0987881600872","0,170434698670911","-2,40533551987797"
"2739","-0,461006415192296","3,35758565551783","-25,2417203330615","4,2737461530885","-3,19778535459745","-0,391082140983074"
"2747","-2,07144570780602","8,96217691318432","-28,692571490448","2,61687973138243","-2,48433093335699","-0,887518796259349"
"2747","-1,47405553095946","7,23188543022925","-27,6809699913108","0,452663125955908","-0,593781605117117","-1,01162796007842"
"2755","0,425292013252186","10,3867956370192","-25,6776470707234","0,911608974599278","-0,871656019137769","-1,04265525103319"
"2755","-0,0998711006949031","9,10153399632304","-26,1038520036095","4,52634543676012","-2,59582858943959","-2,80041207377188"
"2768","1,51883812081832","3,49000441266848","-29,6530830153061","3,43002955230033","-2,25440390882462","-2,23985127945655"
"2768","0,923515426196631","5,21872403227152","-28,6696596368935","-5,59404941881462","-2,12399128542778","1,40028891912228"
"2776","0,774684752541208","3,83690979861054","-23,2472508509873","-2,85006916159335","-2,07417809585223","0,31032396876699"
"2776","0,737477084127352","4,52386265194248","-24,6941555505473","4,83592590271196","2,79895081572728","-3,46216726882183"
"2784","-2,77182483297611","11,7732986971239","-28,5357370790293","2,75742466878829","1,66032042839087","-2,40529007821904"
"2788","-1,64915031225198","9,41564338689022","-27,6360492195766","3,98779936030737","-3,62869964519787","1,35892921943166"
"2796","5,63151831792906","3,56116524316462","-23,9512024442731","3,29539303318714","-2,6489255461283","0,299984043844334"
"2796","3,45168547547431","5,23484537072547","-24,895782531182","-5,62770854859291","-2,27468514158052","0,0352477499475029"
"2804","-2,34327273513937","5,61401412988627","-28,5934874125858","-2,85848394403793","-2,13173802700679","-0,0309363235267049"
"2808","-0,792012287792792","5,69991402530599","-27,6525901657108","3,08382220710082","-2,07713708783335","1,70251765810474"
"2817","1,34580282404385","3,94592239281835","-23,9559401294459","1,56939874488551","-2,05628138488676","1,13588115351261"
"2817","0,880256602003013","4,54855922890364","-24,8971395068117","1,19079287933168","-3,66634920397032","-6,00577797263543"
"2825","-2,7361299535072","10,0054415798675","-28,5938760797919","1,09614141294322","-3,28134038666783","-3,79119275417244"
"2825","-1,64022659238475","8,24168695067012","-27,6527014884153","-0,677521453653893","1,71982186182301","5,51245355044331"
"2837","3,88374924789586","6,06865992460503","-25,6695503593299","-0,120937170303172","0,630095857493659","2,83836512659725"
"2837","2,26474320796602","6,57636516198707","-26,1015329301293","3,51820890053451","-1,40417642648543","-1,33015697936427"
"2845","0,109991697983554","3,14448057875126","-22,7981054038384","2,42799541824393","-1,18119929659357","-0,372287505854648"
"2845","0,571303820487939","4,36699424932642","-23,8519322234316","0,405442047671284","0,522004377061122","-0,132820137477243"
"2858","-6,31336814888597","13,511212561602","-27,5809277348523","0,899803705028122","0,172570290633529","-0,0729532953828913"
"2858","-4,03453614122944","10,5828162413409","-26,6489928020237","8,02339411936733","-1,57893564230394","3,4420134151407"
"2866","0,03517186068469","6,37248998188062","-28,0956448005357","5,80429172295213","-1,24795137718896","2,32075509277159"
"2866","-0,947401138836777","7,41864930636981","-27,509997260664","-7,00048387615167","-2,73956062640633","-3,20955948782068"
"2874","-1,19304438871714","4,10875037900184","-27,3422551228426","-3,20167777592761","-2,30930466167366","-1,59213813296875"
"2878","-1,25445520118724","5,35889964673154","-27,294210142056","-0,501976250871602","2,70914045924153","-2,93778279425577"
"2886","2,23019209569524","5,64211836863968","-25,5668706744772","-0,827050869607599","1,62601592475506","-2,27419395957752"
"2886","1,10135391991586","5,70628098226497","-26,072123244823","0,841680475708402","1,21229916663013","-2,10829675090796"
"2895","-2,68085562402898","9,26772104022964","-33,0711519009937","0,258863312037402","1,05427342674183","-2,06682244874057"
"2898","-1,6264080100152","8,07455789356075","-31,0758252745315","0,113159021119652","-0,624121023548048","-3,80645387319872"
"2907","0,387203893488251","4,25734510808579","-21,9364287959643","0,0767329483902144","-0,265210657029585","-3,24136172931326"
"2907","-0,109393130635887","5,39256347419581","-24,3187077276792","0,067626430207855","-0,128119095934214","3,8999113066581"
"2915","-0,233542386666921","5,64974483888214","-28,4282006921061","0,0653498006622652","-0,0757547791665652","1,68522956565095"
"2915","-0,26457970067468","5,7080087432696","-27,6052484696237","-5,18521935672413","1,56228059879091","-7,61844086960084"
"2927","1,47766097082338","7,49466038539029","-25,6559587871362","-3,49786164607073","1,18795443839588","-4,94435847841379"
"2927","0,913221138697895","6,89942260670122","-26,0976400095228","-1,32602221840738","-0,573059420746671","-0,775837880617029"
"2935","0,772111180666524","3,21766857234263","-26,2241470763755","-1,78306236149154","-0,245706860279506","-1,73370773116784"
"2936","0,736833691158681","4,3835748373722","-26,2603814398768","-0,147322397262585","-0,120669308485354","-1,97317519380554"
"2948","-1,02198568121828","8,19461263288368","-22,8436030569501","-0,738387406205345","-0,0729092135700629","-2,03304205946497"
"2948","-0,46169052431252","7,05799533561368","-23,8649637365504","2,61384634155897","3,18140149688145","-2,04800877587982"
"2956","-0,32161673508608","3,25359289495862","-31,0118169317128","1,45190477850004","2,42443757832111","-2,05175045498354"
"2956","-0,28659828777947","4,3917134180996","-29,05883045441","1,16141938773531","2,13530308968836","1,44731412524054"
"2964","-0,277843675952817","6,42300433594681","-26,7858744900554","1,08879804004413","2,02486354235048","0,322080270296553"
"2968","-0,275655022996154","5,88318907742258","-27,1348506802088","1,07064270312133","-1,25338858853023","-5,20922819343944"
"2976","-0,275107859756988","9,30779920201326","-27,23480501827","1,06610386889064","-0,505569478834897","-3,59205530937344"
"2976","-0,274971068947197","8,08363751793025","-27,2634341052369","-4,18503083966704","-3,45599597386775","5,56223791164306"
"2985","-0,274936871244749","2,48595000263289","-23,8444774064157","-2,49781451680646","-2,58295861366208","2,85081121689718"
"2989","-0,274928321819137","4,21780551409292","-24,8652141691717","1,42398956390869","4,22264793948758","2,17295454321072"
"2997","-0,274926184462734","6,38360586124151","-28,5847319717375","0,404440584087473","2,82215832873173","2,0034903747891"
"2997","-0,274925650123633","5,87426343474998","-27,6500824178497","0,14955333913217","-0,948849079185681","-1,53887566731631"
"3005","-2,02492551653886","9,30577711619103","-23,9552218561523","0,0858315278933438","-0,389245737182494","-0,424467177842657"
"3005","-1,46242548314266","8,08317941858408","-24,896933777786","7,06990107508364","-1,7935302695052","-3,64586505547424"
"3017","0,428199525206384","7,80620244770371","-28,5938171545438","4,81591846188121","-1,32991923097673","-2,45121452488214"
"3017","-0,0991442227063536","7,74345388981895","-27,6526846109482","-2,7475771914194","0,465198416931408","-2,15255189223412"
"3025","-1,98098015968454","2,40888210773845","-23,9559671806071","-0,638451104744548","0,15087234462755","-2,07788623407211"
"3026","-1,45143914392908","4,20034594245969","-24,8971472548501","-3,61116958307584","-3,20525750894206","-0,309219819531608"
"3038","0,430946110009779","8,15310250703447","-21,7395649203952","-2,35434920265866","-2,48718504234744","-0,867053215896483"
"3038","-0,0984575765055049","7,04859130275718","-22,8351649612589","1,45985589244564","1,02316221100602","4,2434884350123"
"3046","1,51919150186567","6,79836658185107","-28,2897035725158","0,413407166221711","0,363995549472204","2,52112384773949"
"3046","0,923603771458469","6,74167869067345","-26,8520015507189","1,90179498466573","-4,7418856772326","-3,15946729907871"
"3054","-0,975293161143333","8,50228824209235","-24,7266342130861","1,27389193927673","-3,69215876331383","-1,57961508578326"
"3058","-0,450017394293783","7,90115068180539","-25,1178829820159","-5,88308382207051","-1,6731647723525","-2,9346520324594"
"3067","-0,318698452581395","2,44460798866187","-28,6571017913675","-3,67232776240733","-1,90197769088707","-2,27341126912843"
"3067","-0,285868717153299","4,2084395666335","-27,6708107013854","3,88036125250847","-6,8434784149519","1,39189892170431"
"3075","3,22233871670373","9,92838817630162","-22,2475805407845","1,76853350623742","-5,73096373611245","0,308226469412497"
"3079","2,09939057516798","8,2242306620173","-23,6942499808447","4,74057656966966","1,16611501322063","-5,21269164366046"
"3087","-1,68134646021595","9,61160938965936","-27,5357641259114","3,48358733552772","-0,199435327618751","-3,59292117192869"
"3087","-0,626530719061938","8,92591716088967","-26,6360569663893","-3,83065997300777","2,5150388330294","2,06202144600425"
"3095","-3,86282678377343","1,6767667075864","-22,951204663128","-1,65922180014164","1,55187570081365","0,475757100487481"
"3095","-2,67190079995131","4,03448671806732","-23,8957831667101","0,633637743074891","-0,434053867731853","-1,67080898589171"
"3107","2,87583069600422","6,34207536848171","-27,5934875946148","0,206852628879024","-0,19261146365282","-1,20745050748651"
"3108","1,26276356999311","5,86485478781216","-26,6525902178478","1,85015635033006","1,51764531712978","0,658389112114792"
"3116","-0,890503211509673","7,53019353124603","-26,3830968336804","1,26098228069282","1,17090527789875","0,124849017015117"
"3116","-0,428819906885368","6,90747256714548","-26,3059080924815","-0,636311236716495","4,27453034567276","-3,5085360067598"
"3128","1,43660091927071","6,76639642519144","-26,2837995654529","-0,110634616068822","3,46000963322624","-2,41688226270353"
"3128","0,902956125809727","6,73443591803656","-26,2774672045441","1,7707845390931","-4,94127953813703","1,35603117331054"
"3136","-0,980455072555518","1,40683910494803","-24,5620751345996","1,24113932788358","-3,15028645228136","0,299259532314054"
"3136","-0,451307872146829","3,19988310441779","-25,070749698353","-4,1412719749188","-2,46618796710055","-3,46493337793507"
"3144","1,43097892795534","3,60609350101876","-25,2164451089374","-2,4868748006194","-2,2048855974138","-2,40598160549735"
"3148","0,901550627980886","3,69811962327539","-25,2581754296137","-0,323275507044548","1,13099100396544","-3,89124366238792"
"3157","-4,48080644701273","7,26587210128953","-28,6972845864414","-0,782375683650836","0,405182483416828","-3,26255917661056"
"3157","-2,82639571576113","6,07413902028136","-27,6823199240671","0,852849272197593","0,127948297891534","-1,35538805516622"
"3165","2,83720696705177","11,1245105907586","-27,3916120653488","0,2616555111597","0,0220542618642656","-1,87859527480514"
"3165","1,25310763775499","9,26866178795869","-27,3083470392316","0,113857070900226","3,21767431680754","3,24060292028514"
"3177","-0,892917194569202","7,07477101800624","-27,2844981326184","0,076907460835358","2,43829256266507","1,5204024690577"
"3177","-0,42942340265025","7,57774961751348","-27,277667289308","0,0676700583191409","0,522561234044265","-2,40964764374915"
"3185","1,43645004532949","0,597890073259381","-25,5621324432089","0,0653607076900866","0,790816979824112","-1,39216017195087"
"3185","0,902918407324422","3,0166173802697","-26,0707661127798","3,56478337003282","0,893281557034562","4,1122116959987"
"3198","-0,980464502176844","12,4318354091275","-26,2164498103846","2,43963903561851","0,932419542886066","2,4883046629861"
"3198","-0,451310229552161","9,56483351219579","-26,2581767762101","0,408352952014928","-2,28869905426966","-1,41767209526706"
"3206","-0,31902166139599","5,36841603191612","-26,2701282828345","0,900531431114034","-1,51905687658877","-0,394166284830345"
"3206","-0,285949519356947","6,41772636146087","-26,2735514531458","-2,47642394911119","-1,22507972389015","-0,138289832221167"
"3214","3,22231851615281","3,1085412877483","-22,8473752339515","-1,3206627941675","-1,1127904434752","-0,0743207190688724"
"3218","2,09938552503025","4,35885227754202","-23,8660441697314","-1,03172250543157","-2,68793374367885","3,4416715592192"
"3226","0,0686522772496139","6,41555971275708","-27,5849697018717","-0,959487433247592","-2,28958494720497","2,32066962879122"
"3226","0,560968965304454","5,88150251349033","-26,6501505089083","2,5585713347984","2,71667271992013","0,290419146184224"
"3234","-1,06595186268184","14,6277733409818","-28,095976392858","1,4380860268099","1,62889299232216","0,782856525532475"
"3238","-0,472682069678409","11,6092228439864","-27,5100922358858","-2,34203530018722","-0,404635880097062","-0,844034129630462"
"3247","1,42563537857245","2,05811611637593","-23,9151256365016","-1,2870656319365","-0,181374792256954","-0,250756793421196"
"3247","0,900214740635162","4,89433271064344","-24,8854493521803","-1,02332321487382","-0,0960966450673093","1,64756254063112"
"3255","2,51885958115084","5,53687169348177","-21,7362143877485","-0,957387610608155","-0,0635232913384811","1,1221423741442"
"3255","1,92352079127976","5,68243756644837","-22,8342052961519","0,809096290458263","-0,0510813773416419","0,990787332522469"
"3267","-5,22531390618801","12,8092235148815","-30,0030070482979","0,250717265724867","-0,0463289890799524","0,957948572117037"
"3267","-3,01252258055495","10,4237820797909","-28,0563071130189","7,11112250954152","-1,66254772704162","2,69973888201568"
"3275","1,04067525085331","4,56300904714934","-27,4987300950878","4,82622382049568","-1,27988835168851","2,13518645949034"
"3276","0,0539747087053783","6,23526308069138","-27,3390279626272","2,50499914823422","2,10234250108236","-1,505951646141"
"3288","3,3072995731684","4,84065668570312","-25,5797074688344","2,92469298016886","1,39423972904229","-0,41623617254883"
"3288","2,12063078928415","5,52471150143661","-26,0757999807122","-7,47038356184748","2,7418025264009","-0,143807304150788"
"3296","0,0739635933130876","2,13277854916119","-26,2178916191707","-4,06915269735157","2,256525713017","-0,0757000870512777"
"3296","0,562296794320322","3,36434317881045","-26,2585897414692","5,53115501877241","-4,40096949074299","1,6913267172236"
"3304","-1,06561990542787","10,7371598915699","-22,8430898757263","2,9312319478034","-2,9439063786399","1,13308341829232"
"3308","-0,472599080364917","8,40745621549839","-23,8648167503347","2,28125118006115","-2,38735779357022","2,7435225935595"
"3316","-2,07434387409918","7,87966668300525","-29,298196487027","2,11875598812559","-2,17477515046426","2,14613238737629"
"3317","-1,47478007253274","7,76009705985084","-27,8544341053519","-1,4218678098583","-2,09357580621608","1,99678483583049"
"3325","0,425110877858864","5,95955673438406","-27,4409092940615","-0,307023759354274","-2,06256041657747","1,95944794794404"
"3328","-0,0999163845432336","6,55164806068716","-27,3224668330836","1,72168725327173","1,18535438558994","0,20011372597243"
"3337","3,26882679985624","3,13888097075233","-25,574964002696","1,22886500642823","0,425947447454006","0,760280170479527"
"3337","2,11101259595611","4,3657256697563","-26,0744413492888","-5,89434055528264","0,135879808378567","-2,5996782183937"
"3345","0,0715590449810781","8,19056894100641","-24,5039241330587","-3,67514194571036","0,0250838292881858","-1,43966781561201"
"3345","0,56169565723732","7,05707924561161","-25,0540939922314","-1,37034229331729","-0,017236468907517","4,10033478508342"
"3357","0,68422981030138","12,1206457342148","-26,9252528986697","-1,79414238021902","-0,0334013844042446","2,48533543525727"
"3357","0,714863348567395","10,2677862127303","-26,4611933300734","-3,65009240194445","-0,0395758326987247","2,08158559780074"
"3366","-2,7774782668661","0,980764356219631","-28,041854964906","-3,11407990737581","-0,0419342620854373","1,9806481384366"
"3369","-1,65056367072447","3,8768088299243","-27,4945906869019","-1,23007678373365","-3,27890307945088","1,95541377359557"
"3378","0,381164978310932","8,07980584569375","-25,6242640018318","-1,75907600282311","-2,51531514716093","1,94910518238531"
"3378","-0,110902859430217","7,03198609625832","-26,08856193665","5,10867419240452","-2,22365051042543","0,197528034582747"
"3386","-1,9839198188655","5,02115263127404","-26,2215469197159","2,82561174121143","-2,11224453250885","0,759633747632106"
"3386","-1,45217405872433","5,56560248328475","-26,2596366987022","5,75484612841316","-0,451657246744749","-2,59983982410555"
"3394","2,18076238131097","7,46239854275619","-26,2705464362513","4,48715472521359","-0,817369344868795","-1,43970821703997"
"3398","1,08899649131979","6,89211375321221","-26,2736712213396","0,670231874413699","-0,957058936255144","-1,14967531527357"
"3407","0,816055018821998","1,44256069124531","-24,5609878828065","1,71600116171373","-1,01041561229014","-1,07716708983197"
"3407","0,74781965069755","3,20797575565297","-25,0704382858947","-3,27255651646127","-2,64883003775869","0,690959966528426"
"3415","-1,01923919133356","10,7017351763956","-28,6435126029669","-1,51969593600502","-2,27464866062955","0,132991730618526"
"3419","-0,46100390184134","8,39943081979995","-27,6669184635489","0,668519209109048","-2,13172409252346","-0,0065003283589492"
"3427","3,17855492053172","6,10439647075758","-27,3872007535323","0,215572995387563","-2,07713176533433","-0,041373343103318"
"3427","2,08844462612498","6,58446120234641","-27,3070835439989","1,85233644195719","1,17978862562675","-3,55009159678941"
"3435","-1,68408294747671","4,91976679540023","-22,1434012062703","1,2615273035996","0,423821516321291","-2,42727116021093"
"3435","-0,627214840877126","5,54263373259475","-23,6644107634","-2,3861749809898","0,135067774943611","3,10343394893369"
"3448","-0,362997814227231","0,363386717923343","-25,8136391832059","-1,29810055213715","0,024773660116034","1,48611022621984"
"3448","-0,296943557564757","2,19003905632316","-25,4292247449305","-4,52608194492399","-0,0173549429890166","1,08177929554138"
"3456","3,21957000660086","9,69767165439021","-27,0326984698302","-3,3330772931207","-0,0334466374765916","0,980696562871764"
"3456","2,09869839764227","7,39851023732351","-26,4919680684251","2,21517386983013","-0,0395931178342659","-6,04457412029564"
"3468","-1,68151950459738","6,87763999021719","-29,7642478610583","0,602236660567833","-0,0419408644197139","-3,80089179108749"
"3468","-0,626573980157295","6,75963791680612","-28,7014996560305","0,19900235825226","-3,27890560131817","3,76002879121455"
"3476","1,38716240095273","1,4125485654623","-28,3971055559269","0,0981937826733664","-2,51531611042852","1,65025893679006"
"3476","0,890596496230232","3,20117657084726","-28,3099204938966","-3,42700836122136","-2,22365087836091","-0,627183526816067"
"3484","0,766455020049608","8,92674275968066","-23,1442137701562","-2,30830889719504","-2,1122446730477","-0,196544142717597"
"3488","0,735419651004452","7,2238578962969","-24,6646434992933","6,72136596881154","-0,451657300425812","-3,58888429669298"
"3497","0,727660808743163","10,384977015868","-25,100127499155","3,97878468531319","-0,817369365373136","-2,43696933518683"
"3497","0,725721098177841","9,10112199147581","-25,2248595472736","5,0431393644386","-0,957058944087105","4,85100940518971"
"3505","-2,77476382946349","3,48991107382546","-26,9741638516215","4,30922803421995","-1,01041561528169","2,67300409028385"
"3509","-1,64988506137382","5,21870288655035","-26,4752024861825","-1,12424979833471","-4,26686402765126","0,378502761557382"
"3517","0,381334630648595","7,38380915910924","-28,0458674905888","0,517380743526624","-3,5107166385658","0,804877429375765"
"3517","-0,110860446345801","6,87430949145997","-27,4957399611501","-4,32221162100804","4,86827590730983","0,911471096330361"
"3525","-0,2339092155944","4,98543132371618","-27,3381715235151","-2,53210971214171","3,06876626835231","0,93811951306901"
"3525","-0,26467140790655","5,55750989519741","-27,2930405107768","-3,83458423492513","0,763380760603692","-0,805218382746328"
"3537","-0,272361955984587","7,46056518372124","-25,5665356667501","-3,16020286562098","0,882801853815155","-0,241052856700163"
"3538","-0,274284593004096","6,891698409528","-26,0720272913553","2,25839247670506","-0,689617336301631","-3,60001147518862"
"3546","-0,274765252258974","4,98937074701364","-24,5032326945893","0,613041312286565","-0,29022802236366","-2,43975112981074"
"3546","-0,274885417072693","5,55840236336914","-25,0538959492805","-3,29829647881806","-4,99177684543254","3,10031395653374"
"3558","1,47508454172388","2,14041114400632","-26,9251961748798","-2,27613092659421","-3,78760869607779","1,48533022811985"
"3558","0,912577031423019","3,3660723273311","-26,4611770831516","-2,02058953853825","-4,94569137994423","-7,66841570398362"
"3566","-0,978049846152195","8,96409955106945","-26,3282719667851","-1,95670419152426","-4,38803960339851","-4,95685218700949"
"3566","-0,450706565545998","7,23232099985167","-26,290205063351","-0,190732854770764","0,679066387604879","2,72103869223405"
"3574","-2,06887074539445","6,8399901633952","-26,2793018778554","-0,749240020582389","-0,385471348430045","0,640511412044931"
"3578","-1,47341179035656","6,75110842668215","-26,2761789694171","2,6111331879647","-0,792088581288523","0,120379591997652"
"3587","3,92545294840291","1,41061622717775","-27,9888628454634","1,45122649010148","-0,94740254382903","-0,00965336301416761"
"3587","2,27516913309278","3,20073880361948","-27,4794125963307","2,91124981563567","-2,62476118734197","-0,0421616017671226"
"3595","0,112598179265245","5,37973943340586","-25,6199166680053","2,27625564701922","-2,2654551778405","-0,0502886614553613"
"3599","0,571955440808361","4,87338750354862","-26,087316766099","2,11750710486511","-2,12821249457303","-3,55232042637742"
"3607","-2,81320524380586","10,0790307513043","-29,6483469652068","2,07781996932658","-2,07579045427209","-2,42782836760794"
"3607","-1,65949541495941","8,25835842472415","-28,6683031295842","-1,43210181455805","2,79833494961294","1,35329464708444"
"3615","2,1289320422522","6,07243681245018","-26,6740190072196","-0,309582260529212","1,66008518846771","0,298575400757528"
"3616","1,0760389065551","6,57722080808942","-27,102812847655","-1,778952372022","1,22531246739668","0,0348955891758014"
"3628","0,812815622630825","1,37122234809088","-25,5120503445855","-1,1462948998952","1,05924406532883","-0,0310243637196303"
"3628","0,747009801649757","3,1918142020747","-26,0564215151887","-2,7381305318635","-2,2402563973035","6,95249564805651"
"3636","0,730558346404489","7,15116965895795","-24,4987628623466","-2,13608943985557","-1,50055342813305","4,69837565100055"
"3636","0,726445482593173","6,04815342003709","-25,0526156925304","-1,98557916685359","3,63608993076053","-6,36515434826344"
"3648","-2,77458273335966","11,1186236069566","-21,7840944476702","-1,9479515986031","2,59811310577146","-3,13103684807944"
"3648","-1,64983978734786","9,26732810399683","-22,8479191821729","1,56145529345953","3,81967522691023","2,92749252696656"
"3656","0,381345949155084","5,30101679916379","-30,0069350022333","0,438807016475183","3,28627043781582","1,44212487072806"
"3657","-0,110857616719179","6,40245720516855","-28,0574321640872","0,158144947229097","-1,77157402810596","2,82078295666843"
"3665","1,51609149181226","3,10508209208155","-24,0718956447758","0,0879794299175757","-0,703498704277518","2,16544747815353"
"3669","0,922828768945114","4,35806860394331","-24,9303516774594","0,0704380505896954","-0,295530233120105","2,0016136085248"
"3677","-0,975486911771671","4,64193009762085","-26,8898104200359","0,0660527057577252","-0,139700143476304","1,96065514111762"
"3677","-0,450065831950867","4,70623832985642","-26,4510418366734","-1,68504363045027","-0,0801783457023152","-3,29958447573418"
"3685","-0,318710561995667","6,49425930190604","-28,0389473573621","-1,12281771450227","-0,0574430420241493","-1,61464437994712"
"3685","-0,285871744506866","5,89933174207032","-27,4937578851361","0,767738764484735","-0,0487589287636404","2,30659064399964"
"3697","-0,277662040134666","7,53800421367599","-22,1968687800701","0,240377884231485","-0,0454418926602796","1,28689939998633"
"3698","-0,275609614041616","6,90924206103884","-23,6797250343952","-5,14146233583183","-1,6622088863606","-4,218023411017"
"3706","1,47490349248165","3,21989314934245","-27,5316038667055","-3,48692239084766","-1,27975892606514","-2,59425411376783"
"3706","0,912531769112462","4,38407881067438","-26,6348653780609","-4,82328740460161","3,72042592602137","1,31168821054446"
"3718","0,771938838270166","4,64782265597135","-28,0915984003785","-4,1573786580401","2,63032658948605","0,288173791622535"
"3718","0,736790605559592","4,70757327672067","-27,5088382840327","-0,490901471399724","-1,02212228345653","1,78229518689205"
"3726","2,47800354738195","8,26801380685641","-29,0555015114881","-1,57428217473963","-0,417233610749343","1,15582553570943"
"3726","1,91330678283754","7,07462421923241","-28,4984993533638","1,65487264942539","3,04988128031478","-0,750791877086222"
"3734","-3,47786740829857","6,80426428504699","-28,3389618732006","0,46216135546665","2,37420132580039","-0,227446230285136"
"3738","-1,82566095608259","6,74301480309175","-28,2932668840421","3,66398353197696","-1,11995342880692","1,65339018141514"
"3746","0,337390656971402","6,72913886007864","-23,1394438156541","2,46443907610454","-0,454601783114861","1,1235992843402"
"3747","-0,121846439765099","6,72599529398866","-24,6632772810288","-1,33544703786356","1,41757391981872","2,74115156007147"
"3755","5,01334428605078","4,95183105010651","-25,0997361846582","-0,285418566355589","1,13268140542762","2,14553962900429"
"3759","3,29714196750474","5,5498978229488","-25,2247474663276","1,7270885515214","-0,594171840679251","0,246636646237491"
"3767","-4,13190861213176","9,23229276006121","-28,6877100938621","1,23021533099065","-0,25377108710899","0,771910900545792"
"3767","-1,98917125704089","8,06653169022031","-27,6795775820534","-0,644002974142035","3,11231840845856","-2,59677053587713"
"3775","-1,45348691826817","6,02897886388644","-23,9636699099083","-0,112557550425207","2,39805018659138","-1,43894089498286"
"3775","-1,31956583357499","6,56737550003967","-24,8993534833272","-1,729696194496","2,12522400292206","2,3505165152407"
"3787","0,463914437598302","6,68934814051314","-30,3080885552611","-1,1339808555137","2,02101367378131","1,2978808677966"
"3788","-0,0902154946083742","6,71698078905709","-28,8572674079104","-0,985052020768123","0,363174881278459","-5,96527804406443"
"3796","3,27125202233996","4,94978883272395","-23,3009857793184","-0,947819812081729","0,729936810410454","-3,78106777202969"
"3796","2,11161890157704","5,54943516283943","-24,7095463976699","2,56148824008987","-3,98407456469029","2,014984795979"
"3808","1,82171062138631","7,45873586986472","-28,5401453509394","1,43881525313277","-2,78466668662514","0,463997937981169"
"3808","1,74923355133863","6,89128398227056","-27,6373118441143","-0,591852993606506","-2,32653364357865","-1,67374877651829"
"3816","-1,76888571617329","6,76272893488759","-27,3787207765846","-0,0995200552913252","-2,1515423925043","-1,20818545514315"
"3816","-0,648415533051273","6,73360505572013","-27,3046546949642","-1,72643682071253","-3,70273567107767","2,40820537520063"
"3824","-0,368297987270768","8,50045917685058","-23,8562838759599","-1,13316601206783","-3,29523878037231","1,31230308278658"
"3828","-0,298268600825642","7,90073631087111","-24,8685957977223","6,01515169009334","1,71451314781693","1,03832750968306"
"3837","-0,28076125421436","5,99141826480468","-26,8721221987341","3,80223111563364","0,628068109179889","0,969833616407185"
"3837","-0,27638441756154","6,55886622427506","-26,4459755470479","1,49900097201871","3,44915100882902","0,952710143088216"
"3845","-0,275290208398335","1,36706415522284","-28,0374962623011","1,92319343611498","2,52670879141388","0,948429274758473"
"3849","-0,275016656107533","3,19087217211081","-27,4933422600867","-4,97075844786095","-4,29776873798046","-0,802640942323962"
"3857","-0,274948268034833","7,15095624402482","-23,9103280807061","-2,69424641885494","-2,90448719874919","-0,240408496594571"
"3857","-0,274931171016658","6,04810507132694","-24,8840752283078","8,37488158839657","-0,754267017910717","1,65014961483778"
"3865","-0,274926896762114","5,79825642712973","-28,5901341875169","5,14216359020944","-0,932955992126367","1,12278914269586"
"3865","-0,274925828198478","5,74165373534995","-27,6516297294358","-9,66601590933734","0,616824881888003","0,990949024660385"
"3878","-0,274925561057569","5,72883051300664","-29,0964000736501","-5,36806078422403","0,208788500646974","0,957988995151516"
"3878","-0,274925494272342","5,72592543859948","-28,5102135872396","2,70642799705429","1,67096646040931","4,4497489877743"
"3886","-3,77492547757604","7,49871937553101","-24,9151603941572","0,725050192373875","1,22946874343754","3,32268898592999"
"3886","-2,64992547340196","6,90034216249313","-25,8854593075256","-1,52029425879623","-0,557202367240088","-0,459076014531082"
"3898","1,13132452764156","6,76478104681667","-27,8769522731269","-1,08163037158876","-0,239650004801417","0,595482735353649"
"3898","0,0766370279024405","6,73406995741848","-27,447358984951","7,77803560021311","-1,73638978430756","-0,890877577175168"
"3906","-0,18703484703234","8,50056449936543","-22,1835791302727","4,99295209316358","-1,30809350776489","-0,262467655307373"
"3906","-0,252952815766035","7,90076017146825","-23,6759185909013","-0,953318783598804","2,09156909011918","-1,85536517484042"
"3914","1,48056769205054","2,4445195193555","-29,2440919635096","0,560113497210601","1,39012465222913","-1,25358955472369"
"3918","0,913947819004686","4,20841952409576","-27,8389373981642","-0,811528432587048","-2,1138712593251","-1,1031456496945"
"3927","0,772292850743222","6,38147948468836","-25,7228923568856","-0,154438915036461","-1,45227860109814","-1,06553467343721"
"3927","0,736879108677856","5,87378170855518","-26,1168112333689","-1,74016653564881","2,03649528513695","2,44386807062712"
"3935","-1,02197432683849","5,75876383110349","-26,2296381300445","-1,1365984408019","1,3690883306157","1,3212187566432"
"3939","-0,461687685717571","5,73270676968745","-26,2619541965583","0,764293582909826","-0,503872430433261","1,04055642814722"
"3947","-0,321616025437342","7,50025567201428","-22,8440535285222","0,239516588837758","-0,219279781559093","0,970390846023224"
"3947","-0,286598110367285","6,90069020727282","-23,8650927613637","1,85832234031974","-4,96467702888721","-4,29715054950777"
"3955","1,47215636840023","4,99140782013017","-27,5846971979121","1,26302377819024","-3,77725748724636","-2,61403589839052"
"3959","0,911844988092108","5,55886385805572","-26,6500724578731","-2,38580086234214","4,7664663625041","3,05674276438879"
"3968","-0,978232856984923","2,14051569466972","-28,0959540373513","-1,29800702247523","3,02987848261567","1,47443743008362"
"3968","-0,45075231825418","3,3660960130669","-27,5100858327846","4,22394143749149","0,748526948199521","4,57886109650732"
"3976","-2,06888218357149","12,5110090680417","-27,342280491816","2,60442855248317","0,877128202339276","3,35496701311325"
"3976","-1,47341464990082","9,58277014029715","-27,2942174082794","2,1995503312311","-2,30981846707499","-0,451006507735268"
"3988","0,425452233516844","7,14593161329382","-27,2804511003316","2,09833077591807","-1,52712377445797","0,597500112052602"
"3988","-0,0998310456287386","7,59387090268143","-27,2765081316211","-3,17697411291018","2,00790697280738","-2,64037323300043"
"3996","1,51884813458487","4,14844646797224","-27,2753787799961","-1,49580033511724","1,3581685669868","-1,44984156926369"
"3997","0,923517929638267","5,36789271329819","-27,2750553092342","0,67449310933099","-3,74411138649018","4,0977913466705"
"4008","0,774685378401617","7,41760780471414","-25,5613843155524","0,217066470443049","-2,69300890860115","2,48469957565404"
"4009","0,737477240592455","6,88196650447236","-26,070551832818","-1,64729018927894","5,7986464560427","-1,41857336710007"
"4017","0,728175206140164","4,98716600412194","-27,9299667806139","-1,11337935420943","4,04217018458627","-0,394391602788598"
"4017","0,725849697527091","5,55790288344299","-27,462543487943","-0,979901645442057","3,3712559493226","3,36165383828927"
"4025","4,22526832037382","7,46065421439263","-23,901506645406","-0,946532218250213","3,11498951498802","2,30066519855874"
"4029","3,10012297608551","6,89171857924182","-24,8815485782066","4,31181013854775","-1,83699751900173","0,285418038626104"
"4037","-0,681163359986573","6,76282739192941","-26,8758321555617","2,62639572774724","-0,728488254137034","0,781606248642945"
"4038","0,373515055995407","6,7336273609586","-26,4470381590238","0,455042125047111","1,31295859694702","-0,844346698852844"
"4045","-1,1128153400091","6,72701215454709","-24,6106439280809","0,912203724372079","1,09272190783468","-0,250834935726792"
"4049","-0,484397939010224","6,72551349326448","-25,0846608525802","2,77649412420332","-3,84550298808618","-1,85245699494528"
"4058","1,42270641123949","4,95172189915243","-25,2204295647589","2,24256672416113","-2,73173705423703","-1,2528625097499"
"4058","0,899482498801924","5,5498730950267","-25,2593166640458","-3,14091512584942","-0,68828233426853","-1,10296388845106"
"4066","-2,73132347930747","5,68538300698385","-32,1247681499979","-1,48678558835205","-0,907752085711961","-1,06548923312634"
"4066","-1,63902497383482","5,7160824962857","-30,0911821293249","0,676746796022288","2,24448590623893","4,19387943070483"
"4078","0,384049652533346","5,72303740186997","-26,0815623656872","0,217629892115874","1,44853367853545","2,50872159666263"
"4078","-0,110181690874613","5,72461302129512","-26,9331204356646","-1,64714933386073","1,14450698097392","2,08743213815208"
"4086","-0,233739526726603","7,49842205011464","-27,1770251076936","-1,11334414035488","1,0283791159928","1,98210977352444"
"4087","-0,2646289856896","6,90027480403716","-27,2468846876036","-2,72989284197842","-3,87007974763872","-1,54422081763247"
"4099","-0,27235135043035","3,21786163588034","-22,1261589501715","-2,1340300173843","-2,74112454105277","-0,425803465421698"
"4099","-0,274281941615537","4,38361857551597","-23,6594722078662","-1,98506431123577","-0,691868035163199","3,35380087263099"
"4107","-0,274764589411834","6,4211704661604","-22,3850679846535","-1,94782288469864","-0,909121701580234","2,29870195714417"
"4107","-0,274885251360908","5,88277361802868","-23,0200510174568","-3,68851252806436","3,86199674827868","-3,21507277172754"
"4115","1,47508458315182","7,53425300504089","-33,483393976735","-3,12368493890579","2,68440183177307","-1,59351645394547"
"4119","0,912577041780006","6,90839223250823","-30,4803219876193","2,26752195838385","0,616566609897125","2,31187262550005"
"4127","0,771950156437052","4,99315269796163","-22,7658637587609","0,615323682706265","0,826723838274696","1,28821989536143"
"4128","0,736793435101313","5,55925915650693","-24,556275862728","0,202274113786868","0,906996756533453","1,03230671282678"
"4136","-2,77199574523262","7,46096147524031","-26,7826670059544","0,0990117215570183","0,937658282932157","0,968328417193114"
"4140","-1,64919304031611","6,89178818854914","-26,4203536426524","-1,67680387650044","0,949369943869509","2,7023338432847"
"4148","3,88150763591302","6,76284316177351","-26,3165792493802","-1,12075777601481","0,953843400282864","2,13583519980759"
"4148","2,26418280497031","6,73363093358405","-26,2868560158764","4,2682537491066","0,955552108585574","-1,50578946106168"
"4156","0,109851597234627","4,953560888409","-26,2783426381339","2,61550663038695","0,95620477708035","-0,416195626279001"
"4156","0,571268795300707","5,55028971422594","-26,2759042223882","0,452319850707039","4,19252205176176","-1,89379716758333"
"4168","-1,06337690518277","9,23238154221667","-27,9887841519646","0,911523155787061","3,42868525231163","-1,26319755290941"
"4169","-0,472038330303643","8,06655180363336","-27,4793900568085","-2,47367601794293","1,51889156802972","0,644452350759066"
"4177","1,42579631341614","7,80243549604739","-27,3334885568487","-1,31997581137543","1,78941529213391","0,121364826676186"
"4177","0,900254974346085","7,74260049473956","-27,2916992077123","-1,03155075973356","-1,34332181752127","-5,25940705434453"
"4189","2,51886963957857","5,95559292387238","-23,8525731438554","-0,959444496823088","-0,539920915591445","-3,60460002459971"
"4189","1,92352330588669","6,55075006764266","-24,8675329636904","4,30858206890453","-0,233049077646573","0,309101732836491"
"4197","-1,72531327753628","4,91212960780086","-28,5853961247019","2,62558871033643","-0,115834465741781","-0,712472827804458"
"4197","-0,637522423392019","5,54090354359516","-27,6502726456412","2,20484037069441","-1,68909645672217","0,782133532035305"
"4205","-0,365574709855954","7,45680304923238","-27,3824330308126","2,0996532857839","-1,29002906406835","0,155785121995246"
"4209","-0,297587781471938","6,89084610576789","-27,3057179649652","-4,92664348544372","3,71650308237329","-0,000801980514769256"
"4218","3,21940895062407","4,98917765936575","-27,283745108815","-2,68321767825063","2,62882819654503","-0,039948756142273"
"4218","2,09865813364807","5,55835861976326","-27,2774516069837","-0,372361226452356","-2,64072860738139","-1,79973545004915"
"4226","-1,68152957059593","3,91385330949216","-23,8484923224699","-0,794647113502787","-1,65352020083301","-1,23968212352587"
"4230","-0,626576496656933","4,54129404463577","-24,866364128074","6,0997814147346","-4,51250812101095","-2,84966879189505"
"4238","1,38716177182782","6,45689151643264","-28,5850613448699","3,82338854679395","-3,60454433309355","-2,25216545898734"
"4238","0,890596338949005","5,8908661478285","-27,6501767574475","-0,24570967019121","-0,0216650491634112","1,39721037423958"
"4246","-0,983545019270699","12,8564425773978","-22,2416705324054","0,737015775562499","-0,653126940289984","0,309554332546315"
"4247","-0,452080358825624","10,4344794604004","-23,6925572264617","0,982697137000926","0,723710068649845","-3,462359677877"
"4259","-2,06921419371436","2,79198044101494","-29,2488576290496","1,04411747736053","0,249615009096117","-2,40533818048283"
"4259","-1,47349765243654","5,06058815024842","-27,840302387977","-2,44052743754957","-6,40360914475458","-0,391082806134288"
"4267","2,17543148288292","0,254180291732712","-30,8640183534793","-1,31168866627709","-4,94491463675379","-0,887518962547153"
"4267","1,08766376671278","2,16529856712859","-29,7300760856247","-4,52947897345897","-4,38774291390029","0,738371998349631"
"4279","-0,934278162329755","2,59825844587641","-24,2645554302432","-3,33392655025444","-4,17492225334059","0,144844738573827"
"4279","-0,439763644590388","2,69634460779462","-25,6991119567829","0,464961555546691","0,760469971734695","1,74646292362988"
"4287","-0,316135015155547","11,5858262017433","-26,1100000118066","-0,585316418003026","-0,354377946098517","1,14686746989389"
"4287","-0,285227857796836","8,59971980665363","-26,2276872486897","4,40211408860954","2,45585601907604","-0,753031393540109"
"4295","4,97249893154284","7,92322360053666","-24,5478170772406","2,64897171526269","1,52926987743333","-0,228006109398608"
"4299","3,28693062887776","7,76996478911481","-25,0666658819622","-4,78931387807403","1,17534546483044","-0,0967497883632326"
"4308","1,11553855321149","2,41488809695032","-25,2152754154866","-2,64888527640821","1,04015836866447","-0,0639357081043888"
"4308","1,57269053429492","4,20170658685015","-25,2578404040793","-0,36377812599175","-0,629512495980419","-0,0557321880396779"
"4316","-1,81302147043422","11,700314909215","-28,6971886278733","-0,792501338387636","-0,267270016249342","-0,0536813080235001"
"4320","-0,659449471616504","9,39910906121797","-27,6822924394552","2,60031785851339","3,10716227633867","-3,55316858801946"
"4328","1,37894352808792","5,33087150150968","-27,3916041931607","1,44852265773865","2,39608071937207","-2,42804040801844"
"4328","0,888541778014031","6,40922072602131","-27,3083447844665","1,16057385754496","0,506437744634122","-2,14675836301819"
"4336","2,51594134049556","3,10661435369299","-27,2844974868048","1,08858665749654","0,784658354886686","-2,07643785176813"
"4340","1,92279123111594","4,35841573463116","-27,277667104333","1,07058985748444","2,50896316038232","1,44114227604439"
"4349","0,0245037037710354","4,6420087393577","-20,4213973562761","1,06609065748141","2,16758898911688","0,320537307997516"
"4349","0,549931821934809","4,70625614597868","-22,457613225516","-2,43503414251935","-4,43494029642477","-1,7096139340142"
"4357","-1,06871114852425","15,3615237156564","-28,1815645793843","-1,31031534251953","-2,95688207178512","-1,21715174451713"
"4357","-0,473371891139011","11,7754524684635","-26,8210282012984","-6,27913564251958","4,07982188767548","-2,84403619714286"
"4369","1,4254629232073","0,322323017281161","-28,1449194643747","-4,52134071751959","2,76760363141846","-2,2507573102993"
"4369","0,900171626793875","3,72764031118869","-27,5241105914475","-5,8318919862696","-0,969687119313388","-0,352437588588405"
"4377","-0,981151197309481","0,952203725338926","-30,7734541757095","-5,1595298034571","-0,397205160252343","-0,877857658160682"
"4377","-0,45148190333532","2,32343432725819","-29,7041365439125","2,00856074224603","-1,79657049858705","-4,50921267555375"
"4390","-0,31906457984178","15,0482483026844","-22,5435474391164","-0,199416621328192","-1,33108049515241","-3,41705142990202"
"4390","-0,285960248968395","10,9310284983516","-24,4925996544442","4,49858903777825","0,464754853486217","-1,39401111848909"
"4398","3,22231583374995","9,99828089700669","-30,1915854502727","2,67309045255486","0,150702918467653","-1,88825104063585"
"4398","2,09938485442954","9,786968863848","-28,8238983957263","-3,03328419375098","1,64877974227313","-0,261811021172544"
"4406","0,0686521095994348","2,64528825928004","-21,5778498269606","-1,45987785532744","1,22099417120834","-0,855201016306716"
"4410","0,560968923391909","5,02735534093732","-23,502424601153","-1,06652627072156","1,05759462295837","4,24645148490974"
"4418","0,684048126840028","5,56700769428518","-29,1943995277727","-0,968188374570089","0,995181549273257","2,52186461021385"
"4419","0,714817927702057","5,68926481488284","-27,8247044084621","6,05639609946778","-5,50079407853168","-4,90928210846012"
"4427","-2,77748962208244","7,49041398731746","-29,1459724097159","3,81254221797725","-3,98203597826223","-2,76706878812861"
"4430","-1,65056650952856","6,89846059403126","-28,5244121777951","3,25157874760461","-1,78388801589863","-0,481515458045733"
"4439","0,381164268609911","6,76435478138685","-23,2056488333171","3,11133788001145","-1,94427020657706","-0,910127125525014"
"4439","-0,110903036855472","6,73397338787007","-24,6822398317803","-0,423722336886835","-3,62356474097595","-1,01728004239483"
"4447","-0,233919863221818","4,95363847071674","-25,1051674698341","0,692512608888593","-3,26499817599439","-1,04406827161229"
"4447","-0,264674069813404","5,55030729033673","-25,2263031040184","4,47157134533245","-3,12803793540073","-1,05076532891665"
"4459","-2,0223626214613","7,45893344853913","-30,4017340068353","3,41633602944341","-3,07572377860132","-1,05243959324274"
"4459","-1,46178475937327","6,89132874330917","-28,8840894931662","-5,59747279952884","5,03442839495274","0,697141840675733"
"4468","0,428359706148732","6,76273907540798","-33,5901382732812","-2,85092500677191","3,13223087131655","0,134537199155353"
"4468","-0,0991041774707668","6,73360735303397","-31,9380525550365","4,83571194141732","-5,68451387314606","-1,75611396122474"
"4479","3,26902985162436","6,72700762179329","-26,3241243948859","2,75737117846463","-4,05221069539878","-1,22877675131977"
"4480","2,11106335889814","6,72551246637852","-27,7161737982433","2,23778598772646","3,04340959355581","-4,59694244884352"
"4488","-1,67842826428341","6,72517374202251","-24,6877302033796","2,10788969004192","1,75369537267311","-3,43898387322446"
"4488","-0,625801170078803","6,72509700472268","-25,8203183758067","0,325415615620781","1,26106837607","-1,3994942293197"
"4496","1,38735560347235","3,17817546902874","-26,1447161549823","0,879797097015497","1,0729016071434","-1,8896218183435"
"4500","0,890644796860138","4,37462775678473","-26,2376307038855","-5,98160753263582","-0,617005691783213","1,48784628440054"
"4508","-2,73353290479292","8,19258569034634","-27,977821787439","-3,69695869004866","-0,26249284213665","0,332213310086555"
"4509","-1,63957733020618","7,05753613598879","-27,4762501982145","-1,37579647940186","-3,36314896052003","0,0433050665080581"
"4517","-1,36608843655949","3,25348886423668","-27,3325892333527","-1,79550592674016","-2,54749421031717","-0,0289219943865661"
"4520","-1,29771621314782","4,39168985015546","-27,2914416219879","5,09956671142526","-0,617907830075084","-1,79697875961022"
"4529","0,469376842705095","8,19645107218695","-27,2796560550271","2,82333487096662","-0,880871417051486","-1,23899295091614"
"4529","-0,0888498933316761","7,05841183022214","-27,276280413429","0,504276910851956","5,4908213855267","2,40050350125739"
"4537","-0,228406577340869","5,0271393264567","-22,1345785226226","0,92451242082329","3,92459147023849","1,31037761430077"
"4541","-0,263295748343167","5,56695875665294","-23,661883755745","-4,22042870168388","-3,14579107820432","-0,712153857438389"
"4549","1,47798195890626","7,46270580367279","-29,2400720827916","-2,50666398231067","-1,84643689824537","-0,217786725373178"
"4549","0,913301385718615","6,89218336253515","-27,8377860172746","11,9217771975326","-4,58619574242509","-1,84419494235687"
"4558","-2,7278687575783","6,76293268761985","-30,8632976104173","7,52888749249346","-3,63269049992361","-1,2507969966028"
"4558","-1,63816129340252","6,73365121547873","-29,7298696492038","4,68066506623367","1,58561806051042","0,647552489835719"
"4570","0,384265572641419","10,2739217097571","-25,9780746470325","4,96860945966872","0,57883456681169","0,122139861445349"
"4570","-0,110127710847595","9,07596264237265","-26,9034793119792","-0,209404441972519","1,81231148028103","-3,50921329565224"
"4578","1,51627396828015","5,25766335101356","-25,4549569033306","1,49609208261717","1,28345773688801","-2,41705158492664"
"4578","0,922874388062088","6,39263557147058","-26,0400687172348","1,92246621376459","-2,1546143955103","1,35598884275476"
"4590","0,774524493007572","1,32940494584319","-26,2076574115378","2,02905974655145","-1,46784109431262","0,299248949675109"
"4590","0,737437019243943","3,18234055638788","-26,2556584427778","-1,44429187025184","0,412516952928814","-3,4649360235948"
"4598","-2,77183484919696","5,37557134868127","-24,5558286329534","-0,312629774452658","0,130749815955662","-2,40598226691228"
"4599","-1,64915281630719","4,87244323260516","-25,0689605650114","1,72028574949714","0,0231243465446658","-0,391243827741651"
"4607","0,381517691915253","8,30536475317297","-26,9295110070547","1,22851463048459","-0,0179849247151728","-0,887559217948993"
"4611","-0,110814681029137","7,0830859985982","-26,4624129445257","-0,644428149268552","3,2023807084161","0,738361934499171"
"4619","-3,73389777426523","6,80618128359981","-29,755782633547","-0,112663844206837","2,43245092407017","0,144842222611212"
"4619","-2,63966854757426","6,74344909513514","-28,6990750315538","0,0202772320585923","-1,09770406209889","1,74646229463922"
"4627","2,88388875909849","4,95578517253072","-24,9692544016693","0,0535125011249495","-0,446103281260554","1,14686731264623"
"4627","1,26477808576667","5,55079362117719","-25,9009530027017","3,56182131839154","-0,197213930076282","-4,25303143285202"
"4639","-0,889999582566282","9,23249570129062","-24,4542333136454","2,43889852270819","-0,102146657361798","-2,60300611922659"
"4640","-0,42869399964952","8,06657766613463","-25,0398614654794","0,408167823787348","-3,30190216790241","1,30950020917977"
"4648","-0,31336760392033","6,02898927963441","-28,6347547394482","0,900485149057138","-2,52410001723915","0,287626791281363"
"4648","-0,284536004988032","6,56737785970575","-27,6644100217826","1,02356448037459","-0,60897204345866","3,53215843680676"
"4660","-0,277328105254958","6,68934867509059","-23,959325592188","1,05433431320395","-0,877458250280229","2,34329134818811"
"4660","-0,275526130321689","6,7169809101645","-24,8981091766544","-2,43797322858871","0,638023132974361","0,296074576033447"
"4668","1,47492436341163","6,72324093566955","-30,3077321588841","-1,31105011403688","0,216885512059908","0,784270382994781"
"4668","0,912536986844957","6,72465913145498","-28,8571653282701","4,22068066460108","1,67405924356175","-0,843680665264885"
"4680","-4,47805985729671","6,72498042076669","-28,4416915754508","2,60361335926057","1,23065008148194","-0,250668427329802"
"4680","-2,82570906833213","6,72505320819342","-28,3226908954141","-8,30065346707456","2,67931684124046","-0,102415367846031"
"4689","1,08737862890902","4,9516176225249","-21,4342931450476","-5,02672017365834","2,23265830509604","-0,0653521029750885"
"4689","0,0656505532193049","5,54984947137316","-23,461306858683","-0,708236850304283","-2,79205204059555","-0,0560862867573528"
"4697","-0,189781465703123","5,68537765509417","-25,7554658266089","-1,62861601946577","-1,7113206090265","-0,0537698327029189"
"4701","-0,253639470433731","5,7160812838262","-25,4125626358368","-1,85871081175614","1,93755004262234","1,69680928081069"
"4709","-0,269603971616382","5,72303712718979","-28,7415044256126","-1,91623450982873","1,33129461100022","1,13445405918909"
"4709","-0,273595096912045","5,72461295906689","-27,6949854436018","-1,93061543434688","4,33579361948459","0,993865253783692"
"4717","1,47540712176404","5,724969960508","-30,8223964337211","-1,93421066547642","3,48341012156027","0,958718052432342"
"4721","0,91265767643306","5,72505083844352","-29,7181546664687","-1,9351094732588","1,53979460805281","-0,800068747905495"
"4730","-0,978029684899685","11,0454253876989","-22,5475625329838","-1,9353341752044","1,79739954295453","-0,239765447989954"
"4730","-0,450701525232871","9,25074519934756","-24,4937496642761","-1,9353903506908","0,277761883667397","-0,0996896230110693"
"4738","1,43113051468383","5,29725997653346","-25,0511798040404","-1,9354043945624","0,697311948404042","-0,064670666766348"
"4738","0,901588524663008","6,40160610479897","-25,2108398674133","-1,9354079055303","5,71166777940091","-3,55591592770517"
"4750","-2,7307969728422","-0,442014873958652","-25,2565699670578","-1,93540878327227","4,62698127515549","-2,42872724293987"
"4750","-1,6388933472185","2,00757699730053","-25,2696680578972","-0,185409002707767","2,59463390892215","3,10306992825145"
"4758","0,384082559187426","11,4297873291292","-25,2734196347574","-0,74790905756664","2,81834629196734","1,48601922104928"
"4758","-0,110173464211093","8,56436952392299","-25,2744941676119","2,61146592871864","-0,332271158913419","-0,66824345575126"
"4770","3,26626252993928","4,36831091633593","-30,4155369710427","1,45130967528996","0,464300060398682","-0,206809124951396"
"4770","2,11037152847687","5,41770254774435","-28,8880429610232","1,16127061193279","2,38659718046585","1,65854945774857"
"4779","-3,42860122188873","2,10853589280025","-23,3098005641852","1,0887608460935","2,12084934385548","1,12488910342356"
"4779","-1,81334440948013","3,35885105532773","-24,712071142943","-0,679366595366324","0,40130871395717","0,99147401484231"
"4787","0,340469793622017","7,18901151137594","-26,8272901480092","-0,12139845573128","0,74450263837242","0,958120242696997"
"4791","-0,121076655602445","6,05672641316128","-26,4331346768666","0,0180935791774815","0,875591052766584","-0,800218200339331"
"4799","-1,98646326790856","5,80020957422863","-24,6066616697063","0,0529665879046718","0,925662371533823","-0,239802811098414"
"4799","-1,45280992098509","5,74209621677144","-25,0835202475446","-3,43831515991353","0,944787913441378","-1,84969896378818"
"4808","2,18060341574578","5,7289307562543","-25,2201028707765","-2,31113559686808","0,952093220396804","-1,25217300196063"
"4811","1,08895674992849","5,72594814849918","-25,2592230918146","-0,279340706106719","2,57291758810542","-1,10279151150374"
"4820","-0,933954916525826","7,49872452041165","-26,9840063149326","-0,771391983416378","2,19201740677605","-1,06544613888951"
"4820","-0,439682833139406","6,90034332805516","-26,4780215808168","2,60559519725621","-1,18954149367056","4,19389020426404"
"4828","-0,316114812292801","6,76478131087233","-31,4738316296419","1,44984199242435","-0,481182058681438","2,50872429005243"
"4828","-0,28522280708115","6,73407001723975","-29,9047398136372","-0,58909630878361","-3,44668080826706","-3,16256718850047"
"4840","-0,277499805778237","4,95366036189988","-22,6010045596994","-0,0988308840856011","-2,57940053701345","-1,5803900581387"
"4840","-0,275569055452509","5,55031224973884","-24,5090566180332","-1,7262645279111","0,987939026332989","-1,18484577554826"
"4848","-2,02508636787108","7,45893457208138","-21,6284073577726","-1,13312293886747","0,350541490119121","-1,08595970490064"
"4849","-1,46246569597572","6,89132899784534","-22,8033270281679","-7,98483754160657","0,107077295630865","-2,81123818723874"
"4861","0,428189471998121","6,76273913307262","-21,4262711204143","-5,69776619229134","0,0140822483799658","-2,24255780782327"
"4861","-0,0991467360084195","6,73360736609778","-22,031852487807","-1,62599835496253","-0,0214386988844751","1,3996122870306"
"4869","1,51901921198995","4,9535555492439","-30,7731958287576","-2,60805639563033","-0,035006493426899","0,31015481074407"
"4869","0,923560698989537","5,55028850464917","-28,2769058584496","4,14642909420272","-1,65822291853962","1,78779044167244"
"4877","-0,975303929260566","7,4589291926806","-25,8483360082714","1,83505046666098","-1,27823642183559","1,15719934940453"
"4881","-0,450020086323091","6,89132777915325","-26,1527410116518","-0,492794190224453","5,33904145963893","-0,750448423662448"
"4889","-0,318699125588722","8,53619093248943","-24,526350851966","-0,0747553544458119","3,8666166973593","-0,227360366929193"
"4890","-0,28586888540513","7,90883126594951","-25,0605174901849","-1,72024564550115","-1,54990148220422","-3,59658835274588"
"4897","1,47233867464077","4,21980008456757","-25,213514382936","-1,13161821826499","-0,618827326115774","-2,43889534920005"
"4901","0,911890564652242","5,38405772704279","-25,257336006221","-2,73446136145595","-0,263188644536614","-0,399472098313593"
"4910","-2,72822146284489","5,64781787951837","-26,9834658127531","-2,13517214725369","-0,127346755887576","-0,889616285591979"
"4910","-1,63824946971917","5,70757219462516","-26,4778667692879","-0,23534984370312","-3,31152774901941","0,737847667588424"
"4918","0,384243528562257","7,49456148620095","-31,4737872882675","-0,760394267815478","-2,52777666206438","0,144713655883526"
"4918","-0,110133221867385","6,89940020129514","-29,9047271133074","0,858344626156432","1,00765759193256","-0,00356984704269928"
"4930","-1,9837274094748","8,53801972297129","-22,6010009220499","0,263029349649409","0,358073311968763","-0,0406407227742555"
"4930","-1,45212595637665","7,9092455746375","-24,5090555761316","-1,63579946947735","4,9640561618299","-0,0499084417071445"
"4938","0,430774406897888","4,21989394534093","-28,482720437952","-1,11050667425904","3,72338505887776","-0,0522253714403668"
"4939","-0,0985005022834777","5,38407899100619","-27,6208641054781","4,27081652454554","0,0134228889100654","-0,0528046038736724"
"4951","3,26918077042118","7,42127477233412","-27,3740097880577","2,61614732424669","0,596343436958722","-0,0529494119819987"
"4951","2,11110108859735","6,88279724837585","-27,303305365832","2,20248002417197","0,818999273572593","-0,0529856140090803"
"4959","-1,67841883185861","4,98735420742906","-22,1423190542256","2,09906319915329","0,904046235365548","-0,0529946645158507"
"4959","-0,625798811972603","5,5579455205116","-23,66410081162","0,323208992898625","-0,681502704619352","1,69700307285746"
"4967","3,1373561929989","7,46066387373203","-29,2407070956053","0,879245441334958","-0,287128508867216","1,13450250720078"
"4971","2,07814494424178","6,89172076754511","-27,8379678986959","-0,731745446555959","3,09957700712398","2,74387736578662"
"4979","1,81334213205249","6,76282788768498","-25,7226146712431","-0,134493168528688","2,39318340434587","2,14622108043307"
"4980","1,74714142900517","6,733627473271","-26,1167316981874","0,0148199009781293","3,74139904627002","1,99680700909469"
"4988","-3,51940874675666","4,95356010448226","-21,0888803154942","0,0521481683548337","3,25637159732079","1,95945349126009"
"4991","-1,83604629069711","5,55028953662896","-22,6487947996128","1,81148023519901","-3,40102835770074","-1,54988488819856"
"5000","2,08479432331777","11,0058335774914","-28,2363231223094","1,25131325191005","-1,94392886381695","-0,42721948306322"
"5000","1,06500447682149","9,24177575691822","-26,8367122338075","-0,638728493912185","1,84870159535618","1,60344686822061"
"5008","-0,939942984802576","5,29522796796725","-28,1494117109285","-0,111238930367745","1,2973575239922","1,11111345604157"
"5008","-0,441179850208594","6,40114575747574","-27,5253972681417","0,0206334605183652","-0,531271160522991","4,48803010299681"
"5020","1,4335109334399","6,6516891373466","-25,6330876738261","0,0536015582398927","-0,229745165204785","3,33225926473562"
"5021","0,902183629352026","6,70844922005131","-26,0910892273888","-8,68815641732973","1,50346150526502","3,04331655517033"
"5029","-0,980648196669943","6,721308098982","-27,9358491351635","-5,87359591122213","1,16548754385645","2,971080877779"
"5029","-0,451356153175436","6,72422125131503","-27,4642283216704","0,0800442153047691","-0,581641010839073","-5,79697804156883"
"5041","-0,319033142301809","12,0452374464567","-27,3291459075725","-1,43154575306351","-0,248984736017284","-2,98899277140579"
"5041","-0,285952389583402","10,2507026216492","-27,290455378918","3,44055675484443","-0,121921345606286","1,21300354613497"
"5049","1,4723177985962","4,52379825513531","-23,8522168843531","1,65858238182141","-0,0733874491950826","0,263502625520162"
"5049","0,9118853456411","6,22637995714295","-24,867430923254","1,21308878856565","-0,0548491503724694","0,02612739536646"
"5061","0,771777232402325","3,06519215699126","-23,4446318641592","1,10171539025171","-0,0477681503158333","-0,0332164121719657"
"5061","0,736750204092632","4,34903162194052","-24,0371114024238","-7,67612795932677","1,57297053978136","1,70194763594343"
"5070","0,727993447015208","9,96023901463136","-29,3475454064862","-4,87058879672139","1,1920376325165","1,13573864797228"
"5070","0,725804257745852","8,2314464033342","-27,8685687045531","2,83079599392995","2,66456819812453","-4,25581359902051"
"5078","-2,77474303957149","7,8397920253694","-27,4449577493624","0,75614219159279","2,22702482471369","-2,60370166076871"
"5082","-1,64987986390082","7,75106353892364","-27,3236263983525","-5,0125212589915","3,67793211637293","3,05932632379424"
"5090","0,381335930016845","4,18405813345819","-23,8617177826492","-3,45468712163757","3,23212938726171","1,47508331993498"
"5090","-0,110860121503738","5,3759604622017","-24,8701521862713","2,18477141270091","-0,174220080481108","6,32902256897016"
"5098","-0,233909134383884","9,19288761199251","-28,5861463267693","0,594636046285528","0,52467020040125","4,54250738122896"
"5098","-0,264671387603921","8,05760453571109","-27,6504875197592","0,197102204681684","-0,826411455458545","-2,90412141570634"
"5111","1,47763804909107","4,2535043600518","-27,3824945754131","0,0977187442807223","-0,342478726420498","-0,765778614940166"
"5111","0,913215408264818","5,39169336070022","-27,3057355926716","-1,67712712081952","3,07843510530333","3,26880708525138"
"5119","-2,72789025194175","10,9699039430025","-30,7109068470732","-1,12083858709458","2,3851079164372","2,27745351029926"
"5119","-1,63816666699339","9,23363597279704","-29,6862216345068","2,51823354633666","6,97438246186444","-1,47038488343876"
"5131","0,384264229243704","1,74647976575086","-25,9655729104103","1,42800157969447","5,72732935451292","-0,407344481873272"
"5131","-0,110128046697024","4,0502800667044","-26,8998985438811","-0,594556411966082","-2,83917249046867","-1,8915843814819"
"5139","-0,233726115682206","9,89255746985415","-27,1675096384552","-0,100195909881219","-1,11128503056295","-1,26264435638406"
"5139","-0,264625632928501","8,21611328983857","-27,2441592511529","1,77339421564","-2,06932473836358","-1,10540935010959"
"5147","-0,272350512240075","7,83631834033098","-27,2661133601037","1,2417917470203","-1,4352633441714","-1,06610059854098"
"5148","-0,274281732067968","7,75027658278785","-27,2724014923311","1,10889112986538","-1,19307344254414","-1,05627341064883"
"5159","-0,274764537024942","4,18387985017896","-27,2742025495727","1,07566597557665","-1,10056513185451","-1,05381661367579"
"5160","-0,274885238264185","5,37592007249482","-27,2747184113693","-4,18264031299554","3,78887186483677","-1,05320241443253"
"5167","1,475084586426","3,87252223526134","-28,9884445100096","-2,49721688513858","2,65647061172163","-1,05304886462171"
"5171","0,912577042598551","4,53193057555179","-28,4792927759975","3,17413897182566","0,605897833184731","-1,05301047716901"
"5180","-4,47804984335831","8,2282223174546","-26,6198823488672","1,59197793606672","0,822648728188944","-1,05300088030583"
"5180","-2,82570656484753","7,06560953989603","-27,0873069363547","1,19643767712698","-0,712593785761301","-1,05299848109004"
"5188","1,08737925478017","3,25531787713544","-25,5076091158031","1,09755261239205","-0,29900424511646","-1,05299788128609"
"5192","0,0656507096870924","4,39210420923155","-26,055149451089","-0,677168653791687","-4,99512906423127","-1,0529977313351"
"5201","-1,93978142658618","6,42309286886666","-22,7848201709908","-0,12084897033762","-3,78888912972118","-1,05299769384736"
"5201","-1,44113946065449","5,88320913437182","-23,8481270450477","0,0182309505258963","-3,32814647332577","-1,05299768447542"
"5209","0,433521030828427","3,98744751934658","-22,4391028154087","0,0530009307417755","-3,15215843864964","-1,05299768213244"
"5209","-0,097813846300843","4,55796666013284","-23,0355277631282","1,81169342579575","0,15113098648314","-2,80299768154669"
"5221","3,26935243441684","6,46066866286934","-35,2014051965003","1,25136654955924","-0,58712472779424","-2,24049768140025"
"5221","2,11114400459626","5,89172185251423","-31,6859759497439","-4,13871516949989","-2,48714730700926","-2,09987268136364"
"5229","-1,67840810285888","5,76282813348248","-25,5383458516725","-2,48623559926467","-2,21289135287716","-2,06471643135449"
"5229","-0,625796129722671","5,73362752895591","-26,7775314625074","-2,07311570670587","-0,490100911265837","1,4440726311478"
"5242","1,38735686356138","7,5004642681155","-25,4188827117972","-1,96983573356617","-0,832053518063752","0,321269896773368"
"5242","0,890645111882396","6,90073746428661","-26,0297362875805","-1,94401574028124","3,89143417493076","-3,45943078682024"
"5250","0,766467173962649","6,76487060161753","-26,2046979799324","-1,93756074196001","2,69564592821283","-2,40460595771864"
"5250","0,735422689482713","6,73409024587275","-26,2548107974785","-1,9359469923797","2,23889546131423","-2,14089975044324"
"5258","-1,02233843163727","8,50056909567264","-26,2691641936343","-1,93554355498462","2,06443230733635","-2,07497319862439"
"5262","-0,461778711917268","7,90076121275211","-26,2732753171211","5,06455730436415","-1,23827466519849","-2,05849156066968"
"5270","-0,321638781987267","4,21797183076517","-31,4151878658676","2,81458251920134","-0,49979647382553","-2,054371151181"
"5271","-0,286603799504766","5,38364353993841","-29,8879429697411","-4,74791117708936","-5,07182487092129","1,44665895119117"
"5278","-2,02784505388414","9,19462819730746","-27,736928613818","-2,63853460116204","-3,81818432108217","0,321916476784212"
"5282","-1,46315536747899","8,05799886170159","-28,1208315213143","4,88880954281979","1,51476572553095","-1,70926914181753"
"5291","2,1780170541223","7,80049784480446","-23,0900545936209","2,77064557881525","0,551771383031824","-1,21706554646796"
"5291","1,08831015952263","7,74216152387208","-24,6491311382977","0,491104587814114","1,80197426392091","0,655985352369429"
"5299","-0,934116564127293","5,95549347593344","-23,3821060783896","0,92121934006383","1,27950927158751","0,124248077078777"
"5299","-0,439723245039773","6,5507275379185","-24,0192026633617","1,02874802812626","1,0799454024481","-0,00868624174388652"
"5311","-2,06612491526789","1,36522035272067","-29,3424159557988","1,05563020014187","1,00371878736328","-0,0419198214495523"
"5311","-1,47272533282492","3,19045446248077","-27,8670995187962","2,81235074314577","0,974602811248236","-3,55022821637597"
"5320","3,92562456278582","7,1508616127751","-27,4445369427458","2,25153087889674","0,963481497987919","-2,42730531510757"
"5320","2,27521203668851","6,04808363281372","-27,3235058702248","7,36132591283449","-2,27683444317778","-2,14657458979047"
"5332","3,61260890516418","9,34515572129699","-27,2888399500847","5,63877467131892","-1,51452499841497","-2,0763919084612"
"5332","2,94695812228309","8,09210055984019","-27,2789108798539","1,70813686094003","-4,45941667796043","-2,05884623812888"
"5340","-2,46945457343718","6,03477143823041","-23,848910289821","2,72547740834531","-3,58426520636003","-2,0544598205458"
"5340","-0,823557747367244","6,56868779573475","-24,8664838429746","2,97981254519663","-3,24998708951316","-2,05336321615003"
"5348","-0,412083540849761","6,68964543837918","-25,1579389445085","3,04339632940946","-3,12230421057297","-2,05308906505109"
"5348","-0,30921498922039","6,7170481412716","-25,2414179971499","4,80929227546267","-3,07353369059925","-2,05302052727635"
"5361","-0,283497851313047","6,72325616673732","-26,9789065502451","4,25076626197597","-3,0549050096183","-2,05300339283267"
"5361","-0,277068566836212","6,72466258202177","-26,4765608977731","4,11113475860429","-1,42975549789926","-0,302999109221748"
"5369","-0,275461245717003","3,1780770514675","-28,0462565690852","4,07622688276137","-1,80900362122288","-0,865498038319018"
"5373","-0,2750594154372","4,3746054604905","-27,4958514016571","-2,93250008619935","-0,335829525412999","-2,75612277059334"
"5381","-2,02495895786725","11,7394847901851","-27,3382034424896","-0,684681828439537","-0,773127092159518","-2,22877895366191"
"5381","-1,46243384347476","9,4079829164543","-27,2930496530623","-0,122727263999583","-0,940159899459062","-2,09694299942906"
"5389","0,42819743512336","3,55942977948673","-23,852959940648","0,0177613771104057","-1,00396075461118","-2,06398401087085"
"5393","-0,0991447452271097","5,23445220503122","-24,867643750668","-1,6971164626121","-1,02833051276798","-0,305744263731292"
"5397","-0,230980290314727","5,61392505901426","-25,1582711671901","-1,12583592254272","-1,03763893208626","-0,866184326946403"
"5401","-0,263939176586631","5,6998938464848","-25,2415131529203","-0,983015787525379","2,19487354561548","0,743705657249818"
"5410","-2,02217889815461","7,49282197236623","-25,2653554602677","-0,947310753771043","1,42958344303941","0,146178153298874"
"5410","-1,4617388285466","6,89900611804627","-25,2721844134055","-0,938384495332459","2,75530262385914","-3,50320372268886"
"5422","0,4283711888554","8,53793044422918","-26,9877187181182","-0,936152930722813","2,26168229139461","-2,4155491916858"
"5422","-0,0991013067940997","7,90922534872378","-26,4790848934826","-2,6855950395704","-1,16293187556861","1,35636444106497"
"5430","-0,230969430706475","4,21988936320216","-28,0469794961144","-2,1229555667823","-0,471018088994148","0,299342849252662"
"5430","-0,263936461684568","5,38407795293216","-27,4960584636135","3,26770430141473","-0,206730539807346","0,0350874512995848"
"5442","-0,272178219429092","10,9681786881785","-25,6246844048672","1,61536926846398","-0,105781678821397","-0,0309763981886844"
"5442","-0,274238658865223","9,23324511989745","-26,0886823491833","2,9522855102263","1,55081134369954","-1,79749236056075"
"5446","-0,274753768724255","8,84019952087355","-26,221581408473","2,28651457066688","1,18357357277662","-1,23912135115377"
"5447","-0,274882546189014","8,75115585618435","-26,2596465770291","-4,87992816422298","2,66133521498671","0,650471401197977"
"5459","1,4750852594448","3,41062697223303","-22,8433925763168","-2,67153884794544","2,2257899350401","0,122869589285914"
"5463","0,91257721085325","5,20074123788945","-23,8649034503389","-0,36944151887606","-6,03074350200939","-3,5090308636921"
"5471","-0,978049801294637","5,6062879093757","-31,0117996644364","-0,793917186608713","-4,18445864571231","-2,41700597693661"
"5471","-0,450706554331609","5,69816366608516","-29,0588255086881","-2,65003610354188","-0,243172606021246","-0,393999755247732"
"5479","-2,06887074259085","2,17207377706079","-19,9315596948909","-2,11406583277517","-0,737735298244727","-0,888248199825514"
"5483","-1,47341178965566","3,37324543113351","-22,3173131116896","1,51992673491651","0,691392551643451","2,48818968903004"
"5491","-3,07454705142187","10,739176678357","-28,1413795885365","0,428424876839429","0,237270816031677","1,33229916124393"
"5492","-2,47483086686342","8,40791311435914","-26,8095183496995","1,90554941232016","-4,79029021819161","-0,706673470702598"
"5500","-2,3249018207238","7,87977019249386","-26,4280444489762","1,27483054619034","-3,71064765275033","-0,21641662868923"
"5500","-2,2874195591889","7,76012050971065","-26,3187820628585","-0,632849170342113","1,55584107779679","1,65614758181411"
"5512","1,22195100619483","7,7330141224101","-28,0010652940099","-0,109769099475227","0,567460771497499","1,12428863443995"
"5512","0,0992936475407566","7,72687322662671","-27,4829076418427","-3,47899908175851","0,189933088302203","-0,758676102403594"
"5520","3,31862930787724","7,72548201943247","-27,3344960693771","-2,32130657732933","0,0457303450156026","-0,229417286614479"
"5520","2,12346322296136","7,72516684433008","-27,2919877811185","3,21811654877797","-0,00935020164890305","-1,8471025826672"
"5532","-1,67532829826761","2,40473921553787","-25,5662341421787","1,60297233030479","-0,0303890983558196","-1,25152390668038"
"5533","-0,625026178574852","4,19940737883026","-26,0719409281884","-0,5508137243135","1,57960874693783","-2,85262923768368"
"5541","-2,11245064865166","8,15288987739222","-27,9303646476094","-0,0892602379680736","1,19457320202591","-2,2529055704345"
"5541","-1,48430676617087","7,04854313195305","-27,4626574456664","0,026128133618283","-2,1885652667534","-0,352974653622205"
"5549","-1,32727079555067","6,79835566885538","-27,3286959746671","0,0549752265148722","-1,48080917317982","-0,877991924419132"
"5549","-1,28801180289562","6,74167621835692","-27,2903265083904","-5,18781300026098","-2,82850438992945","-2,75924624211836"
"5561","-1,27819705473185","8,50228768199417","-27,2793366623446","-3,49851005695494","-2,34327815625216","-2,22955982154317"
"5561","-1,27574336769091","7,90115055491631","-27,2761889324481","0,423815678871565","2,69616373902915","3,15286178360063"
"5569","-1,27512994593068","5,99151211093335","-27,2752873544406","-0,595602887171807","1,62105925869643","1,49846718488658"
"5573","-1,27497659049062","6,55888748492073","-27,2750291229752","0,89954247131735","1,21040588866662","-2,41513146479194"
