Timer,AX,AY,AZ,GX,GY,GZ,A
"0","1.34279038718291","-0.227636849132176","-1.09045393858478","-1.01869158878505","0.0186915887850467","0","359.9375"
"0","1.34279038718291","-0.227636849132176","2.90954606141522","-1.01869158878505","0.0186915887850467","0","359.9375"
"3","1.34279038718291","-0.227636849132176","2.90954606141522","-2.01869158878505","2.01869158878505","0","359.9375"
"6","-0.657209612817089","1.77236315086782","2.90954606141522","-2.01869158878505","2.01869158878505","0","359.9375"
"9","-0.657209612817089","1.77236315086782","2.90954606141522","-2.01869158878505","-1.98130841121495","0","359.9375"
"12","-0.657209612817089","-0.227636849132176","-0.0904539385847798","-2.01869158878505","-1.98130841121495","0","359.9375"
"15","-0.657209612817089","-0.227636849132176","-0.0904539385847798","-2.01869158878505","-0.981308411214953","0","359.9375"
"18","-0.657209612817089","-0.227636849132176","-2.09045393858478","-2.01869158878505","-0.981308411214953","0","359.9375"
"21","-0.657209612817089","-0.227636849132176","-2.09045393858478","-0.0186915887850467","-0.981308411214953","0","359.9375"
"24","1.34279038718291","0.772363150867824","-1.09045393858478","-0.0186915887850467","-0.981308411214953","0","359.9375"
"27","1.34279038718291","0.772363150867824","-1.09045393858478","-1.01869158878505","2.01869158878505","0","359.9375"
"30","1.34279038718291","0.772363150867824","-0.0904539385847798","-1.01869158878505","2.01869158878505","0","359.9375"
"33","1.34279038718291","0.772363150867824","-0.0904539385847798","-1.01869158878505","-0.981308411214953","0","359.9375"
"36","-0.657209612817089","0.772363150867824","-0.0904539385847798","-1.01869158878505","-0.981308411214953","0","359.9375"
"39","-0.657209612817089","0.772363150867824","-0.0904539385847798","-1.01869158878505","3.01869158878505","0","359.9375"
"42","0.342790387182911","-1.22763684913218","2.90954606141522","-1.01869158878505","3.01869158878505","0","359.9375"
"45","0.342790387182911","-1.22763684913218","2.90954606141522","-2.01869158878505","1.01869158878505","0","359.9375"
"48","0.342790387182911","-0.227636849132176","-3.09045393858478","-2.01869158878505","1.01869158878505","0","359.9375"
"51","0.342790387182911","-0.227636849132176","-3.09045393858478","-1.01869158878505","-0.981308411214953","0","359.9375"
"54","0.342790387182911","1.77236315086782","-1.09045393858478","-1.01869158878505","-0.981308411214953","0","359.9375"
"57","0.342790387182911","1.77236315086782","-1.09045393858478","0.981308411214953","-2.98130841121495","0","359.9375"
"60","0.342790387182911","-0.227636849132176","-0.0904539385847798","0.981308411214953","-2.98130841121495","0","359.9375"
"63","0.342790387182911","-0.227636849132176","-0.0904539385847798","-1.01869158878505","0.0186915887850467","0","359.9375"
"66","-0.657209612817089","-1.22763684913218","1.90954606141522","-1.01869158878505","0.0186915887850467","0","359.9375"
"69","-0.657209612817089","-1.22763684913218","1.90954606141522","-2.01869158878505","3.01869158878505","0","359.9375"
"72","-0.657209612817089","-0.227636849132176","0.90954606141522","-2.01869158878505","3.01869158878505","0","359.9375"
"75","-0.657209612817089","-0.227636849132176","0.90954606141522","-1.01869158878505","1.01869158878505","0","359.9375"
"78","1.34279038718291","0.772363150867824","0.90954606141522","-1.01869158878505","1.01869158878505","0","359.9375"
"81","1.34279038718291","0.772363150867824","0.90954606141522","-0.0186915887850467","-2.98130841121495","0","359.9375"
"84","1.34279038718291","0.772363150867824","-1.09045393858478","-0.0186915887850467","-2.98130841121495","0","359.9375"
"87","1.34279038718291","0.772363150867824","-1.09045393858478","1.98130841121495","2.01869158878505","0","359.9375"
"90","0.342790387182911","-0.227636849132176","-0.0904539385847798","1.98130841121495","2.01869158878505","0","359.9375"
"93","0.342790387182911","-0.227636849132176","-0.0904539385847798","-0.0186915887850467","1.01869158878505","0","359.9375"
"96","0.342790387182911","0.772363150867824","-1.09045393858478","-0.0186915887850467","1.01869158878505","0","359.9375"
"103.26667","0.342790387182911","0.772363150867824","-1.09045393858478","-0.0186915887850467","-0.981308411214953","0","359.9375"
"106.53333","-0.657209612817089","-0.227636849132176","-0.0904539385847798","-0.0186915887850467","-0.981308411214953","0","359.9375"
"109.8","-0.657209612817089","-0.227636849132176","-0.0904539385847798","-2.01869158878505","2.01869158878505","0","359.9375"
"113.06667","0.342790387182911","-0.227636849132176","-2.09045393858478","-2.01869158878505","2.01869158878505","0","359.9375"
"116.33333","0.342790387182911","-0.227636849132176","-2.09045393858478","-1.01869158878505","-1.98130841121495","0","359.9375"
"119.6","0.342790387182911","-0.227636849132176","-2.09045393858478","-1.01869158878505","-1.98130841121495","0","359.9375"
"122.86667","0.342790387182911","-0.227636849132176","-2.09045393858478","-0.0186915887850467","0.0186915887850467","0","359.9375"
"126.13333","-0.657209612817089","-0.227636849132176","0.90954606141522","-0.0186915887850467","0.0186915887850467","0","359.9375"
"129.4","-0.657209612817089","-0.227636849132176","0.90954606141522","-0.0186915887850467","-0.981308411214953","0","359.9375"
"132.66667","0.342790387182911","-1.22763684913218","0.90954606141522","-0.0186915887850467","-0.981308411214953","0","359.9375"
"135.93333","0.342790387182911","-1.22763684913218","0.90954606141522","0.981308411214953","-0.981308411214953","0","359.9375"
"139.2","-0.657209612817089","-1.22763684913218","-2.09045393858478","0.981308411214953","-0.981308411214953","0","359.9375"
"142.46667","-0.657209612817089","-1.22763684913218","-2.09045393858478","0.981308411214953","0.0186915887850467","0","359.9375"
"145.73333","-0.657209612817089","-0.227636849132176","-2.09045393858478","0.981308411214953","0.0186915887850467","0","359.9375"
"149","-0.657209612817089","-0.227636849132176","-2.09045393858478","-0.0186915887850467","1.01869158878505","0","359.9375"
"152.26667","0.342790387182911","-1.22763684913218","-0.0904539385847798","-0.0186915887850467","1.01869158878505","0","359.9375"
"155.53333","0.342790387182911","-1.22763684913218","-0.0904539385847798","-3.01869158878505","1.01869158878505","0","359.9375"
"158.8","1.34279038718291","0.772363150867824","0.90954606141522","-3.01869158878505","1.01869158878505","0","359.9375"
"162.06667","1.34279038718291","0.772363150867824","0.90954606141522","4.98130841121495","-1.98130841121495","0","359.9375"
"165.33333","-0.657209612817089","0.772363150867824","-0.0904539385847798","4.98130841121495","-1.98130841121495","0","359.9375"
"168.6","-0.657209612817089","0.772363150867824","-0.0904539385847798","-1.01869158878505","-0.981308411214953","0","359.9375"
"171.86667","-0.657209612817089","-0.227636849132176","0.90954606141522","-1.01869158878505","-0.981308411214953","0","359.9375"
"175.13333","-0.657209612817089","-0.227636849132176","0.90954606141522","0.981308411214953","-3.98130841121495","0","359.9375"
"178.4","1.34279038718291","1.77236315086782","-4.09045393858478","0.981308411214953","-3.98130841121495","0","359.9375"
"181.66667","1.34279038718291","1.77236315086782","-4.09045393858478","0.981308411214953","0.0186915887850467","0","359.9375"
"184.93333","1.34279038718291","0.772363150867824","-0.0904539385847798","0.981308411214953","0.0186915887850467","0","359.9375"
"188.2","1.34279038718291","0.772363150867824","-0.0904539385847798","2.98130841121495","-2.98130841121495","0","359.9375"
"191.46667","0.342790387182911","-0.227636849132176","0.90954606141522","2.98130841121495","-2.98130841121495","0","359.9375"
"194.73333","0.342790387182911","-0.227636849132176","0.90954606141522","1.98130841121495","0.0186915887850467","0","359.9375"
"198","0.342790387182911","-0.227636849132176","2.90954606141522","1.98130841121495","0.0186915887850467","0","359.9375"
"203","0.342790387182911","-0.227636849132176","2.90954606141522","0.981308411214953","-0.981308411214953","0","359.9375"
"206","0.342790387182911","-0.227636849132176","-0.0904539385847798","0.981308411214953","-0.981308411214953","0","359.9375"
"209","0.342790387182911","-0.227636849132176","-0.0904539385847798","1.98130841121495","1.01869158878505","0","359.9375"
"212","0.342790387182911","-0.227636849132176","-1.09045393858478","1.98130841121495","1.01869158878505","0","359.9375"
"215","0.342790387182911","-0.227636849132176","-1.09045393858478","-0.0186915887850467","1.01869158878505","0","359.9375"
"218","1.34279038718291","-0.227636849132176","-1.09045393858478","-0.0186915887850467","1.01869158878505","0","359.9375"
"221","1.34279038718291","-0.227636849132176","-1.09045393858478","-0.0186915887850467","0.0186915887850467","0","359.9375"
"224","-1.65720961281709","-0.227636849132176","-0.0904539385847798","-0.0186915887850467","0.0186915887850467","0","359.9375"
"227","-1.65720961281709","-0.227636849132176","-0.0904539385847798","-2.01869158878505","-2.98130841121495","0","359.9375"
"230","0.342790387182911","-0.227636849132176","-0.0904539385847798","-2.01869158878505","-2.98130841121495","0","359.9375"
"233","0.342790387182911","-0.227636849132176","-0.0904539385847798","-0.0186915887850467","-1.98130841121495","0","359.9375"
"236","0.342790387182911","-0.227636849132176","0.90954606141522","-0.0186915887850467","-1.98130841121495","0","359.9375"
"239","0.342790387182911","-0.227636849132176","0.90954606141522","-3.01869158878505","-0.981308411214953","0","359.9375"
"242","-1.65720961281709","0.772363150867824","-0.0904539385847798","-3.01869158878505","-0.981308411214953","0","359.9375"
"245","-1.65720961281709","0.772363150867824","-0.0904539385847798","-3.01869158878505","1.01869158878505","0","359.9375"
"248","1.34279038718291","-0.227636849132176","1.90954606141522","-3.01869158878505","1.01869158878505","0","359.9375"
"251","1.34279038718291","-0.227636849132176","1.90954606141522","-2.01869158878505","3.01869158878505","0","359.9375"
"254","0.342790387182911","0.772363150867824","-1.09045393858478","-2.01869158878505","3.01869158878505","0","359.9375"
"257","0.342790387182911","0.772363150867824","-1.09045393858478","1.98130841121495","2.01869158878505","0","359.9375"
"260","0.342790387182911","-0.227636849132176","-1.09045393858478","1.98130841121495","2.01869158878505","0","359.9375"
"263","0.342790387182911","-0.227636849132176","-1.09045393858478","0.981308411214953","0.0186915887850467","0","359.9375"
"266","-0.657209612817089","-0.227636849132176","-0.0904539385847798","0.981308411214953","0.0186915887850467","0","359.9375"
"269","-0.657209612817089","-0.227636849132176","-0.0904539385847798","-0.0186915887850467","0.0186915887850467","0","359.9375"
"272","1.34279038718291","-0.227636849132176","-1.09045393858478","-0.0186915887850467","0.0186915887850467","0","359.9375"
"275","1.34279038718291","-0.227636849132176","-1.09045393858478","-0.0186915887850467","0.0186915887850467","0","359.9375"
"278","1.34279038718291","0.772363150867824","-1.09045393858478","-0.0186915887850467","0.0186915887850467","0","359.9375"
"281","1.34279038718291","0.772363150867824","-1.09045393858478","-2.01869158878505","-0.981308411214953","0","359.9375"
"284","0.342790387182911","0.772363150867824","-1.09045393858478","-2.01869158878505","-0.981308411214953","0","359.9375"
"287","0.342790387182911","0.772363150867824","-1.09045393858478","0.981308411214953","-2.98130841121495","0","359.9375"
"290","-0.657209612817089","0.772363150867824","0.90954606141522","0.981308411214953","-2.98130841121495","0","359.9375"
"293","-0.657209612817089","0.772363150867824","0.90954606141522","0.981308411214953","0.0186915887850467","0","359.9375"
"296","-0.657209612817089","-0.227636849132176","2.90954606141522","0.981308411214953","0.0186915887850467","0","359.9375"
"302.90625","-0.657209612817089","-0.227636849132176","2.90954606141522","2.98130841121495","-0.981308411214953","0","359.9375"
"305.8125","-0.657209612817089","-1.22763684913218","-1.09045393858478","2.98130841121495","-0.981308411214953","0","359.9375"
"308.71875","-0.657209612817089","-1.22763684913218","-1.09045393858478","-0.0186915887850467","-0.981308411214953","0","359.9375"
"311.625","0.342790387182911","-0.227636849132176","-0.0904539385847798","-0.0186915887850467","-0.981308411214953","0","359.9375"
"314.53125","0.342790387182911","-0.227636849132176","-0.0904539385847798","-2.01869158878505","-1.98130841121495","0","359.9375"
"317.4375","0.342790387182911","-0.227636849132176","-0.0904539385847798","-2.01869158878505","-1.98130841121495","0","359.9375"
"320.34375","0.342790387182911","-0.227636849132176","-0.0904539385847798","0.981308411214953","-0.981308411214953","0","359.9375"
"323.25","0.342790387182911","-0.227636849132176","-1.09045393858478","0.981308411214953","-0.981308411214953","0","359.9375"
"326.15625","0.342790387182911","-0.227636849132176","-1.09045393858478","-0.0186915887850467","2.01869158878505","0","359.9375"
"329.0625","-0.657209612817089","0.772363150867824","-1.09045393858478","-0.0186915887850467","2.01869158878505","0","359.9375"
"331.96875","-0.657209612817089","0.772363150867824","-1.09045393858478","-0.0186915887850467","1.01869158878505","0","359.9375"
"334.875","-0.657209612817089","0.772363150867824","-0.0904539385847798","-0.0186915887850467","1.01869158878505","0","359.9375"
"337.78125","-0.657209612817089","0.772363150867824","-0.0904539385847798","1.98130841121495","-0.981308411214953","0","359.9375"
"340.6875","0.342790387182911","-0.227636849132176","-1.09045393858478","1.98130841121495","-0.981308411214953","0","359.9375"
"343.59375","0.342790387182911","-0.227636849132176","-1.09045393858478","0.981308411214953","1.01869158878505","0","359.9375"
"346.5","0.342790387182911","-0.227636849132176","0.90954606141522","0.981308411214953","1.01869158878505","0","359.9375"
"349.40625","0.342790387182911","-0.227636849132176","0.90954606141522","0.981308411214953","0.0186915887850467","0","359.9375"
"352.3125","1.34279038718291","-0.227636849132176","3.90954606141522","0.981308411214953","0.0186915887850467","0","359.9375"
"355.21875","1.34279038718291","-0.227636849132176","3.90954606141522","-0.0186915887850467","1.01869158878505","0","359.9375"
"358.125","0.342790387182911","-0.227636849132176","-1.09045393858478","-0.0186915887850467","1.01869158878505","0","359.9375"
"361.03125","0.342790387182911","-0.227636849132176","-1.09045393858478","-0.0186915887850467","0.0186915887850467","0","359.9375"
"363.9375","-0.657209612817089","-1.22763684913218","-2.09045393858478","-0.0186915887850467","0.0186915887850467","0","359.9375"
"366.84375","-0.657209612817089","-1.22763684913218","-2.09045393858478","0.981308411214953","0.0186915887850467","0","359.9375"
"369.75","0.342790387182911","-0.227636849132176","-0.0904539385847798","0.981308411214953","0.0186915887850467","0","359.9375"
"372.65625","0.342790387182911","-0.227636849132176","-0.0904539385847798","-2.01869158878505","2.01869158878505","0","359.9375"
"375.5625","0.342790387182911","-0.227636849132176","-1.09045393858478","-2.01869158878505","2.01869158878505","0","359.9375"
"378.46875","0.342790387182911","-0.227636849132176","-1.09045393858478","3.98130841121495","1.01869158878505","0","359.9375"
"381.375","-0.657209612817089","-1.22763684913218","1.90954606141522","3.98130841121495","1.01869158878505","0","359.9375"
"384.28125","-0.657209612817089","-1.22763684913218","1.90954606141522","2.98130841121495","-0.981308411214953","0","359.9375"
"387.1875","-0.657209612817089","-0.227636849132176","-2.09045393858478","2.98130841121495","-0.981308411214953","0","359.9375"
"390.09375","-0.657209612817089","-0.227636849132176","-2.09045393858478","1.98130841121495","-1.98130841121495","0","359.9375"
"393","1.34279038718291","-0.227636849132176","-1.09045393858478","1.98130841121495","-1.98130841121495","0","359.9375"
"402.96875","1.34279038718291","-0.227636849132176","-1.09045393858478","-1.01869158878505","0.0186915887850467","0","359.9375"
"405.9375","-1.65720961281709","-0.227636849132176","-1.09045393858478","-1.01869158878505","0.0186915887850467","0","359.9375"
"408.90625","-1.65720961281709","-0.227636849132176","-1.09045393858478","-0.0186915887850467","-0.981308411214953","0","359.9375"
"411.875","1.34279038718291","-0.227636849132176","0.90954606141522","-0.0186915887850467","-0.981308411214953","0","359.9375"
"414.84375","1.34279038718291","-0.227636849132176","0.90954606141522","-0.0186915887850467","-1.98130841121495","0","359.9375"
"417.8125","0.342790387182911","2.77236315086782","0.90954606141522","-0.0186915887850467","-1.98130841121495","0","359.9375"
"420.78125","0.342790387182911","2.77236315086782","0.90954606141522","-1.01869158878505","1.01869158878505","0","359.9375"
"423.75","0.342790387182911","0.772363150867824","-0.0904539385847798","-1.01869158878505","1.01869158878505","0","359.9375"
"426.71875","0.342790387182911","0.772363150867824","-0.0904539385847798","-0.0186915887850467","-0.981308411214953","0","359.9375"
"429.6875","-1.65720961281709","1.77236315086782","0.90954606141522","-0.0186915887850467","-0.981308411214953","0","359.9375"
"432.65625","-1.65720961281709","1.77236315086782","0.90954606141522","2.98130841121495","0.0186915887850467","0","359.9375"
"435.625","-0.657209612817089","-0.227636849132176","-1.09045393858478","2.98130841121495","0.0186915887850467","0","359.9375"
"438.59375","-0.657209612817089","-0.227636849132176","-1.09045393858478","0.981308411214953","-0.981308411214953","0","359.9375"
"441.5625","-0.657209612817089","-1.22763684913218","1.90954606141522","0.981308411214953","-0.981308411214953","0","359.9375"
"444.53125","-0.657209612817089","-1.22763684913218","1.90954606141522","-1.01869158878505","-1.98130841121495","0","359.9375"
"447.5","1.34279038718291","0.772363150867824","0.90954606141522","-1.01869158878505","-1.98130841121495","0","359.9375"
"450.46875","1.34279038718291","0.772363150867824","0.90954606141522","0.981308411214953","0.0186915887850467","0","359.9375"
"453.4375","-0.657209612817089","1.77236315086782","-0.0904539385847798","0.981308411214953","0.0186915887850467","0","359.9375"
"456.40625","-0.657209612817089","1.77236315086782","-0.0904539385847798","1.98130841121495","2.01869158878505","0","359.9375"
"459.375","1.34279038718291","1.77236315086782","-1.09045393858478","1.98130841121495","2.01869158878505","0","359.9375"
"462.34375","1.34279038718291","1.77236315086782","-1.09045393858478","0.981308411214953","-1.98130841121495","0","359.9375"
"465.3125","1.34279038718291","-0.227636849132176","-0.0904539385847798","0.981308411214953","-1.98130841121495","0","359.9375"
"468.28125","1.34279038718291","-0.227636849132176","-0.0904539385847798","-3.01869158878505","0.0186915887850467","0","359.9375"
"471.25","0.342790387182911","0.772363150867824","-0.0904539385847798","-3.01869158878505","0.0186915887850467","0","359.9375"
"474.21875","0.342790387182911","0.772363150867824","-0.0904539385847798","0.981308411214953","0.0186915887850467","0","359.9375"
"477.1875","-0.657209612817089","-0.227636849132176","-0.0904539385847798","0.981308411214953","0.0186915887850467","0","359.9375"
"480.15625","-0.657209612817089","-0.227636849132176","-0.0904539385847798","-0.0186915887850467","0.0186915887850467","0","359.9375"
"483.125","-0.657209612817089","-0.227636849132176","-0.0904539385847798","-0.0186915887850467","0.0186915887850467","0","359.9375"
"486.09375","-0.657209612817089","-0.227636849132176","-0.0904539385847798","0.981308411214953","-1.98130841121495","0","359.9375"
"489.0625","-1.65720961281709","-0.227636849132176","-2.09045393858478","0.981308411214953","-1.98130841121495","0","359.9375"
"492.03125","-1.65720961281709","-0.227636849132176","-2.09045393858478","-1.01869158878505","0.0186915887850467","0","359.9375"
"495","-0.657209612817089","-0.227636849132176","-0.0904539385847798","-1.01869158878505","0.0186915887850467","0","359.9375"
"503.16667","-0.657209612817089","-0.227636849132176","-0.0904539385847798","-3.01869158878505","2.01869158878505","0","359.9375"
"506.33333","1.34279038718291","-2.22763684913218","0.90954606141522","-3.01869158878505","2.01869158878505","0","359.9375"
"509.5","1.34279038718291","-2.22763684913218","0.90954606141522","-1.01869158878505","-0.981308411214953","0","359.9375"
"512.66667","0.342790387182911","-0.227636849132176","-1.09045393858478","-1.01869158878505","-0.981308411214953","0","359.9375"
"515.83333","0.342790387182911","-0.227636849132176","-1.09045393858478","-0.0186915887850467","-1.98130841121495","0","359.9375"
"519","0.342790387182911","-0.227636849132176","2.90954606141522","-0.0186915887850467","-1.98130841121495","0","359.9375"
"522.16667","0.342790387182911","-0.227636849132176","2.90954606141522","-1.01869158878505","1.01869158878505","0","359.9375"
"525.33333","1.34279038718291","0.772363150867824","-1.09045393858478","-1.01869158878505","1.01869158878505","0","359.9375"
"528.5","1.34279038718291","0.772363150867824","-1.09045393858478","-3.01869158878505","1.01869158878505","0","359.9375"
"531.66667","0.342790387182911","-0.227636849132176","-0.0904539385847798","-3.01869158878505","1.01869158878505","0","359.9375"
"534.83333","0.342790387182911","-0.227636849132176","-0.0904539385847798","-0.0186915887850467","1.01869158878505","0","359.9375"
"538","0.342790387182911","-0.227636849132176","-0.0904539385847798","-0.0186915887850467","1.01869158878505","0","359.9375"
"541.16667","0.342790387182911","-0.227636849132176","-0.0904539385847798","-0.0186915887850467","0.0186915887850467","0","359.9375"
"544.33333","0.342790387182911","-0.227636849132176","2.90954606141522","-0.0186915887850467","0.0186915887850467","0","359.9375"
"547.5","0.342790387182911","-0.227636849132176","2.90954606141522","2.98130841121495","1.01869158878505","0","359.9375"
"550.66667","0.342790387182911","2.77236315086782","-1.09045393858478","2.98130841121495","1.01869158878505","0","359.9375"
"553.83333","0.342790387182911","2.77236315086782","-1.09045393858478","-0.0186915887850467","-0.981308411214953","0","359.9375"
"557","-0.657209612817089","-0.227636849132176","-1.09045393858478","-0.0186915887850467","-0.981308411214953","0","359.9375"
"560.16667","-0.657209612817089","-0.227636849132176","-1.09045393858478","-1.01869158878505","-0.981308411214953","0","359.9375"
"563.33333","0.342790387182911","-0.227636849132176","0.90954606141522","-1.01869158878505","-0.981308411214953","0","359.9375"
"566.5","0.342790387182911","-0.227636849132176","0.90954606141522","2.98130841121495","0.0186915887850467","0","359.9375"
"569.66667","0.342790387182911","-0.227636849132176","-1.09045393858478","2.98130841121495","0.0186915887850467","0","359.9375"
"572.83333","0.342790387182911","-0.227636849132176","-1.09045393858478","2.98130841121495","1.01869158878505","0","359.9375"
"576","0.342790387182911","-0.227636849132176","-1.09045393858478","2.98130841121495","1.01869158878505","0","359.9375"
"579.16667","0.342790387182911","-0.227636849132176","-1.09045393858478","-3.01869158878505","2.01869158878505","0","359.9375"
"582.33333","0.342790387182911","-0.227636849132176","0.90954606141522","-3.01869158878505","2.01869158878505","0","359.9375"
"585.5","0.342790387182911","-0.227636849132176","0.90954606141522","-1.01869158878505","1.01869158878505","0","359.9375"
"588.66667","-2.65720961281709","-0.227636849132176","0.90954606141522","-1.01869158878505","1.01869158878505","0","359.9375"
"591.83333","-2.65720961281709","-0.227636849132176","0.90954606141522","0.981308411214953","-2.98130841121495","0","359.9375"
"595","0.342790387182911","-0.227636849132176","0.90954606141522","0.981308411214953","-2.98130841121495","0","359.9375"
"602.96875","0.342790387182911","-0.227636849132176","0.90954606141522","-1.01869158878505","-1.98130841121495","0","359.9375"
"605.9375","-0.657209612817089","-1.22763684913218","0.90954606141522","-1.01869158878505","-1.98130841121495","0","359.9375"
"608.90625","-0.657209612817089","-1.22763684913218","0.90954606141522","-2.01869158878505","-0.981308411214953","0","359.9375"
"611.875","-0.657209612817089","-0.227636849132176","-1.09045393858478","-2.01869158878505","-0.981308411214953","0","359.9375"
"614.84375","-0.657209612817089","-0.227636849132176","-1.09045393858478","0.981308411214953","0.0186915887850467","0","359.9375"
"617.8125","1.34279038718291","1.77236315086782","-0.0904539385847798","0.981308411214953","0.0186915887850467","0","359.9375"
"620.78125","1.34279038718291","1.77236315086782","-0.0904539385847798","-1.01869158878505","-2.98130841121495","0","359.9375"
"623.75","0.342790387182911","1.77236315086782","-1.09045393858478","-1.01869158878505","-2.98130841121495","0","359.9375"
"626.71875","0.342790387182911","1.77236315086782","-1.09045393858478","0.981308411214953","2.01869158878505","0","359.9375"
"629.6875","1.34279038718291","-0.227636849132176","-2.09045393858478","0.981308411214953","2.01869158878505","0","359.9375"
"632.65625","1.34279038718291","-0.227636849132176","-2.09045393858478","1.98130841121495","0.0186915887850467","0","359.9375"
"635.625","0.342790387182911","-0.227636849132176","-2.09045393858478","1.98130841121495","0.0186915887850467","0","359.9375"
"638.59375","0.342790387182911","-0.227636849132176","-2.09045393858478","-4.01869158878505","1.01869158878505","0","359.9375"
"641.5625","0.342790387182911","0.772363150867824","0.90954606141522","-4.01869158878505","1.01869158878505","0","359.9375"
"644.53125","0.342790387182911","0.772363150867824","0.90954606141522","-2.01869158878505","1.01869158878505","0","359.9375"
"647.5","-0.657209612817089","0.772363150867824","2.90954606141522","-2.01869158878505","1.01869158878505","0","359.9375"
"650.46875","-0.657209612817089","0.772363150867824","2.90954606141522","-2.01869158878505","0.0186915887850467","0","359.9375"
"653.4375","-0.657209612817089","-0.227636849132176","-1.09045393858478","-2.01869158878505","0.0186915887850467","0","359.9375"
"656.40625","-0.657209612817089","-0.227636849132176","-1.09045393858478","-4.01869158878505","2.01869158878505","0","359.9375"
"659.375","0.342790387182911","0.772363150867824","0.90954606141522","-4.01869158878505","2.01869158878505","0","359.9375"
"662.34375","0.342790387182911","0.772363150867824","0.90954606141522","-0.0186915887850467","2.01869158878505","0","359.9375"
"665.3125","-2.65720961281709","-0.227636849132176","2.90954606141522","-0.0186915887850467","2.01869158878505","0","359.9375"
"668.28125","-2.65720961281709","-0.227636849132176","2.90954606141522","0.981308411214953","1.01869158878505","0","359.9375"
"671.25","0.342790387182911","-0.227636849132176","-1.09045393858478","0.981308411214953","1.01869158878505","0","359.9375"
"674.21875","0.342790387182911","-0.227636849132176","-1.09045393858478","1.98130841121495","-0.981308411214953","0","359.9375"
"677.1875","0.342790387182911","-0.227636849132176","1.90954606141522","1.98130841121495","-0.981308411214953","0","359.9375"
"680.15625","0.342790387182911","-0.227636849132176","1.90954606141522","0.981308411214953","-0.981308411214953","0","359.9375"
"683.125","0.342790387182911","0.772363150867824","-3.09045393858478","0.981308411214953","-0.981308411214953","0","359.9375"
"686.09375","0.342790387182911","0.772363150867824","-3.09045393858478","0.981308411214953","1.01869158878505","0","359.9375"
"689.0625","-2.65720961281709","-0.227636849132176","-4.09045393858478","0.981308411214953","1.01869158878505","0","359.9375"
"692.03125","-2.65720961281709","-0.227636849132176","-4.09045393858478","0.981308411214953","0.0186915887850467","0","359.9375"
"695","-1.65720961281709","0.772363150867824","-1.09045393858478","0.981308411214953","0.0186915887850467","0","359.9375"
"703.0625","-1.65720961281709","0.772363150867824","-1.09045393858478","-0.0186915887850467","1.01869158878505","0","359.9375"
"706.125","2.34279038718291","-1.22763684913218","1.90954606141522","-0.0186915887850467","1.01869158878505","0","359.9375"
"709.1875","2.34279038718291","-1.22763684913218","1.90954606141522","-1.01869158878505","2.01869158878505","0","359.9375"
"712.25","1.34279038718291","-0.227636849132176","2.90954606141522","-1.01869158878505","2.01869158878505","0","359.9375"
"715.3125","1.34279038718291","-0.227636849132176","2.90954606141522","2.98130841121495","3.01869158878505","0","359.9375"
"718.375","-0.657209612817089","-0.227636849132176","-1.09045393858478","2.98130841121495","3.01869158878505","0","359.9375"
"721.4375","-0.657209612817089","-0.227636849132176","-1.09045393858478","-0.0186915887850467","2.01869158878505","0","359.9375"
"724.5","1.34279038718291","-0.227636849132176","-1.09045393858478","-0.0186915887850467","2.01869158878505","0","359.9375"
"727.5625","1.34279038718291","-0.227636849132176","-1.09045393858478","-0.0186915887850467","1.01869158878505","0","359.9375"
"730.625","-0.657209612817089","-0.227636849132176","0.90954606141522","-0.0186915887850467","1.01869158878505","0","359.9375"
"733.6875","-0.657209612817089","-0.227636849132176","0.90954606141522","-2.01869158878505","2.01869158878505","0","359.9375"
"736.75","0.342790387182911","0.772363150867824","0.90954606141522","-2.01869158878505","2.01869158878505","0","359.9375"
"739.8125","0.342790387182911","0.772363150867824","0.90954606141522","0.981308411214953","0.0186915887850467","0","359.9375"
"742.875","1.34279038718291","-0.227636849132176","-1.09045393858478","0.981308411214953","0.0186915887850467","0","359.9375"
"745.9375","1.34279038718291","-0.227636849132176","-1.09045393858478","1.98130841121495","1.01869158878505","0","359.9375"
"749","0.342790387182911","0.772363150867824","-2.09045393858478","1.98130841121495","1.01869158878505","0","359.9375"
"752.0625","0.342790387182911","0.772363150867824","-2.09045393858478","1.98130841121495","2.01869158878505","0","359.9375"
"755.125","-1.65720961281709","-0.227636849132176","1.90954606141522","1.98130841121495","2.01869158878505","0","359.9375"
"758.1875","-1.65720961281709","-0.227636849132176","1.90954606141522","-0.0186915887850467","-1.98130841121495","0","359.9375"
"761.25","-0.657209612817089","-0.227636849132176","0.90954606141522","-0.0186915887850467","-1.98130841121495","0","359.9375"
"764.3125","-0.657209612817089","-0.227636849132176","0.90954606141522","-0.0186915887850467","1.01869158878505","0","359.9375"
"767.375","0.342790387182911","-0.227636849132176","2.90954606141522","-0.0186915887850467","1.01869158878505","0","359.9375"
"770.4375","0.342790387182911","-0.227636849132176","2.90954606141522","-0.0186915887850467","5.01869158878505","0","359.9375"
"773.5","-0.657209612817089","-0.227636849132176","-1.09045393858478","-0.0186915887850467","5.01869158878505","0","359.9375"
"776.5625","-0.657209612817089","-0.227636849132176","-1.09045393858478","0.981308411214953","0.0186915887850467","0","359.9375"
"779.625","-1.65720961281709","-0.227636849132176","0.90954606141522","0.981308411214953","0.0186915887850467","0","359.9375"
"782.6875","-1.65720961281709","-0.227636849132176","0.90954606141522","0.981308411214953","0.0186915887850467","0","359.9375"
"785.75","0.342790387182911","-0.227636849132176","-1.09045393858478","0.981308411214953","0.0186915887850467","0","359.9375"
"788.8125","0.342790387182911","-0.227636849132176","-1.09045393858478","-0.0186915887850467","-0.981308411214953","0","359.9375"
"791.875","1.34279038718291","0.772363150867824","-1.09045393858478","-0.0186915887850467","-0.981308411214953","0","359.9375"
"794.9375","1.34279038718291","0.772363150867824","-1.09045393858478","0.981308411214953","0.0186915887850467","0","359.9375"
"798","-0.657209612817089","-0.227636849132176","0.90954606141522","0.981308411214953","0.0186915887850467","0","359.9375"
"803.09375","-0.657209612817089","-0.227636849132176","0.90954606141522","-1.01869158878505","-0.981308411214953","0","359.9375"
"806.1875","0.342790387182911","-0.227636849132176","-0.0904539385847798","-1.01869158878505","-0.981308411214953","0","359.9375"
"809.28125","0.342790387182911","-0.227636849132176","-0.0904539385847798","1.98130841121495","-1.98130841121495","0","359.9375"
"812.375","0.342790387182911","0.772363150867824","-0.0904539385847798","1.98130841121495","-1.98130841121495","0","359.9375"
"815.46875","0.342790387182911","0.772363150867824","-0.0904539385847798","-0.0186915887850467","0.0186915887850467","0","359.9375"
"818.5625","1.34279038718291","-0.227636849132176","-3.09045393858478","-0.0186915887850467","0.0186915887850467","0","359.9375"
"821.65625","1.34279038718291","-0.227636849132176","-3.09045393858478","-1.01869158878505","-1.98130841121495","0","359.9375"
"824.75","1.34279038718291","-0.227636849132176","0.90954606141522","-1.01869158878505","-1.98130841121495","0","359.9375"
"827.84375","1.34279038718291","-0.227636849132176","0.90954606141522","-1.01869158878505","-1.98130841121495","0","359.9375"
"830.9375","0.342790387182911","-0.227636849132176","1.90954606141522","-1.01869158878505","-1.98130841121495","0","359.9375"
"834.03125","0.342790387182911","-0.227636849132176","1.90954606141522","1.98130841121495","2.01869158878505","0","359.9375"
"837.125","-0.657209612817089","-0.227636849132176","1.90954606141522","1.98130841121495","2.01869158878505","0","359.9375"
"840.21875","-0.657209612817089","-0.227636849132176","1.90954606141522","-0.0186915887850467","3.01869158878505","0","359.9375"
"843.3125","-0.657209612817089","-1.22763684913218","-2.09045393858478","-0.0186915887850467","3.01869158878505","0","359.9375"
"846.40625","-0.657209612817089","-1.22763684913218","-2.09045393858478","0.981308411214953","-0.981308411214953","0","359.9375"
"849.5","0.342790387182911","-0.227636849132176","-0.0904539385847798","0.981308411214953","-0.981308411214953","0","359.9375"
"852.59375","0.342790387182911","-0.227636849132176","-0.0904539385847798","-2.01869158878505","0.0186915887850467","0","359.9375"
"855.6875","1.34279038718291","-2.22763684913218","1.90954606141522","-2.01869158878505","0.0186915887850467","0","359.9375"
"858.78125","1.34279038718291","-2.22763684913218","1.90954606141522","0.981308411214953","0.0186915887850467","0","359.9375"
"861.875","1.34279038718291","-0.227636849132176","0.90954606141522","0.981308411214953","0.0186915887850467","0","359.9375"
"864.96875","1.34279038718291","-0.227636849132176","0.90954606141522","-0.0186915887850467","-2.98130841121495","0","359.9375"
"868.0625","0.342790387182911","-0.227636849132176","-1.09045393858478","-0.0186915887850467","-2.98130841121495","0","359.9375"
"871.15625","0.342790387182911","-0.227636849132176","-1.09045393858478","0.981308411214953","-0.981308411214953","0","359.9375"
"874.25","0.342790387182911","-0.227636849132176","-0.0904539385847798","0.981308411214953","-0.981308411214953","0","359.9375"
"877.34375","0.342790387182911","-0.227636849132176","-0.0904539385847798","-0.0186915887850467","1.01869158878505","0","359.9375"
"880.4375","-0.657209612817089","-0.227636849132176","-0.0904539385847798","-0.0186915887850467","1.01869158878505","0","359.9375"
"883.53125","-0.657209612817089","-0.227636849132176","-0.0904539385847798","-3.01869158878505","3.01869158878505","0","359.9375"
"886.625","1.34279038718291","0.772363150867824","0.90954606141522","-3.01869158878505","3.01869158878505","0","359.9375"
"889.71875","1.34279038718291","0.772363150867824","0.90954606141522","-1.01869158878505","0.0186915887850467","0","359.9375"
"892.8125","0.342790387182911","-0.227636849132176","0.90954606141522","-1.01869158878505","0.0186915887850467","0","359.9375"
"895.90625","0.342790387182911","-0.227636849132176","0.90954606141522","-1.01869158878505","-0.981308411214953","0","359.9375"
"899","0.342790387182911","-0.227636849132176","-0.0904539385847798","-1.01869158878505","-0.981308411214953","0","359.9375"
"903.26667","0.342790387182911","-0.227636849132176","-0.0904539385847798","-0.0186915887850467","0.0186915887850467","0","359.9375"
"906.53333","0.342790387182911","-0.227636849132176","-1.09045393858478","-0.0186915887850467","0.0186915887850467","0","359.9375"
"909.8","0.342790387182911","-0.227636849132176","-1.09045393858478","-2.01869158878505","0.0186915887850467","0","359.9375"
"913.06667","-0.657209612817089","1.77236315086782","-0.0904539385847798","-2.01869158878505","0.0186915887850467","0","359.9375"
"916.33333","-0.657209612817089","1.77236315086782","-0.0904539385847798","-3.01869158878505","-1.98130841121495","0","359.9375"
"919.6","1.34279038718291","-1.22763684913218","-0.0904539385847798","-3.01869158878505","-1.98130841121495","0","359.9375"
"922.86667","1.34279038718291","-1.22763684913218","-0.0904539385847798","-2.01869158878505","0.0186915887850467","0","359.9375"
"926.13333","-2.65720961281709","-0.227636849132176","1.90954606141522","-2.01869158878505","0.0186915887850467","0","359.9375"
"929.4","-2.65720961281709","-0.227636849132176","1.90954606141522","-2.01869158878505","2.01869158878505","0","359.9375"
"932.66667","0.342790387182911","-0.227636849132176","-2.09045393858478","-2.01869158878505","2.01869158878505","0","359.9375"
"935.93333","0.342790387182911","-0.227636849132176","-2.09045393858478","-1.01869158878505","-0.981308411214953","0","359.9375"
"939.2","1.34279038718291","-0.227636849132176","-0.0904539385847798","-1.01869158878505","-0.981308411214953","0","359.9375"
"942.46667","1.34279038718291","-0.227636849132176","-0.0904539385847798","0.981308411214953","-0.981308411214953","0","359.9375"
"945.73333","0.342790387182911","-0.227636849132176","1.90954606141522","0.981308411214953","-0.981308411214953","0","359.9375"
"949","0.342790387182911","-0.227636849132176","1.90954606141522","2.98130841121495","0.0186915887850467","0","359.9375"
"952.26667","1.34279038718291","0.772363150867824","-0.0904539385847798","2.98130841121495","0.0186915887850467","0","359.9375"
"955.53333","1.34279038718291","0.772363150867824","-0.0904539385847798","-0.0186915887850467","2.01869158878505","0","359.9375"
"958.8","0.342790387182911","-0.227636849132176","-1.09045393858478","-0.0186915887850467","2.01869158878505","0","359.9375"
"962.06667","0.342790387182911","-0.227636849132176","-1.09045393858478","-0.0186915887850467","0.0186915887850467","0","359.9375"
"965.33333","0.342790387182911","0.772363150867824","1.90954606141522","-0.0186915887850467","0.0186915887850467","0","359.9375"
"968.6","0.342790387182911","0.772363150867824","1.90954606141522","0.981308411214953","-1.98130841121495","0","359.9375"
"971.86667","1.34279038718291","0.772363150867824","-0.0904539385847798","0.981308411214953","-1.98130841121495","0","359.9375"
"975.13333","1.34279038718291","0.772363150867824","-0.0904539385847798","0.981308411214953","-0.981308411214953","0","359.9375"
"978.4","1.34279038718291","-2.22763684913218","-0.0904539385847798","0.981308411214953","-0.981308411214953","0","359.9375"
"981.66667","1.34279038718291","-2.22763684913218","-0.0904539385847798","2.98130841121495","0.0186915887850467","0","359.9375"
"984.93333","-0.657209612817089","0.772363150867824","0.90954606141522","2.98130841121495","0.0186915887850467","0","359.9375"
"988.2","-0.657209612817089","0.772363150867824","0.90954606141522","0.981308411214953","0.0186915887850467","0","359.9375"
"991.46667","0.342790387182911","-0.227636849132176","-1.09045393858478","0.981308411214953","0.0186915887850467","0","359.9375"
"994.73333","0.342790387182911","-0.227636849132176","-1.09045393858478","0.981308411214953","0.0186915887850467","0","359.9375"
"998","1.34279038718291","-1.22763684913218","0.90954606141522","0.981308411214953","0.0186915887850467","0","359.9375"
"1003.09375","1.34279038718291","-1.22763684913218","0.90954606141522","-0.0186915887850467","2.01869158878505","0","359.9375"
"1006.1875","1.34279038718291","-0.227636849132176","-2.09045393858478","-0.0186915887850467","2.01869158878505","0","359.9375"
"1009.28125","1.34279038718291","-0.227636849132176","-2.09045393858478","-0.0186915887850467","-2.98130841121495","0","359.9375"
"1012.375","-2.65720961281709","1.77236315086782","-0.0904539385847798","-0.0186915887850467","-2.98130841121495","0","359.9375"
"1015.46875","-2.65720961281709","1.77236315086782","-0.0904539385847798","-0.0186915887850467","0.0186915887850467","0","359.9375"
"1018.5625","-0.657209612817089","-0.227636849132176","0.90954606141522","-0.0186915887850467","0.0186915887850467","0","359.9375"
"1021.65625","-0.657209612817089","-0.227636849132176","0.90954606141522","-1.01869158878505","-1.98130841121495","0","359.9375"
"1024.75","1.34279038718291","-0.227636849132176","0.90954606141522","-1.01869158878505","-1.98130841121495","0","359.9375"
"1027.84375","1.34279038718291","-0.227636849132176","0.90954606141522","-1.01869158878505","-1.98130841121495","0","359.9375"
"1030.9375","-0.657209612817089","-0.227636849132176","1.90954606141522","-1.01869158878505","-1.98130841121495","0","359.9375"
"1034.03125","-0.657209612817089","-0.227636849132176","1.90954606141522","-2.01869158878505","-0.981308411214953","0","359.9375"
"1037.125","0.342790387182911","-1.22763684913218","-0.0904539385847798","-2.01869158878505","-0.981308411214953","0","359.9375"
"1040.21875","0.342790387182911","-1.22763684913218","-0.0904539385847798","1.98130841121495","-0.981308411214953","0","359.9375"
"1043.3125","0.342790387182911","1.77236315086782","0.90954606141522","1.98130841121495","-0.981308411214953","0","359.9375"
"1046.40625","0.342790387182911","1.77236315086782","0.90954606141522","-0.0186915887850467","0.0186915887850467","0","359.9375"
"1049.5","-1.65720961281709","-0.227636849132176","1.90954606141522","-0.0186915887850467","0.0186915887850467","0","359.9375"
"1052.59375","-1.65720961281709","-0.227636849132176","1.90954606141522","-1.01869158878505","0.0186915887850467","0","359.9375"
"1055.6875","1.34279038718291","-1.22763684913218","-1.09045393858478","-1.01869158878505","0.0186915887850467","0","359.9375"
"1058.78125","1.34279038718291","-1.22763684913218","-1.09045393858478","-3.01869158878505","2.01869158878505","0","359.9375"
"1061.875","0.342790387182911","0.772363150867824","-0.0904539385847798","-3.01869158878505","2.01869158878505","0","359.9375"
"1064.96875","0.342790387182911","0.772363150867824","-0.0904539385847798","-0.0186915887850467","0.0186915887850467","0","359.9375"
"1068.0625","1.34279038718291","0.772363150867824","-2.09045393858478","-0.0186915887850467","0.0186915887850467","0","359.9375"
"1071.15625","1.34279038718291","0.772363150867824","-2.09045393858478","0.981308411214953","1.01869158878505","0","359.9375"
"1074.25","0.342790387182911","-2.22763684913218","-0.0904539385847798","0.981308411214953","1.01869158878505","0","359.9375"
"1077.34375","0.342790387182911","-2.22763684913218","-0.0904539385847798","0.981308411214953","0.0186915887850467","0","359.9375"
"1080.4375","0.342790387182911","-0.227636849132176","-0.0904539385847798","0.981308411214953","0.0186915887850467","0","359.9375"
"1083.53125","0.342790387182911","-0.227636849132176","-0.0904539385847798","-0.0186915887850467","1.01869158878505","0","359.9375"
"1086.625","0.342790387182911","-0.227636849132176","0.90954606141522","-0.0186915887850467","1.01869158878505","0","359.9375"
"1089.71875","0.342790387182911","-0.227636849132176","0.90954606141522","-2.01869158878505","-0.981308411214953","0","359.9375"
"1092.8125","1.34279038718291","-1.22763684913218","0.90954606141522","-2.01869158878505","-0.981308411214953","0","359.9375"
"1095.90625","1.34279038718291","-1.22763684913218","0.90954606141522","-1.01869158878505","0.0186915887850467","0","359.9375"
"1099","1.34279038718291","-1.22763684913218","-0.0904539385847798","-1.01869158878505","0.0186915887850467","0","359.9375"
"1103","1.34279038718291","-1.22763684913218","-0.0904539385847798","-2.01869158878505","3.01869158878505","0","359.9375"
"1106","-2.65720961281709","0.772363150867824","0.90954606141522","-2.01869158878505","3.01869158878505","0","359.9375"
"1109","-2.65720961281709","0.772363150867824","0.90954606141522","-0.0186915887850467","1.01869158878505","0","359.9375"
"1112","1.34279038718291","-0.227636849132176","-0.0904539385847798","-0.0186915887850467","1.01869158878505","0","359.9375"
"1115","1.34279038718291","-0.227636849132176","-0.0904539385847798","1.98130841121495","1.01869158878505","0","359.9375"
"1118","0.342790387182911","2.77236315086782","1.90954606141522","1.98130841121495","1.01869158878505","0","359.9375"
"1121","0.342790387182911","2.77236315086782","1.90954606141522","-1.01869158878505","1.01869158878505","0","359.9375"
"1124","1.34279038718291","-0.227636849132176","-1.09045393858478","-1.01869158878505","1.01869158878505","0","359.9375"
"1127","1.34279038718291","-0.227636849132176","-1.09045393858478","0.981308411214953","2.01869158878505","0","359.9375"
"1130","1.34279038718291","-1.22763684913218","-0.0904539385847798","0.981308411214953","2.01869158878505","0","359.9375"
"1133","1.34279038718291","-1.22763684913218","-0.0904539385847798","1.98130841121495","-1.98130841121495","0","359.9375"
"1136","1.34279038718291","-0.227636849132176","-0.0904539385847798","1.98130841121495","-1.98130841121495","0","359.9375"
"1139","1.34279038718291","-0.227636849132176","-0.0904539385847798","1.98130841121495","-1.98130841121495","0","359.9375"
"1142","0.342790387182911","-0.227636849132176","1.90954606141522","1.98130841121495","-1.98130841121495","0","359.9375"
"1145","0.342790387182911","-0.227636849132176","1.90954606141522","0.981308411214953","-0.981308411214953","0","359.9375"
"1148","0.342790387182911","-0.227636849132176","0.90954606141522","0.981308411214953","-0.981308411214953","0","359.9375"
"1151","0.342790387182911","-0.227636849132176","0.90954606141522","0.981308411214953","-0.981308411214953","0","359.9375"
"1154","-0.657209612817089","0.772363150867824","-0.0904539385847798","0.981308411214953","-0.981308411214953","0","359.9375"
"1157","-0.657209612817089","0.772363150867824","-0.0904539385847798","2.98130841121495","0.0186915887850467","0","359.9375"
"1160","1.34279038718291","0.772363150867824","-1.09045393858478","2.98130841121495","0.0186915887850467","0","359.9375"
"1163","1.34279038718291","0.772363150867824","-1.09045393858478","3.98130841121495","2.01869158878505","0","359.9375"
"1166","0.342790387182911","-0.227636849132176","1.90954606141522","3.98130841121495","2.01869158878505","0","359.9375"
"1169","0.342790387182911","-0.227636849132176","1.90954606141522","3.98130841121495","1.01869158878505","0","359.9375"
"1172","1.34279038718291","-2.22763684913218","1.90954606141522","3.98130841121495","1.01869158878505","0","359.9375"
"1175","1.34279038718291","-2.22763684913218","1.90954606141522","0.981308411214953","-0.981308411214953","0","359.9375"
"1178","0.342790387182911","-0.227636849132176","-0.0904539385847798","0.981308411214953","-0.981308411214953","0","359.9375"
"1181","0.342790387182911","-0.227636849132176","-0.0904539385847798","-0.0186915887850467","2.01869158878505","0","359.9375"
"1184","1.34279038718291","-0.227636849132176","-0.0904539385847798","-0.0186915887850467","2.01869158878505","0","359.9375"
"1187","1.34279038718291","-0.227636849132176","-0.0904539385847798","0.981308411214953","1.01869158878505","0","359.9375"
"1190","0.342790387182911","-0.227636849132176","-1.09045393858478","0.981308411214953","1.01869158878505","0","359.9375"
"1193","0.342790387182911","-0.227636849132176","-1.09045393858478","0.981308411214953","0.0186915887850467","0","359.9375"
"1196","-0.657209612817089","-0.227636849132176","-0.0904539385847798","0.981308411214953","0.0186915887850467","0","359.9375"
"1203.3","-0.657209612817089","-0.227636849132176","-0.0904539385847798","-2.01869158878505","-0.981308411214953","0","359.9375"
"1206.6","1.34279038718291","1.77236315086782","0.90954606141522","-2.01869158878505","-0.981308411214953","0","359.9375"
"1209.9","1.34279038718291","1.77236315086782","0.90954606141522","-3.01869158878505","2.01869158878505","0","359.9375"
"1213.2","1.34279038718291","1.77236315086782","0.90954606141522","-3.01869158878505","2.01869158878505","0","359.9375"
"1216.5","1.34279038718291","1.77236315086782","0.90954606141522","-3.01869158878505","2.01869158878505","0","359.9375"
"1219.8","1.34279038718291","0.772363150867824","-1.09045393858478","-3.01869158878505","2.01869158878505","0","359.9375"
"1223.1","1.34279038718291","0.772363150867824","-1.09045393858478","-1.01869158878505","2.01869158878505","0","359.9375"
"1226.4","-1.65720961281709","-0.227636849132176","-4.09045393858478","-1.01869158878505","2.01869158878505","0","359.9375"
"1229.7","-1.65720961281709","-0.227636849132176","-4.09045393858478","-0.0186915887850467","1.01869158878505","0","359.9375"
"1233","-0.657209612817089","-0.227636849132176","-0.0904539385847798","-0.0186915887850467","1.01869158878505","0","359.9375"
"1236.3","-0.657209612817089","-0.227636849132176","-0.0904539385847798","-3.01869158878505","0.0186915887850467","0","359.9375"
"1239.6","-0.657209612817089","0.772363150867824","-0.0904539385847798","-3.01869158878505","0.0186915887850467","0","359.9375"
"1242.9","-0.657209612817089","0.772363150867824","-0.0904539385847798","-0.0186915887850467","-0.981308411214953","0","359.9375"
"1246.2","1.34279038718291","-0.227636849132176","-0.0904539385847798","-0.0186915887850467","-0.981308411214953","0","359.9375"
"1249.5","1.34279038718291","-0.227636849132176","-0.0904539385847798","-0.0186915887850467","-0.981308411214953","0","359.9375"
"1252.8","1.34279038718291","0.772363150867824","-2.09045393858478","-0.0186915887850467","-0.981308411214953","0","359.9375"
"1256.1","1.34279038718291","0.772363150867824","-2.09045393858478","1.98130841121495","2.01869158878505","0","359.9375"
"1259.4","-0.657209612817089","0.772363150867824","-0.0904539385847798","1.98130841121495","2.01869158878505","0","359.9375"
"1262.7","-0.657209612817089","0.772363150867824","-0.0904539385847798","-2.01869158878505","-0.981308411214953","0","359.9375"
"1266","1.34279038718291","-0.227636849132176","1.90954606141522","-2.01869158878505","-0.981308411214953","0","359.9375"
"1269.3","1.34279038718291","-0.227636849132176","1.90954606141522","-1.01869158878505","-0.981308411214953","0","359.9375"
"1272.6","1.34279038718291","-1.22763684913218","-0.0904539385847798","-1.01869158878505","-0.981308411214953","0","359.9375"
"1275.9","1.34279038718291","-1.22763684913218","-0.0904539385847798","-0.0186915887850467","0.0186915887850467","0","359.9375"
"1279.2","1.34279038718291","-1.22763684913218","-0.0904539385847798","-0.0186915887850467","0.0186915887850467","0","359.9375"
"1282.5","1.34279038718291","-1.22763684913218","-0.0904539385847798","-0.0186915887850467","0.0186915887850467","0","359.9375"
"1285.8","0.342790387182911","-0.227636849132176","2.90954606141522","-0.0186915887850467","0.0186915887850467","0","359.9375"
"1289.1","0.342790387182911","-0.227636849132176","2.90954606141522","-0.0186915887850467","1.01869158878505","0","359.9375"
"1292.4","0.342790387182911","-1.22763684913218","-1.09045393858478","-0.0186915887850467","1.01869158878505","0","359.9375"
"1295.7","0.342790387182911","-1.22763684913218","-1.09045393858478","-0.0186915887850467","1.01869158878505","0","359.9375"
"1299","1.34279038718291","-1.22763684913218","-3.09045393858478","-0.0186915887850467","1.01869158878505","0","359.9375"
"1302.85294","1.34279038718291","-1.22763684913218","-3.09045393858478","-1.01869158878505","0.0186915887850467","0","359.9375"
"1305.70588","1.34279038718291","-0.227636849132176","0.90954606141522","-1.01869158878505","0.0186915887850467","0","359.9375"
"1308.55882","1.34279038718291","-0.227636849132176","0.90954606141522","2.98130841121495","-2.98130841121495","0","359.9375"
"1311.41176","1.34279038718291","-0.227636849132176","0.90954606141522","2.98130841121495","-2.98130841121495","0","359.9375"
"1314.26471","1.34279038718291","-0.227636849132176","0.90954606141522","2.98130841121495","-2.98130841121495","0","359.9375"
"1317.11765","1.34279038718291","0.772363150867824","0.90954606141522","2.98130841121495","-2.98130841121495","0","359.9375"
"1319.97059","1.34279038718291","0.772363150867824","0.90954606141522","-0.0186915887850467","-0.981308411214953","0","359.9375"
"1322.82353","-0.657209612817089","-1.22763684913218","-1.09045393858478","-0.0186915887850467","-0.981308411214953","0","359.9375"
"1325.67647","-0.657209612817089","-1.22763684913218","-1.09045393858478","0.981308411214953","1.01869158878505","0","359.9375"
"1328.52941","1.34279038718291","-1.22763684913218","-1.09045393858478","0.981308411214953","1.01869158878505","0","359.9375"
"1331.38235","1.34279038718291","-1.22763684913218","-1.09045393858478","-1.01869158878505","0.0186915887850467","0","359.9375"
"1334.23529","0.342790387182911","-1.22763684913218","0.90954606141522","-1.01869158878505","0.0186915887850467","0","359.9375"
"1337.08824","0.342790387182911","-1.22763684913218","0.90954606141522","-1.01869158878505","0.0186915887850467","0","359.9375"
"1339.94118","0.342790387182911","-1.22763684913218","0.90954606141522","-1.01869158878505","0.0186915887850467","0","359.9375"
"1342.79412","0.342790387182911","-1.22763684913218","0.90954606141522","0.981308411214953","1.01869158878505","0","359.9375"
"1345.64706","-0.657209612817089","0.772363150867824","0.90954606141522","0.981308411214953","1.01869158878505","0","359.9375"
"1348.5","-0.657209612817089","0.772363150867824","0.90954606141522","1.98130841121495","1.01869158878505","0","359.9375"
"1351.35294","1.34279038718291","0.772363150867824","1.90954606141522","1.98130841121495","1.01869158878505","0","359.9375"
"1354.20588","1.34279038718291","0.772363150867824","1.90954606141522","-0.0186915887850467","-1.98130841121495","0","359.9375"
"1357.05882","1.34279038718291","-0.227636849132176","-1.09045393858478","-0.0186915887850467","-1.98130841121495","0","359.9375"
"1359.91176","1.34279038718291","-0.227636849132176","-1.09045393858478","1.98130841121495","-0.981308411214953","0","359.9375"
"1362.76471","1.34279038718291","-0.227636849132176","-1.09045393858478","1.98130841121495","-0.981308411214953","0","359.9375"
"1365.61765","1.34279038718291","-0.227636849132176","-1.09045393858478","-0.0186915887850467","-0.981308411214953","0","359.9375"
"1368.47059","0.342790387182911","0.772363150867824","-0.0904539385847798","-0.0186915887850467","-0.981308411214953","0","359.9375"
"1371.32353","0.342790387182911","0.772363150867824","-0.0904539385847798","0.981308411214953","0.0186915887850467","0","359.9375"
"1374.17647","1.34279038718291","-0.227636849132176","-0.0904539385847798","0.981308411214953","0.0186915887850467","0","359.9375"
"1377.02941","1.34279038718291","-0.227636849132176","-0.0904539385847798","2.98130841121495","3.01869158878505","0","359.9375"
"1379.88235","0.342790387182911","-2.22763684913218","-2.09045393858478","2.98130841121495","3.01869158878505","0","359.9375"
"1382.73529","0.342790387182911","-2.22763684913218","-2.09045393858478","2.98130841121495","2.01869158878505","0","359.9375"
"1385.58824","0.342790387182911","-0.227636849132176","-2.09045393858478","2.98130841121495","2.01869158878505","0","359.9375"
"1388.44118","0.342790387182911","-0.227636849132176","-2.09045393858478","2.98130841121495","0.0186915887850467","0","359.9375"
"1391.29412","-1.65720961281709","0.772363150867824","-1.09045393858478","2.98130841121495","0.0186915887850467","0","359.9375"
"1394.14706","-1.65720961281709","0.772363150867824","-1.09045393858478","-0.0186915887850467","-0.981308411214953","0","359.9375"
"1397","-1.65720961281709","0.772363150867824","-1.09045393858478","-0.0186915887850467","-0.981308411214953","0","359.9375"
"1403.26667","-1.65720961281709","0.772363150867824","-1.09045393858478","-0.0186915887850467","0.0186915887850467","0","359.9375"
"1406.53333","-1.65720961281709","-1.22763684913218","0.90954606141522","-0.0186915887850467","0.0186915887850467","0","359.9375"
"1409.8","-1.65720961281709","-1.22763684913218","0.90954606141522","1.98130841121495","-0.981308411214953","0","359.9375"
"1413.06667","0.342790387182911","-0.227636849132176","-0.0904539385847798","1.98130841121495","-0.981308411214953","0","359.9375"
"1416.33333","0.342790387182911","-0.227636849132176","-0.0904539385847798","-2.01869158878505","1.01869158878505","0","359.9375"
"1419.6","1.34279038718291","-0.227636849132176","0.90954606141522","-2.01869158878505","1.01869158878505","0","359.9375"
"1422.86667","1.34279038718291","-0.227636849132176","0.90954606141522","-0.0186915887850467","2.01869158878505","0","359.9375"
"1426.13333","-1.65720961281709","1.77236315086782","-0.0904539385847798","-0.0186915887850467","2.01869158878505","0","359.9375"
"1429.4","-1.65720961281709","1.77236315086782","-0.0904539385847798","-1.01869158878505","0.0186915887850467","0","359.9375"
"1432.66667","-1.65720961281709","1.77236315086782","-0.0904539385847798","-1.01869158878505","0.0186915887850467","0","359.9375"
"1435.93333","-1.65720961281709","1.77236315086782","-0.0904539385847798","0.981308411214953","-1.98130841121495","0","359.9375"
"1439.2","-2.65720961281709","1.77236315086782","-0.0904539385847798","0.981308411214953","-1.98130841121495","0","359.9375"
"1442.46667","-2.65720961281709","1.77236315086782","-0.0904539385847798","-1.01869158878505","2.01869158878505","0","359.9375"
"1445.73333","0.342790387182911","-0.227636849132176","-0.0904539385847798","-1.01869158878505","2.01869158878505","0","359.9375"
"1449","0.342790387182911","-0.227636849132176","-0.0904539385847798","-2.01869158878505","-0.981308411214953","0","359.9375"
"1452.26667","1.34279038718291","-0.227636849132176","0.90954606141522","-2.01869158878505","-0.981308411214953","0","359.9375"
"1455.53333","1.34279038718291","-0.227636849132176","0.90954606141522","-0.0186915887850467","-0.981308411214953","0","359.9375"
"1458.8","-0.657209612817089","-1.22763684913218","-2.09045393858478","-0.0186915887850467","-0.981308411214953","0","359.9375"
"1462.06667","-0.657209612817089","-1.22763684913218","-2.09045393858478","0.981308411214953","-2.98130841121495","0","359.9375"
"1465.33333","-0.657209612817089","-1.22763684913218","-2.09045393858478","0.981308411214953","-2.98130841121495","0","359.9375"
"1468.6","-0.657209612817089","-1.22763684913218","-2.09045393858478","1.98130841121495","-0.981308411214953","0","359.9375"
"1471.86667","1.34279038718291","-0.227636849132176","-0.0904539385847798","1.98130841121495","-0.981308411214953","0","359.9375"
"1475.13333","1.34279038718291","-0.227636849132176","-0.0904539385847798","-2.01869158878505","1.01869158878505","0","359.9375"
"1478.4","0.342790387182911","-0.227636849132176","0.90954606141522","-2.01869158878505","1.01869158878505","0","359.9375"
"1481.66667","0.342790387182911","-0.227636849132176","0.90954606141522","-0.0186915887850467","0.0186915887850467","0","359.9375"
"1484.93333","0.342790387182911","-0.227636849132176","-0.0904539385847798","-0.0186915887850467","0.0186915887850467","0","359.9375"
"1488.2","0.342790387182911","-0.227636849132176","-0.0904539385847798","1.98130841121495","0.0186915887850467","0","359.9375"
"1491.46667","0.342790387182911","0.772363150867824","0.90954606141522","1.98130841121495","0.0186915887850467","0","359.9375"
"1494.73333","0.342790387182911","0.772363150867824","0.90954606141522","-0.0186915887850467","0.0186915887850467","0","359.9375"
"1498","0.342790387182911","0.772363150867824","0.90954606141522","-0.0186915887850467","0.0186915887850467","0","359.9375"
"1502.79412","0.342790387182911","0.772363150867824","0.90954606141522","0.981308411214953","-1.98130841121495","0","359.9375"
"1505.58824","0.342790387182911","-0.227636849132176","-0.0904539385847798","0.981308411214953","-1.98130841121495","0","359.9375"
"1508.38235","0.342790387182911","-0.227636849132176","-0.0904539385847798","-0.0186915887850467","1.01869158878505","0","359.9375"
"1511.17647","-0.657209612817089","-0.227636849132176","-2.09045393858478","-0.0186915887850467","1.01869158878505","0","359.9375"
"1513.97059","-0.657209612817089","-0.227636849132176","-2.09045393858478","-0.0186915887850467","-0.981308411214953","0","359.9375"
"1516.76471","-1.65720961281709","-0.227636849132176","-2.09045393858478","-0.0186915887850467","-0.981308411214953","0","359.9375"
"1519.55882","-1.65720961281709","-0.227636849132176","-2.09045393858478","0.981308411214953","0.0186915887850467","0","359.9375"
"1522.35294","1.34279038718291","-0.227636849132176","1.90954606141522","0.981308411214953","0.0186915887850467","0","359.9375"
"1525.14706","1.34279038718291","-0.227636849132176","1.90954606141522","0.981308411214953","-2.98130841121495","0","359.9375"
"1527.94118","1.34279038718291","-0.227636849132176","1.90954606141522","0.981308411214953","-2.98130841121495","0","359.9375"
"1530.73529","1.34279038718291","-0.227636849132176","1.90954606141522","-0.0186915887850467","1.01869158878505","0","359.9375"
"1533.52941","-0.657209612817089","-0.227636849132176","-0.0904539385847798","-0.0186915887850467","1.01869158878505","0","359.9375"
"1536.32353","-0.657209612817089","-0.227636849132176","-0.0904539385847798","-2.01869158878505","-0.981308411214953","0","359.9375"
"1539.11765","0.342790387182911","-0.227636849132176","-2.09045393858478","-2.01869158878505","-0.981308411214953","0","359.9375"
"1541.91176","0.342790387182911","-0.227636849132176","-2.09045393858478","1.98130841121495","1.01869158878505","0","359.9375"
"1544.70588","1.34279038718291","0.772363150867824","-1.09045393858478","1.98130841121495","1.01869158878505","0","359.9375"
"1547.5","1.34279038718291","0.772363150867824","-1.09045393858478","0.981308411214953","-0.981308411214953","0","359.9375"
"1550.29412","0.342790387182911","-0.227636849132176","0.90954606141522","0.981308411214953","-0.981308411214953","0","359.9375"
"1553.08824","0.342790387182911","-0.227636849132176","0.90954606141522","0.981308411214953","-0.981308411214953","0","359.9375"
"1555.88235","0.342790387182911","-0.227636849132176","0.90954606141522","0.981308411214953","-0.981308411214953","0","359.9375"
"1558.67647","0.342790387182911","-0.227636849132176","0.90954606141522","-0.0186915887850467","-0.981308411214953","0","359.9375"
"1561.47059","1.34279038718291","-0.227636849132176","-0.0904539385847798","-0.0186915887850467","-0.981308411214953","0","359.9375"
"1564.26471","1.34279038718291","-0.227636849132176","-0.0904539385847798","-3.01869158878505","1.01869158878505","0","359.9375"
"1567.05882","0.342790387182911","-1.22763684913218","-3.09045393858478","-3.01869158878505","1.01869158878505","0","359.9375"
"1569.85294","0.342790387182911","-1.22763684913218","-3.09045393858478","0.981308411214953","-0.981308411214953","0","359.9375"
"1572.64706","0.342790387182911","-0.227636849132176","-1.09045393858478","0.981308411214953","-0.981308411214953","0","359.9375"
"1575.44118","0.342790387182911","-0.227636849132176","-1.09045393858478","-2.01869158878505","-1.98130841121495","0","359.9375"
"1578.23529","1.34279038718291","-0.227636849132176","-1.09045393858478","-2.01869158878505","-1.98130841121495","0","359.9375"
"1581.02941","1.34279038718291","-0.227636849132176","-1.09045393858478","-1.01869158878505","-0.981308411214953","0","359.9375"
"1583.82353","1.34279038718291","-0.227636849132176","-1.09045393858478","-1.01869158878505","-0.981308411214953","0","359.9375"
"1586.61765","1.34279038718291","-0.227636849132176","-1.09045393858478","0.981308411214953","1.01869158878505","0","359.9375"
"1589.41176","1.34279038718291","-0.227636849132176","-0.0904539385847798","0.981308411214953","1.01869158878505","0","359.9375"
"1592.20588","1.34279038718291","-0.227636849132176","-0.0904539385847798","1.98130841121495","-0.981308411214953","0","359.9375"
"1595","-0.657209612817089","-0.227636849132176","-2.09045393858478","1.98130841121495","-0.981308411214953","0","359.9375"
"1600","-0.657209612817089","-0.227636849132176","-2.09045393858478","-2.01869158878505","2.01869158878505","0","359.9375"
"1600","0.342790387182911","0.772363150867824","-0.0904539385847798","-2.01869158878505","2.01869158878505","0","359.9375"
"1603.23333","0.342790387182911","0.772363150867824","-0.0904539385847798","-1.01869158878505","1.01869158878505","0","359.9375"
"1606.46667","0.342790387182911","-0.227636849132176","-0.0904539385847798","-1.01869158878505","1.01869158878505","0","359.9375"
"1609.7","0.342790387182911","-0.227636849132176","-0.0904539385847798","-2.01869158878505","2.01869158878505","0","359.9375"
"1612.93333","0.342790387182911","-0.227636849132176","-0.0904539385847798","-2.01869158878505","2.01869158878505","0","359.9375"
"1616.16667","0.342790387182911","-0.227636849132176","-0.0904539385847798","-3.01869158878505","1.01869158878505","0","359.9375"
"1619.4","0.342790387182911","-0.227636849132176","0.90954606141522","-3.01869158878505","1.01869158878505","0","359.9375"
"1622.63333","0.342790387182911","-0.227636849132176","0.90954606141522","-2.01869158878505","0.0186915887850467","0","359.9375"
"1625.86667","0.342790387182911","-0.227636849132176","-3.09045393858478","-2.01869158878505","0.0186915887850467","0","359.9375"
"1629.1","0.342790387182911","-0.227636849132176","-3.09045393858478","-0.0186915887850467","1.01869158878505","0","359.9375"
"1632.33333","-0.657209612817089","0.772363150867824","-0.0904539385847798","-0.0186915887850467","1.01869158878505","0","359.9375"
"1635.56667","-0.657209612817089","0.772363150867824","-0.0904539385847798","0.981308411214953","0.0186915887850467","0","359.9375"
"1638.8","0.342790387182911","0.772363150867824","-0.0904539385847798","0.981308411214953","0.0186915887850467","0","359.9375"
"1642.03333","0.342790387182911","0.772363150867824","-0.0904539385847798","-1.01869158878505","0.0186915887850467","0","359.9375"
"1645.26667","0.342790387182911","0.772363150867824","-0.0904539385847798","-1.01869158878505","0.0186915887850467","0","359.9375"
"1648.5","0.342790387182911","0.772363150867824","-0.0904539385847798","0.981308411214953","-0.981308411214953","0","359.9375"
"1651.73333","-0.657209612817089","-0.227636849132176","0.90954606141522","0.981308411214953","-0.981308411214953","0","359.9375"
"1654.96667","-0.657209612817089","-0.227636849132176","0.90954606141522","0.981308411214953","2.01869158878505","0","359.9375"
"1658.2","-0.657209612817089","-0.227636849132176","-1.09045393858478","0.981308411214953","2.01869158878505","0","359.9375"
"1661.43333","-0.657209612817089","-0.227636849132176","-1.09045393858478","-1.01869158878505","1.01869158878505","0","359.9375"
"1664.66667","-1.65720961281709","0.772363150867824","0.90954606141522","-1.01869158878505","1.01869158878505","0","359.9375"
"1667.9","-1.65720961281709","0.772363150867824","0.90954606141522","-0.0186915887850467","0.0186915887850467","0","359.9375"
"1671.13333","-0.657209612817089","2.77236315086782","-2.09045393858478","-0.0186915887850467","0.0186915887850467","0","359.9375"
"1674.36667","-0.657209612817089","2.77236315086782","-2.09045393858478","-2.01869158878505","1.01869158878505","0","359.9375"
"1677.6","-0.657209612817089","2.77236315086782","-2.09045393858478","-2.01869158878505","1.01869158878505","0","359.9375"
"1680.83333","-0.657209612817089","2.77236315086782","-2.09045393858478","-1.01869158878505","1.01869158878505","0","359.9375"
"1684.06667","1.34279038718291","-2.22763684913218","1.90954606141522","-1.01869158878505","1.01869158878505","0","359.9375"
"1687.3","1.34279038718291","-2.22763684913218","1.90954606141522","-0.0186915887850467","0.0186915887850467","0","359.9375"
"1690.53333","-0.657209612817089","-0.227636849132176","-2.09045393858478","-0.0186915887850467","0.0186915887850467","0","359.9375"
"1693.76667","-0.657209612817089","-0.227636849132176","-2.09045393858478","-2.01869158878505","1.01869158878505","0","359.9375"
"1697","-0.657209612817089","-0.227636849132176","0.90954606141522","-2.01869158878505","1.01869158878505","0","359.9375"
"1703","-0.657209612817089","-0.227636849132176","0.90954606141522","-0.0186915887850467","0.0186915887850467","0","359.9375"
"1706","0.342790387182911","-0.227636849132176","1.90954606141522","-0.0186915887850467","0.0186915887850467","0","359.9375"
"1709","0.342790387182911","-0.227636849132176","1.90954606141522","0.981308411214953","-0.981308411214953","0","359.9375"
"1712","0.342790387182911","-0.227636849132176","1.90954606141522","0.981308411214953","-0.981308411214953","0","359.9375"
"1715","0.342790387182911","-0.227636849132176","1.90954606141522","-1.01869158878505","-0.981308411214953","0","359.9375"
"1718","-2.65720961281709","-0.227636849132176","-0.0904539385847798","-1.01869158878505","-0.981308411214953","0","359.9375"
"1721","-2.65720961281709","-0.227636849132176","-0.0904539385847798","-1.01869158878505","2.01869158878505","0","359.9375"
"1724","-0.657209612817089","1.77236315086782","-2.09045393858478","-1.01869158878505","2.01869158878505","0","359.9375"
"1727","-0.657209612817089","1.77236315086782","-2.09045393858478","3.98130841121495","2.01869158878505","0","359.9375"
"1730","1.34279038718291","-0.227636849132176","0.90954606141522","3.98130841121495","2.01869158878505","0","359.9375"
"1733","1.34279038718291","-0.227636849132176","0.90954606141522","-0.0186915887850467","-0.981308411214953","0","359.9375"
"1736","0.342790387182911","-0.227636849132176","0.90954606141522","-0.0186915887850467","-0.981308411214953","0","359.9375"
"1739","0.342790387182911","-0.227636849132176","0.90954606141522","-1.01869158878505","1.01869158878505","0","359.9375"
"1742","0.342790387182911","-0.227636849132176","0.90954606141522","-1.01869158878505","1.01869158878505","0","359.9375"
"1745","0.342790387182911","-0.227636849132176","0.90954606141522","-1.01869158878505","0.0186915887850467","0","359.9375"
"1748","1.34279038718291","-0.227636849132176","-1.09045393858478","-1.01869158878505","0.0186915887850467","0","359.9375"
"1751","1.34279038718291","-0.227636849132176","-1.09045393858478","-0.0186915887850467","0.0186915887850467","0","359.9375"
"1754","-0.657209612817089","1.77236315086782","-2.09045393858478","-0.0186915887850467","0.0186915887850467","0","359.9375"
"1757","-0.657209612817089","1.77236315086782","-2.09045393858478","2.98130841121495","0.0186915887850467","0","359.9375"
"1760","1.34279038718291","-0.227636849132176","-2.09045393858478","2.98130841121495","0.0186915887850467","0","359.9375"
"1763","1.34279038718291","-0.227636849132176","-2.09045393858478","1.98130841121495","-0.981308411214953","0","359.9375"
"1766","-0.657209612817089","-0.227636849132176","-0.0904539385847798","1.98130841121495","-0.981308411214953","0","359.9375"
"1769","-0.657209612817089","-0.227636849132176","-0.0904539385847798","-0.0186915887850467","1.01869158878505","0","359.9375"
"1772","-0.657209612817089","-0.227636849132176","-0.0904539385847798","-0.0186915887850467","1.01869158878505","0","359.9375"
"1775","-0.657209612817089","-0.227636849132176","-0.0904539385847798","-0.0186915887850467","0.0186915887850467","0","359.9375"
"1778","0.342790387182911","-0.227636849132176","0.90954606141522","-0.0186915887850467","0.0186915887850467","0","359.9375"
"1781","0.342790387182911","-0.227636849132176","0.90954606141522","-2.01869158878505","-1.98130841121495","0","359.9375"
"1784","1.34279038718291","-0.227636849132176","-1.09045393858478","-2.01869158878505","-1.98130841121495","0","359.9375"
"1787","1.34279038718291","-0.227636849132176","-1.09045393858478","-1.01869158878505","1.01869158878505","0","359.9375"
"1790","-0.657209612817089","-0.227636849132176","-1.09045393858478","-1.01869158878505","1.01869158878505","0","359.9375"
"1793","-0.657209612817089","-0.227636849132176","-1.09045393858478","0.981308411214953","-0.981308411214953","0","359.9375"
"1796","1.34279038718291","0.772363150867824","2.90954606141522","0.981308411214953","-0.981308411214953","0","359.9375"
"1803","1.34279038718291","0.772363150867824","2.90954606141522","-0.0186915887850467","-2.98130841121495","0","359.9375"
"1806","1.34279038718291","0.772363150867824","2.90954606141522","-0.0186915887850467","-2.98130841121495","0","359.9375"
"1809","1.34279038718291","0.772363150867824","2.90954606141522","-1.01869158878505","-0.981308411214953","0","359.9375"
"1812","-0.657209612817089","-0.227636849132176","-0.0904539385847798","-1.01869158878505","-0.981308411214953","0","359.9375"
"1815","-0.657209612817089","-0.227636849132176","-0.0904539385847798","1.98130841121495","0.0186915887850467","0","359.9375"
"1818","0.342790387182911","0.772363150867824","-2.09045393858478","1.98130841121495","0.0186915887850467","0","359.9375"
"1821","0.342790387182911","0.772363150867824","-2.09045393858478","-2.01869158878505","2.01869158878505","0","359.9375"
"1824","0.342790387182911","-0.227636849132176","-0.0904539385847798","-2.01869158878505","2.01869158878505","0","359.9375"
"1827","0.342790387182911","-0.227636849132176","-0.0904539385847798","-0.0186915887850467","2.01869158878505","0","359.9375"
"1830","1.34279038718291","-0.227636849132176","0.90954606141522","-0.0186915887850467","2.01869158878505","0","359.9375"
"1833","1.34279038718291","-0.227636849132176","0.90954606141522","-1.01869158878505","0.0186915887850467","0","359.9375"
"1836","1.34279038718291","-0.227636849132176","0.90954606141522","-1.01869158878505","0.0186915887850467","0","359.9375"
"1839","1.34279038718291","-0.227636849132176","0.90954606141522","0.981308411214953","0.0186915887850467","0","359.9375"
"1842","1.34279038718291","-1.22763684913218","-0.0904539385847798","0.981308411214953","0.0186915887850467","0","359.9375"
"1845","1.34279038718291","-1.22763684913218","-0.0904539385847798","-0.0186915887850467","-1.98130841121495","0","359.9375"
"1848","0.342790387182911","-0.227636849132176","-0.0904539385847798","-0.0186915887850467","-1.98130841121495","0","359.9375"
"1851","0.342790387182911","-0.227636849132176","-0.0904539385847798","-2.01869158878505","-0.981308411214953","0","359.9375"
"1854","-1.65720961281709","-0.227636849132176","1.90954606141522","-2.01869158878505","-0.981308411214953","0","359.9375"
"1857","-1.65720961281709","-0.227636849132176","1.90954606141522","-2.01869158878505","0.0186915887850467","0","359.9375"
"1860","1.34279038718291","0.772363150867824","-0.0904539385847798","-2.01869158878505","0.0186915887850467","0","359.9375"
"1863","1.34279038718291","0.772363150867824","-0.0904539385847798","1.98130841121495","1.01869158878505","0","359.9375"
"1866","1.34279038718291","0.772363150867824","-0.0904539385847798","1.98130841121495","1.01869158878505","0","359.9375"
"1869","1.34279038718291","0.772363150867824","-0.0904539385847798","0.981308411214953","0.0186915887850467","0","359.9375"
"1872","1.34279038718291","0.772363150867824","2.90954606141522","0.981308411214953","0.0186915887850467","0","359.9375"
"1875","1.34279038718291","0.772363150867824","2.90954606141522","0.981308411214953","-1.98130841121495","0","359.9375"
"1878","-1.65720961281709","-0.227636849132176","-0.0904539385847798","0.981308411214953","-1.98130841121495","0","359.9375"
"1881","-1.65720961281709","-0.227636849132176","-0.0904539385847798","-0.0186915887850467","1.01869158878505","0","359.9375"
"1884","-1.65720961281709","-0.227636849132176","-0.0904539385847798","-0.0186915887850467","1.01869158878505","0","359.9375"
"1887","-1.65720961281709","-0.227636849132176","-0.0904539385847798","0.981308411214953","0.0186915887850467","0","359.9375"
"1890","0.342790387182911","0.772363150867824","0.90954606141522","0.981308411214953","0.0186915887850467","0","359.9375"
"1893","0.342790387182911","0.772363150867824","0.90954606141522","-1.01869158878505","-1.98130841121495","0","359.9375"
"1896","0.342790387182911","0.772363150867824","0.90954606141522","-1.01869158878505","-1.98130841121495","0","359.9375"
"1902.91176","0.342790387182911","0.772363150867824","0.90954606141522","0.981308411214953","-2.98130841121495","0","359.9375"
"1905.82353","0.342790387182911","0.772363150867824","-0.0904539385847798","0.981308411214953","-2.98130841121495","0","359.9375"
"1908.73529","0.342790387182911","0.772363150867824","-0.0904539385847798","-2.01869158878505","0.0186915887850467","0","359.9375"
"1911.64706","0.342790387182911","0.772363150867824","-0.0904539385847798","-2.01869158878505","0.0186915887850467","0","359.9375"
"1914.55882","0.342790387182911","0.772363150867824","-0.0904539385847798","-1.01869158878505","-1.98130841121495","0","359.9375"
"1917.47059","-0.657209612817089","-0.227636849132176","-2.09045393858478","-1.01869158878505","-1.98130841121495","0","359.9375"
"1920.38235","-0.657209612817089","-0.227636849132176","-2.09045393858478","0.981308411214953","-0.981308411214953","0","359.9375"
"1923.29412","-0.657209612817089","-0.227636849132176","0.90954606141522","0.981308411214953","-0.981308411214953","0","359.9375"
"1926.20588","-0.657209612817089","-0.227636849132176","0.90954606141522","0.981308411214953","-2.98130841121495","0","359.9375"
"1929.11765","-0.657209612817089","-0.227636849132176","0.90954606141522","0.981308411214953","-2.98130841121495","0","359.9375"
"1932.02941","-0.657209612817089","-0.227636849132176","0.90954606141522","0.981308411214953","-0.981308411214953","0","359.9375"
"1934.94118","-0.657209612817089","-0.227636849132176","1.90954606141522","0.981308411214953","-0.981308411214953","0","359.9375"
"1937.85294","-0.657209612817089","-0.227636849132176","1.90954606141522","0.981308411214953","-1.98130841121495","0","359.9375"
"1940.76471","1.34279038718291","-0.227636849132176","-0.0904539385847798","0.981308411214953","-1.98130841121495","0","359.9375"
"1943.67647","1.34279038718291","-0.227636849132176","-0.0904539385847798","2.98130841121495","-1.98130841121495","0","359.9375"
"1946.58824","0.342790387182911","-0.227636849132176","-1.09045393858478","2.98130841121495","-1.98130841121495","0","359.9375"
"1949.5","0.342790387182911","-0.227636849132176","-1.09045393858478","0.981308411214953","2.01869158878505","0","359.9375"
"1952.41176","0.342790387182911","1.77236315086782","-1.09045393858478","0.981308411214953","2.01869158878505","0","359.9375"
"1955.32353","0.342790387182911","1.77236315086782","-1.09045393858478","-1.01869158878505","-0.981308411214953","0","359.9375"
"1958.23529","0.342790387182911","1.77236315086782","-1.09045393858478","-1.01869158878505","-0.981308411214953","0","359.9375"
"1961.14706","0.342790387182911","1.77236315086782","-1.09045393858478","1.98130841121495","0.0186915887850467","0","359.9375"
"1964.05882","0.342790387182911","-1.22763684913218","-0.0904539385847798","1.98130841121495","0.0186915887850467","0","359.9375"
"1966.97059","0.342790387182911","-1.22763684913218","-0.0904539385847798","-2.01869158878505","1.01869158878505","0","359.9375"
"1969.88235","1.34279038718291","1.77236315086782","-2.09045393858478","-2.01869158878505","1.01869158878505","0","359.9375"
"1972.79412","1.34279038718291","1.77236315086782","-2.09045393858478","-0.0186915887850467","1.01869158878505","0","359.9375"
"1975.70588","-0.657209612817089","-0.227636849132176","-1.09045393858478","-0.0186915887850467","1.01869158878505","0","359.9375"
"1978.61765","-0.657209612817089","-0.227636849132176","-1.09045393858478","-1.01869158878505","3.01869158878505","0","359.9375"
"1981.52941","0.342790387182911","-0.227636849132176","-1.09045393858478","-1.01869158878505","3.01869158878505","0","359.9375"
"1984.44118","0.342790387182911","-0.227636849132176","-1.09045393858478","-1.01869158878505","-0.981308411214953","0","359.9375"
"1987.35294","1.34279038718291","1.77236315086782","-1.09045393858478","-1.01869158878505","-0.981308411214953","0","359.9375"
"1990.26471","1.34279038718291","1.77236315086782","-1.09045393858478","-0.0186915887850467","2.01869158878505","0","359.9375"
"1993.17647","1.34279038718291","-1.22763684913218","-1.09045393858478","-0.0186915887850467","2.01869158878505","0","359.9375"
"1996.08824","1.34279038718291","-1.22763684913218","-1.09045393858478","2.98130841121495","0.0186915887850467","0","359.9375"
"1999","0.342790387182911","0.772363150867824","-1.09045393858478","2.98130841121495","0.0186915887850467","0","359.9375"
"2003.2","0.342790387182911","0.772363150867824","-1.09045393858478","-2.01869158878505","3.01869158878505","0","359.9375"
"2006.4","-0.657209612817089","-0.227636849132176","-0.0904539385847798","-2.01869158878505","3.01869158878505","0","359.9375"
"2009.6","-0.657209612817089","-0.227636849132176","-0.0904539385847798","0.981308411214953","0.0186915887850467","0","359.9375"
"2012.8","0.342790387182911","-0.227636849132176","-0.0904539385847798","0.981308411214953","0.0186915887850467","0","359.9375"
"2016","0.342790387182911","-0.227636849132176","-0.0904539385847798","-0.0186915887850467","0.0186915887850467","0","359.9375"
"2019.2","1.34279038718291","-0.227636849132176","1.90954606141522","-0.0186915887850467","0.0186915887850467","0","359.9375"
"2022.4","1.34279038718291","-0.227636849132176","1.90954606141522","-0.0186915887850467","1.01869158878505","0","359.9375"
"2025.6","0.342790387182911","1.77236315086782","0.90954606141522","-0.0186915887850467","1.01869158878505","0","359.9375"
"2028.8","0.342790387182911","1.77236315086782","0.90954606141522","1.98130841121495","3.01869158878505","0","359.9375"
"2032","0.342790387182911","-0.227636849132176","-0.0904539385847798","1.98130841121495","3.01869158878505","0","359.9375"
"2035.2","0.342790387182911","-0.227636849132176","-0.0904539385847798","1.98130841121495","2.01869158878505","0","359.9375"
"2038.4","0.342790387182911","0.772363150867824","-1.09045393858478","1.98130841121495","2.01869158878505","0","359.9375"
"2041.6","0.342790387182911","0.772363150867824","-1.09045393858478","1.98130841121495","-0.981308411214953","0","359.9375"
"2044.8","-1.65720961281709","-0.227636849132176","0.90954606141522","1.98130841121495","-0.981308411214953","0","359.9375"
"2048","-1.65720961281709","-0.227636849132176","0.90954606141522","-1.01869158878505","1.01869158878505","0","359.9375"
"2051.2","1.34279038718291","-0.227636849132176","-1.09045393858478","-1.01869158878505","1.01869158878505","0","359.9375"
"2054.4","1.34279038718291","-0.227636849132176","-1.09045393858478","-1.01869158878505","2.01869158878505","0","359.9375"
"2057.6","0.342790387182911","-0.227636849132176","3.90954606141522","-1.01869158878505","2.01869158878505","0","359.9375"
"2060.8","0.342790387182911","-0.227636849132176","3.90954606141522","-1.01869158878505","4.01869158878505","0","359.9375"
"2064","0.342790387182911","-0.227636849132176","-0.0904539385847798","-1.01869158878505","4.01869158878505","0","359.9375"
"2067.2","0.342790387182911","-0.227636849132176","-0.0904539385847798","0.981308411214953","3.01869158878505","0","359.9375"
"2070.4","-0.657209612817089","-0.227636849132176","-2.09045393858478","0.981308411214953","3.01869158878505","0","359.9375"
"2073.6","-0.657209612817089","-0.227636849132176","-2.09045393858478","0.981308411214953","2.01869158878505","0","359.9375"
"2076.8","1.34279038718291","-0.227636849132176","-2.09045393858478","0.981308411214953","2.01869158878505","0","359.9375"
"2080","1.34279038718291","-0.227636849132176","-2.09045393858478","-0.0186915887850467","-1.98130841121495","0","359.9375"
"2083.2","1.34279038718291","-0.227636849132176","-2.09045393858478","-0.0186915887850467","-1.98130841121495","0","359.9375"
"2086.4","1.34279038718291","-0.227636849132176","-2.09045393858478","0.981308411214953","1.01869158878505","0","359.9375"
"2089.6","0.342790387182911","0.772363150867824","0.90954606141522","0.981308411214953","1.01869158878505","0","359.9375"
"2092.8","0.342790387182911","0.772363150867824","0.90954606141522","-1.01869158878505","-1.98130841121495","0","359.9375"
"2096","-1.65720961281709","-1.22763684913218","-2.09045393858478","-1.01869158878505","-1.98130841121495","0","359.9375"
"2102.85294","-1.65720961281709","-1.22763684913218","-2.09045393858478","-0.0186915887850467","-1.98130841121495","0","359.9375"
"2105.70588","-1.65720961281709","-0.227636849132176","-1.09045393858478","-0.0186915887850467","-1.98130841121495","0","359.9375"
"2108.55882","-1.65720961281709","-0.227636849132176","-1.09045393858478","2.98130841121495","-0.981308411214953","0","359.9375"
"2111.41176","1.34279038718291","-0.227636849132176","-0.0904539385847798","2.98130841121495","-0.981308411214953","0","359.9375"
"2114.26471","1.34279038718291","-0.227636849132176","-0.0904539385847798","3.98130841121495","1.01869158878505","0","359.9375"
"2117.11765","1.34279038718291","1.77236315086782","0.90954606141522","3.98130841121495","1.01869158878505","0","359.9375"
"2119.97059","1.34279038718291","1.77236315086782","0.90954606141522","-3.01869158878505","1.01869158878505","0","359.9375"
"2122.82353","1.34279038718291","-0.227636849132176","1.90954606141522","-3.01869158878505","1.01869158878505","0","359.9375"
"2125.67647","1.34279038718291","-0.227636849132176","1.90954606141522","-4.01869158878505","2.01869158878505","0","359.9375"
"2128.52941","0.342790387182911","-0.227636849132176","0.90954606141522","-4.01869158878505","2.01869158878505","0","359.9375"
"2131.38235","0.342790387182911","-0.227636849132176","0.90954606141522","3.98130841121495","0.0186915887850467","0","359.9375"
"2134.23529","-1.65720961281709","-0.227636849132176","-0.0904539385847798","3.98130841121495","0.0186915887850467","0","359.9375"
"2137.08824","-1.65720961281709","-0.227636849132176","-0.0904539385847798","0.981308411214953","0.0186915887850467","0","359.9375"
"2139.94118","0.342790387182911","-0.227636849132176","-1.09045393858478","0.981308411214953","0.0186915887850467","0","359.9375"
"2142.79412","0.342790387182911","-0.227636849132176","-1.09045393858478","1.98130841121495","1.01869158878505","0","359.9375"
"2145.64706","0.342790387182911","0.772363150867824","1.90954606141522","1.98130841121495","1.01869158878505","0","359.9375"
"2148.5","0.342790387182911","0.772363150867824","1.90954606141522","1.98130841121495","1.01869158878505","0","359.9375"
"2151.35294","1.34279038718291","-0.227636849132176","-0.0904539385847798","1.98130841121495","1.01869158878505","0","359.9375"
"2154.20588","1.34279038718291","-0.227636849132176","-0.0904539385847798","-0.0186915887850467","0.0186915887850467","0","359.9375"
"2157.05882","0.342790387182911","-0.227636849132176","0.90954606141522","-0.0186915887850467","0.0186915887850467","0","359.9375"
"2159.91176","0.342790387182911","-0.227636849132176","0.90954606141522","0.981308411214953","-0.981308411214953","0","359.9375"
"2162.76471","1.34279038718291","-0.227636849132176","-0.0904539385847798","0.981308411214953","-0.981308411214953","0","359.9375"
"2165.61765","1.34279038718291","-0.227636849132176","-0.0904539385847798","1.98130841121495","4.01869158878505","0","359.9375"
"2168.47059","1.34279038718291","-0.227636849132176","-1.09045393858478","1.98130841121495","4.01869158878505","0","359.9375"
"2171.32353","1.34279038718291","-0.227636849132176","-1.09045393858478","-0.0186915887850467","0.0186915887850467","0","359.9375"
"2174.17647","-1.65720961281709","-0.227636849132176","-1.09045393858478","-0.0186915887850467","0.0186915887850467","0","359.9375"
"2177.02941","-1.65720961281709","-0.227636849132176","-1.09045393858478","1.98130841121495","0.0186915887850467","0","359.9375"
"2179.88235","-0.657209612817089","0.772363150867824","1.90954606141522","1.98130841121495","0.0186915887850467","0","359.9375"
"2182.73529","-0.657209612817089","0.772363150867824","1.90954606141522","-2.01869158878505","1.01869158878505","0","359.9375"
"2185.58824","0.342790387182911","-0.227636849132176","0.90954606141522","-2.01869158878505","1.01869158878505","0","359.9375"
"2188.44118","0.342790387182911","-0.227636849132176","0.90954606141522","0.981308411214953","1.01869158878505","0","359.9375"
"2191.29412","1.34279038718291","-0.227636849132176","-1.09045393858478","0.981308411214953","1.01869158878505","0","359.9375"
"2194.14706","1.34279038718291","-0.227636849132176","-1.09045393858478","-0.0186915887850467","2.01869158878505","0","359.9375"
"2197","1.34279038718291","-0.227636849132176","1.90954606141522","-0.0186915887850467","2.01869158878505","0","359.9375"
"2203.03125","1.34279038718291","-0.227636849132176","1.90954606141522","-1.01869158878505","-0.981308411214953","0","359.9375"
"2206.0625","-1.65720961281709","-0.227636849132176","-1.09045393858478","-1.01869158878505","-0.981308411214953","0","359.9375"
"2209.09375","-1.65720961281709","-0.227636849132176","-1.09045393858478","0.981308411214953","2.01869158878505","0","359.9375"
"2212.125","0.342790387182911","-0.227636849132176","0.90954606141522","0.981308411214953","2.01869158878505","0","359.9375"
"2215.15625","0.342790387182911","-0.227636849132176","0.90954606141522","1.98130841121495","0.0186915887850467","0","359.9375"
"2218.1875","-0.657209612817089","1.77236315086782","0.90954606141522","1.98130841121495","0.0186915887850467","0","359.9375"
"2221.21875","-0.657209612817089","1.77236315086782","0.90954606141522","4.98130841121495","1.01869158878505","0","359.9375"
"2224.25","0.342790387182911","-0.227636849132176","-3.09045393858478","4.98130841121495","1.01869158878505","0","359.9375"
"2227.28125","0.342790387182911","-0.227636849132176","-3.09045393858478","-0.0186915887850467","2.01869158878505","0","359.9375"
"2230.3125","0.342790387182911","-1.22763684913218","-1.09045393858478","-0.0186915887850467","2.01869158878505","0","359.9375"
"2233.34375","0.342790387182911","-1.22763684913218","-1.09045393858478","1.98130841121495","3.01869158878505","0","359.9375"
"2236.375","-1.65720961281709","-0.227636849132176","-0.0904539385847798","1.98130841121495","3.01869158878505","0","359.9375"
"2239.40625","-1.65720961281709","-0.227636849132176","-0.0904539385847798","0.981308411214953","1.01869158878505","0","359.9375"
"2242.4375","-0.657209612817089","-0.227636849132176","-1.09045393858478","0.981308411214953","1.01869158878505","0","359.9375"
"2245.46875","-0.657209612817089","-0.227636849132176","-1.09045393858478","3.98130841121495","0.0186915887850467","0","359.9375"
"2248.5","-2.65720961281709","0.772363150867824","-1.09045393858478","3.98130841121495","0.0186915887850467","0","359.9375"
"2251.53125","-2.65720961281709","0.772363150867824","-1.09045393858478","-0.0186915887850467","1.01869158878505","0","359.9375"
"2254.5625","0.342790387182911","-1.22763684913218","-1.09045393858478","-0.0186915887850467","1.01869158878505","0","359.9375"
"2257.59375","0.342790387182911","-1.22763684913218","-1.09045393858478","-0.0186915887850467","2.01869158878505","0","359.9375"
"2260.625","-0.657209612817089","0.772363150867824","-1.09045393858478","-0.0186915887850467","2.01869158878505","0","359.9375"
"2263.65625","-0.657209612817089","0.772363150867824","-1.09045393858478","-0.0186915887850467","-0.981308411214953","0","359.9375"
"2266.6875","1.34279038718291","0.772363150867824","-0.0904539385847798","-0.0186915887850467","-0.981308411214953","0","359.9375"
"2269.71875","1.34279038718291","0.772363150867824","-0.0904539385847798","1.98130841121495","2.01869158878505","0","359.9375"
"2272.75","1.34279038718291","0.772363150867824","1.90954606141522","1.98130841121495","2.01869158878505","0","359.9375"
"2275.78125","1.34279038718291","0.772363150867824","1.90954606141522","1.98130841121495","-0.981308411214953","0","359.9375"
"2278.8125","-1.65720961281709","-0.227636849132176","1.90954606141522","1.98130841121495","-0.981308411214953","0","359.9375"
"2281.84375","-1.65720961281709","-0.227636849132176","1.90954606141522","-1.01869158878505","2.01869158878505","0","359.9375"
"2284.875","-0.657209612817089","0.772363150867824","-2.09045393858478","-1.01869158878505","2.01869158878505","0","359.9375"
"2287.90625","-0.657209612817089","0.772363150867824","-2.09045393858478","-2.01869158878505","-0.981308411214953","0","359.9375"
"2290.9375","0.342790387182911","-0.227636849132176","-0.0904539385847798","-2.01869158878505","-0.981308411214953","0","359.9375"
"2293.96875","0.342790387182911","-0.227636849132176","-0.0904539385847798","-3.01869158878505","0.0186915887850467","0","359.9375"
"2297","-0.657209612817089","-0.227636849132176","-1.09045393858478","-3.01869158878505","0.0186915887850467","0","359.9375"
"2303","-0.657209612817089","-0.227636849132176","-1.09045393858478","-1.01869158878505","-1.98130841121495","0","359.9375"
"2306","-1.65720961281709","-2.22763684913218","1.90954606141522","-1.01869158878505","-1.98130841121495","0","359.9375"
"2309","-1.65720961281709","-2.22763684913218","1.90954606141522","-2.01869158878505","-0.981308411214953","0","359.9375"
"2312","1.34279038718291","-1.22763684913218","-2.09045393858478","-2.01869158878505","-0.981308411214953","0","359.9375"
"2315","1.34279038718291","-1.22763684913218","-2.09045393858478","-1.01869158878505","-0.981308411214953","0","359.9375"
"2318","1.34279038718291","1.77236315086782","-0.0904539385847798","-1.01869158878505","-0.981308411214953","0","359.9375"
"2321","1.34279038718291","1.77236315086782","-0.0904539385847798","-0.0186915887850467","-1.98130841121495","0","359.9375"
"2324","-0.657209612817089","-1.22763684913218","-3.09045393858478","-0.0186915887850467","-1.98130841121495","0","359.9375"
"2327","-0.657209612817089","-1.22763684913218","-3.09045393858478","-1.01869158878505","-0.981308411214953","0","359.9375"
"2330","-1.65720961281709","-0.227636849132176","1.90954606141522","-1.01869158878505","-0.981308411214953","0","359.9375"
"2333","-1.65720961281709","-0.227636849132176","1.90954606141522","-0.0186915887850467","1.01869158878505","0","359.9375"
"2336","-0.657209612817089","1.77236315086782","1.90954606141522","-0.0186915887850467","1.01869158878505","0","359.9375"
"2339","-0.657209612817089","1.77236315086782","1.90954606141522","-1.01869158878505","-1.98130841121495","0","359.9375"
"2342","-0.657209612817089","-0.227636849132176","-2.09045393858478","-1.01869158878505","-1.98130841121495","0","359.9375"
"2345","-0.657209612817089","-0.227636849132176","-2.09045393858478","0.981308411214953","-0.981308411214953","0","359.9375"
"2348","-0.657209612817089","-0.227636849132176","-1.09045393858478","0.981308411214953","-0.981308411214953","0","359.9375"
"2351","-0.657209612817089","-0.227636849132176","-1.09045393858478","-1.01869158878505","1.01869158878505","0","359.9375"
"2354","-0.657209612817089","-0.227636849132176","1.90954606141522","-1.01869158878505","1.01869158878505","0","359.9375"
"2357","-0.657209612817089","-0.227636849132176","1.90954606141522","0.981308411214953","0.0186915887850467","0","359.9375"
"2360","0.342790387182911","-0.227636849132176","-1.09045393858478","0.981308411214953","0.0186915887850467","0","359.9375"
"2363","0.342790387182911","-0.227636849132176","-1.09045393858478","-2.01869158878505","1.01869158878505","0","359.9375"
"2366","0.342790387182911","-0.227636849132176","1.90954606141522","-2.01869158878505","1.01869158878505","0","359.9375"
"2369","0.342790387182911","-0.227636849132176","1.90954606141522","-1.01869158878505","0.0186915887850467","0","359.9375"
"2372","0.342790387182911","0.772363150867824","0.90954606141522","-1.01869158878505","0.0186915887850467","0","359.9375"
"2375","0.342790387182911","0.772363150867824","0.90954606141522","-1.01869158878505","-2.98130841121495","0","359.9375"
"2378","1.34279038718291","0.772363150867824","-3.09045393858478","-1.01869158878505","-2.98130841121495","0","359.9375"
"2381","1.34279038718291","0.772363150867824","-3.09045393858478","-2.01869158878505","-0.981308411214953","0","359.9375"
"2384","-0.657209612817089","-0.227636849132176","-3.09045393858478","-2.01869158878505","-0.981308411214953","0","359.9375"
"2387","-0.657209612817089","-0.227636849132176","-3.09045393858478","-0.0186915887850467","-0.981308411214953","0","359.9375"
"2390","0.342790387182911","0.772363150867824","-0.0904539385847798","-0.0186915887850467","-0.981308411214953","0","359.9375"
"2393","0.342790387182911","0.772363150867824","-0.0904539385847798","-2.01869158878505","-0.981308411214953","0","359.9375"
"2396","-0.657209612817089","-0.227636849132176","2.90954606141522","-2.01869158878505","-0.981308411214953","0","359.9375"
"2402.96875","-0.657209612817089","-0.227636849132176","2.90954606141522","-1.01869158878505","2.01869158878505","0","359.9375"
"2405.9375","-0.657209612817089","-0.227636849132176","0.90954606141522","-1.01869158878505","2.01869158878505","0","359.9375"
"2408.90625","-0.657209612817089","-0.227636849132176","0.90954606141522","-1.01869158878505","-1.98130841121495","0","359.9375"
"2411.875","1.34279038718291","-0.227636849132176","-0.0904539385847798","-1.01869158878505","-1.98130841121495","0","359.9375"
"2414.84375","1.34279038718291","-0.227636849132176","-0.0904539385847798","-4.01869158878505","-1.98130841121495","0","359.9375"
"2417.8125","0.342790387182911","-0.227636849132176","-0.0904539385847798","-4.01869158878505","-1.98130841121495","0","359.9375"
"2420.78125","0.342790387182911","-0.227636849132176","-0.0904539385847798","-0.0186915887850467","-0.981308411214953","0","359.9375"
"2423.75","-1.65720961281709","-0.227636849132176","-1.09045393858478","-0.0186915887850467","-0.981308411214953","0","359.9375"
"2426.71875","-1.65720961281709","-0.227636849132176","-1.09045393858478","-1.01869158878505","2.01869158878505","0","359.9375"
"2429.6875","0.342790387182911","1.77236315086782","-0.0904539385847798","-1.01869158878505","2.01869158878505","0","359.9375"
"2432.65625","0.342790387182911","1.77236315086782","-0.0904539385847798","-0.0186915887850467","-0.981308411214953","0","359.9375"
"2435.625","1.34279038718291","-1.22763684913218","-0.0904539385847798","-0.0186915887850467","-0.981308411214953","0","359.9375"
"2438.59375","1.34279038718291","-1.22763684913218","-0.0904539385847798","-0.0186915887850467","0.0186915887850467","0","359.9375"
"2441.5625","-1.65720961281709","-0.227636849132176","-0.0904539385847798","-0.0186915887850467","0.0186915887850467","0","359.9375"
"2444.53125","-1.65720961281709","-0.227636849132176","-0.0904539385847798","0.981308411214953","2.01869158878505","0","359.9375"
"2447.5","0.342790387182911","0.772363150867824","-0.0904539385847798","0.981308411214953","2.01869158878505","0","359.9375"
"2450.46875","0.342790387182911","0.772363150867824","-0.0904539385847798","-2.01869158878505","1.01869158878505","0","359.9375"
"2453.4375","-0.657209612817089","-0.227636849132176","1.90954606141522","-2.01869158878505","1.01869158878505","0","359.9375"
"2456.40625","-0.657209612817089","-0.227636849132176","1.90954606141522","0.981308411214953","-0.981308411214953","0","359.9375"
"2459.375","-0.657209612817089","-0.227636849132176","1.90954606141522","0.981308411214953","-0.981308411214953","0","359.9375"
"2462.34375","-0.657209612817089","-0.227636849132176","1.90954606141522","0.981308411214953","-0.981308411214953","0","359.9375"
"2465.3125","1.34279038718291","-0.227636849132176","2.90954606141522","0.981308411214953","-0.981308411214953","0","359.9375"
"2468.28125","1.34279038718291","-0.227636849132176","2.90954606141522","-1.01869158878505","0.0186915887850467","0","359.9375"
"2471.25","-0.657209612817089","0.772363150867824","-2.09045393858478","-1.01869158878505","0.0186915887850467","0","359.9375"
"2474.21875","-0.657209612817089","0.772363150867824","-2.09045393858478","-0.0186915887850467","0.0186915887850467","0","359.9375"
"2477.1875","-0.657209612817089","0.772363150867824","-0.0904539385847798","-0.0186915887850467","0.0186915887850467","0","359.9375"
"2480.15625","-0.657209612817089","0.772363150867824","-0.0904539385847798","-2.01869158878505","-0.981308411214953","0","359.9375"
"2483.125","-0.657209612817089","-0.227636849132176","0.90954606141522","-2.01869158878505","-0.981308411214953","0","359.9375"
"2486.09375","-0.657209612817089","-0.227636849132176","0.90954606141522","2.98130841121495","0.0186915887850467","0","359.9375"
"2489.0625","0.342790387182911","0.772363150867824","-0.0904539385847798","2.98130841121495","0.0186915887850467","0","359.9375"
"2492.03125","0.342790387182911","0.772363150867824","-0.0904539385847798","0.981308411214953","-0.981308411214953","0","359.9375"
"2495","1.34279038718291","0.772363150867824","0.90954606141522","0.981308411214953","-0.981308411214953","0","359.9375"
"2500","1.34279038718291","0.772363150867824","0.90954606141522","1.98130841121495","-1.98130841121495","0","359.9375"
"2500","-0.657209612817089","0.772363150867824","-0.0904539385847798","1.98130841121495","-1.98130841121495","0","359.9375"
"2503.03125","-0.657209612817089","0.772363150867824","-0.0904539385847798","1.98130841121495","-0.981308411214953","0","359.9375"
"2506.0625","1.34279038718291","-0.227636849132176","-0.0904539385847798","1.98130841121495","-0.981308411214953","0","359.9375"
"2509.09375","1.34279038718291","-0.227636849132176","-0.0904539385847798","0.981308411214953","0.0186915887850467","0","359.9375"
"2512.125","-0.657209612817089","-0.227636849132176","-0.0904539385847798","0.981308411214953","0.0186915887850467","0","359.9375"
"2515.15625","-0.657209612817089","-0.227636849132176","-0.0904539385847798","-4.01869158878505","3.01869158878505","0","359.9375"
"2518.1875","0.342790387182911","-0.227636849132176","-0.0904539385847798","-4.01869158878505","3.01869158878505","0","359.9375"
"2521.21875","0.342790387182911","-0.227636849132176","-0.0904539385847798","-1.01869158878505","2.01869158878505","0","359.9375"
"2524.25","-0.657209612817089","1.77236315086782","2.90954606141522","-1.01869158878505","2.01869158878505","0","359.9375"
"2527.28125","-0.657209612817089","1.77236315086782","2.90954606141522","-1.01869158878505","-0.981308411214953","0","359.9375"
"2530.3125","-1.65720961281709","-0.227636849132176","-0.0904539385847798","-1.01869158878505","-0.981308411214953","0","359.9375"
"2533.34375","-1.65720961281709","-0.227636849132176","-0.0904539385847798","-2.01869158878505","0.0186915887850467","0","359.9375"
"2536.375","1.34279038718291","-0.227636849132176","-0.0904539385847798","-2.01869158878505","0.0186915887850467","0","359.9375"
"2539.40625","1.34279038718291","-0.227636849132176","-0.0904539385847798","-1.01869158878505","-1.98130841121495","0","359.9375"
"2542.4375","1.34279038718291","-0.227636849132176","-1.09045393858478","-1.01869158878505","-1.98130841121495","0","359.9375"
"2545.46875","1.34279038718291","-0.227636849132176","-1.09045393858478","0.981308411214953","3.01869158878505","0","359.9375"
"2548.5","-0.657209612817089","-0.227636849132176","0.90954606141522","0.981308411214953","3.01869158878505","0","359.9375"
"2551.53125","-0.657209612817089","-0.227636849132176","0.90954606141522","-2.01869158878505","2.01869158878505","0","359.9375"
"2554.5625","-0.657209612817089","-0.227636849132176","-1.09045393858478","-2.01869158878505","2.01869158878505","0","359.9375"
"2557.59375","-0.657209612817089","-0.227636849132176","-1.09045393858478","-2.01869158878505","1.01869158878505","0","359.9375"
"2560.625","0.342790387182911","-0.227636849132176","-2.09045393858478","-2.01869158878505","1.01869158878505","0","359.9375"
"2563.65625","0.342790387182911","-0.227636849132176","-2.09045393858478","-0.0186915887850467","-0.981308411214953","0","359.9375"
"2566.6875","-0.657209612817089","0.772363150867824","-1.09045393858478","-0.0186915887850467","-0.981308411214953","0","359.9375"
"2569.71875","-0.657209612817089","0.772363150867824","-1.09045393858478","-1.01869158878505","-1.98130841121495","0","359.9375"
"2572.75","0.342790387182911","0.772363150867824","1.90954606141522","-1.01869158878505","-1.98130841121495","0","359.9375"
"2575.78125","0.342790387182911","0.772363150867824","1.90954606141522","-0.0186915887850467","-0.981308411214953","0","359.9375"
"2578.8125","-1.65720961281709","1.77236315086782","-0.0904539385847798","-0.0186915887850467","-0.981308411214953","0","359.9375"
"2581.84375","-1.65720961281709","1.77236315086782","-0.0904539385847798","-1.01869158878505","-1.98130841121495","0","359.9375"
"2584.875","-1.65720961281709","-0.227636849132176","-0.0904539385847798","-1.01869158878505","-1.98130841121495","0","359.9375"
"2587.90625","-1.65720961281709","-0.227636849132176","-0.0904539385847798","-4.01869158878505","1.01869158878505","0","359.9375"
"2590.9375","1.34279038718291","1.77236315086782","-1.09045393858478","-4.01869158878505","1.01869158878505","0","359.9375"
"2593.96875","1.34279038718291","1.77236315086782","-1.09045393858478","-3.01869158878505","1.01869158878505","0","359.9375"
"2597","-0.657209612817089","1.77236315086782","-2.09045393858478","-3.01869158878505","1.01869158878505","0","359.9375"
"2603.3","-0.657209612817089","1.77236315086782","-2.09045393858478","-1.01869158878505","-1.98130841121495","0","359.9375"
"2606.6","1.34279038718291","-1.22763684913218","-1.09045393858478","-1.01869158878505","-1.98130841121495","0","359.9375"
"2609.9","1.34279038718291","-1.22763684913218","-1.09045393858478","-3.01869158878505","0.0186915887850467","0","359.9375"
"2613.2","1.34279038718291","0.772363150867824","-2.09045393858478","-3.01869158878505","0.0186915887850467","0","359.9375"
"2616.5","1.34279038718291","0.772363150867824","-2.09045393858478","-0.0186915887850467","0.0186915887850467","0","359.9375"
"2619.8","-0.657209612817089","-0.227636849132176","0.90954606141522","-0.0186915887850467","0.0186915887850467","0","359.9375"
"2623.1","-0.657209612817089","-0.227636849132176","0.90954606141522","0.981308411214953","-1.98130841121495","0","359.9375"
"2626.4","0.342790387182911","0.772363150867824","-1.09045393858478","0.981308411214953","-1.98130841121495","0","359.9375"
"2629.7","0.342790387182911","0.772363150867824","-1.09045393858478","-0.0186915887850467","-2.98130841121495","0","359.9375"
"2633","-3.65720961281709","0.772363150867824","-0.0904539385847798","-0.0186915887850467","-2.98130841121495","0","359.9375"
"2636.3","-3.65720961281709","0.772363150867824","-0.0904539385847798","-2.01869158878505","1.01869158878505","0","359.9375"
"2639.6","-0.657209612817089","-0.227636849132176","-2.09045393858478","-2.01869158878505","1.01869158878505","0","359.9375"
"2642.9","-0.657209612817089","-0.227636849132176","-2.09045393858478","-0.0186915887850467","3.01869158878505","0","359.9375"
"2646.2","1.34279038718291","0.772363150867824","1.90954606141522","-0.0186915887850467","3.01869158878505","0","359.9375"
"2649.5","1.34279038718291","0.772363150867824","1.90954606141522","0.981308411214953","1.01869158878505","0","359.9375"
"2652.8","1.34279038718291","-0.227636849132176","-0.0904539385847798","0.981308411214953","1.01869158878505","0","359.9375"
"2656.1","1.34279038718291","-0.227636849132176","-0.0904539385847798","-3.01869158878505","3.01869158878505","0","359.9375"
"2659.4","0.342790387182911","-0.227636849132176","-1.09045393858478","-3.01869158878505","3.01869158878505","0","359.9375"
"2662.7","0.342790387182911","-0.227636849132176","-1.09045393858478","-2.01869158878505","2.01869158878505","0","359.9375"
"2666","0.342790387182911","-0.227636849132176","0.90954606141522","-2.01869158878505","2.01869158878505","0","359.9375"
"2669.3","0.342790387182911","-0.227636849132176","0.90954606141522","-2.01869158878505","1.01869158878505","0","359.9375"
"2672.6","1.34279038718291","-2.22763684913218","-0.0904539385847798","-2.01869158878505","1.01869158878505","0","359.9375"
"2675.9","1.34279038718291","-2.22763684913218","-0.0904539385847798","-0.0186915887850467","2.01869158878505","0","359.9375"
"2679.2","0.342790387182911","-0.227636849132176","1.90954606141522","-0.0186915887850467","2.01869158878505","0","359.9375"
"2682.5","0.342790387182911","-0.227636849132176","1.90954606141522","1.98130841121495","2.01869158878505","0","359.9375"
"2685.8","-0.657209612817089","-0.227636849132176","-0.0904539385847798","1.98130841121495","2.01869158878505","0","359.9375"
"2689.1","-0.657209612817089","-0.227636849132176","-0.0904539385847798","-0.0186915887850467","1.01869158878505","0","359.9375"
"2692.4","-1.65720961281709","0.772363150867824","1.90954606141522","-0.0186915887850467","1.01869158878505","0","359.9375"
"2695.7","-1.65720961281709","0.772363150867824","1.90954606141522","-4.01869158878505","-0.981308411214953","0","359.9375"
"2699","0.342790387182911","-0.227636849132176","0.90954606141522","-4.01869158878505","-0.981308411214953","0","359.9375"
"2702.9375","0.342790387182911","-0.227636849132176","0.90954606141522","-0.0186915887850467","2.01869158878505","0","359.9375"
"2705.875","0.342790387182911","-0.227636849132176","-0.0904539385847798","-0.0186915887850467","2.01869158878505","0","359.9375"
"2708.8125","0.342790387182911","-0.227636849132176","-0.0904539385847798","-2.01869158878505","3.01869158878505","0","359.9375"
"2711.75","0.342790387182911","1.77236315086782","0.90954606141522","-2.01869158878505","3.01869158878505","0","359.9375"
"2714.6875","0.342790387182911","1.77236315086782","0.90954606141522","-2.01869158878505","-2.98130841121495","0","359.9375"
"2717.625","1.34279038718291","-0.227636849132176","2.90954606141522","-2.01869158878505","-2.98130841121495","0","359.9375"
"2720.5625","1.34279038718291","-0.227636849132176","2.90954606141522","-1.01869158878505","0.0186915887850467","0","359.9375"
"2723.5","-0.657209612817089","0.772363150867824","0.90954606141522","-1.01869158878505","0.0186915887850467","0","359.9375"
"2726.4375","-0.657209612817089","0.772363150867824","0.90954606141522","-4.01869158878505","2.01869158878505","0","359.9375"
"2729.375","0.342790387182911","-0.227636849132176","0.90954606141522","-4.01869158878505","2.01869158878505","0","359.9375"
"2732.3125","0.342790387182911","0.772363150867824","-1.09045393858478","-4.01869158878505","2.01869158878505","0","359.9375"
"2735.25","0.342790387182911","0.772363150867824","-1.09045393858478","-1.01869158878505","0.0186915887850467","0","359.9375"
"2738.1875","1.34279038718291","-0.227636849132176","0.90954606141522","-1.01869158878505","0.0186915887850467","0","359.9375"
"2741.125","1.34279038718291","-0.227636849132176","0.90954606141522","-0.0186915887850467","1.01869158878505","0","359.9375"
"2744.0625","0.342790387182911","1.77236315086782","0.90954606141522","-0.0186915887850467","1.01869158878505","0","359.9375"
"2747","0.342790387182911","1.77236315086782","0.90954606141522","1.98130841121495","-0.981308411214953","0","359.9375"
"2749.9375","-0.657209612817089","0.772363150867824","0.90954606141522","1.98130841121495","-0.981308411214953","0","359.9375"
"2752.875","-0.657209612817089","0.772363150867824","0.90954606141522","1.98130841121495","1.01869158878505","0","359.9375"
"2755.8125","-0.657209612817089","0.772363150867824","0.90954606141522","1.98130841121495","1.01869158878505","0","359.9375"
"2758.75","0.342790387182911","0.772363150867824","-1.09045393858478","1.98130841121495","1.01869158878505","0","359.9375"
"2761.6875","0.342790387182911","0.772363150867824","-1.09045393858478","-1.01869158878505","0.0186915887850467","0","359.9375"
"2764.625","1.34279038718291","-0.227636849132176","0.90954606141522","-1.01869158878505","0.0186915887850467","0","359.9375"
"2767.5625","1.34279038718291","-0.227636849132176","0.90954606141522","-0.0186915887850467","1.01869158878505","0","359.9375"
"2770.5","0.342790387182911","1.77236315086782","0.90954606141522","-0.0186915887850467","1.01869158878505","0","359.9375"
"2773.4375","0.342790387182911","1.77236315086782","0.90954606141522","1.98130841121495","-0.981308411214953","0","359.9375"
"2776.375","-0.657209612817089","0.772363150867824","0.90954606141522","1.98130841121495","-0.981308411214953","0","359.9375"
"2779.3125","-0.657209612817089","0.772363150867824","0.90954606141522","1.98130841121495","1.01869158878505","0","359.9375"
"2782.25","0.342790387182911","-0.227636849132176","-2.09045393858478","1.98130841121495","1.01869158878505","0","359.9375"
"2785.1875","0.342790387182911","-0.227636849132176","-2.09045393858478","-0.0186915887850467","-1.98130841121495","0","359.9375"
"2788.125","-0.657209612817089","0.772363150867824","-2.09045393858478","-0.0186915887850467","-1.98130841121495","0","359.9375"
"2791.0625","-0.657209612817089","0.772363150867824","-2.09045393858478","-2.01869158878505","0.0186915887850467","0","359.9375"
"2794","1.34279038718291","-0.227636849132176","-2.09045393858478","-2.01869158878505","0.0186915887850467","0","359.9375"
"2800","1.34279038718291","-0.227636849132176","-2.09045393858478","-2.01869158878505","1.01869158878505","0","359.9375"
"2800","0.342790387182911","-0.227636849132176","-0.0904539385847798","-2.01869158878505","1.01869158878505","0","359.9375"
"2803.26667","0.342790387182911","-0.227636849132176","-0.0904539385847798","-3.01869158878505","1.01869158878505","0","359.9375"
"2806.53333","1.34279038718291","-0.227636849132176","-0.0904539385847798","-3.01869158878505","1.01869158878505","0","359.9375"
"2809.8","1.34279038718291","-0.227636849132176","-0.0904539385847798","-1.01869158878505","-0.981308411214953","0","359.9375"
"2813.06667","0.342790387182911","-0.227636849132176","-2.09045393858478","-1.01869158878505","-0.981308411214953","0","359.9375"
"2816.33333","0.342790387182911","-0.227636849132176","-2.09045393858478","-1.01869158878505","1.01869158878505","0","359.9375"
"2819.6","0.342790387182911","-0.227636849132176","-1.09045393858478","-1.01869158878505","1.01869158878505","0","359.9375"
"2822.86667","0.342790387182911","-0.227636849132176","-1.09045393858478","-1.01869158878505","0.0186915887850467","0","359.9375"
"2826.13333","0.342790387182911","-0.227636849132176","-3.09045393858478","-1.01869158878505","0.0186915887850467","0","359.9375"
"2829.4","0.342790387182911","-0.227636849132176","-3.09045393858478","-1.01869158878505","0.0186915887850467","0","359.9375"
"2832.66667","-1.65720961281709","-0.227636849132176","0.90954606141522","-1.01869158878505","0.0186915887850467","0","359.9375"
"2835.93333","-1.65720961281709","-0.227636849132176","0.90954606141522","-0.0186915887850467","1.01869158878505","0","359.9375"
"2839.2","1.34279038718291","-0.227636849132176","1.90954606141522","-0.0186915887850467","1.01869158878505","0","359.9375"
"2842.46667","1.34279038718291","-0.227636849132176","1.90954606141522","-3.01869158878505","3.01869158878505","0","359.9375"
"2845.73333","0.342790387182911","-0.227636849132176","-1.09045393858478","-3.01869158878505","3.01869158878505","0","359.9375"
"2849","0.342790387182911","-0.227636849132176","-1.09045393858478","0.981308411214953","0.0186915887850467","0","359.9375"
"2852.26667","-2.65720961281709","-0.227636849132176","-1.09045393858478","0.981308411214953","0.0186915887850467","0","359.9375"
"2855.53333","-2.65720961281709","-0.227636849132176","-1.09045393858478","-4.01869158878505","-0.981308411214953","0","359.9375"
"2858.8","-0.657209612817089","-0.227636849132176","1.90954606141522","-4.01869158878505","-0.981308411214953","0","359.9375"
"2862.06667","-0.657209612817089","-0.227636849132176","1.90954606141522","0.981308411214953","0.0186915887850467","0","359.9375"
"2865.33333","1.34279038718291","-0.227636849132176","0.90954606141522","0.981308411214953","0.0186915887850467","0","359.9375"
"2868.6","1.34279038718291","-0.227636849132176","0.90954606141522","-0.0186915887850467","-1.98130841121495","0","359.9375"
"2871.86667","-2.65720961281709","1.77236315086782","-3.09045393858478","-0.0186915887850467","-1.98130841121495","0","359.9375"
"2875.13333","-2.65720961281709","1.77236315086782","-3.09045393858478","-0.0186915887850467","0.0186915887850467","0","359.9375"
"2878.4","-1.65720961281709","0.772363150867824","-0.0904539385847798","-0.0186915887850467","0.0186915887850467","0","359.9375"
"2881.66667","-1.65720961281709","0.772363150867824","-0.0904539385847798","0.981308411214953","-0.981308411214953","0","359.9375"
"2884.93333","0.342790387182911","-0.227636849132176","-1.09045393858478","0.981308411214953","-0.981308411214953","0","359.9375"
"2888.2","0.342790387182911","-0.227636849132176","-1.09045393858478","0.981308411214953","-0.981308411214953","0","359.9375"
"2891.46667","-1.65720961281709","-0.227636849132176","-0.0904539385847798","0.981308411214953","-0.981308411214953","0","359.9375"
"2894.73333","-1.65720961281709","-0.227636849132176","-0.0904539385847798","-0.0186915887850467","0.0186915887850467","0","359.9375"
"2898","1.34279038718291","-0.227636849132176","-0.0904539385847798","-0.0186915887850467","0.0186915887850467","0","359.9375"
"2903.13333","1.34279038718291","-0.227636849132176","-0.0904539385847798","1.98130841121495","-1.98130841121495","0","359.9375"
"2906.26667","1.34279038718291","-0.227636849132176","-0.0904539385847798","1.98130841121495","-1.98130841121495","0","359.9375"
"2909.4","1.34279038718291","-0.227636849132176","-0.0904539385847798","-1.01869158878505","-0.981308411214953","0","359.9375"
"2912.53333","-0.657209612817089","-0.227636849132176","-1.09045393858478","-1.01869158878505","-0.981308411214953","0","359.9375"
"2915.66667","-0.657209612817089","-0.227636849132176","-1.09045393858478","-1.01869158878505","1.01869158878505","0","359.9375"
"2918.8","-1.65720961281709","-0.227636849132176","1.90954606141522","-1.01869158878505","1.01869158878505","0","359.9375"
"2921.93333","-1.65720961281709","-0.227636849132176","1.90954606141522","-1.01869158878505","1.01869158878505","0","359.9375"
"2925.06667","0.342790387182911","-0.227636849132176","0.90954606141522","-1.01869158878505","1.01869158878505","0","359.9375"
"2928.2","0.342790387182911","-0.227636849132176","0.90954606141522","-2.01869158878505","-0.981308411214953","0","359.9375"
"2931.33333","-0.657209612817089","1.77236315086782","1.90954606141522","-2.01869158878505","-0.981308411214953","0","359.9375"
"2934.46667","-0.657209612817089","1.77236315086782","1.90954606141522","-0.0186915887850467","0.0186915887850467","0","359.9375"
"2937.6","0.342790387182911","-0.227636849132176","-0.0904539385847798","-0.0186915887850467","0.0186915887850467","0","359.9375"
"2940.73333","0.342790387182911","-0.227636849132176","-0.0904539385847798","-2.01869158878505","3.01869158878505","0","359.9375"
"2943.86667","0.342790387182911","-0.227636849132176","-0.0904539385847798","-2.01869158878505","3.01869158878505","0","359.9375"
"2947","0.342790387182911","-0.227636849132176","-0.0904539385847798","-2.01869158878505","1.01869158878505","0","359.9375"
"2950.13333","0.342790387182911","0.772363150867824","-0.0904539385847798","-2.01869158878505","1.01869158878505","0","359.9375"
"2953.26667","0.342790387182911","0.772363150867824","-0.0904539385847798","-0.0186915887850467","-0.981308411214953","0","359.9375"
"2956.4","-0.657209612817089","-0.227636849132176","-1.09045393858478","-0.0186915887850467","-0.981308411214953","0","359.9375"
"2959.53333","-0.657209612817089","-0.227636849132176","-1.09045393858478","-1.01869158878505","2.01869158878505","0","359.9375"
"2962.66667","0.342790387182911","-0.227636849132176","1.90954606141522","-1.01869158878505","2.01869158878505","0","359.9375"
"2965.8","0.342790387182911","-0.227636849132176","1.90954606141522","0.981308411214953","1.01869158878505","0","359.9375"
"2968.93333","1.34279038718291","-0.227636849132176","1.90954606141522","0.981308411214953","1.01869158878505","0","359.9375"
"2972.06667","1.34279038718291","-0.227636849132176","1.90954606141522","0.981308411214953","2.01869158878505","0","359.9375"
"2975.2","1.34279038718291","1.77236315086782","0.90954606141522","0.981308411214953","2.01869158878505","0","359.9375"
