Timer,AX,AY,AZ,GX,GY,GZ,A
"4.95","-1.48575351870923","0.279780295228287","-0.0295228286989371","0.105046343975283","-3.09852385856505","0","359.9375"
"9.9","-1.48575351870923","0.279780295228287","-0.0295228286989371","-2.89495365602472","-1.09852385856505","0","359.9375"
"14.85","0.514246481290766","0.279780295228287","1.97047717130106","-2.89495365602472","-1.09852385856505","0","359.9375"
"19.8","0.514246481290766","0.279780295228287","1.97047717130106","-2.89495365602472","-1.09852385856505","0","359.9375"
"24.75","0.514246481290766","-0.720219704771713","-0.0295228286989371","-2.89495365602472","-1.09852385856505","0","359.9375"
"29.7","0.514246481290766","-0.720219704771713","-0.0295228286989371","1.10504634397528","0.901476141434947","0","359.9375"
"34.65","0.514246481290766","-0.720219704771713","-0.0295228286989371","1.10504634397528","0.901476141434947","0","359.9375"
"39.6","0.514246481290766","-0.720219704771713","-0.0295228286989371","2.10504634397528","0.901476141434947","0","359.9375"
"44.55","0.514246481290766","1.27978029522829","-0.0295228286989371","2.10504634397528","0.901476141434947","0","359.9375"
"49.5","0.514246481290766","1.27978029522829","-0.0295228286989371","1.10504634397528","0.901476141434947","0","359.9375"
"54.45","0.514246481290766","1.27978029522829","-0.0295228286989371","1.10504634397528","0.901476141434947","0","359.9375"
"59.4","0.514246481290766","1.27978029522829","-0.0295228286989371","-3.89495365602472","0.901476141434947","0","359.9375"
"64.35","0.514246481290766","0.279780295228287","-3.02952282869894","-3.89495365602472","0.901476141434947","0","359.9375"
"69.3","0.514246481290766","0.279780295228287","-3.02952282869894","3.10504634397528","0.901476141434947","0","359.9375"
"74.25","-0.485753518709234","-0.720219704771713","-1.02952282869894","3.10504634397528","0.901476141434947","0","359.9375"
"79.2","-0.485753518709234","-0.720219704771713","-1.02952282869894","1.10504634397528","-1.09852385856505","0","359.9375"
"84.15","-0.485753518709234","-0.720219704771713","-1.02952282869894","1.10504634397528","-1.09852385856505","0","359.9375"
"89.1","-0.485753518709234","-0.720219704771713","-1.02952282869894","0.105046343975283","0.901476141434947","0","359.9375"
"94.05","-0.485753518709234","-0.720219704771713","-1.02952282869894","0.105046343975283","0.901476141434947","0","359.9375"
"99","-0.485753518709234","-0.720219704771713","-1.02952282869894","-0.894953656024717","1.90147614143495","0","359.9375"
"104.94737","-0.485753518709234","-0.720219704771713","-1.02952282869894","-0.894953656024717","1.90147614143495","0","359.9375"
"109.89474","-0.485753518709234","-0.720219704771713","-1.02952282869894","-2.89495365602472","0.901476141434947","0","359.9375"
"114.84211","-0.485753518709234","-0.720219704771713","-0.0295228286989371","-2.89495365602472","0.901476141434947","0","359.9375"
"119.78947","-0.485753518709234","-0.720219704771713","-0.0295228286989371","-1.89495365602472","-0.0985238585650532","0","359.9375"
"124.73684","-1.48575351870923","0.279780295228287","0.970477171301063","-1.89495365602472","-0.0985238585650532","0","359.9375"
"129.68421","-1.48575351870923","0.279780295228287","0.970477171301063","1.10504634397528","-0.0985238585650532","0","359.9375"
"134.63158","-1.48575351870923","0.279780295228287","0.970477171301063","1.10504634397528","-0.0985238585650532","0","359.9375"
"139.57895","-1.48575351870923","0.279780295228287","0.970477171301063","0.105046343975283","-1.09852385856505","0","359.9375"
"144.52632","1.51424648129077","0.279780295228287","-1.02952282869894","0.105046343975283","-1.09852385856505","0","359.9375"
"149.47368","1.51424648129077","0.279780295228287","-1.02952282869894","0.105046343975283","-1.09852385856505","0","359.9375"
"154.42105","-0.485753518709234","0.279780295228287","1.97047717130106","0.105046343975283","-1.09852385856505","0","359.9375"
"159.36842","-0.485753518709234","0.279780295228287","1.97047717130106","0.105046343975283","-1.09852385856505","0","359.9375"
"164.31579","-1.48575351870923","0.279780295228287","0.970477171301063","0.105046343975283","-1.09852385856505","0","359.9375"
"169.26316","-1.48575351870923","0.279780295228287","0.970477171301063","-1.89495365602472","0.901476141434947","0","359.9375"
"174.21053","0.514246481290766","0.279780295228287","1.97047717130106","-1.89495365602472","0.901476141434947","0","359.9375"
"179.15789","0.514246481290766","0.279780295228287","1.97047717130106","0.105046343975283","0.901476141434947","0","359.9375"
"184.10526","0.514246481290766","0.279780295228287","1.97047717130106","0.105046343975283","0.901476141434947","0","359.9375"
"189.05263","0.514246481290766","0.279780295228287","1.97047717130106","0.105046343975283","-2.09852385856505","0","359.9375"
"194","-0.485753518709234","-1.72021970477171","-2.02952282869894","0.105046343975283","-2.09852385856505","0","359.9375"
"204.66667","-0.485753518709234","-1.72021970477171","-2.02952282869894","0.105046343975283","-0.0985238585650532","0","359.9375"
"209.33333","-0.485753518709234","-1.72021970477171","-2.02952282869894","0.105046343975283","-0.0985238585650532","0","359.9375"
"214","-0.485753518709234","-1.72021970477171","-2.02952282869894","0.105046343975283","-2.09852385856505","0","359.9375"
"218.66667","0.514246481290766","-0.720219704771713","-3.02952282869894","0.105046343975283","-2.09852385856505","0","359.9375"
"223.33333","0.514246481290766","-0.720219704771713","-3.02952282869894","0.105046343975283","-0.0985238585650532","0","359.9375"
"228","-1.48575351870923","0.279780295228287","0.970477171301063","0.105046343975283","-0.0985238585650532","0","359.9375"
"232.66667","-1.48575351870923","0.279780295228287","0.970477171301063","1.10504634397528","0.901476141434947","0","359.9375"
"237.33333","-0.485753518709234","1.27978029522829","0.970477171301063","1.10504634397528","0.901476141434947","0","359.9375"
"242","-0.485753518709234","1.27978029522829","0.970477171301063","-0.894953656024717","1.90147614143495","0","359.9375"
"246.66667","0.514246481290766","-0.720219704771713","-0.0295228286989371","-0.894953656024717","1.90147614143495","0","359.9375"
"251.33333","0.514246481290766","-0.720219704771713","-0.0295228286989371","-0.894953656024717","0.901476141434947","0","359.9375"
"256","-0.485753518709234","-0.720219704771713","-2.02952282869894","-0.894953656024717","0.901476141434947","0","359.9375"
"260.66667","-0.485753518709234","-0.720219704771713","-2.02952282869894","-0.894953656024717","1.90147614143495","0","359.9375"
"265.33333","0.514246481290766","-0.720219704771713","-1.02952282869894","-0.894953656024717","1.90147614143495","0","359.9375"
"270","0.514246481290766","-0.720219704771713","-1.02952282869894","0.105046343975283","0.901476141434947","0","359.9375"
"274.66667","-0.485753518709234","0.279780295228287","0.970477171301063","0.105046343975283","0.901476141434947","0","359.9375"
"279.33333","-0.485753518709234","0.279780295228287","0.970477171301063","0.105046343975283","-1.09852385856505","0","359.9375"
"284","0.514246481290766","0.279780295228287","1.97047717130106","0.105046343975283","-1.09852385856505","0","359.9375"
"288.66667","0.514246481290766","0.279780295228287","1.97047717130106","0.105046343975283","-2.09852385856505","0","359.9375"
"293.33333","0.514246481290766","0.279780295228287","1.97047717130106","0.105046343975283","-2.09852385856505","0","359.9375"
"298","0.514246481290766","0.279780295228287","1.97047717130106","1.10504634397528","-0.0985238585650532","0","359.9375"
"304.71429","-0.485753518709234","0.279780295228287","1.97047717130106","1.10504634397528","-0.0985238585650532","0","359.9375"
"309.42857","-0.485753518709234","0.279780295228287","1.97047717130106","1.10504634397528","1.90147614143495","0","359.9375"
"314.14286","0.514246481290766","0.279780295228287","-1.02952282869894","1.10504634397528","1.90147614143495","0","359.9375"
"318.85714","0.514246481290766","0.279780295228287","-1.02952282869894","0.105046343975283","0.901476141434947","0","359.9375"
"323.57143","0.514246481290766","0.279780295228287","-3.02952282869894","0.105046343975283","0.901476141434947","0","359.9375"
"328.28571","0.514246481290766","0.279780295228287","-3.02952282869894","1.10504634397528","2.90147614143495","0","359.9375"
"333","0.514246481290766","0.279780295228287","-0.0295228286989371","1.10504634397528","2.90147614143495","0","359.9375"
"337.71429","0.514246481290766","0.279780295228287","-0.0295228286989371","-1.89495365602472","0.901476141434947","0","359.9375"
"342.42857","-0.485753518709234","1.27978029522829","-1.02952282869894","-1.89495365602472","0.901476141434947","0","359.9375"
"347.14286","-0.485753518709234","1.27978029522829","-1.02952282869894","0.105046343975283","-0.0985238585650532","0","359.9375"
"351.85714","-0.485753518709234","0.279780295228287","0.970477171301063","0.105046343975283","-0.0985238585650532","0","359.9375"
"356.57143","-0.485753518709234","0.279780295228287","0.970477171301063","3.10504634397528","0.901476141434947","0","359.9375"
"361.28571","0.514246481290766","0.279780295228287","-1.02952282869894","3.10504634397528","0.901476141434947","0","359.9375"
"366","0.514246481290766","0.279780295228287","-1.02952282869894","1.10504634397528","-2.09852385856505","0","359.9375"
"370.71429","-0.485753518709234","-0.720219704771713","1.97047717130106","1.10504634397528","-2.09852385856505","0","359.9375"
"375.42857","-0.485753518709234","-0.720219704771713","1.97047717130106","1.10504634397528","-0.0985238585650532","0","359.9375"
"380.14286","0.514246481290766","0.279780295228287","0.970477171301063","1.10504634397528","-0.0985238585650532","0","359.9375"
"384.85714","0.514246481290766","0.279780295228287","0.970477171301063","2.10504634397528","-0.0985238585650532","0","359.9375"
"389.57143","0.514246481290766","-0.720219704771713","1.97047717130106","2.10504634397528","-0.0985238585650532","0","359.9375"
"394.28571","0.514246481290766","-0.720219704771713","1.97047717130106","0.105046343975283","1.90147614143495","0","359.9375"
"399","0.514246481290766","0.279780295228287","-0.0295228286989371","0.105046343975283","1.90147614143495","0","359.9375"
"404.9","0.514246481290766","0.279780295228287","-0.0295228286989371","1.10504634397528","0.901476141434947","0","359.9375"
"409.8","0.514246481290766","-0.720219704771713","-2.02952282869894","1.10504634397528","0.901476141434947","0","359.9375"
"414.7","0.514246481290766","-0.720219704771713","-2.02952282869894","0.105046343975283","-0.0985238585650532","0","359.9375"
"419.6","0.514246481290766","0.279780295228287","0.970477171301063","0.105046343975283","-0.0985238585650532","0","359.9375"
"424.5","0.514246481290766","0.279780295228287","0.970477171301063","0.105046343975283","-3.09852385856505","0","359.9375"
"429.4","-0.485753518709234","0.279780295228287","-0.0295228286989371","0.105046343975283","-3.09852385856505","0","359.9375"
"434.3","-0.485753518709234","0.279780295228287","-0.0295228286989371","0.105046343975283","-2.09852385856505","0","359.9375"
"439.2","0.514246481290766","-1.72021970477171","-2.02952282869894","0.105046343975283","-2.09852385856505","0","359.9375"
"444.1","0.514246481290766","-1.72021970477171","-2.02952282869894","2.10504634397528","-0.0985238585650532","0","359.9375"
"449","0.514246481290766","-0.720219704771713","-0.0295228286989371","2.10504634397528","-0.0985238585650532","0","359.9375"
"453.9","0.514246481290766","-0.720219704771713","-0.0295228286989371","0.105046343975283","-1.09852385856505","0","359.9375"
"458.8","0.514246481290766","0.279780295228287","-1.02952282869894","0.105046343975283","-1.09852385856505","0","359.9375"
"463.7","0.514246481290766","0.279780295228287","-1.02952282869894","-1.89495365602472","-1.09852385856505","0","359.9375"
"468.6","1.51424648129077","-1.72021970477171","-0.0295228286989371","-1.89495365602472","-1.09852385856505","0","359.9375"
"473.5","1.51424648129077","-1.72021970477171","-0.0295228286989371","-0.894953656024717","-1.09852385856505","0","359.9375"
"478.4","-0.485753518709234","0.279780295228287","1.97047717130106","-0.894953656024717","-1.09852385856505","0","359.9375"
"483.3","-0.485753518709234","0.279780295228287","1.97047717130106","1.10504634397528","1.90147614143495","0","359.9375"
"488.2","0.514246481290766","-0.720219704771713","0.970477171301063","1.10504634397528","1.90147614143495","0","359.9375"
"493.1","0.514246481290766","-0.720219704771713","0.970477171301063","2.10504634397528","0.901476141434947","0","359.9375"
"498","0.514246481290766","0.279780295228287","0.970477171301063","2.10504634397528","0.901476141434947","0","359.9375"
"504.75","0.514246481290766","0.279780295228287","0.970477171301063","1.10504634397528","-2.09852385856505","0","359.9375"
"509.5","-1.48575351870923","0.279780295228287","-5.02952282869894","1.10504634397528","-2.09852385856505","0","359.9375"
"514.25","-1.48575351870923","0.279780295228287","-5.02952282869894","1.10504634397528","-1.09852385856505","0","359.9375"
"519","0.514246481290766","0.279780295228287","0.970477171301063","1.10504634397528","-1.09852385856505","0","359.9375"
"523.75","0.514246481290766","0.279780295228287","0.970477171301063","0.105046343975283","-0.0985238585650532","0","359.9375"
"528.5","-0.485753518709234","-0.720219704771713","1.97047717130106","0.105046343975283","-0.0985238585650532","0","359.9375"
"533.25","-0.485753518709234","-0.720219704771713","1.97047717130106","-1.89495365602472","-1.09852385856505","0","359.9375"
"538","-0.485753518709234","0.279780295228287","0.970477171301063","-1.89495365602472","-1.09852385856505","0","359.9375"
"542.75","-0.485753518709234","0.279780295228287","0.970477171301063","1.10504634397528","-0.0985238585650532","0","359.9375"
"547.5","1.51424648129077","0.279780295228287","-0.0295228286989371","1.10504634397528","-0.0985238585650532","0","359.9375"
"552.25","1.51424648129077","0.279780295228287","-0.0295228286989371","3.10504634397528","-1.09852385856505","0","359.9375"
"557","0.514246481290766","-0.720219704771713","-2.02952282869894","3.10504634397528","-1.09852385856505","0","359.9375"
"561.75","0.514246481290766","-0.720219704771713","-2.02952282869894","0.105046343975283","-3.09852385856505","0","359.9375"
"566.5","0.514246481290766","-0.720219704771713","-1.02952282869894","0.105046343975283","-3.09852385856505","0","359.9375"
"571.25","0.514246481290766","-0.720219704771713","-1.02952282869894","-0.894953656024717","-1.09852385856505","0","359.9375"
"576","0.514246481290766","1.27978029522829","0.970477171301063","-0.894953656024717","-1.09852385856505","0","359.9375"
"580.75","0.514246481290766","1.27978029522829","0.970477171301063","-2.89495365602472","-0.0985238585650532","0","359.9375"
"585.5","0.514246481290766","0.279780295228287","-0.0295228286989371","-2.89495365602472","-0.0985238585650532","0","359.9375"
"590.25","0.514246481290766","0.279780295228287","-0.0295228286989371","0.105046343975283","-0.0985238585650532","0","359.9375"
"595","0.514246481290766","-0.720219704771713","-2.02952282869894","0.105046343975283","-0.0985238585650532","0","359.9375"
"604.85","0.514246481290766","-0.720219704771713","-2.02952282869894","1.10504634397528","-1.09852385856505","0","359.9375"
"609.7","0.514246481290766","0.279780295228287","-1.02952282869894","1.10504634397528","-1.09852385856505","0","359.9375"
"614.55","0.514246481290766","0.279780295228287","-1.02952282869894","-0.894953656024717","1.90147614143495","0","359.9375"
"619.4","-0.485753518709234","1.27978029522829","1.97047717130106","-0.894953656024717","1.90147614143495","0","359.9375"
"624.25","-0.485753518709234","1.27978029522829","1.97047717130106","-1.89495365602472","0.901476141434947","0","359.9375"
"629.1","0.514246481290766","0.279780295228287","0.970477171301063","-1.89495365602472","0.901476141434947","0","359.9375"
"633.95","0.514246481290766","0.279780295228287","0.970477171301063","-1.89495365602472","-0.0985238585650532","0","359.9375"
"638.8","0.514246481290766","0.279780295228287","-0.0295228286989371","-1.89495365602472","-0.0985238585650532","0","359.9375"
"643.65","0.514246481290766","0.279780295228287","-0.0295228286989371","-1.89495365602472","-0.0985238585650532","0","359.9375"
"648.5","0.514246481290766","1.27978029522829","0.970477171301063","-1.89495365602472","-0.0985238585650532","0","359.9375"
"653.35","0.514246481290766","1.27978029522829","0.970477171301063","-0.894953656024717","1.90147614143495","0","359.9375"
"658.2","0.514246481290766","0.279780295228287","0.970477171301063","-0.894953656024717","1.90147614143495","0","359.9375"
"663.05","0.514246481290766","0.279780295228287","0.970477171301063","0.105046343975283","0.901476141434947","0","359.9375"
"667.9","-1.48575351870923","0.279780295228287","-2.02952282869894","0.105046343975283","0.901476141434947","0","359.9375"
"672.75","-1.48575351870923","0.279780295228287","-2.02952282869894","1.10504634397528","-0.0985238585650532","0","359.9375"
"677.6","0.514246481290766","0.279780295228287","-1.02952282869894","1.10504634397528","-0.0985238585650532","0","359.9375"
"682.45","0.514246481290766","0.279780295228287","-1.02952282869894","1.10504634397528","-0.0985238585650532","0","359.9375"
"687.3","0.514246481290766","-0.720219704771713","1.97047717130106","1.10504634397528","-0.0985238585650532","0","359.9375"
"692.15","0.514246481290766","-0.720219704771713","1.97047717130106","1.10504634397528","-2.09852385856505","0","359.9375"
"697","0.514246481290766","-1.72021970477171","-0.0295228286989371","1.10504634397528","-2.09852385856505","0","359.9375"
"704.8","0.514246481290766","-1.72021970477171","-0.0295228286989371","-1.89495365602472","0.901476141434947","0","359.9375"
"709.6","0.514246481290766","0.279780295228287","-4.02952282869894","-1.89495365602472","0.901476141434947","0","359.9375"
"714.4","0.514246481290766","0.279780295228287","-4.02952282869894","2.10504634397528","-0.0985238585650532","0","359.9375"
"719.2","0.514246481290766","0.279780295228287","1.97047717130106","2.10504634397528","-0.0985238585650532","0","359.9375"
"724","0.514246481290766","0.279780295228287","1.97047717130106","1.10504634397528","-0.0985238585650532","0","359.9375"
"728.8","-0.485753518709234","0.279780295228287","2.97047717130106","1.10504634397528","-0.0985238585650532","0","359.9375"
"733.6","-0.485753518709234","0.279780295228287","2.97047717130106","0.105046343975283","2.90147614143495","0","359.9375"
"738.4","0.514246481290766","1.27978029522829","-0.0295228286989371","0.105046343975283","2.90147614143495","0","359.9375"
"743.2","0.514246481290766","1.27978029522829","-0.0295228286989371","0.105046343975283","-1.09852385856505","0","359.9375"
"748","0.514246481290766","-0.720219704771713","-1.02952282869894","0.105046343975283","-1.09852385856505","0","359.9375"
"752.8","0.514246481290766","-0.720219704771713","-1.02952282869894","0.105046343975283","1.90147614143495","0","359.9375"
"757.6","0.514246481290766","0.279780295228287","-2.02952282869894","0.105046343975283","1.90147614143495","0","359.9375"
"762.4","0.514246481290766","0.279780295228287","-2.02952282869894","-1.89495365602472","-2.09852385856505","0","359.9375"
"767.2","-0.485753518709234","0.279780295228287","-2.02952282869894","-1.89495365602472","-2.09852385856505","0","359.9375"
"772","-0.485753518709234","0.279780295228287","-2.02952282869894","-2.89495365602472","1.90147614143495","0","359.9375"
"776.8","-0.485753518709234","-1.72021970477171","0.970477171301063","-2.89495365602472","1.90147614143495","0","359.9375"
"781.6","-0.485753518709234","-1.72021970477171","0.970477171301063","0.105046343975283","0.901476141434947","0","359.9375"
"786.4","0.514246481290766","-0.720219704771713","0.970477171301063","0.105046343975283","0.901476141434947","0","359.9375"
"791.2","0.514246481290766","-0.720219704771713","0.970477171301063","-0.894953656024717","0.901476141434947","0","359.9375"
"796","0.514246481290766","0.279780295228287","2.97047717130106","-0.894953656024717","0.901476141434947","0","359.9375"
"804.9","0.514246481290766","0.279780295228287","2.97047717130106","-0.894953656024717","-0.0985238585650532","0","359.9375"
"809.8","0.514246481290766","0.279780295228287","-2.02952282869894","-0.894953656024717","-0.0985238585650532","0","359.9375"
"814.7","0.514246481290766","0.279780295228287","-2.02952282869894","-3.89495365602472","1.90147614143495","0","359.9375"
"819.6","-2.48575351870923","0.279780295228287","1.97047717130106","-3.89495365602472","1.90147614143495","0","359.9375"
"824.5","-2.48575351870923","0.279780295228287","1.97047717130106","0.105046343975283","0.901476141434947","0","359.9375"
"829.4","-0.485753518709234","0.279780295228287","-1.02952282869894","0.105046343975283","0.901476141434947","0","359.9375"
"834.3","-0.485753518709234","0.279780295228287","-1.02952282869894","0.105046343975283","-1.09852385856505","0","359.9375"
"839.2","0.514246481290766","0.279780295228287","0.970477171301063","0.105046343975283","-1.09852385856505","0","359.9375"
"844.1","0.514246481290766","0.279780295228287","0.970477171301063","1.10504634397528","0.901476141434947","0","359.9375"
"849","0.514246481290766","0.279780295228287","1.97047717130106","1.10504634397528","0.901476141434947","0","359.9375"
"853.9","0.514246481290766","0.279780295228287","1.97047717130106","1.10504634397528","-0.0985238585650532","0","359.9375"
"858.8","-0.485753518709234","-0.720219704771713","-1.02952282869894","1.10504634397528","-0.0985238585650532","0","359.9375"
"863.7","-0.485753518709234","-0.720219704771713","-1.02952282869894","-1.89495365602472","0.901476141434947","0","359.9375"
"868.6","0.514246481290766","0.279780295228287","0.970477171301063","-1.89495365602472","0.901476141434947","0","359.9375"
"873.5","0.514246481290766","0.279780295228287","0.970477171301063","-2.89495365602472","-1.09852385856505","0","359.9375"
"878.4","0.514246481290766","0.279780295228287","0.970477171301063","-2.89495365602472","-1.09852385856505","0","359.9375"
"883.3","0.514246481290766","0.279780295228287","0.970477171301063","0.105046343975283","-2.09852385856505","0","359.9375"
"888.2","0.514246481290766","0.279780295228287","0.970477171301063","0.105046343975283","-2.09852385856505","0","359.9375"
"893.1","0.514246481290766","0.279780295228287","0.970477171301063","-0.894953656024717","-1.09852385856505","0","359.9375"
"898","-1.48575351870923","0.279780295228287","0.970477171301063","-0.894953656024717","-1.09852385856505","0","359.9375"
"904.8","-1.48575351870923","0.279780295228287","0.970477171301063","0.105046343975283","1.90147614143495","0","359.9375"
"909.6","0.514246481290766","0.279780295228287","-1.02952282869894","0.105046343975283","1.90147614143495","0","359.9375"
"914.4","0.514246481290766","0.279780295228287","-1.02952282869894","0.105046343975283","-0.0985238585650532","0","359.9375"
"919.2","0.514246481290766","0.279780295228287","-2.02952282869894","0.105046343975283","-0.0985238585650532","0","359.9375"
"924","0.514246481290766","0.279780295228287","-2.02952282869894","2.10504634397528","-0.0985238585650532","0","359.9375"
"928.8","0.514246481290766","0.279780295228287","-1.02952282869894","2.10504634397528","-0.0985238585650532","0","359.9375"
"933.6","0.514246481290766","0.279780295228287","-1.02952282869894","-0.894953656024717","-3.09852385856505","0","359.9375"
"938.4","0.514246481290766","-0.720219704771713","0.970477171301063","-0.894953656024717","-3.09852385856505","0","359.9375"
"943.2","0.514246481290766","-0.720219704771713","0.970477171301063","2.10504634397528","-2.09852385856505","0","359.9375"
"948","0.514246481290766","0.279780295228287","1.97047717130106","2.10504634397528","-2.09852385856505","0","359.9375"
"952.8","0.514246481290766","0.279780295228287","1.97047717130106","0.105046343975283","-0.0985238585650532","0","359.9375"
"957.6","-0.485753518709234","0.279780295228287","-0.0295228286989371","0.105046343975283","-0.0985238585650532","0","359.9375"
"962.4","-0.485753518709234","0.279780295228287","-0.0295228286989371","-1.89495365602472","-0.0985238585650532","0","359.9375"
"967.2","-0.485753518709234","0.279780295228287","0.970477171301063","-1.89495365602472","-0.0985238585650532","0","359.9375"
"972","-0.485753518709234","0.279780295228287","0.970477171301063","-0.894953656024717","-0.0985238585650532","0","359.9375"
"976.8","0.514246481290766","1.27978029522829","-0.0295228286989371","-0.894953656024717","-0.0985238585650532","0","359.9375"
"981.6","0.514246481290766","1.27978029522829","-0.0295228286989371","1.10504634397528","-3.09852385856505","0","359.9375"
"986.4","0.514246481290766","-0.720219704771713","1.97047717130106","1.10504634397528","-3.09852385856505","0","359.9375"
"991.2","0.514246481290766","-0.720219704771713","1.97047717130106","0.105046343975283","-2.09852385856505","0","359.9375"
"996","0.514246481290766","0.279780295228287","1.97047717130106","0.105046343975283","-2.09852385856505","0","359.9375"
"1004.75","0.514246481290766","0.279780295228287","1.97047717130106","0.105046343975283","-2.09852385856505","0","359.9375"
"1009.5","-0.485753518709234","0.279780295228287","-1.02952282869894","0.105046343975283","-2.09852385856505","0","359.9375"
"1014.25","-0.485753518709234","0.279780295228287","-1.02952282869894","2.10504634397528","-2.09852385856505","0","359.9375"
"1019","-0.485753518709234","0.279780295228287","-2.02952282869894","2.10504634397528","-2.09852385856505","0","359.9375"
"1023.75","-0.485753518709234","0.279780295228287","-2.02952282869894","1.10504634397528","-0.0985238585650532","0","359.9375"
"1028.5","-0.485753518709234","0.279780295228287","0.970477171301063","1.10504634397528","-0.0985238585650532","0","359.9375"
"1033.25","-0.485753518709234","0.279780295228287","0.970477171301063","2.10504634397528","-1.09852385856505","0","359.9375"
"1038","-0.485753518709234","1.27978029522829","-0.0295228286989371","2.10504634397528","-1.09852385856505","0","359.9375"
"1042.75","-0.485753518709234","1.27978029522829","-0.0295228286989371","3.10504634397528","-3.09852385856505","0","359.9375"
"1047.5","-1.48575351870923","-1.72021970477171","-1.02952282869894","3.10504634397528","-3.09852385856505","0","359.9375"
"1052.25","-1.48575351870923","-1.72021970477171","-1.02952282869894","0.105046343975283","-3.09852385856505","0","359.9375"
"1057","0.514246481290766","0.279780295228287","0.970477171301063","0.105046343975283","-3.09852385856505","0","359.9375"
"1061.75","0.514246481290766","0.279780295228287","0.970477171301063","1.10504634397528","-5.09852385856505","0","359.9375"
"1066.5","0.514246481290766","0.279780295228287","0.970477171301063","1.10504634397528","-5.09852385856505","0","359.9375"
"1071.25","0.514246481290766","0.279780295228287","0.970477171301063","-0.894953656024717","-2.09852385856505","0","359.9375"
"1076","0.514246481290766","-0.720219704771713","1.97047717130106","-0.894953656024717","-2.09852385856505","0","359.9375"
"1080.75","0.514246481290766","-0.720219704771713","1.97047717130106","-0.894953656024717","-2.09852385856505","0","359.9375"
"1085.5","0.514246481290766","0.279780295228287","-0.0295228286989371","-0.894953656024717","-2.09852385856505","0","359.9375"
"1090.25","0.514246481290766","0.279780295228287","-0.0295228286989371","3.10504634397528","-1.09852385856505","0","359.9375"
"1095","0.514246481290766","-1.72021970477171","1.97047717130106","3.10504634397528","-1.09852385856505","0","359.9375"
"1104.85","0.514246481290766","-1.72021970477171","1.97047717130106","0.105046343975283","0.901476141434947","0","359.9375"
"1109.7","0.514246481290766","0.279780295228287","-1.02952282869894","0.105046343975283","0.901476141434947","0","359.9375"
"1114.55","0.514246481290766","0.279780295228287","-1.02952282869894","-0.894953656024717","-2.09852385856505","0","359.9375"
"1119.4","-0.485753518709234","-0.720219704771713","-0.0295228286989371","-0.894953656024717","-2.09852385856505","0","359.9375"
"1124.25","-0.485753518709234","-0.720219704771713","-0.0295228286989371","0.105046343975283","-2.09852385856505","0","359.9375"
"1129.1","-0.485753518709234","0.279780295228287","-0.0295228286989371","0.105046343975283","-2.09852385856505","0","359.9375"
"1133.95","-0.485753518709234","0.279780295228287","-0.0295228286989371","2.10504634397528","-1.09852385856505","0","359.9375"
"1138.8","-0.485753518709234","0.279780295228287","1.97047717130106","2.10504634397528","-1.09852385856505","0","359.9375"
"1143.65","-0.485753518709234","0.279780295228287","1.97047717130106","2.10504634397528","-2.09852385856505","0","359.9375"
"1148.5","0.514246481290766","-1.72021970477171","1.97047717130106","2.10504634397528","-2.09852385856505","0","359.9375"
"1153.35","0.514246481290766","-1.72021970477171","1.97047717130106","-0.894953656024717","-4.09852385856505","0","359.9375"
"1158.2","0.514246481290766","-1.72021970477171","-0.0295228286989371","-0.894953656024717","-4.09852385856505","0","359.9375"
"1163.05","0.514246481290766","-1.72021970477171","-0.0295228286989371","1.10504634397528","-2.09852385856505","0","359.9375"
"1167.9","-0.485753518709234","1.27978029522829","1.97047717130106","1.10504634397528","-2.09852385856505","0","359.9375"
"1172.75","-0.485753518709234","1.27978029522829","1.97047717130106","2.10504634397528","-1.09852385856505","0","359.9375"
"1177.6","0.514246481290766","0.279780295228287","1.97047717130106","2.10504634397528","-1.09852385856505","0","359.9375"
"1182.45","0.514246481290766","0.279780295228287","1.97047717130106","-0.894953656024717","-1.09852385856505","0","359.9375"
"1187.3","-1.48575351870923","0.279780295228287","-0.0295228286989371","-0.894953656024717","-1.09852385856505","0","359.9375"
"1192.15","-1.48575351870923","0.279780295228287","-0.0295228286989371","0.105046343975283","-2.09852385856505","0","359.9375"
"1197","0.514246481290766","0.279780295228287","0.970477171301063","0.105046343975283","-2.09852385856505","0","359.9375"
"1204.75","0.514246481290766","0.279780295228287","0.970477171301063","0.105046343975283","-2.09852385856505","0","359.9375"
"1209.5","0.514246481290766","0.279780295228287","-1.02952282869894","0.105046343975283","-2.09852385856505","0","359.9375"
"1214.25","0.514246481290766","0.279780295228287","-1.02952282869894","1.10504634397528","-0.0985238585650532","0","359.9375"
"1219","0.514246481290766","0.279780295228287","-1.02952282869894","1.10504634397528","-0.0985238585650532","0","359.9375"
"1223.75","0.514246481290766","0.279780295228287","-1.02952282869894","-0.894953656024717","1.90147614143495","0","359.9375"
"1228.5","0.514246481290766","0.279780295228287","-0.0295228286989371","-0.894953656024717","1.90147614143495","0","359.9375"
"1233.25","0.514246481290766","0.279780295228287","-0.0295228286989371","-0.894953656024717","-4.09852385856505","0","359.9375"
"1238","-2.48575351870923","0.279780295228287","0.970477171301063","-0.894953656024717","-4.09852385856505","0","359.9375"
"1242.75","-2.48575351870923","0.279780295228287","0.970477171301063","1.10504634397528","-1.09852385856505","0","359.9375"
"1247.5","0.514246481290766","0.279780295228287","0.970477171301063","1.10504634397528","-1.09852385856505","0","359.9375"
"1252.25","0.514246481290766","0.279780295228287","0.970477171301063","1.10504634397528","0.901476141434947","0","359.9375"
"1257","-0.485753518709234","0.279780295228287","-2.02952282869894","1.10504634397528","0.901476141434947","0","359.9375"
"1261.75","-0.485753518709234","0.279780295228287","-2.02952282869894","1.10504634397528","-0.0985238585650532","0","359.9375"
"1266.5","0.514246481290766","0.279780295228287","-0.0295228286989371","1.10504634397528","-0.0985238585650532","0","359.9375"
"1271.25","0.514246481290766","0.279780295228287","-0.0295228286989371","0.105046343975283","-1.09852385856505","0","359.9375"
"1276","0.514246481290766","1.27978029522829","0.970477171301063","0.105046343975283","-1.09852385856505","0","359.9375"
"1280.75","0.514246481290766","1.27978029522829","0.970477171301063","0.105046343975283","-0.0985238585650532","0","359.9375"
"1285.5","0.514246481290766","0.279780295228287","-0.0295228286989371","0.105046343975283","-0.0985238585650532","0","359.9375"
"1290.25","0.514246481290766","0.279780295228287","-0.0295228286989371","0.105046343975283","-1.09852385856505","0","359.9375"
"1295","0.514246481290766","-0.720219704771713","-1.02952282869894","0.105046343975283","-1.09852385856505","0","359.9375"
"1304.9","0.514246481290766","-0.720219704771713","-1.02952282869894","-0.894953656024717","1.90147614143495","0","359.9375"
"1309.8","-0.485753518709234","1.27978029522829","-3.02952282869894","-0.894953656024717","1.90147614143495","0","359.9375"
"1314.7","-0.485753518709234","1.27978029522829","-3.02952282869894","2.10504634397528","0.901476141434947","0","359.9375"
"1319.6","-0.485753518709234","2.27978029522829","-2.02952282869894","2.10504634397528","0.901476141434947","0","359.9375"
"1324.5","-0.485753518709234","2.27978029522829","-2.02952282869894","1.10504634397528","-1.09852385856505","0","359.9375"
"1329.4","1.51424648129077","0.279780295228287","-0.0295228286989371","1.10504634397528","-1.09852385856505","0","359.9375"
"1334.3","1.51424648129077","0.279780295228287","-0.0295228286989371","1.10504634397528","-2.09852385856505","0","359.9375"
"1339.2","-0.485753518709234","0.279780295228287","1.97047717130106","1.10504634397528","-2.09852385856505","0","359.9375"
"1344.1","-0.485753518709234","0.279780295228287","1.97047717130106","2.10504634397528","-3.09852385856505","0","359.9375"
"1349","0.514246481290766","-0.720219704771713","0.970477171301063","2.10504634397528","-3.09852385856505","0","359.9375"
"1353.9","0.514246481290766","-0.720219704771713","0.970477171301063","0.105046343975283","-0.0985238585650532","0","359.9375"
"1358.8","0.514246481290766","0.279780295228287","-1.02952282869894","0.105046343975283","-0.0985238585650532","0","359.9375"
"1363.7","0.514246481290766","0.279780295228287","-1.02952282869894","0.105046343975283","-1.09852385856505","0","359.9375"
"1368.6","0.514246481290766","0.279780295228287","-0.0295228286989371","0.105046343975283","-1.09852385856505","0","359.9375"
"1373.5","0.514246481290766","0.279780295228287","-0.0295228286989371","0.105046343975283","-0.0985238585650532","0","359.9375"
"1378.4","1.51424648129077","-2.72021970477171","0.970477171301063","0.105046343975283","-0.0985238585650532","0","359.9375"
"1383.3","1.51424648129077","-2.72021970477171","0.970477171301063","2.10504634397528","-1.09852385856505","0","359.9375"
"1388.2","0.514246481290766","0.279780295228287","-0.0295228286989371","2.10504634397528","-1.09852385856505","0","359.9375"
"1393.1","0.514246481290766","0.279780295228287","-0.0295228286989371","2.10504634397528","-0.0985238585650532","0","359.9375"
"1398","-0.485753518709234","1.27978029522829","-0.0295228286989371","2.10504634397528","-0.0985238585650532","0","359.9375"
"1404.8","-0.485753518709234","1.27978029522829","-0.0295228286989371","4.10504634397528","0.901476141434947","0","359.9375"
"1409.6","0.514246481290766","0.279780295228287","0.970477171301063","4.10504634397528","0.901476141434947","0","359.9375"
"1414.4","0.514246481290766","0.279780295228287","0.970477171301063","0.105046343975283","0.901476141434947","0","359.9375"
"1419.2","-0.485753518709234","0.279780295228287","0.970477171301063","0.105046343975283","0.901476141434947","0","359.9375"
"1424","-0.485753518709234","0.279780295228287","0.970477171301063","-1.89495365602472","0.901476141434947","0","359.9375"
"1428.8","1.51424648129077","-0.720219704771713","1.97047717130106","-1.89495365602472","0.901476141434947","0","359.9375"
"1433.6","1.51424648129077","-0.720219704771713","1.97047717130106","0.105046343975283","1.90147614143495","0","359.9375"
"1438.4","0.514246481290766","0.279780295228287","1.97047717130106","0.105046343975283","1.90147614143495","0","359.9375"
"1443.2","0.514246481290766","0.279780295228287","1.97047717130106","-1.89495365602472","-1.09852385856505","0","359.9375"
"1448","-0.485753518709234","0.279780295228287","0.970477171301063","-1.89495365602472","-1.09852385856505","0","359.9375"
"1452.8","-0.485753518709234","0.279780295228287","0.970477171301063","-1.89495365602472","-2.09852385856505","0","359.9375"
"1457.6","-2.48575351870923","0.279780295228287","-0.0295228286989371","-1.89495365602472","-2.09852385856505","0","359.9375"
"1462.4","-2.48575351870923","0.279780295228287","-0.0295228286989371","-0.894953656024717","0.901476141434947","0","359.9375"
"1467.2","-0.485753518709234","0.279780295228287","-1.02952282869894","-0.894953656024717","0.901476141434947","0","359.9375"
"1472","-0.485753518709234","0.279780295228287","-1.02952282869894","-1.89495365602472","-0.0985238585650532","0","359.9375"
"1476.8","-0.485753518709234","1.27978029522829","-1.02952282869894","-1.89495365602472","-0.0985238585650532","0","359.9375"
"1481.6","-0.485753518709234","1.27978029522829","-1.02952282869894","-0.894953656024717","-0.0985238585650532","0","359.9375"
"1486.4","-0.485753518709234","1.27978029522829","-0.0295228286989371","-0.894953656024717","-0.0985238585650532","0","359.9375"
"1491.2","-0.485753518709234","1.27978029522829","-0.0295228286989371","3.10504634397528","-2.09852385856505","0","359.9375"
"1496","0.514246481290766","-0.720219704771713","-2.02952282869894","3.10504634397528","-2.09852385856505","0","359.9375"
"1504.9","0.514246481290766","-0.720219704771713","-2.02952282869894","1.10504634397528","1.90147614143495","0","359.9375"
"1509.8","1.51424648129077","-0.720219704771713","-1.02952282869894","1.10504634397528","1.90147614143495","0","359.9375"
"1514.7","1.51424648129077","-0.720219704771713","-1.02952282869894","1.10504634397528","-4.09852385856505","0","359.9375"
"1519.6","0.514246481290766","1.27978029522829","-2.02952282869894","1.10504634397528","-4.09852385856505","0","359.9375"
"1524.5","0.514246481290766","1.27978029522829","-2.02952282869894","-3.89495365602472","-0.0985238585650532","0","359.9375"
"1529.4","-1.48575351870923","-0.720219704771713","-0.0295228286989371","-3.89495365602472","-0.0985238585650532","0","359.9375"
"1534.3","-1.48575351870923","-0.720219704771713","-0.0295228286989371","1.10504634397528","0.901476141434947","0","359.9375"
"1539.2","-0.485753518709234","0.279780295228287","1.97047717130106","1.10504634397528","0.901476141434947","0","359.9375"
"1544.1","-0.485753518709234","0.279780295228287","1.97047717130106","1.10504634397528","-0.0985238585650532","0","359.9375"
"1549","0.514246481290766","0.279780295228287","0.970477171301063","1.10504634397528","-0.0985238585650532","0","359.9375"
"1553.9","0.514246481290766","0.279780295228287","0.970477171301063","1.10504634397528","0.901476141434947","0","359.9375"
"1558.8","-1.48575351870923","0.279780295228287","0.970477171301063","1.10504634397528","0.901476141434947","0","359.9375"
"1563.7","-1.48575351870923","0.279780295228287","0.970477171301063","-0.894953656024717","-1.09852385856505","0","359.9375"
"1568.6","0.514246481290766","0.279780295228287","0.970477171301063","-0.894953656024717","-1.09852385856505","0","359.9375"
"1573.5","0.514246481290766","0.279780295228287","0.970477171301063","3.10504634397528","-0.0985238585650532","0","359.9375"
"1578.4","-0.485753518709234","0.279780295228287","-2.02952282869894","3.10504634397528","-0.0985238585650532","0","359.9375"
"1583.3","-0.485753518709234","0.279780295228287","-2.02952282869894","-2.89495365602472","-1.09852385856505","0","359.9375"
"1588.2","-0.485753518709234","0.279780295228287","0.970477171301063","-2.89495365602472","-1.09852385856505","0","359.9375"
"1593.1","-0.485753518709234","0.279780295228287","0.970477171301063","-0.894953656024717","-1.09852385856505","0","359.9375"
"1598","-1.48575351870923","0.279780295228287","-0.0295228286989371","-0.894953656024717","-1.09852385856505","0","359.9375"
"1604.85","-1.48575351870923","0.279780295228287","-0.0295228286989371","0.105046343975283","-0.0985238585650532","0","359.9375"
"1609.7","-2.48575351870923","0.279780295228287","-1.02952282869894","0.105046343975283","-0.0985238585650532","0","359.9375"
"1614.55","-2.48575351870923","0.279780295228287","-1.02952282869894","-1.89495365602472","-0.0985238585650532","0","359.9375"
"1619.4","0.514246481290766","0.279780295228287","-1.02952282869894","-1.89495365602472","-0.0985238585650532","0","359.9375"
"1624.25","0.514246481290766","0.279780295228287","-1.02952282869894","2.10504634397528","-0.0985238585650532","0","359.9375"
"1629.1","-1.48575351870923","0.279780295228287","-0.0295228286989371","2.10504634397528","-0.0985238585650532","0","359.9375"
"1633.95","-1.48575351870923","0.279780295228287","-0.0295228286989371","0.105046343975283","-1.09852385856505","0","359.9375"
"1638.8","-1.48575351870923","0.279780295228287","1.97047717130106","0.105046343975283","-1.09852385856505","0","359.9375"
"1643.65","-1.48575351870923","0.279780295228287","1.97047717130106","1.10504634397528","-2.09852385856505","0","359.9375"
"1648.5","0.514246481290766","0.279780295228287","-1.02952282869894","1.10504634397528","-2.09852385856505","0","359.9375"
"1653.35","0.514246481290766","0.279780295228287","-1.02952282869894","2.10504634397528","-2.09852385856505","0","359.9375"
"1658.2","0.514246481290766","-0.720219704771713","-3.02952282869894","2.10504634397528","-2.09852385856505","0","359.9375"
"1663.05","0.514246481290766","-0.720219704771713","-3.02952282869894","0.105046343975283","1.90147614143495","0","359.9375"
"1667.9","0.514246481290766","-0.720219704771713","1.97047717130106","0.105046343975283","1.90147614143495","0","359.9375"
"1672.75","0.514246481290766","-0.720219704771713","1.97047717130106","1.10504634397528","1.90147614143495","0","359.9375"
"1677.6","-0.485753518709234","0.279780295228287","-0.0295228286989371","1.10504634397528","1.90147614143495","0","359.9375"
"1682.45","-0.485753518709234","0.279780295228287","-0.0295228286989371","0.105046343975283","0.901476141434947","0","359.9375"
"1687.3","-0.485753518709234","0.279780295228287","-0.0295228286989371","0.105046343975283","0.901476141434947","0","359.9375"
"1692.15","-0.485753518709234","0.279780295228287","-0.0295228286989371","-0.894953656024717","-1.09852385856505","0","359.9375"
"1697","-0.485753518709234","0.279780295228287","0.970477171301063","-0.894953656024717","-1.09852385856505","0","359.9375"
"1704.75","-0.485753518709234","0.279780295228287","0.970477171301063","0.105046343975283","-0.0985238585650532","0","359.9375"
"1709.5","0.514246481290766","0.279780295228287","-0.0295228286989371","0.105046343975283","-0.0985238585650532","0","359.9375"
"1714.25","0.514246481290766","0.279780295228287","-0.0295228286989371","1.10504634397528","0.901476141434947","0","359.9375"
"1719","0.514246481290766","0.279780295228287","-0.0295228286989371","1.10504634397528","0.901476141434947","0","359.9375"
"1723.75","0.514246481290766","0.279780295228287","-0.0295228286989371","-2.89495365602472","-0.0985238585650532","0","359.9375"
"1728.5","0.514246481290766","1.27978029522829","1.97047717130106","-2.89495365602472","-0.0985238585650532","0","359.9375"
"1733.25","0.514246481290766","1.27978029522829","1.97047717130106","1.10504634397528","-0.0985238585650532","0","359.9375"
"1738","1.51424648129077","-0.720219704771713","0.970477171301063","1.10504634397528","-0.0985238585650532","0","359.9375"
"1742.75","1.51424648129077","-0.720219704771713","0.970477171301063","1.10504634397528","-0.0985238585650532","0","359.9375"
"1747.5","0.514246481290766","0.279780295228287","-1.02952282869894","1.10504634397528","-0.0985238585650532","0","359.9375"
"1752.25","0.514246481290766","0.279780295228287","-1.02952282869894","1.10504634397528","0.901476141434947","0","359.9375"
"1757","-0.485753518709234","0.279780295228287","-2.02952282869894","1.10504634397528","0.901476141434947","0","359.9375"
"1761.75","-0.485753518709234","0.279780295228287","-2.02952282869894","3.10504634397528","-0.0985238585650532","0","359.9375"
"1766.5","1.51424648129077","0.279780295228287","-0.0295228286989371","3.10504634397528","-0.0985238585650532","0","359.9375"
"1771.25","1.51424648129077","0.279780295228287","-0.0295228286989371","1.10504634397528","-0.0985238585650532","0","359.9375"
"1776","0.514246481290766","-1.72021970477171","1.97047717130106","1.10504634397528","-0.0985238585650532","0","359.9375"
"1780.75","0.514246481290766","-1.72021970477171","1.97047717130106","0.105046343975283","-3.09852385856505","0","359.9375"
"1785.5","-1.48575351870923","-0.720219704771713","0.970477171301063","0.105046343975283","-3.09852385856505","0","359.9375"
"1790.25","-1.48575351870923","-0.720219704771713","0.970477171301063","2.10504634397528","-1.09852385856505","0","359.9375"
"1795","-0.485753518709234","0.279780295228287","-0.0295228286989371","2.10504634397528","-1.09852385856505","0","359.9375"
"1804.9","-0.485753518709234","0.279780295228287","-0.0295228286989371","1.10504634397528","-2.09852385856505","0","359.9375"
"1809.8","-0.485753518709234","0.279780295228287","-2.02952282869894","1.10504634397528","-2.09852385856505","0","359.9375"
"1814.7","-0.485753518709234","0.279780295228287","-2.02952282869894","3.10504634397528","-1.09852385856505","0","359.9375"
"1819.6","-0.485753518709234","0.279780295228287","0.970477171301063","3.10504634397528","-1.09852385856505","0","359.9375"
"1824.5","-0.485753518709234","0.279780295228287","0.970477171301063","2.10504634397528","0.901476141434947","0","359.9375"
"1829.4","0.514246481290766","0.279780295228287","1.97047717130106","2.10504634397528","0.901476141434947","0","359.9375"
"1834.3","0.514246481290766","0.279780295228287","1.97047717130106","-0.894953656024717","-1.09852385856505","0","359.9375"
"1839.2","-1.48575351870923","-0.720219704771713","-0.0295228286989371","-0.894953656024717","-1.09852385856505","0","359.9375"
"1844.1","-1.48575351870923","-0.720219704771713","-0.0295228286989371","0.105046343975283","-2.09852385856505","0","359.9375"
"1849","0.514246481290766","0.279780295228287","-0.0295228286989371","0.105046343975283","-2.09852385856505","0","359.9375"
"1853.9","0.514246481290766","0.279780295228287","-0.0295228286989371","-3.89495365602472","2.90147614143495","0","359.9375"
"1858.8","0.514246481290766","0.279780295228287","-1.02952282869894","-3.89495365602472","2.90147614143495","0","359.9375"
"1863.7","0.514246481290766","0.279780295228287","-1.02952282869894","-2.89495365602472","3.90147614143495","0","359.9375"
"1868.6","0.514246481290766","0.279780295228287","-1.02952282869894","-2.89495365602472","3.90147614143495","0","359.9375"
"1873.5","0.514246481290766","0.279780295228287","-1.02952282869894","0.105046343975283","-0.0985238585650532","0","359.9375"
"1878.4","-0.485753518709234","1.27978029522829","0.970477171301063","0.105046343975283","-0.0985238585650532","0","359.9375"
"1883.3","-0.485753518709234","1.27978029522829","0.970477171301063","0.105046343975283","0.901476141434947","0","359.9375"
"1888.2","0.514246481290766","0.279780295228287","0.970477171301063","0.105046343975283","0.901476141434947","0","359.9375"
"1893.1","0.514246481290766","0.279780295228287","0.970477171301063","-0.894953656024717","1.90147614143495","0","359.9375"
"1898","0.514246481290766","0.279780295228287","0.970477171301063","-0.894953656024717","1.90147614143495","0","359.9375"
"1904.8","0.514246481290766","0.279780295228287","0.970477171301063","0.105046343975283","0.901476141434947","0","359.9375"
"1909.6","0.514246481290766","1.27978029522829","-3.02952282869894","0.105046343975283","0.901476141434947","0","359.9375"
"1914.4","0.514246481290766","1.27978029522829","-3.02952282869894","1.10504634397528","-0.0985238585650532","0","359.9375"
"1919.2","0.514246481290766","0.279780295228287","0.970477171301063","1.10504634397528","-0.0985238585650532","0","359.9375"
"1924","0.514246481290766","0.279780295228287","0.970477171301063","-0.894953656024717","-0.0985238585650532","0","359.9375"
"1928.8","0.514246481290766","0.279780295228287","0.970477171301063","-0.894953656024717","-0.0985238585650532","0","359.9375"
"1933.6","0.514246481290766","0.279780295228287","0.970477171301063","-2.89495365602472","-0.0985238585650532","0","359.9375"
"1938.4","0.514246481290766","1.27978029522829","2.97047717130106","-2.89495365602472","-0.0985238585650532","0","359.9375"
"1943.2","0.514246481290766","1.27978029522829","2.97047717130106","-1.89495365602472","-0.0985238585650532","0","359.9375"
"1948","-0.485753518709234","0.279780295228287","0.970477171301063","-1.89495365602472","-0.0985238585650532","0","359.9375"
"1952.8","-0.485753518709234","0.279780295228287","0.970477171301063","0.105046343975283","-0.0985238585650532","0","359.9375"
"1957.6","0.514246481290766","-1.72021970477171","-2.02952282869894","0.105046343975283","-0.0985238585650532","0","359.9375"
"1962.4","0.514246481290766","-1.72021970477171","-2.02952282869894","-1.89495365602472","0.901476141434947","0","359.9375"
"1967.2","-0.485753518709234","0.279780295228287","-2.02952282869894","-1.89495365602472","0.901476141434947","0","359.9375"
"1972","-0.485753518709234","0.279780295228287","-2.02952282869894","-1.89495365602472","-1.09852385856505","0","359.9375"
"1976.8","0.514246481290766","0.279780295228287","0.970477171301063","-1.89495365602472","-1.09852385856505","0","359.9375"
"1981.6","0.514246481290766","0.279780295228287","0.970477171301063","-2.89495365602472","-1.09852385856505","0","359.9375"
"1986.4","0.514246481290766","-1.72021970477171","0.970477171301063","-2.89495365602472","-1.09852385856505","0","359.9375"
"1991.2","0.514246481290766","-1.72021970477171","0.970477171301063","0.105046343975283","-1.09852385856505","0","359.9375"
"1996","-1.48575351870923","0.279780295228287","0.970477171301063","0.105046343975283","-1.09852385856505","0","359.9375"
"2004.9","-1.48575351870923","0.279780295228287","0.970477171301063","0.105046343975283","-1.09852385856505","0","359.9375"
"2009.8","-1.48575351870923","0.279780295228287","0.970477171301063","0.105046343975283","-1.09852385856505","0","359.9375"
"2014.7","-1.48575351870923","0.279780295228287","0.970477171301063","-3.89495365602472","-0.0985238585650532","0","359.9375"
"2019.6","0.514246481290766","-0.720219704771713","-0.0295228286989371","-3.89495365602472","-0.0985238585650532","0","359.9375"
"2024.5","0.514246481290766","-0.720219704771713","-0.0295228286989371","-0.894953656024717","-1.09852385856505","0","359.9375"
"2029.4","-0.485753518709234","1.27978029522829","-2.02952282869894","-0.894953656024717","-1.09852385856505","0","359.9375"
"2034.3","-0.485753518709234","1.27978029522829","-2.02952282869894","0.105046343975283","0.901476141434947","0","359.9375"
"2039.2","-0.485753518709234","0.279780295228287","2.97047717130106","0.105046343975283","0.901476141434947","0","359.9375"
"2044.1","-0.485753518709234","0.279780295228287","2.97047717130106","-1.89495365602472","1.90147614143495","0","359.9375"
"2049","-0.485753518709234","-0.720219704771713","-0.0295228286989371","-1.89495365602472","1.90147614143495","0","359.9375"
"2053.9","-0.485753518709234","-0.720219704771713","-0.0295228286989371","1.10504634397528","-1.09852385856505","0","359.9375"
"2058.8","0.514246481290766","-0.720219704771713","-4.02952282869894","1.10504634397528","-1.09852385856505","0","359.9375"
"2063.7","0.514246481290766","-0.720219704771713","-4.02952282869894","1.10504634397528","-0.0985238585650532","0","359.9375"
"2068.6","-0.485753518709234","0.279780295228287","-0.0295228286989371","1.10504634397528","-0.0985238585650532","0","359.9375"
"2073.5","-0.485753518709234","0.279780295228287","-0.0295228286989371","1.10504634397528","-2.09852385856505","0","359.9375"
"2078.4","0.514246481290766","-1.72021970477171","-0.0295228286989371","1.10504634397528","-2.09852385856505","0","359.9375"
"2083.3","0.514246481290766","-1.72021970477171","-0.0295228286989371","0.105046343975283","0.901476141434947","0","359.9375"
"2088.2","0.514246481290766","0.279780295228287","0.970477171301063","0.105046343975283","0.901476141434947","0","359.9375"
"2093.1","0.514246481290766","0.279780295228287","0.970477171301063","1.10504634397528","-1.09852385856505","0","359.9375"
"2098","-2.48575351870923","0.279780295228287","1.97047717130106","1.10504634397528","-1.09852385856505","0","359.9375"
"2104.8","-2.48575351870923","0.279780295228287","1.97047717130106","-2.89495365602472","1.90147614143495","0","359.9375"
"2109.6","0.514246481290766","-1.72021970477171","-1.02952282869894","-2.89495365602472","1.90147614143495","0","359.9375"
"2114.4","0.514246481290766","-1.72021970477171","-1.02952282869894","-0.894953656024717","-1.09852385856505","0","359.9375"
"2119.2","0.514246481290766","0.279780295228287","0.970477171301063","-0.894953656024717","-1.09852385856505","0","359.9375"
"2124","0.514246481290766","0.279780295228287","0.970477171301063","2.10504634397528","-1.09852385856505","0","359.9375"
"2128.8","-0.485753518709234","0.279780295228287","1.97047717130106","2.10504634397528","-1.09852385856505","0","359.9375"
"2133.6","-0.485753518709234","0.279780295228287","1.97047717130106","-1.89495365602472","2.90147614143495","0","359.9375"
"2138.4","-0.485753518709234","0.279780295228287","0.970477171301063","-1.89495365602472","2.90147614143495","0","359.9375"
"2143.2","-0.485753518709234","0.279780295228287","0.970477171301063","3.10504634397528","0.901476141434947","0","359.9375"
"2148","-0.485753518709234","-0.720219704771713","1.97047717130106","3.10504634397528","0.901476141434947","0","359.9375"
"2152.8","-0.485753518709234","-0.720219704771713","1.97047717130106","1.10504634397528","-1.09852385856505","0","359.9375"
"2157.6","-1.48575351870923","0.279780295228287","-3.02952282869894","1.10504634397528","-1.09852385856505","0","359.9375"
"2162.4","-1.48575351870923","0.279780295228287","-3.02952282869894","-2.89495365602472","-1.09852385856505","0","359.9375"
"2167.2","0.514246481290766","0.279780295228287","0.970477171301063","-2.89495365602472","-1.09852385856505","0","359.9375"
"2172","0.514246481290766","0.279780295228287","0.970477171301063","-2.89495365602472","0.901476141434947","0","359.9375"
"2176.8","0.514246481290766","0.279780295228287","0.970477171301063","-2.89495365602472","0.901476141434947","0","359.9375"
"2181.6","0.514246481290766","0.279780295228287","0.970477171301063","2.10504634397528","-2.09852385856505","0","359.9375"
"2186.4","0.514246481290766","1.27978029522829","0.970477171301063","2.10504634397528","-2.09852385856505","0","359.9375"
"2191.2","0.514246481290766","1.27978029522829","0.970477171301063","-0.894953656024717","0.901476141434947","0","359.9375"
"2196","-0.485753518709234","0.279780295228287","1.97047717130106","-0.894953656024717","0.901476141434947","0","359.9375"
"2204.95","-0.485753518709234","0.279780295228287","1.97047717130106","-0.894953656024717","0.901476141434947","0","359.9375"
"2209.9","0.514246481290766","-0.720219704771713","0.970477171301063","-0.894953656024717","0.901476141434947","0","359.9375"
"2214.85","0.514246481290766","-0.720219704771713","0.970477171301063","0.105046343975283","1.90147614143495","0","359.9375"
"2219.8","0.514246481290766","0.279780295228287","0.970477171301063","0.105046343975283","1.90147614143495","0","359.9375"
"2224.75","0.514246481290766","0.279780295228287","0.970477171301063","0.105046343975283","0.901476141434947","0","359.9375"
"2229.7","0.514246481290766","1.27978029522829","-1.02952282869894","0.105046343975283","0.901476141434947","0","359.9375"
"2234.65","0.514246481290766","1.27978029522829","-1.02952282869894","-2.89495365602472","-4.09852385856505","0","359.9375"
"2239.6","-0.485753518709234","0.279780295228287","-0.0295228286989371","-2.89495365602472","-4.09852385856505","0","359.9375"
"2244.55","-0.485753518709234","0.279780295228287","-0.0295228286989371","-1.89495365602472","0.901476141434947","0","359.9375"
"2249.5","0.514246481290766","1.27978029522829","-2.02952282869894","-1.89495365602472","0.901476141434947","0","359.9375"
"2254.45","0.514246481290766","1.27978029522829","-2.02952282869894","-0.894953656024717","-2.09852385856505","0","359.9375"
"2259.4","-0.485753518709234","0.279780295228287","-2.02952282869894","-0.894953656024717","-2.09852385856505","0","359.9375"
"2264.35","-0.485753518709234","0.279780295228287","-2.02952282869894","-2.89495365602472","0.901476141434947","0","359.9375"
"2269.3","0.514246481290766","-0.720219704771713","-1.02952282869894","-2.89495365602472","0.901476141434947","0","359.9375"
"2274.25","0.514246481290766","-0.720219704771713","-1.02952282869894","0.105046343975283","-0.0985238585650532","0","359.9375"
"2279.2","-2.48575351870923","1.27978029522829","-1.02952282869894","0.105046343975283","-0.0985238585650532","0","359.9375"
"2284.15","-2.48575351870923","1.27978029522829","-1.02952282869894","-0.894953656024717","0.901476141434947","0","359.9375"
"2289.1","0.514246481290766","0.279780295228287","-1.02952282869894","-0.894953656024717","0.901476141434947","0","359.9375"
"2294.05","0.514246481290766","0.279780295228287","-1.02952282869894","-1.89495365602472","0.901476141434947","0","359.9375"
"2299","-0.485753518709234","-0.720219704771713","-0.0295228286989371","-1.89495365602472","0.901476141434947","0","359.9375"
"2304.85","-0.485753518709234","-0.720219704771713","-0.0295228286989371","1.10504634397528","-1.09852385856505","0","359.9375"
"2309.7","0.514246481290766","0.279780295228287","-1.02952282869894","1.10504634397528","-1.09852385856505","0","359.9375"
"2314.55","0.514246481290766","0.279780295228287","-1.02952282869894","2.10504634397528","-0.0985238585650532","0","359.9375"
"2319.4","0.514246481290766","0.279780295228287","-2.02952282869894","2.10504634397528","-0.0985238585650532","0","359.9375"
"2324.25","0.514246481290766","0.279780295228287","-2.02952282869894","0.105046343975283","0.901476141434947","0","359.9375"
"2329.1","0.514246481290766","0.279780295228287","-0.0295228286989371","0.105046343975283","0.901476141434947","0","359.9375"
"2333.95","0.514246481290766","0.279780295228287","-0.0295228286989371","-0.894953656024717","0.901476141434947","0","359.9375"
"2338.8","0.514246481290766","0.279780295228287","-0.0295228286989371","-0.894953656024717","0.901476141434947","0","359.9375"
"2343.65","0.514246481290766","0.279780295228287","-0.0295228286989371","-1.89495365602472","-2.09852385856505","0","359.9375"
"2348.5","-0.485753518709234","0.279780295228287","0.970477171301063","-1.89495365602472","-2.09852385856505","0","359.9375"
"2353.35","-0.485753518709234","0.279780295228287","0.970477171301063","-0.894953656024717","-2.09852385856505","0","359.9375"
"2358.2","-0.485753518709234","0.279780295228287","-4.02952282869894","-0.894953656024717","-2.09852385856505","0","359.9375"
"2363.05","-0.485753518709234","0.279780295228287","-4.02952282869894","-3.89495365602472","1.90147614143495","0","359.9375"
"2367.9","0.514246481290766","0.279780295228287","-0.0295228286989371","-3.89495365602472","1.90147614143495","0","359.9375"
"2372.75","0.514246481290766","0.279780295228287","-0.0295228286989371","0.105046343975283","0.901476141434947","0","359.9375"
"2377.6","0.514246481290766","0.279780295228287","0.970477171301063","0.105046343975283","0.901476141434947","0","359.9375"
"2382.45","0.514246481290766","0.279780295228287","0.970477171301063","-0.894953656024717","0.901476141434947","0","359.9375"
"2387.3","-0.485753518709234","0.279780295228287","-1.02952282869894","-0.894953656024717","0.901476141434947","0","359.9375"
"2392.15","-0.485753518709234","0.279780295228287","-1.02952282869894","2.10504634397528","-0.0985238585650532","0","359.9375"
"2397","-0.485753518709234","-1.72021970477171","1.97047717130106","2.10504634397528","-0.0985238585650532","0","359.9375"
"2405.15789","-0.485753518709234","-1.72021970477171","1.97047717130106","2.10504634397528","-0.0985238585650532","0","359.9375"
"2410.31579","0.514246481290766","0.279780295228287","-2.02952282869894","2.10504634397528","-0.0985238585650532","0","359.9375"
"2415.47368","0.514246481290766","0.279780295228287","-2.02952282869894","2.10504634397528","0.901476141434947","0","359.9375"
"2420.63158","0.514246481290766","1.27978029522829","0.970477171301063","2.10504634397528","0.901476141434947","0","359.9375"
"2425.78947","0.514246481290766","1.27978029522829","0.970477171301063","0.105046343975283","0.901476141434947","0","359.9375"
"2430.94737","-0.485753518709234","-1.72021970477171","-1.02952282869894","0.105046343975283","0.901476141434947","0","359.9375"
"2436.10526","-0.485753518709234","-1.72021970477171","-1.02952282869894","0.105046343975283","-0.0985238585650532","0","359.9375"
"2441.26316","0.514246481290766","0.279780295228287","1.97047717130106","0.105046343975283","-0.0985238585650532","0","359.9375"
"2446.42105","0.514246481290766","0.279780295228287","1.97047717130106","-1.89495365602472","-0.0985238585650532","0","359.9375"
"2451.57895","1.51424648129077","-0.720219704771713","-1.02952282869894","-1.89495365602472","-0.0985238585650532","0","359.9375"
"2456.73684","1.51424648129077","-0.720219704771713","-1.02952282869894","0.105046343975283","0.901476141434947","0","359.9375"
"2461.89474","-2.48575351870923","0.279780295228287","-1.02952282869894","0.105046343975283","0.901476141434947","0","359.9375"
"2467.05263","-2.48575351870923","0.279780295228287","-1.02952282869894","2.10504634397528","-0.0985238585650532","0","359.9375"
"2472.21053","-0.485753518709234","0.279780295228287","1.97047717130106","2.10504634397528","-0.0985238585650532","0","359.9375"
"2477.36842","-0.485753518709234","0.279780295228287","1.97047717130106","4.10504634397528","0.901476141434947","0","359.9375"
"2482.52632","0.514246481290766","0.279780295228287","1.97047717130106","4.10504634397528","0.901476141434947","0","359.9375"
"2487.68421","0.514246481290766","0.279780295228287","1.97047717130106","2.10504634397528","1.90147614143495","0","359.9375"
"2492.84211","0.514246481290766","-0.720219704771713","-0.0295228286989371","2.10504634397528","1.90147614143495","0","359.9375"
"2498","0.514246481290766","-0.720219704771713","-0.0295228286989371","0.105046343975283","1.90147614143495","0","359.9375"
"2500","-0.485753518709234","-0.720219704771713","-3.02952282869894","0.105046343975283","1.90147614143495","0","359.9375"
"2504.9","-0.485753518709234","-0.720219704771713","-3.02952282869894","-0.894953656024717","1.90147614143495","0","359.9375"
"2509.8","1.51424648129077","-1.72021970477171","-1.02952282869894","-0.894953656024717","1.90147614143495","0","359.9375"
"2514.7","1.51424648129077","-1.72021970477171","-1.02952282869894","2.10504634397528","0.901476141434947","0","359.9375"
"2519.6","-1.48575351870923","0.279780295228287","-1.02952282869894","2.10504634397528","0.901476141434947","0","359.9375"
"2524.5","-1.48575351870923","0.279780295228287","-1.02952282869894","3.10504634397528","-1.09852385856505","0","359.9375"
"2529.4","-0.485753518709234","0.279780295228287","0.970477171301063","3.10504634397528","-1.09852385856505","0","359.9375"
"2534.3","-0.485753518709234","0.279780295228287","0.970477171301063","3.10504634397528","1.90147614143495","0","359.9375"
"2539.2","0.514246481290766","0.279780295228287","-0.0295228286989371","3.10504634397528","1.90147614143495","0","359.9375"
"2544.1","0.514246481290766","0.279780295228287","-0.0295228286989371","0.105046343975283","0.901476141434947","0","359.9375"
"2549","1.51424648129077","0.279780295228287","-1.02952282869894","0.105046343975283","0.901476141434947","0","359.9375"
"2553.9","1.51424648129077","0.279780295228287","-1.02952282869894","-0.894953656024717","-0.0985238585650532","0","359.9375"
"2558.8","0.514246481290766","0.279780295228287","-1.02952282869894","-0.894953656024717","-0.0985238585650532","0","359.9375"
"2563.7","0.514246481290766","0.279780295228287","-1.02952282869894","1.10504634397528","-0.0985238585650532","0","359.9375"
"2568.6","0.514246481290766","0.279780295228287","0.970477171301063","1.10504634397528","-0.0985238585650532","0","359.9375"
"2573.5","0.514246481290766","0.279780295228287","0.970477171301063","1.10504634397528","-1.09852385856505","0","359.9375"
"2578.4","0.514246481290766","0.279780295228287","0.970477171301063","1.10504634397528","-1.09852385856505","0","359.9375"
"2583.3","0.514246481290766","0.279780295228287","0.970477171301063","1.10504634397528","-0.0985238585650532","0","359.9375"
"2588.2","0.514246481290766","0.279780295228287","-1.02952282869894","1.10504634397528","-0.0985238585650532","0","359.9375"
"2593.1","0.514246481290766","0.279780295228287","-1.02952282869894","4.10504634397528","-0.0985238585650532","0","359.9375"
"2598","-2.48575351870923","0.279780295228287","2.97047717130106","4.10504634397528","-0.0985238585650532","0","359.9375"
"2605.15789","-2.48575351870923","0.279780295228287","2.97047717130106","0.105046343975283","-0.0985238585650532","0","359.9375"
"2610.31579","0.514246481290766","-0.720219704771713","-0.0295228286989371","0.105046343975283","-0.0985238585650532","0","359.9375"
"2615.47368","0.514246481290766","-0.720219704771713","-0.0295228286989371","-0.894953656024717","-0.0985238585650532","0","359.9375"
"2620.63158","0.514246481290766","0.279780295228287","-0.0295228286989371","-0.894953656024717","-0.0985238585650532","0","359.9375"
"2625.78947","0.514246481290766","0.279780295228287","-0.0295228286989371","-0.894953656024717","-2.09852385856505","0","359.9375"
"2630.94737","-2.48575351870923","0.279780295228287","-0.0295228286989371","-0.894953656024717","-2.09852385856505","0","359.9375"
"2636.10526","-2.48575351870923","0.279780295228287","-0.0295228286989371","-1.89495365602472","-1.09852385856505","0","359.9375"
"2641.26316","-0.485753518709234","0.279780295228287","1.97047717130106","-1.89495365602472","-1.09852385856505","0","359.9375"
"2646.42105","-0.485753518709234","0.279780295228287","1.97047717130106","1.10504634397528","1.90147614143495","0","359.9375"
"2651.57895","0.514246481290766","0.279780295228287","0.970477171301063","1.10504634397528","1.90147614143495","0","359.9375"
"2656.73684","0.514246481290766","0.279780295228287","0.970477171301063","0.105046343975283","-0.0985238585650532","0","359.9375"
"2661.89474","0.514246481290766","0.279780295228287","0.970477171301063","0.105046343975283","-0.0985238585650532","0","359.9375"
"2667.05263","0.514246481290766","0.279780295228287","0.970477171301063","-2.89495365602472","-0.0985238585650532","0","359.9375"
"2672.21053","-0.485753518709234","0.279780295228287","-0.0295228286989371","-2.89495365602472","-0.0985238585650532","0","359.9375"
"2677.36842","-0.485753518709234","0.279780295228287","-0.0295228286989371","-0.894953656024717","-1.09852385856505","0","359.9375"
"2682.52632","0.514246481290766","0.279780295228287","0.970477171301063","-0.894953656024717","-1.09852385856505","0","359.9375"
"2687.68421","0.514246481290766","0.279780295228287","0.970477171301063","1.10504634397528","-0.0985238585650532","0","359.9375"
"2692.84211","0.514246481290766","-0.720219704771713","0.970477171301063","1.10504634397528","-0.0985238585650532","0","359.9375"
"2698","0.514246481290766","-0.720219704771713","0.970477171301063","-2.89495365602472","0.901476141434947","0","359.9375"
"2704.71429","-0.485753518709234","0.279780295228287","-0.0295228286989371","-2.89495365602472","0.901476141434947","0","359.9375"
"2709.42857","-0.485753518709234","0.279780295228287","-0.0295228286989371","-0.894953656024717","-0.0985238585650532","0","359.9375"
"2714.14286","-0.485753518709234","0.279780295228287","-1.02952282869894","-0.894953656024717","-0.0985238585650532","0","359.9375"
"2718.85714","-0.485753518709234","0.279780295228287","-1.02952282869894","4.10504634397528","0.901476141434947","0","359.9375"
"2723.57143","-0.485753518709234","-0.720219704771713","-2.02952282869894","4.10504634397528","0.901476141434947","0","359.9375"
"2728.28571","-0.485753518709234","-0.720219704771713","-2.02952282869894","2.10504634397528","-0.0985238585650532","0","359.9375"
"2733","0.514246481290766","1.27978029522829","-1.02952282869894","2.10504634397528","-0.0985238585650532","0","359.9375"
"2737.71429","0.514246481290766","1.27978029522829","-1.02952282869894","0.105046343975283","-1.09852385856505","0","359.9375"
"2742.42857","0.514246481290766","-0.720219704771713","-1.02952282869894","0.105046343975283","-1.09852385856505","0","359.9375"
"2747.14286","0.514246481290766","-0.720219704771713","-1.02952282869894","2.10504634397528","-0.0985238585650532","0","359.9375"
"2751.85714","0.514246481290766","-2.72021970477171","2.97047717130106","2.10504634397528","-0.0985238585650532","0","359.9375"
"2756.57143","0.514246481290766","-2.72021970477171","2.97047717130106","-1.89495365602472","-0.0985238585650532","0","359.9375"
"2761.28571","-3.48575351870923","0.279780295228287","-2.02952282869894","-1.89495365602472","-0.0985238585650532","0","359.9375"
"2766","-3.48575351870923","0.279780295228287","-2.02952282869894","0.105046343975283","-3.09852385856505","0","359.9375"
"2770.71429","0.514246481290766","0.279780295228287","-0.0295228286989371","0.105046343975283","-3.09852385856505","0","359.9375"
"2775.42857","0.514246481290766","0.279780295228287","-0.0295228286989371","3.10504634397528","-0.0985238585650532","0","359.9375"
"2780.14286","0.514246481290766","2.27978029522829","1.97047717130106","3.10504634397528","-0.0985238585650532","0","359.9375"
"2784.85714","0.514246481290766","2.27978029522829","1.97047717130106","2.10504634397528","0.901476141434947","0","359.9375"
"2789.57143","0.514246481290766","0.279780295228287","0.970477171301063","2.10504634397528","0.901476141434947","0","359.9375"
"2794.28571","0.514246481290766","0.279780295228287","0.970477171301063","2.10504634397528","-0.0985238585650532","0","359.9375"
"2799","-1.48575351870923","0.279780295228287","-1.02952282869894","2.10504634397528","-0.0985238585650532","0","359.9375"
"2805.21053","-1.48575351870923","0.279780295228287","-1.02952282869894","2.10504634397528","-1.09852385856505","0","359.9375"
"2810.42105","-0.485753518709234","0.279780295228287","-2.02952282869894","2.10504634397528","-1.09852385856505","0","359.9375"
"2815.63158","-0.485753518709234","0.279780295228287","-2.02952282869894","2.10504634397528","0.901476141434947","0","359.9375"
"2820.84211","0.514246481290766","1.27978029522829","-0.0295228286989371","2.10504634397528","0.901476141434947","0","359.9375"
"2826.05263","0.514246481290766","1.27978029522829","-0.0295228286989371","-0.894953656024717","0.901476141434947","0","359.9375"
"2831.26316","0.514246481290766","-0.720219704771713","0.970477171301063","-0.894953656024717","0.901476141434947","0","359.9375"
"2836.47368","0.514246481290766","-0.720219704771713","0.970477171301063","2.10504634397528","-2.09852385856505","0","359.9375"
"2841.68421","0.514246481290766","-0.720219704771713","0.970477171301063","2.10504634397528","-2.09852385856505","0","359.9375"
"2846.89474","0.514246481290766","-0.720219704771713","0.970477171301063","2.10504634397528","-2.09852385856505","0","359.9375"
"2852.10526","0.514246481290766","1.27978029522829","-0.0295228286989371","2.10504634397528","-2.09852385856505","0","359.9375"
"2857.31579","0.514246481290766","1.27978029522829","-0.0295228286989371","0.105046343975283","-0.0985238585650532","0","359.9375"
"2862.52632","-0.485753518709234","0.279780295228287","0.970477171301063","0.105046343975283","-0.0985238585650532","0","359.9375"
"2867.73684","-0.485753518709234","0.279780295228287","0.970477171301063","3.10504634397528","-0.0985238585650532","0","359.9375"
"2872.94737","0.514246481290766","0.279780295228287","-2.02952282869894","3.10504634397528","-0.0985238585650532","0","359.9375"
"2878.15789","0.514246481290766","0.279780295228287","-2.02952282869894","0.105046343975283","-2.09852385856505","0","359.9375"
"2883.36842","0.514246481290766","0.279780295228287","0.970477171301063","0.105046343975283","-2.09852385856505","0","359.9375"
"2888.57895","0.514246481290766","0.279780295228287","0.970477171301063","2.10504634397528","-0.0985238585650532","0","359.9375"
"2893.78947","0.514246481290766","0.279780295228287","-1.02952282869894","2.10504634397528","-0.0985238585650532","0","359.9375"
"2899","0.514246481290766","0.279780295228287","-1.02952282869894","2.10504634397528","1.90147614143495","0","359.9375"
"2904.85","0.514246481290766","-0.720219704771713","-1.02952282869894","2.10504634397528","1.90147614143495","0","359.9375"
"2909.7","0.514246481290766","-0.720219704771713","-1.02952282869894","0.105046343975283","0.901476141434947","0","359.9375"
"2914.55","0.514246481290766","0.279780295228287","-1.02952282869894","0.105046343975283","0.901476141434947","0","359.9375"
"2919.4","0.514246481290766","0.279780295228287","-1.02952282869894","2.10504634397528","1.90147614143495","0","359.9375"
"2924.25","-1.48575351870923","0.279780295228287","-4.02952282869894","2.10504634397528","1.90147614143495","0","359.9375"
"2929.1","-1.48575351870923","0.279780295228287","-4.02952282869894","1.10504634397528","-0.0985238585650532","0","359.9375"
"2933.95","-0.485753518709234","-1.72021970477171","0.970477171301063","1.10504634397528","-0.0985238585650532","0","359.9375"
"2938.8","-0.485753518709234","-1.72021970477171","0.970477171301063","-1.89495365602472","0.901476141434947","0","359.9375"
"2943.65","-0.485753518709234","0.279780295228287","1.97047717130106","-1.89495365602472","0.901476141434947","0","359.9375"
"2948.5","-0.485753518709234","0.279780295228287","1.97047717130106","-1.89495365602472","0.901476141434947","0","359.9375"
"2953.35","0.514246481290766","0.279780295228287","1.97047717130106","-1.89495365602472","0.901476141434947","0","359.9375"
"2958.2","0.514246481290766","0.279780295228287","1.97047717130106","-0.894953656024717","0.901476141434947","0","359.9375"
"2963.05","0.514246481290766","-1.72021970477171","-0.0295228286989371","-0.894953656024717","0.901476141434947","0","359.9375"
"2967.9","0.514246481290766","-1.72021970477171","-0.0295228286989371","1.10504634397528","0.901476141434947","0","359.9375"
"2972.75","1.51424648129077","0.279780295228287","0.970477171301063","1.10504634397528","0.901476141434947","0","359.9375"
"2977.6","1.51424648129077","0.279780295228287","0.970477171301063","2.10504634397528","-2.09852385856505","0","359.9375"
"2982.45","0.514246481290766","-0.720219704771713","0.970477171301063","2.10504634397528","-2.09852385856505","0","359.9375"
"2987.3","0.514246481290766","-0.720219704771713","0.970477171301063","-0.894953656024717","-1.09852385856505","0","359.9375"
"2992.15","0.514246481290766","-0.720219704771713","-0.0295228286989371","-0.894953656024717","-1.09852385856505","0","359.9375"
"2997","0.514246481290766","-0.720219704771713","-0.0295228286989371","-0.894953656024717","-1.09852385856505","0","359.9375"
"3000","-0.485753518709234","0.279780295228287","-1.02952282869894","-0.894953656024717","-1.09852385856505","0","359.9375"
"3005.05263","-0.485753518709234","0.279780295228287","-1.02952282869894","-0.894953656024717","2.90147614143495","0","359.9375"
"3010.10526","0.514246481290766","1.27978029522829","-3.02952282869894","-0.894953656024717","2.90147614143495","0","359.9375"
"3015.15789","0.514246481290766","1.27978029522829","-3.02952282869894","0.105046343975283","0.901476141434947","0","359.9375"
"3020.21053","-0.485753518709234","-0.720219704771713","1.97047717130106","0.105046343975283","0.901476141434947","0","359.9375"
"3025.26316","-0.485753518709234","-0.720219704771713","1.97047717130106","0.105046343975283","1.90147614143495","0","359.9375"
"3030.31579","-0.485753518709234","0.279780295228287","0.970477171301063","0.105046343975283","1.90147614143495","0","359.9375"
"3035.36842","-0.485753518709234","0.279780295228287","0.970477171301063","0.105046343975283","2.90147614143495","0","359.9375"
"3040.42105","-0.485753518709234","0.279780295228287","0.970477171301063","0.105046343975283","2.90147614143495","0","359.9375"
"3045.47368","-0.485753518709234","0.279780295228287","0.970477171301063","0.105046343975283","2.90147614143495","0","359.9375"
"3050.52632","0.514246481290766","-0.720219704771713","0.970477171301063","0.105046343975283","2.90147614143495","0","359.9375"
"3055.57895","0.514246481290766","-0.720219704771713","0.970477171301063","1.10504634397528","0.901476141434947","0","359.9375"
"3060.63158","-0.485753518709234","0.279780295228287","-0.0295228286989371","1.10504634397528","0.901476141434947","0","359.9375"
"3065.68421","-0.485753518709234","0.279780295228287","-0.0295228286989371","0.105046343975283","1.90147614143495","0","359.9375"
"3070.73684","-0.485753518709234","0.279780295228287","-3.02952282869894","0.105046343975283","1.90147614143495","0","359.9375"
"3075.78947","-0.485753518709234","0.279780295228287","-3.02952282869894","2.10504634397528","-2.09852385856505","0","359.9375"
"3080.84211","1.51424648129077","-0.720219704771713","-1.02952282869894","2.10504634397528","-2.09852385856505","0","359.9375"
"3085.89474","1.51424648129077","-0.720219704771713","-1.02952282869894","-1.89495365602472","-1.09852385856505","0","359.9375"
"3090.94737","0.514246481290766","1.27978029522829","-0.0295228286989371","-1.89495365602472","-1.09852385856505","0","359.9375"
"3096","0.514246481290766","1.27978029522829","-0.0295228286989371","-1.89495365602472","-1.09852385856505","0","359.9375"
"3104.9","-0.485753518709234","0.279780295228287","0.970477171301063","-1.89495365602472","-1.09852385856505","0","359.9375"
"3109.8","-0.485753518709234","0.279780295228287","0.970477171301063","3.10504634397528","-0.0985238585650532","0","359.9375"
"3114.7","0.514246481290766","-0.720219704771713","-2.02952282869894","3.10504634397528","-0.0985238585650532","0","359.9375"
"3119.6","0.514246481290766","-0.720219704771713","-2.02952282869894","0.105046343975283","-0.0985238585650532","0","359.9375"
"3124.5","0.514246481290766","0.279780295228287","-2.02952282869894","0.105046343975283","-0.0985238585650532","0","359.9375"
"3129.4","0.514246481290766","0.279780295228287","-2.02952282869894","0.105046343975283","-0.0985238585650532","0","359.9375"
"3134.3","-1.48575351870923","-0.720219704771713","0.970477171301063","0.105046343975283","-0.0985238585650532","0","359.9375"
"3139.2","-1.48575351870923","-0.720219704771713","0.970477171301063","2.10504634397528","-1.09852385856505","0","359.9375"
"3144.1","-1.48575351870923","-0.720219704771713","0.970477171301063","2.10504634397528","-1.09852385856505","0","359.9375"
"3149","-1.48575351870923","-0.720219704771713","0.970477171301063","1.10504634397528","1.90147614143495","0","359.9375"
"3153.9","0.514246481290766","0.279780295228287","-0.0295228286989371","1.10504634397528","1.90147614143495","0","359.9375"
"3158.8","0.514246481290766","0.279780295228287","-0.0295228286989371","-2.89495365602472","-0.0985238585650532","0","359.9375"
"3163.7","-0.485753518709234","-0.720219704771713","-3.02952282869894","-2.89495365602472","-0.0985238585650532","0","359.9375"
"3168.6","-0.485753518709234","-0.720219704771713","-3.02952282869894","2.10504634397528","-2.09852385856505","0","359.9375"
"3173.5","-0.485753518709234","0.279780295228287","1.97047717130106","2.10504634397528","-2.09852385856505","0","359.9375"
"3178.4","-0.485753518709234","0.279780295228287","1.97047717130106","2.10504634397528","0.901476141434947","0","359.9375"
"3183.3","0.514246481290766","0.279780295228287","0.970477171301063","2.10504634397528","0.901476141434947","0","359.9375"
"3188.2","0.514246481290766","0.279780295228287","0.970477171301063","2.10504634397528","0.901476141434947","0","359.9375"
"3193.1","0.514246481290766","0.279780295228287","0.970477171301063","2.10504634397528","0.901476141434947","0","359.9375"
"3198","0.514246481290766","0.279780295228287","0.970477171301063","2.10504634397528","2.90147614143495","0","359.9375"
"3200","1.51424648129077","0.279780295228287","-0.0295228286989371","2.10504634397528","2.90147614143495","0","359.9375"
"3205.05263","1.51424648129077","0.279780295228287","-0.0295228286989371","-0.894953656024717","-1.09852385856505","0","359.9375"
"3210.10526","-0.485753518709234","0.279780295228287","0.970477171301063","-0.894953656024717","-1.09852385856505","0","359.9375"
"3215.15789","-0.485753518709234","0.279780295228287","0.970477171301063","-0.894953656024717","-1.09852385856505","0","359.9375"
"3220.21053","-1.48575351870923","0.279780295228287","-2.02952282869894","-0.894953656024717","-1.09852385856505","0","359.9375"
"3225.26316","-1.48575351870923","0.279780295228287","-2.02952282869894","1.10504634397528","-0.0985238585650532","0","359.9375"
"3230.31579","0.514246481290766","0.279780295228287","0.970477171301063","1.10504634397528","-0.0985238585650532","0","359.9375"
"3235.36842","0.514246481290766","0.279780295228287","0.970477171301063","0.105046343975283","-0.0985238585650532","0","359.9375"
"3240.42105","0.514246481290766","0.279780295228287","0.970477171301063","0.105046343975283","-0.0985238585650532","0","359.9375"
"3245.47368","0.514246481290766","0.279780295228287","0.970477171301063","0.105046343975283","-0.0985238585650532","0","359.9375"
"3250.52632","0.514246481290766","0.279780295228287","-1.02952282869894","0.105046343975283","-0.0985238585650532","0","359.9375"
"3255.57895","0.514246481290766","0.279780295228287","-1.02952282869894","3.10504634397528","-0.0985238585650532","0","359.9375"
"3260.63158","0.514246481290766","0.279780295228287","-0.0295228286989371","3.10504634397528","-0.0985238585650532","0","359.9375"
"3265.68421","0.514246481290766","0.279780295228287","-0.0295228286989371","2.10504634397528","-2.09852385856505","0","359.9375"
"3270.73684","-0.485753518709234","0.279780295228287","-0.0295228286989371","2.10504634397528","-2.09852385856505","0","359.9375"
"3275.78947","-0.485753518709234","0.279780295228287","-0.0295228286989371","1.10504634397528","0.901476141434947","0","359.9375"
"3280.84211","0.514246481290766","0.279780295228287","-0.0295228286989371","1.10504634397528","0.901476141434947","0","359.9375"
"3285.89474","0.514246481290766","0.279780295228287","-0.0295228286989371","1.10504634397528","-1.09852385856505","0","359.9375"
"3290.94737","0.514246481290766","0.279780295228287","-0.0295228286989371","1.10504634397528","-1.09852385856505","0","359.9375"
"3296","0.514246481290766","0.279780295228287","-0.0295228286989371","0.105046343975283","0.901476141434947","0","359.9375"
"3304.9","0.514246481290766","0.279780295228287","1.97047717130106","0.105046343975283","0.901476141434947","0","359.9375"
"3309.8","0.514246481290766","0.279780295228287","1.97047717130106","-1.89495365602472","0.901476141434947","0","359.9375"
"3314.7","0.514246481290766","0.279780295228287","0.970477171301063","-1.89495365602472","0.901476141434947","0","359.9375"
"3319.6","0.514246481290766","0.279780295228287","0.970477171301063","2.10504634397528","-0.0985238585650532","0","359.9375"
"3324.5","-0.485753518709234","0.279780295228287","-0.0295228286989371","2.10504634397528","-0.0985238585650532","0","359.9375"
"3329.4","-0.485753518709234","0.279780295228287","-0.0295228286989371","2.10504634397528","0.901476141434947","0","359.9375"
"3334.3","-0.485753518709234","-2.72021970477171","-1.02952282869894","2.10504634397528","0.901476141434947","0","359.9375"
"3339.2","-0.485753518709234","-2.72021970477171","-1.02952282869894","0.105046343975283","-0.0985238585650532","0","359.9375"
"3344.1","-0.485753518709234","-2.72021970477171","-1.02952282869894","0.105046343975283","-0.0985238585650532","0","359.9375"
"3349","-0.485753518709234","-2.72021970477171","-1.02952282869894","1.10504634397528","-2.09852385856505","0","359.9375"
"3353.9","0.514246481290766","-0.720219704771713","-0.0295228286989371","1.10504634397528","-2.09852385856505","0","359.9375"
"3358.8","0.514246481290766","-0.720219704771713","-0.0295228286989371","-0.894953656024717","2.90147614143495","0","359.9375"
"3363.7","0.514246481290766","-1.72021970477171","-1.02952282869894","-0.894953656024717","2.90147614143495","0","359.9375"
"3368.6","0.514246481290766","-1.72021970477171","-1.02952282869894","-4.89495365602472","-1.09852385856505","0","359.9375"
"3373.5","0.514246481290766","0.279780295228287","0.970477171301063","-4.89495365602472","-1.09852385856505","0","359.9375"
"3378.4","0.514246481290766","0.279780295228287","0.970477171301063","2.10504634397528","2.90147614143495","0","359.9375"
"3383.3","0.514246481290766","0.279780295228287","0.970477171301063","2.10504634397528","2.90147614143495","0","359.9375"
"3388.2","0.514246481290766","0.279780295228287","0.970477171301063","1.10504634397528","1.90147614143495","0","359.9375"
"3393.1","0.514246481290766","0.279780295228287","0.970477171301063","1.10504634397528","1.90147614143495","0","359.9375"
"3398","0.514246481290766","0.279780295228287","0.970477171301063","0.105046343975283","-0.0985238585650532","0","359.9375"
"3404.71429","0.514246481290766","0.279780295228287","-0.0295228286989371","0.105046343975283","-0.0985238585650532","0","359.9375"
"3409.42857","0.514246481290766","0.279780295228287","-0.0295228286989371","3.10504634397528","-0.0985238585650532","0","359.9375"
"3414.14286","-1.48575351870923","-1.72021970477171","-3.02952282869894","3.10504634397528","-0.0985238585650532","0","359.9375"
"3418.85714","-1.48575351870923","-1.72021970477171","-3.02952282869894","0.105046343975283","-0.0985238585650532","0","359.9375"
"3423.57143","-0.485753518709234","-2.72021970477171","1.97047717130106","0.105046343975283","-0.0985238585650532","0","359.9375"
"3428.28571","-0.485753518709234","-2.72021970477171","1.97047717130106","-0.894953656024717","-0.0985238585650532","0","359.9375"
"3433","-0.485753518709234","0.279780295228287","-0.0295228286989371","-0.894953656024717","-0.0985238585650532","0","359.9375"
"3437.71429","-0.485753518709234","0.279780295228287","-0.0295228286989371","2.10504634397528","-5.09852385856505","0","359.9375"
"3442.42857","-0.485753518709234","0.279780295228287","-0.0295228286989371","2.10504634397528","-5.09852385856505","0","359.9375"
"3447.14286","-0.485753518709234","0.279780295228287","-0.0295228286989371","1.10504634397528","-0.0985238585650532","0","359.9375"
"3451.85714","0.514246481290766","-1.72021970477171","1.97047717130106","1.10504634397528","-0.0985238585650532","0","359.9375"
"3456.57143","0.514246481290766","-1.72021970477171","1.97047717130106","-0.894953656024717","1.90147614143495","0","359.9375"
"3461.28571","-1.48575351870923","1.27978029522829","-1.02952282869894","-0.894953656024717","1.90147614143495","0","359.9375"
"3466","-1.48575351870923","1.27978029522829","-1.02952282869894","-1.89495365602472","-0.0985238585650532","0","359.9375"
"3470.71429","0.514246481290766","-1.72021970477171","-0.0295228286989371","-1.89495365602472","-0.0985238585650532","0","359.9375"
"3475.42857","0.514246481290766","-1.72021970477171","-0.0295228286989371","2.10504634397528","-0.0985238585650532","0","359.9375"
"3480.14286","-0.485753518709234","-2.72021970477171","0.970477171301063","2.10504634397528","-0.0985238585650532","0","359.9375"
"3484.85714","-0.485753518709234","-2.72021970477171","0.970477171301063","1.10504634397528","-0.0985238585650532","0","359.9375"
"3489.57143","-0.485753518709234","-2.72021970477171","0.970477171301063","1.10504634397528","-0.0985238585650532","0","359.9375"
"3494.28571","-0.485753518709234","-2.72021970477171","0.970477171301063","0.105046343975283","-1.09852385856505","0","359.9375"
"3499","0.514246481290766","1.27978029522829","-0.0295228286989371","0.105046343975283","-1.09852385856505","0","359.9375"
"3505.22222","0.514246481290766","1.27978029522829","-0.0295228286989371","0.105046343975283","-0.0985238585650532","0","359.9375"
"3510.44444","-0.485753518709234","-0.720219704771713","-2.02952282869894","0.105046343975283","-0.0985238585650532","0","359.9375"
"3515.66667","-0.485753518709234","-0.720219704771713","-2.02952282869894","2.10504634397528","-1.09852385856505","0","359.9375"
"3520.88889","0.514246481290766","0.279780295228287","0.970477171301063","2.10504634397528","-1.09852385856505","0","359.9375"
"3526.11111","0.514246481290766","0.279780295228287","0.970477171301063","1.10504634397528","-0.0985238585650532","0","359.9375"
"3531.33333","-0.485753518709234","1.27978029522829","-0.0295228286989371","1.10504634397528","-0.0985238585650532","0","359.9375"
"3536.55556","-0.485753518709234","1.27978029522829","-0.0295228286989371","0.105046343975283","-1.09852385856505","0","359.9375"
"3541.77778","-0.485753518709234","1.27978029522829","-0.0295228286989371","0.105046343975283","-1.09852385856505","0","359.9375"
"3547","-0.485753518709234","1.27978029522829","-0.0295228286989371","1.10504634397528","2.90147614143495","0","359.9375"
"3552.22222","-1.48575351870923","-0.720219704771713","-0.0295228286989371","1.10504634397528","2.90147614143495","0","359.9375"
"3557.44444","-1.48575351870923","-0.720219704771713","-0.0295228286989371","-0.894953656024717","0.901476141434947","0","359.9375"
"3562.66667","0.514246481290766","0.279780295228287","-1.02952282869894","-0.894953656024717","0.901476141434947","0","359.9375"
"3567.88889","0.514246481290766","0.279780295228287","-1.02952282869894","0.105046343975283","0.901476141434947","0","359.9375"
"3573.11111","-0.485753518709234","0.279780295228287","-2.02952282869894","0.105046343975283","0.901476141434947","0","359.9375"
"3578.33333","-0.485753518709234","0.279780295228287","-2.02952282869894","1.10504634397528","-1.09852385856505","0","359.9375"
"3583.55556","0.514246481290766","0.279780295228287","-1.02952282869894","1.10504634397528","-1.09852385856505","0","359.9375"
"3588.77778","0.514246481290766","0.279780295228287","-1.02952282869894","-1.89495365602472","-1.09852385856505","0","359.9375"
"3594","0.514246481290766","0.279780295228287","-1.02952282869894","-1.89495365602472","-1.09852385856505","0","359.9375"
"3604.66667","0.514246481290766","0.279780295228287","-1.02952282869894","-0.894953656024717","-0.0985238585650532","0","359.9375"
"3609.33333","-0.485753518709234","0.279780295228287","0.970477171301063","-0.894953656024717","-0.0985238585650532","0","359.9375"
"3614","-0.485753518709234","0.279780295228287","0.970477171301063","-0.894953656024717","0.901476141434947","0","359.9375"
"3618.66667","-1.48575351870923","0.279780295228287","-1.02952282869894","-0.894953656024717","0.901476141434947","0","359.9375"
"3623.33333","-1.48575351870923","0.279780295228287","-1.02952282869894","-1.89495365602472","-0.0985238585650532","0","359.9375"
"3628","-0.485753518709234","2.27978029522829","-0.0295228286989371","-1.89495365602472","-0.0985238585650532","0","359.9375"
"3632.66667","-0.485753518709234","2.27978029522829","-0.0295228286989371","0.105046343975283","-1.09852385856505","0","359.9375"
"3637.33333","0.514246481290766","0.279780295228287","1.97047717130106","0.105046343975283","-1.09852385856505","0","359.9375"
"3642","0.514246481290766","0.279780295228287","1.97047717130106","1.10504634397528","-4.09852385856505","0","359.9375"
"3646.66667","0.514246481290766","0.279780295228287","1.97047717130106","1.10504634397528","-4.09852385856505","0","359.9375"
"3651.33333","0.514246481290766","0.279780295228287","1.97047717130106","1.10504634397528","-2.09852385856505","0","359.9375"
"3656","0.514246481290766","0.279780295228287","-0.0295228286989371","1.10504634397528","-2.09852385856505","0","359.9375"
"3660.66667","0.514246481290766","0.279780295228287","-0.0295228286989371","3.10504634397528","-0.0985238585650532","0","359.9375"
"3665.33333","0.514246481290766","1.27978029522829","-3.02952282869894","3.10504634397528","-0.0985238585650532","0","359.9375"
"3670","0.514246481290766","1.27978029522829","-3.02952282869894","-0.894953656024717","-1.09852385856505","0","359.9375"
"3674.66667","0.514246481290766","-0.720219704771713","-3.02952282869894","-0.894953656024717","-1.09852385856505","0","359.9375"
"3679.33333","0.514246481290766","-0.720219704771713","-3.02952282869894","2.10504634397528","-1.09852385856505","0","359.9375"
"3684","1.51424648129077","1.27978029522829","1.97047717130106","2.10504634397528","-1.09852385856505","0","359.9375"
"3688.66667","1.51424648129077","1.27978029522829","1.97047717130106","0.105046343975283","-1.09852385856505","0","359.9375"
"3693.33333","1.51424648129077","1.27978029522829","1.97047717130106","0.105046343975283","-1.09852385856505","0","359.9375"
"3698","1.51424648129077","1.27978029522829","1.97047717130106","1.10504634397528","0.901476141434947","0","359.9375"
"3700","0.514246481290766","-0.720219704771713","0.970477171301063","1.10504634397528","0.901476141434947","0","359.9375"
"3705.15789","0.514246481290766","-0.720219704771713","0.970477171301063","-2.89495365602472","-0.0985238585650532","0","359.9375"
"3710.31579","-0.485753518709234","0.279780295228287","0.970477171301063","-2.89495365602472","-0.0985238585650532","0","359.9375"
"3715.47368","-0.485753518709234","0.279780295228287","0.970477171301063","0.105046343975283","-1.09852385856505","0","359.9375"
"3720.63158","-0.485753518709234","0.279780295228287","0.970477171301063","0.105046343975283","-1.09852385856505","0","359.9375"
"3725.78947","-0.485753518709234","0.279780295228287","0.970477171301063","-1.89495365602472","0.901476141434947","0","359.9375"
"3730.94737","-0.485753518709234","-0.720219704771713","-0.0295228286989371","-1.89495365602472","0.901476141434947","0","359.9375"
"3736.10526","-0.485753518709234","-0.720219704771713","-0.0295228286989371","-0.894953656024717","-3.09852385856505","0","359.9375"
"3741.26316","-0.485753518709234","-0.720219704771713","-0.0295228286989371","-0.894953656024717","-3.09852385856505","0","359.9375"
"3746.42105","-0.485753518709234","-0.720219704771713","-0.0295228286989371","0.105046343975283","-1.09852385856505","0","359.9375"
"3751.57895","-0.485753518709234","0.279780295228287","1.97047717130106","0.105046343975283","-1.09852385856505","0","359.9375"
"3756.73684","-0.485753518709234","0.279780295228287","1.97047717130106","0.105046343975283","0.901476141434947","0","359.9375"
"3761.89474","0.514246481290766","-0.720219704771713","-1.02952282869894","0.105046343975283","0.901476141434947","0","359.9375"
"3767.05263","0.514246481290766","-0.720219704771713","-1.02952282869894","0.105046343975283","0.901476141434947","0","359.9375"
"3772.21053","-0.485753518709234","-1.72021970477171","-0.0295228286989371","0.105046343975283","0.901476141434947","0","359.9375"
"3777.36842","-0.485753518709234","-1.72021970477171","-0.0295228286989371","-1.89495365602472","1.90147614143495","0","359.9375"
"3782.52632","0.514246481290766","0.279780295228287","1.97047717130106","-1.89495365602472","1.90147614143495","0","359.9375"
"3787.68421","0.514246481290766","0.279780295228287","1.97047717130106","1.10504634397528","-1.09852385856505","0","359.9375"
"3792.84211","0.514246481290766","0.279780295228287","1.97047717130106","1.10504634397528","-1.09852385856505","0","359.9375"
"3798","0.514246481290766","0.279780295228287","1.97047717130106","2.10504634397528","-1.09852385856505","0","359.9375"
"3804.9","-0.485753518709234","0.279780295228287","1.97047717130106","2.10504634397528","-1.09852385856505","0","359.9375"
"3809.8","-0.485753518709234","0.279780295228287","1.97047717130106","1.10504634397528","-1.09852385856505","0","359.9375"
"3814.7","0.514246481290766","-0.720219704771713","-1.02952282869894","1.10504634397528","-1.09852385856505","0","359.9375"
"3819.6","0.514246481290766","-0.720219704771713","-1.02952282869894","4.10504634397528","-3.09852385856505","0","359.9375"
"3824.5","0.514246481290766","0.279780295228287","-1.02952282869894","4.10504634397528","-3.09852385856505","0","359.9375"
"3829.4","0.514246481290766","0.279780295228287","-1.02952282869894","-0.894953656024717","-1.09852385856505","0","359.9375"
"3834.3","0.514246481290766","0.279780295228287","1.97047717130106","-0.894953656024717","-1.09852385856505","0","359.9375"
"3839.2","0.514246481290766","0.279780295228287","1.97047717130106","-0.894953656024717","-0.0985238585650532","0","359.9375"
"3844.1","0.514246481290766","0.279780295228287","1.97047717130106","-0.894953656024717","-0.0985238585650532","0","359.9375"
"3849","0.514246481290766","0.279780295228287","1.97047717130106","1.10504634397528","-1.09852385856505","0","359.9375"
"3853.9","0.514246481290766","-1.72021970477171","-2.02952282869894","1.10504634397528","-1.09852385856505","0","359.9375"
"3858.8","0.514246481290766","-1.72021970477171","-2.02952282869894","-2.89495365602472","-2.09852385856505","0","359.9375"
"3863.7","-1.48575351870923","-0.720219704771713","-1.02952282869894","-2.89495365602472","-2.09852385856505","0","359.9375"
"3868.6","-1.48575351870923","-0.720219704771713","-1.02952282869894","1.10504634397528","-0.0985238585650532","0","359.9375"
"3873.5","-0.485753518709234","0.279780295228287","-0.0295228286989371","1.10504634397528","-0.0985238585650532","0","359.9375"
"3878.4","-0.485753518709234","0.279780295228287","-0.0295228286989371","-0.894953656024717","1.90147614143495","0","359.9375"
"3883.3","0.514246481290766","1.27978029522829","0.970477171301063","-0.894953656024717","1.90147614143495","0","359.9375"
"3888.2","0.514246481290766","1.27978029522829","0.970477171301063","-0.894953656024717","3.90147614143495","0","359.9375"
"3893.1","0.514246481290766","1.27978029522829","0.970477171301063","-0.894953656024717","3.90147614143495","0","359.9375"
"3898","0.514246481290766","1.27978029522829","0.970477171301063","1.10504634397528","2.90147614143495","0","359.9375"
"3904.8","0.514246481290766","1.27978029522829","0.970477171301063","1.10504634397528","2.90147614143495","0","359.9375"
"3909.6","0.514246481290766","1.27978029522829","0.970477171301063","-0.894953656024717","0.901476141434947","0","359.9375"
"3914.4","0.514246481290766","0.279780295228287","-3.02952282869894","-0.894953656024717","0.901476141434947","0","359.9375"
"3919.2","0.514246481290766","0.279780295228287","-3.02952282869894","-0.894953656024717","-2.09852385856505","0","359.9375"
"3924","-1.48575351870923","0.279780295228287","-1.02952282869894","-0.894953656024717","-2.09852385856505","0","359.9375"
"3928.8","-1.48575351870923","0.279780295228287","-1.02952282869894","0.105046343975283","-2.09852385856505","0","359.9375"
"3933.6","0.514246481290766","0.279780295228287","-0.0295228286989371","0.105046343975283","-2.09852385856505","0","359.9375"
"3938.4","0.514246481290766","0.279780295228287","-0.0295228286989371","3.10504634397528","-0.0985238585650532","0","359.9375"
"3943.2","0.514246481290766","0.279780295228287","-0.0295228286989371","3.10504634397528","-0.0985238585650532","0","359.9375"
"3948","0.514246481290766","0.279780295228287","-0.0295228286989371","2.10504634397528","0.901476141434947","0","359.9375"
"3952.8","0.514246481290766","-0.720219704771713","2.97047717130106","2.10504634397528","0.901476141434947","0","359.9375"
"3957.6","0.514246481290766","-0.720219704771713","2.97047717130106","-1.89495365602472","-0.0985238585650532","0","359.9375"
"3962.4","0.514246481290766","3.27978029522829","-0.0295228286989371","-1.89495365602472","-0.0985238585650532","0","359.9375"
"3967.2","0.514246481290766","3.27978029522829","-0.0295228286989371","3.10504634397528","1.90147614143495","0","359.9375"
"3972","0.514246481290766","-1.72021970477171","-1.02952282869894","3.10504634397528","1.90147614143495","0","359.9375"
"3976.8","0.514246481290766","-1.72021970477171","-1.02952282869894","1.10504634397528","3.90147614143495","0","359.9375"
"3981.6","0.514246481290766","-0.720219704771713","0.970477171301063","1.10504634397528","3.90147614143495","0","359.9375"
"3986.4","0.514246481290766","-0.720219704771713","0.970477171301063","-0.894953656024717","0.901476141434947","0","359.9375"
"3991.2","0.514246481290766","-0.720219704771713","0.970477171301063","-0.894953656024717","0.901476141434947","0","359.9375"
"3996","0.514246481290766","-0.720219704771713","0.970477171301063","1.10504634397528","-2.09852385856505","0","359.9375"
"4004.95","0.514246481290766","0.279780295228287","-0.0295228286989371","1.10504634397528","-2.09852385856505","0","359.9375"
"4009.9","0.514246481290766","0.279780295228287","-0.0295228286989371","2.10504634397528","0.901476141434947","0","359.9375"
"4014.85","0.514246481290766","0.279780295228287","0.970477171301063","2.10504634397528","0.901476141434947","0","359.9375"
"4019.8","0.514246481290766","0.279780295228287","0.970477171301063","1.10504634397528","0.901476141434947","0","359.9375"
"4024.75","-0.485753518709234","-0.720219704771713","-0.0295228286989371","1.10504634397528","0.901476141434947","0","359.9375"
"4029.7","-0.485753518709234","-0.720219704771713","-0.0295228286989371","1.10504634397528","0.901476141434947","0","359.9375"
"4034.65","0.514246481290766","-0.720219704771713","-2.02952282869894","1.10504634397528","0.901476141434947","0","359.9375"
"4039.6","0.514246481290766","-0.720219704771713","-2.02952282869894","0.105046343975283","-0.0985238585650532","0","359.9375"
"4044.55","0.514246481290766","-0.720219704771713","-2.02952282869894","0.105046343975283","-0.0985238585650532","0","359.9375"
"4049.5","0.514246481290766","-0.720219704771713","-2.02952282869894","2.10504634397528","0.901476141434947","0","359.9375"
"4054.45","-1.48575351870923","0.279780295228287","-0.0295228286989371","2.10504634397528","0.901476141434947","0","359.9375"
"4059.4","-1.48575351870923","0.279780295228287","-0.0295228286989371","1.10504634397528","0.901476141434947","0","359.9375"
"4064.35","0.514246481290766","0.279780295228287","-1.02952282869894","1.10504634397528","0.901476141434947","0","359.9375"
"4069.3","0.514246481290766","0.279780295228287","-1.02952282869894","2.10504634397528","1.90147614143495","0","359.9375"
"4074.25","-1.48575351870923","0.279780295228287","-0.0295228286989371","2.10504634397528","1.90147614143495","0","359.9375"
"4079.2","-1.48575351870923","0.279780295228287","-0.0295228286989371","-1.89495365602472","2.90147614143495","0","359.9375"
"4084.15","-0.485753518709234","-2.72021970477171","1.97047717130106","-1.89495365602472","2.90147614143495","0","359.9375"
"4089.1","-0.485753518709234","-2.72021970477171","1.97047717130106","1.10504634397528","0.901476141434947","0","359.9375"
"4094.05","-0.485753518709234","-2.72021970477171","1.97047717130106","1.10504634397528","0.901476141434947","0","359.9375"
"4099","-0.485753518709234","-2.72021970477171","1.97047717130106","-0.894953656024717","0.901476141434947","0","359.9375"
"4104.9","-0.485753518709234","-0.720219704771713","-0.0295228286989371","-0.894953656024717","0.901476141434947","0","359.9375"
"4109.8","-0.485753518709234","-0.720219704771713","-0.0295228286989371","-0.894953656024717","0.901476141434947","0","359.9375"
"4114.7","-0.485753518709234","1.27978029522829","-2.02952282869894","-0.894953656024717","0.901476141434947","0","359.9375"
"4119.6","-0.485753518709234","1.27978029522829","-2.02952282869894","-2.89495365602472","1.90147614143495","0","359.9375"
"4124.5","0.514246481290766","-2.72021970477171","0.970477171301063","-2.89495365602472","1.90147614143495","0","359.9375"
"4129.4","0.514246481290766","-2.72021970477171","0.970477171301063","2.10504634397528","3.90147614143495","0","359.9375"
"4134.3","-0.485753518709234","0.279780295228287","0.970477171301063","2.10504634397528","3.90147614143495","0","359.9375"
"4139.2","-0.485753518709234","0.279780295228287","0.970477171301063","3.10504634397528","0.901476141434947","0","359.9375"
"4144.1","-0.485753518709234","0.279780295228287","0.970477171301063","3.10504634397528","0.901476141434947","0","359.9375"
"4149","-0.485753518709234","0.279780295228287","0.970477171301063","-0.894953656024717","0.901476141434947","0","359.9375"
"4153.9","0.514246481290766","0.279780295228287","0.970477171301063","-0.894953656024717","0.901476141434947","0","359.9375"
"4158.8","0.514246481290766","0.279780295228287","0.970477171301063","0.105046343975283","2.90147614143495","0","359.9375"
"4163.7","0.514246481290766","-0.720219704771713","-3.02952282869894","0.105046343975283","2.90147614143495","0","359.9375"
"4168.6","0.514246481290766","-0.720219704771713","-3.02952282869894","-0.894953656024717","1.90147614143495","0","359.9375"
"4173.5","-0.485753518709234","0.279780295228287","0.970477171301063","-0.894953656024717","1.90147614143495","0","359.9375"
"4178.4","-0.485753518709234","0.279780295228287","0.970477171301063","-1.89495365602472","1.90147614143495","0","359.9375"
"4183.3","-0.485753518709234","0.279780295228287","-4.02952282869894","-1.89495365602472","1.90147614143495","0","359.9375"
"4188.2","-0.485753518709234","0.279780295228287","-4.02952282869894","1.10504634397528","2.90147614143495","0","359.9375"
"4193.1","-0.485753518709234","0.279780295228287","-4.02952282869894","1.10504634397528","2.90147614143495","0","359.9375"
"4198","-0.485753518709234","0.279780295228287","-4.02952282869894","-0.894953656024717","1.90147614143495","0","359.9375"
"4204.84211","-0.485753518709234","0.279780295228287","-2.02952282869894","-0.894953656024717","1.90147614143495","0","359.9375"
"4209.68421","-0.485753518709234","0.279780295228287","-2.02952282869894","0.105046343975283","1.90147614143495","0","359.9375"
"4214.52632","-1.48575351870923","0.279780295228287","-0.0295228286989371","0.105046343975283","1.90147614143495","0","359.9375"
"4219.36842","-1.48575351870923","0.279780295228287","-0.0295228286989371","0.105046343975283","1.90147614143495","0","359.9375"
"4224.21053","-1.48575351870923","0.279780295228287","-2.02952282869894","0.105046343975283","1.90147614143495","0","359.9375"
"4229.05263","-1.48575351870923","0.279780295228287","-2.02952282869894","-0.894953656024717","0.901476141434947","0","359.9375"
"4233.89474","-0.485753518709234","0.279780295228287","-2.02952282869894","-0.894953656024717","0.901476141434947","0","359.9375"
"4238.73684","-0.485753518709234","0.279780295228287","-2.02952282869894","-0.894953656024717","0.901476141434947","0","359.9375"
"4243.57895","-0.485753518709234","0.279780295228287","-2.02952282869894","-0.894953656024717","0.901476141434947","0","359.9375"
"4248.42105","-0.485753518709234","0.279780295228287","-2.02952282869894","0.105046343975283","-1.09852385856505","0","359.9375"
"4253.26316","0.514246481290766","-0.720219704771713","2.97047717130106","0.105046343975283","-1.09852385856505","0","359.9375"
"4258.10526","0.514246481290766","-0.720219704771713","2.97047717130106","-3.89495365602472","1.90147614143495","0","359.9375"
"4262.94737","0.514246481290766","0.279780295228287","-2.02952282869894","-3.89495365602472","1.90147614143495","0","359.9375"
"4267.78947","0.514246481290766","0.279780295228287","-2.02952282869894","1.10504634397528","0.901476141434947","0","359.9375"
"4272.63158","1.51424648129077","-0.720219704771713","-2.02952282869894","1.10504634397528","0.901476141434947","0","359.9375"
"4277.47368","1.51424648129077","-0.720219704771713","-2.02952282869894","-1.89495365602472","0.901476141434947","0","359.9375"
"4282.31579","0.514246481290766","0.279780295228287","0.970477171301063","-1.89495365602472","0.901476141434947","0","359.9375"
"4287.15789","0.514246481290766","0.279780295228287","0.970477171301063","-0.894953656024717","-0.0985238585650532","0","359.9375"
"4292","0.514246481290766","0.279780295228287","0.970477171301063","-0.894953656024717","-0.0985238585650532","0","359.9375"
"4300","0.514246481290766","0.279780295228287","0.970477171301063","0.105046343975283","0.901476141434947","0","359.9375"
"4304.95","0.514246481290766","-0.720219704771713","-0.0295228286989371","0.105046343975283","0.901476141434947","0","359.9375"
"4309.9","0.514246481290766","-0.720219704771713","-0.0295228286989371","1.10504634397528","-0.0985238585650532","0","359.9375"
"4314.85","0.514246481290766","-0.720219704771713","-0.0295228286989371","1.10504634397528","-0.0985238585650532","0","359.9375"
"4319.8","0.514246481290766","-0.720219704771713","-0.0295228286989371","1.10504634397528","2.90147614143495","0","359.9375"
"4324.75","-1.48575351870923","0.279780295228287","-0.0295228286989371","1.10504634397528","2.90147614143495","0","359.9375"
"4329.7","-1.48575351870923","0.279780295228287","-0.0295228286989371","0.105046343975283","0.901476141434947","0","359.9375"
"4334.65","0.514246481290766","0.279780295228287","1.97047717130106","0.105046343975283","0.901476141434947","0","359.9375"
"4339.6","0.514246481290766","0.279780295228287","1.97047717130106","3.10504634397528","0.901476141434947","0","359.9375"
"4344.55","0.514246481290766","0.279780295228287","1.97047717130106","3.10504634397528","0.901476141434947","0","359.9375"
"4349.5","0.514246481290766","0.279780295228287","1.97047717130106","0.105046343975283","-0.0985238585650532","0","359.9375"
"4354.45","0.514246481290766","2.27978029522829","-0.0295228286989371","0.105046343975283","-0.0985238585650532","0","359.9375"
"4359.4","0.514246481290766","2.27978029522829","-0.0295228286989371","-1.89495365602472","2.90147614143495","0","359.9375"
"4364.35","0.514246481290766","2.27978029522829","-0.0295228286989371","-1.89495365602472","2.90147614143495","0","359.9375"
"4369.3","0.514246481290766","2.27978029522829","-0.0295228286989371","-1.89495365602472","-2.09852385856505","0","359.9375"
"4374.25","-0.485753518709234","-0.720219704771713","-1.02952282869894","-1.89495365602472","-2.09852385856505","0","359.9375"
"4379.2","-0.485753518709234","-0.720219704771713","-1.02952282869894","-1.89495365602472","-3.09852385856505","0","359.9375"
"4384.15","0.514246481290766","1.27978029522829","-2.02952282869894","-1.89495365602472","-3.09852385856505","0","359.9375"
"4389.1","0.514246481290766","1.27978029522829","-2.02952282869894","0.105046343975283","0.901476141434947","0","359.9375"
"4394.05","0.514246481290766","1.27978029522829","-2.02952282869894","0.105046343975283","0.901476141434947","0","359.9375"
"4399","0.514246481290766","1.27978029522829","-2.02952282869894","0.105046343975283","-2.09852385856505","0","359.9375"
"4405","0.514246481290766","0.279780295228287","2.97047717130106","0.105046343975283","-2.09852385856505","0","359.9375"
"4410","0.514246481290766","0.279780295228287","2.97047717130106","1.10504634397528","-2.09852385856505","0","359.9375"
"4415","-1.48575351870923","0.279780295228287","-0.0295228286989371","1.10504634397528","-2.09852385856505","0","359.9375"
"4420","-1.48575351870923","0.279780295228287","-0.0295228286989371","0.105046343975283","-3.09852385856505","0","359.9375"
"4425","0.514246481290766","0.279780295228287","-2.02952282869894","0.105046343975283","-3.09852385856505","0","359.9375"
"4430","0.514246481290766","0.279780295228287","-2.02952282869894","-0.894953656024717","-2.09852385856505","0","359.9375"
"4435","0.514246481290766","0.279780295228287","1.97047717130106","-0.894953656024717","-2.09852385856505","0","359.9375"
"4440","0.514246481290766","0.279780295228287","1.97047717130106","-0.894953656024717","-3.09852385856505","0","359.9375"
"4445","0.514246481290766","0.279780295228287","1.97047717130106","-0.894953656024717","-3.09852385856505","0","359.9375"
"4450","0.514246481290766","0.279780295228287","1.97047717130106","1.10504634397528","-2.09852385856505","0","359.9375"
"4455","-2.48575351870923","1.27978029522829","1.97047717130106","1.10504634397528","-2.09852385856505","0","359.9375"
"4460","-2.48575351870923","1.27978029522829","1.97047717130106","0.105046343975283","-1.09852385856505","0","359.9375"
"4465","0.514246481290766","2.27978029522829","1.97047717130106","0.105046343975283","-1.09852385856505","0","359.9375"
"4470","0.514246481290766","2.27978029522829","1.97047717130106","0.105046343975283","-1.09852385856505","0","359.9375"
"4475","-1.48575351870923","-0.720219704771713","-1.02952282869894","0.105046343975283","-1.09852385856505","0","359.9375"
"4480","-1.48575351870923","-0.720219704771713","-1.02952282869894","-0.894953656024717","-1.09852385856505","0","359.9375"
"4485","0.514246481290766","0.279780295228287","0.970477171301063","-0.894953656024717","-1.09852385856505","0","359.9375"
"4490","0.514246481290766","0.279780295228287","0.970477171301063","-3.89495365602472","-0.0985238585650532","0","359.9375"
"4495","0.514246481290766","0.279780295228287","0.970477171301063","-3.89495365602472","-0.0985238585650532","0","359.9375"
"4504.61905","0.514246481290766","0.279780295228287","0.970477171301063","-1.89495365602472","-1.09852385856505","0","359.9375"
"4509.2381","0.514246481290766","0.279780295228287","1.97047717130106","-1.89495365602472","-1.09852385856505","0","359.9375"
"4513.85714","0.514246481290766","0.279780295228287","1.97047717130106","-1.89495365602472","-4.09852385856505","0","359.9375"
"4518.47619","-1.48575351870923","0.279780295228287","-2.02952282869894","-1.89495365602472","-4.09852385856505","0","359.9375"
"4523.09524","-1.48575351870923","0.279780295228287","-2.02952282869894","-2.89495365602472","-0.0985238585650532","0","359.9375"
"4527.71429","0.514246481290766","0.279780295228287","-0.0295228286989371","-2.89495365602472","-0.0985238585650532","0","359.9375"
"4532.33333","0.514246481290766","0.279780295228287","-0.0295228286989371","-0.894953656024717","-1.09852385856505","0","359.9375"
"4536.95238","-0.485753518709234","0.279780295228287","2.97047717130106","-0.894953656024717","-1.09852385856505","0","359.9375"
"4541.57143","-0.485753518709234","0.279780295228287","2.97047717130106","0.105046343975283","-1.09852385856505","0","359.9375"
"4546.19048","0.514246481290766","-0.720219704771713","1.97047717130106","0.105046343975283","-1.09852385856505","0","359.9375"
"4550.80952","0.514246481290766","-0.720219704771713","1.97047717130106","1.10504634397528","-0.0985238585650532","0","359.9375"
"4555.42857","0.514246481290766","-0.720219704771713","1.97047717130106","1.10504634397528","-0.0985238585650532","0","359.9375"
"4560.04762","0.514246481290766","-0.720219704771713","1.97047717130106","-0.894953656024717","1.90147614143495","0","359.9375"
"4564.66667","0.514246481290766","0.279780295228287","1.97047717130106","-0.894953656024717","1.90147614143495","0","359.9375"
"4569.28571","0.514246481290766","0.279780295228287","1.97047717130106","-0.894953656024717","-3.09852385856505","0","359.9375"
"4573.90476","-0.485753518709234","0.279780295228287","-2.02952282869894","-0.894953656024717","-3.09852385856505","0","359.9375"
"4578.52381","-0.485753518709234","0.279780295228287","-2.02952282869894","-1.89495365602472","-1.09852385856505","0","359.9375"
"4583.14286","-0.485753518709234","-0.720219704771713","-0.0295228286989371","-1.89495365602472","-1.09852385856505","0","359.9375"
"4587.7619","-0.485753518709234","-0.720219704771713","-0.0295228286989371","-0.894953656024717","-2.09852385856505","0","359.9375"
"4592.38095","1.51424648129077","1.27978029522829","-0.0295228286989371","-0.894953656024717","-2.09852385856505","0","359.9375"
"4597","1.51424648129077","1.27978029522829","-0.0295228286989371","3.10504634397528","-1.09852385856505","0","359.9375"
"4604.71429","-1.48575351870923","-1.72021970477171","1.97047717130106","3.10504634397528","-1.09852385856505","0","359.9375"
"4609.42857","-1.48575351870923","-1.72021970477171","1.97047717130106","0.105046343975283","-1.09852385856505","0","359.9375"
"4614.14286","-1.48575351870923","1.27978029522829","-2.02952282869894","0.105046343975283","-1.09852385856505","0","359.9375"
"4618.85714","-1.48575351870923","1.27978029522829","-2.02952282869894","2.10504634397528","-1.09852385856505","0","359.9375"
"4623.57143","0.514246481290766","0.279780295228287","-3.02952282869894","2.10504634397528","-1.09852385856505","0","359.9375"
"4628.28571","0.514246481290766","0.279780295228287","-3.02952282869894","1.10504634397528","-2.09852385856505","0","359.9375"
"4633","0.514246481290766","-0.720219704771713","1.97047717130106","1.10504634397528","-2.09852385856505","0","359.9375"
"4637.71429","0.514246481290766","-0.720219704771713","1.97047717130106","-0.894953656024717","-1.09852385856505","0","359.9375"
"4642.42857","-0.485753518709234","2.27978029522829","0.970477171301063","-0.894953656024717","-1.09852385856505","0","359.9375"
"4647.14286","-0.485753518709234","2.27978029522829","0.970477171301063","0.105046343975283","-1.09852385856505","0","359.9375"
"4651.85714","0.514246481290766","0.279780295228287","-1.02952282869894","0.105046343975283","-1.09852385856505","0","359.9375"
"4656.57143","0.514246481290766","0.279780295228287","-1.02952282869894","1.10504634397528","-4.09852385856505","0","359.9375"
"4661.28571","0.514246481290766","-0.720219704771713","-2.02952282869894","1.10504634397528","-4.09852385856505","0","359.9375"
"4666","0.514246481290766","-0.720219704771713","-2.02952282869894","0.105046343975283","-3.09852385856505","0","359.9375"
"4670.71429","0.514246481290766","0.279780295228287","-1.02952282869894","0.105046343975283","-3.09852385856505","0","359.9375"
"4675.42857","0.514246481290766","0.279780295228287","-1.02952282869894","1.10504634397528","-1.09852385856505","0","359.9375"
"4680.14286","-0.485753518709234","0.279780295228287","-1.02952282869894","1.10504634397528","-1.09852385856505","0","359.9375"
"4684.85714","-0.485753518709234","0.279780295228287","-1.02952282869894","-1.89495365602472","-1.09852385856505","0","359.9375"
"4689.57143","0.514246481290766","-1.72021970477171","-1.02952282869894","-1.89495365602472","-1.09852385856505","0","359.9375"
"4694.28571","0.514246481290766","-1.72021970477171","-1.02952282869894","-1.89495365602472","-3.09852385856505","0","359.9375"
"4699","0.514246481290766","0.279780295228287","1.97047717130106","-1.89495365602472","-3.09852385856505","0","359.9375"
"4705.05556","0.514246481290766","0.279780295228287","1.97047717130106","-0.894953656024717","1.90147614143495","0","359.9375"
"4710.11111","-0.485753518709234","0.279780295228287","-2.02952282869894","-0.894953656024717","1.90147614143495","0","359.9375"
"4715.16667","-0.485753518709234","0.279780295228287","-2.02952282869894","1.10504634397528","-1.09852385856505","0","359.9375"
"4720.22222","0.514246481290766","-0.720219704771713","0.970477171301063","1.10504634397528","-1.09852385856505","0","359.9375"
"4725.27778","0.514246481290766","-0.720219704771713","0.970477171301063","-0.894953656024717","-0.0985238585650532","0","359.9375"
"4730.33333","0.514246481290766","-0.720219704771713","-0.0295228286989371","-0.894953656024717","-0.0985238585650532","0","359.9375"
"4735.38889","0.514246481290766","-0.720219704771713","-0.0295228286989371","-1.89495365602472","-1.09852385856505","0","359.9375"
"4740.44444","-0.485753518709234","-0.720219704771713","-0.0295228286989371","-1.89495365602472","-1.09852385856505","0","359.9375"
"4745.5","-0.485753518709234","-0.720219704771713","-0.0295228286989371","2.10504634397528","-1.09852385856505","0","359.9375"
"4750.55556","1.51424648129077","-0.720219704771713","1.97047717130106","2.10504634397528","-1.09852385856505","0","359.9375"
"4755.61111","1.51424648129077","-0.720219704771713","1.97047717130106","-0.894953656024717","-1.09852385856505","0","359.9375"
"4760.66667","1.51424648129077","-0.720219704771713","1.97047717130106","-0.894953656024717","-1.09852385856505","0","359.9375"
"4765.72222","1.51424648129077","-0.720219704771713","1.97047717130106","0.105046343975283","1.90147614143495","0","359.9375"
"4770.77778","-0.485753518709234","1.27978029522829","-4.02952282869894","0.105046343975283","1.90147614143495","0","359.9375"
