Timer,AX,AY,AZ,GX,GY,GZ,A
"8","-0.829977628635347","2.46457867263236","-0.581655480984342","-0.939597315436242","0.980611483967189","0","0.0625"
"8","1.17002237136465","2.46457867263236","1.41834451901566","-0.939597315436242","0.980611483967189","0","0.0625"
"15","1.17002237136465","2.46457867263236","1.41834451901566","-2.93959731543624","-0.0193885160328113","0","0.0625"
"15","-0.829977628635347","2.46457867263236","-1.58165548098434","-2.93959731543624","-0.0193885160328113","0","0.0625"
"21","-0.829977628635347","2.46457867263236","-1.58165548098434","1.06040268456376","1.98061148396719","0","0.0625"
"21","1.17002237136465","0.464578672632364","0.418344519015658","1.06040268456376","1.98061148396719","0","0.0625"
"28","1.17002237136465","0.464578672632364","0.418344519015658","0.0604026845637584","-0.0193885160328113","0","0.0625"
"28","2.17002237136465","0.464578672632364","-2.58165548098434","0.0604026845637584","-0.0193885160328113","0","0.0625"
"34","2.17002237136465","0.464578672632364","-2.58165548098434","-0.939597315436242","0.980611483967189","0","0.0625"
"34","0.170022371364653","2.46457867263236","-1.58165548098434","-0.939597315436242","0.980611483967189","0","0.0625"
"41","0.170022371364653","2.46457867263236","-1.58165548098434","-0.939597315436242","0.980611483967189","0","0.0625"
"41","2.17002237136465","-0.535421327367636","-0.581655480984342","-0.939597315436242","0.980611483967189","0","0.0625"
"49","2.17002237136465","-0.535421327367636","-0.581655480984342","0.0604026845637584","-1.01938851603281","0","0.0625"
"50","1.17002237136465","2.46457867263236","1.41834451901566","0.0604026845637584","-1.01938851603281","0","0.0625"
"55","1.17002237136465","2.46457867263236","1.41834451901566","-1.93959731543624","2.98061148396719","0","0.0625"
"56","2.17002237136465","1.46457867263236","-0.581655480984342","-1.93959731543624","2.98061148396719","0","0.0625"
"64","2.17002237136465","1.46457867263236","-0.581655480984342","1.06040268456376","1.98061148396719","0","0.0625"
"64","3.17002237136465","1.46457867263236","-2.58165548098434","1.06040268456376","1.98061148396719","0","0.0625"
"70","3.17002237136465","1.46457867263236","-2.58165548098434","1.06040268456376","2.98061148396719","0","0.0625"
"70","2.17002237136465","-0.535421327367636","-0.581655480984342","1.06040268456376","2.98061148396719","0","0.0625"
"80","2.17002237136465","-0.535421327367636","-0.581655480984342","-3.93959731543624","2.98061148396719","0","0.0625"
"81","2.17002237136465","0.464578672632364","-1.58165548098434","-3.93959731543624","2.98061148396719","0","0.0625"
"86","2.17002237136465","0.464578672632364","-1.58165548098434","-2.93959731543624","2.98061148396719","0","0.0625"
"87","1.17002237136465","0.464578672632364","1.41834451901566","-2.93959731543624","2.98061148396719","0","0.0625"
"93","1.17002237136465","0.464578672632364","1.41834451901566","1.06040268456376","1.98061148396719","0","0.0625"
"93","0.170022371364653","2.46457867263236","1.41834451901566","1.06040268456376","1.98061148396719","0","0.0625"
"99","0.170022371364653","2.46457867263236","1.41834451901566","-3.93959731543624","3.98061148396719","0","0.0625"
"100","1.17002237136465","1.46457867263236","-1.58165548098434","-3.93959731543624","3.98061148396719","0","0.0625"
"105","1.17002237136465","1.46457867263236","-1.58165548098434","-1.93959731543624","0.980611483967189","0","0.0625"
"105","1.17002237136465","2.46457867263236","1.41834451901566","-1.93959731543624","0.980611483967189","0","0.0625"
"112","1.17002237136465","2.46457867263236","1.41834451901566","-2.93959731543624","-2.01938851603281","0","0.0625"
"113","-0.829977628635347","1.46457867263236","-0.581655480984342","-2.93959731543624","-2.01938851603281","0","0.0625"
"119","-0.829977628635347","1.46457867263236","-0.581655480984342","-1.93959731543624","1.98061148396719","0","0.0625"
"119","1.17002237136465","2.46457867263236","1.41834451901566","-1.93959731543624","1.98061148396719","0","0.0625"
"126","1.17002237136465","2.46457867263236","1.41834451901566","-0.939597315436242","0.980611483967189","0","0.0625"
"127","-1.82997762863535","-0.535421327367636","-0.581655480984342","-0.939597315436242","0.980611483967189","0","0.0625"
"133","-1.82997762863535","-0.535421327367636","-0.581655480984342","1.06040268456376","-1.01938851603281","0","0.0625"
"133","0.170022371364653","-0.535421327367636","-3.58165548098434","1.06040268456376","-1.01938851603281","0","0.0625"
"138","0.170022371364653","-0.535421327367636","-3.58165548098434","1.06040268456376","-1.01938851603281","0","0.0625"
"138","0.170022371364653","0.464578672632364","2.41834451901566","1.06040268456376","-1.01938851603281","0","0.0625"
"145","0.170022371364653","0.464578672632364","2.41834451901566","2.06040268456376","-1.01938851603281","0","0.0625"
"145","-0.829977628635347","1.46457867263236","1.41834451901566","2.06040268456376","-1.01938851603281","0","0.0625"
"150","-0.829977628635347","1.46457867263236","1.41834451901566","0.0604026845637584","0.980611483967189","0","0.0625"
"151","-0.829977628635347","2.46457867263236","1.41834451901566","0.0604026845637584","0.980611483967189","0","0.0625"
"156","-0.829977628635347","2.46457867263236","1.41834451901566","6.06040268456376","0.980611483967189","0","0.0625"
"156","-2.82997762863535","1.46457867263236","-0.581655480984342","6.06040268456376","0.980611483967189","0","0.0625"
"162","-2.82997762863535","1.46457867263236","-0.581655480984342","3.06040268456376","1.98061148396719","0","0.0625"
"163","0.170022371364653","-0.535421327367636","-1.58165548098434","3.06040268456376","1.98061148396719","0","0.0625"
"168","0.170022371364653","-0.535421327367636","-1.58165548098434","-0.939597315436242","-3.01938851603281","0","0.0625"
"169","-0.829977628635347","0.464578672632364","0.418344519015658","-0.939597315436242","-3.01938851603281","0","0.0625"
"174","-0.829977628635347","0.464578672632364","0.418344519015658","-0.939597315436242","-2.01938851603281","0","0.0625"
"174","1.17002237136465","2.46457867263236","1.41834451901566","-0.939597315436242","-2.01938851603281","0","0.0625"
"180","1.17002237136465","2.46457867263236","1.41834451901566","2.06040268456376","-0.0193885160328113","0","0.0625"
"180","-0.829977628635347","-0.535421327367636","1.41834451901566","2.06040268456376","-0.0193885160328113","0","0.0625"
"186","-0.829977628635347","-0.535421327367636","1.41834451901566","2.06040268456376","-0.0193885160328113","0","0.0625"
"187","1.17002237136465","0.464578672632364","-0.581655480984342","2.06040268456376","-0.0193885160328113","0","0.0625"
"193","1.17002237136465","0.464578672632364","-0.581655480984342","0.0604026845637584","-1.01938851603281","0","0.0625"
"193","1.17002237136465","0.464578672632364","1.41834451901566","0.0604026845637584","-1.01938851603281","0","0.0625"
"199","1.17002237136465","0.464578672632364","1.41834451901566","-1.93959731543624","-0.0193885160328113","0","0.0625"
"199","0.170022371364653","2.46457867263236","1.41834451901566","-1.93959731543624","-0.0193885160328113","0","0.0625"
"205","0.170022371364653","2.46457867263236","1.41834451901566","-2.93959731543624","0.980611483967189","0","0.0625"
"205","1.17002237136465","0.464578672632364","-0.581655480984342","-2.93959731543624","0.980611483967189","0","0.0625"
"212","1.17002237136465","0.464578672632364","-0.581655480984342","1.06040268456376","-0.0193885160328113","0","0.0625"
"212","-1.82997762863535","1.46457867263236","-0.581655480984342","1.06040268456376","-0.0193885160328113","0","0.0625"
"218","-1.82997762863535","1.46457867263236","-0.581655480984342","-0.939597315436242","-0.0193885160328113","0","0.0625"
"218","-1.82997762863535","0.464578672632364","-1.58165548098434","-0.939597315436242","-0.0193885160328113","0","0.0625"
"224","-1.82997762863535","0.464578672632364","-1.58165548098434","1.06040268456376","-0.0193885160328113","0","0.0625"
"224","-0.829977628635347","2.46457867263236","-0.581655480984342","1.06040268456376","-0.0193885160328113","0","0.0625"
"230","-0.829977628635347","2.46457867263236","-0.581655480984342","1.06040268456376","-0.0193885160328113","0","0.0625"
"231","0.170022371364653","-0.535421327367636","0.418344519015658","1.06040268456376","-0.0193885160328113","0","0.0625"
"237","0.170022371364653","-0.535421327367636","0.418344519015658","1.06040268456376","0.980611483967189","0","0.0625"
"237","0.170022371364653","0.464578672632364","0.418344519015658","1.06040268456376","0.980611483967189","0","0.0625"
"243","0.170022371364653","0.464578672632364","0.418344519015658","4.06040268456376","-2.01938851603281","0","0.0625"
"243","1.17002237136465","1.46457867263236","0.418344519015658","4.06040268456376","-2.01938851603281","0","0.0625"
"250","1.17002237136465","1.46457867263236","0.418344519015658","2.06040268456376","-1.01938851603281","0","0.0625"
"250","0.170022371364653","2.46457867263236","-2.58165548098434","2.06040268456376","-1.01938851603281","0","0.0625"
"257","0.170022371364653","2.46457867263236","-2.58165548098434","-0.939597315436242","-0.0193885160328113","0","0.0625"
"257","0.170022371364653","1.46457867263236","-2.58165548098434","-0.939597315436242","-0.0193885160328113","0","0.0625"
"265","0.170022371364653","1.46457867263236","-2.58165548098434","1.06040268456376","1.98061148396719","0","0.0625"
"266","0.170022371364653","-0.535421327367636","-1.58165548098434","1.06040268456376","1.98061148396719","0","0.0625"
"274","0.170022371364653","-0.535421327367636","-1.58165548098434","-2.93959731543624","-2.01938851603281","0","0.0625"
"274","0.170022371364653","0.464578672632364","-0.581655480984342","-2.93959731543624","-2.01938851603281","0","0.0625"
"282","0.170022371364653","0.464578672632364","-0.581655480984342","2.06040268456376","-0.0193885160328113","0","0.0625"
"282","2.17002237136465","3.46457867263236","-1.58165548098434","2.06040268456376","-0.0193885160328113","0","0.0625"
"288","2.17002237136465","3.46457867263236","-1.58165548098434","2.06040268456376","0.980611483967189","0","0.0625"
"288","0.170022371364653","2.46457867263236","0.418344519015658","2.06040268456376","0.980611483967189","0","0.0625"
"295","0.170022371364653","2.46457867263236","0.418344519015658","2.06040268456376","0.980611483967189","0","0.0625"
"295","-1.82997762863535","-1.53542132736764","-0.581655480984342","2.06040268456376","0.980611483967189","0","0.0625"
"301","-1.82997762863535","-1.53542132736764","-0.581655480984342","0.0604026845637584","-0.0193885160328113","0","0.0625"
"301","-0.829977628635347","2.46457867263236","1.41834451901566","0.0604026845637584","-0.0193885160328113","0","0.0625"
"306","-0.829977628635347","2.46457867263236","1.41834451901566","-0.939597315436242","-0.0193885160328113","0","0.0625"
"306","0.170022371364653","2.46457867263236","1.41834451901566","-0.939597315436242","-0.0193885160328113","0","0.0625"
"313","0.170022371364653","2.46457867263236","1.41834451901566","0.0604026845637584","-2.01938851603281","0","0.0625"
"313","0.170022371364653","0.464578672632364","0.418344519015658","0.0604026845637584","-2.01938851603281","0","0.0625"
"318","0.170022371364653","0.464578672632364","0.418344519015658","3.06040268456376","0.980611483967189","0","0.0625"
"319","-0.829977628635347","0.464578672632364","-0.581655480984342","3.06040268456376","0.980611483967189","0","0.0625"
"324","-0.829977628635347","0.464578672632364","-0.581655480984342","2.06040268456376","0.980611483967189","0","0.0625"
"324","0.170022371364653","2.46457867263236","0.418344519015658","2.06040268456376","0.980611483967189","0","0.0625"
"331","0.170022371364653","2.46457867263236","0.418344519015658","3.06040268456376","0.980611483967189","0","0.0625"
"331","0.170022371364653","2.46457867263236","0.418344519015658","3.06040268456376","0.980611483967189","0","0.0625"
"336","0.170022371364653","2.46457867263236","0.418344519015658","2.06040268456376","0.980611483967189","0","0.0625"
"337","1.17002237136465","0.464578672632364","1.41834451901566","2.06040268456376","0.980611483967189","0","0.0625"
"343","1.17002237136465","0.464578672632364","1.41834451901566","2.06040268456376","-1.01938851603281","0","0.0625"
"343","0.170022371364653","0.464578672632364","-0.581655480984342","2.06040268456376","-1.01938851603281","0","0.0625"
"349","0.170022371364653","0.464578672632364","-0.581655480984342","5.06040268456376","-2.01938851603281","0","0.0625"
"349","1.17002237136465","2.46457867263236","0.418344519015658","5.06040268456376","-2.01938851603281","0","0.0625"
"355","1.17002237136465","2.46457867263236","0.418344519015658","0.0604026845637584","-1.01938851603281","0","0.0625"
"355","-0.829977628635347","0.464578672632364","-0.581655480984342","0.0604026845637584","-1.01938851603281","0","0.0625"
"361","-0.829977628635347","0.464578672632364","-0.581655480984342","2.06040268456376","-3.01938851603281","0","0.0625"
"361","-2.82997762863535","4.46457867263236","-2.58165548098434","2.06040268456376","-3.01938851603281","0","0.0625"
"367","-2.82997762863535","4.46457867263236","-2.58165548098434","0.0604026845637584","-2.01938851603281","0","0.0625"
"367","-0.829977628635347","0.464578672632364","-1.58165548098434","0.0604026845637584","-2.01938851603281","0","0.0625"
"373","-0.829977628635347","0.464578672632364","-1.58165548098434","0.0604026845637584","-1.01938851603281","0","0.0625"
"373","1.17002237136465","0.464578672632364","2.41834451901566","0.0604026845637584","-1.01938851603281","0","0.0625"
"379","1.17002237136465","0.464578672632364","2.41834451901566","1.06040268456376","-0.0193885160328113","0","0.0625"
"379","0.170022371364653","1.46457867263236","0.418344519015658","1.06040268456376","-0.0193885160328113","0","0.0625"
"385","0.170022371364653","1.46457867263236","0.418344519015658","1.06040268456376","-1.01938851603281","0","0.0625"
"385","0.170022371364653","-0.535421327367636","-0.581655480984342","1.06040268456376","-1.01938851603281","0","0.0625"
"390","0.170022371364653","-0.535421327367636","-0.581655480984342","2.06040268456376","-2.01938851603281","0","0.0625"
"390","0.170022371364653","2.46457867263236","1.41834451901566","2.06040268456376","-2.01938851603281","0","0.0625"
"396","0.170022371364653","2.46457867263236","1.41834451901566","0.0604026845637584","-0.0193885160328113","0","0.0625"
"396","-0.829977628635347","3.46457867263236","1.41834451901566","0.0604026845637584","-0.0193885160328113","0","0.0625"
"402","-0.829977628635347","3.46457867263236","1.41834451901566","1.06040268456376","2.98061148396719","0","0.0625"
"402","1.17002237136465","-0.535421327367636","1.41834451901566","1.06040268456376","2.98061148396719","0","0.0625"
"408","1.17002237136465","-0.535421327367636","1.41834451901566","-3.93959731543624","1.98061148396719","0","0.0625"
"408","0.170022371364653","0.464578672632364","2.41834451901566","-3.93959731543624","1.98061148396719","0","0.0625"
"414","0.170022371364653","0.464578672632364","2.41834451901566","-1.93959731543624","1.98061148396719","0","0.0625"
"414","0.170022371364653","3.46457867263236","-0.581655480984342","-1.93959731543624","1.98061148396719","0","0.0625"
"420","0.170022371364653","3.46457867263236","-0.581655480984342","-0.939597315436242","1.98061148396719","0","0.0625"
"420","-1.82997762863535","0.464578672632364","1.41834451901566","-0.939597315436242","1.98061148396719","0","0.0625"
"426","-1.82997762863535","0.464578672632364","1.41834451901566","0.0604026845637584","1.98061148396719","0","0.0625"
"426","-0.829977628635347","0.464578672632364","0.418344519015658","0.0604026845637584","1.98061148396719","0","0.0625"
"432","-0.829977628635347","0.464578672632364","0.418344519015658","0.0604026845637584","3.98061148396719","0","0.0625"
"432","0.170022371364653","1.46457867263236","1.41834451901566","0.0604026845637584","3.98061148396719","0","0.0625"
"438","0.170022371364653","1.46457867263236","1.41834451901566","1.06040268456376","2.98061148396719","0","0.0625"
"438","-0.829977628635347","3.46457867263236","0.418344519015658","1.06040268456376","2.98061148396719","0","0.0625"
"444","-0.829977628635347","3.46457867263236","0.418344519015658","1.06040268456376","-0.0193885160328113","0","0.0625"
"444","1.17002237136465","2.46457867263236","-0.581655480984342","1.06040268456376","-0.0193885160328113","0","0.0625"
"451","1.17002237136465","2.46457867263236","-0.581655480984342","-0.939597315436242","-0.0193885160328113","0","0.0625"
"451","1.17002237136465","-0.535421327367636","1.41834451901566","-0.939597315436242","-0.0193885160328113","0","0.0625"
"458","1.17002237136465","-0.535421327367636","1.41834451901566","-0.939597315436242","-1.01938851603281","0","0.0625"
"458","-1.82997762863535","-0.535421327367636","1.41834451901566","-0.939597315436242","-1.01938851603281","0","0.0625"
"466","-1.82997762863535","-0.535421327367636","1.41834451901566","-2.93959731543624","-1.01938851603281","0","0.0625"
"466","-0.829977628635347","1.46457867263236","-0.581655480984342","-2.93959731543624","-1.01938851603281","0","0.0625"
"472","-0.829977628635347","1.46457867263236","-0.581655480984342","-1.93959731543624","-1.01938851603281","0","0.0625"
"472","-0.829977628635347","0.464578672632364","-0.581655480984342","-1.93959731543624","-1.01938851603281","0","0.0625"
"478","-0.829977628635347","0.464578672632364","-0.581655480984342","-0.939597315436242","1.98061148396719","0","0.0625"
"478","0.170022371364653","-1.53542132736764","-1.58165548098434","-0.939597315436242","1.98061148396719","0","0.0625"
"487","0.170022371364653","-1.53542132736764","-1.58165548098434","0.0604026845637584","0.980611483967189","0","0.0625"
"487","-1.82997762863535","1.46457867263236","-0.581655480984342","0.0604026845637584","0.980611483967189","0","0.0625"
"496","-1.82997762863535","1.46457867263236","-0.581655480984342","-2.93959731543624","-0.0193885160328113","0","0.0625"
"496","0.170022371364653","1.46457867263236","-0.581655480984342","-2.93959731543624","-0.0193885160328113","0","0.0625"
"503","0.170022371364653","1.46457867263236","-0.581655480984342","-1.93959731543624","-0.0193885160328113","0","0.0625"
"503","1.17002237136465","2.46457867263236","2.41834451901566","-1.93959731543624","-0.0193885160328113","0","0.0625"
"510","1.17002237136465","2.46457867263236","2.41834451901566","-0.939597315436242","-1.01938851603281","0","0.0625"
"510","-1.82997762863535","1.46457867263236","0.418344519015658","-0.939597315436242","-1.01938851603281","0","0.0625"
"516","-1.82997762863535","1.46457867263236","0.418344519015658","-1.93959731543624","0.980611483967189","0","0.0625"
"517","1.17002237136465","2.46457867263236","-1.58165548098434","-1.93959731543624","0.980611483967189","0","0.0625"
"522","1.17002237136465","2.46457867263236","-1.58165548098434","0.0604026845637584","-0.0193885160328113","0","0.0625"
"522","-1.82997762863535","-0.535421327367636","1.41834451901566","0.0604026845637584","-0.0193885160328113","0","0.0625"
"529","-1.82997762863535","-0.535421327367636","1.41834451901566","0.0604026845637584","-0.0193885160328113","0","0.0625"
"529","-4.82997762863535","2.46457867263236","0.418344519015658","0.0604026845637584","-0.0193885160328113","0","0.0625"
"535","-4.82997762863535","2.46457867263236","0.418344519015658","-1.93959731543624","1.98061148396719","0","0.0625"
"535","0.170022371364653","2.46457867263236","-0.581655480984342","-1.93959731543624","1.98061148396719","0","0.0625"
"540","0.170022371364653","2.46457867263236","-0.581655480984342","2.06040268456376","2.98061148396719","0","0.0625"
"540","-3.82997762863535","3.46457867263236","0.418344519015658","2.06040268456376","2.98061148396719","0","0.0625"
"547","-3.82997762863535","3.46457867263236","0.418344519015658","0.0604026845637584","-1.01938851603281","0","0.0625"
"547","0.170022371364653","0.464578672632364","-1.58165548098434","0.0604026845637584","-1.01938851603281","0","0.0625"
"553","0.170022371364653","0.464578672632364","-1.58165548098434","-0.939597315436242","0.980611483967189","0","0.0625"
"553","-1.82997762863535","4.46457867263236","1.41834451901566","-0.939597315436242","0.980611483967189","0","0.0625"
"559","-1.82997762863535","4.46457867263236","1.41834451901566","1.06040268456376","-0.0193885160328113","0","0.0625"
"559","-2.82997762863535","2.46457867263236","1.41834451901566","1.06040268456376","-0.0193885160328113","0","0.0625"
"565","-2.82997762863535","2.46457867263236","1.41834451901566","2.06040268456376","0.980611483967189","0","0.0625"
"565","-0.829977628635347","1.46457867263236","1.41834451901566","2.06040268456376","0.980611483967189","0","0.0625"
"571","-0.829977628635347","1.46457867263236","1.41834451901566","0.0604026845637584","-3.01938851603281","0","0.0625"
"571","1.17002237136465","2.46457867263236","0.418344519015658","0.0604026845637584","-3.01938851603281","0","0.0625"
"577","1.17002237136465","2.46457867263236","0.418344519015658","1.06040268456376","-3.01938851603281","0","0.0625"
"577","7.17002237136465","0.464578672632364","2.41834451901566","1.06040268456376","-3.01938851603281","0","0.0625"
"583","7.17002237136465","0.464578672632364","2.41834451901566","-0.939597315436242","-3.01938851603281","0","0.0625"
"583","-0.829977628635347","-3.53542132736764","0.418344519015658","-0.939597315436242","-3.01938851603281","0","0.0625"
"588","-0.829977628635347","-3.53542132736764","0.418344519015658","-3.93959731543624","-0.0193885160328113","0","0.0625"
"589","-4.82997762863535","-0.535421327367636","-3.58165548098434","-3.93959731543624","-0.0193885160328113","0","0.0625"
"595","-4.82997762863535","-0.535421327367636","-3.58165548098434","-3.93959731543624","0.980611483967189","0","0.0625"
"595","0.170022371364653","6.46457867263236","0.418344519015658","-3.93959731543624","0.980611483967189","0","0.0625"
"600","0.170022371364653","6.46457867263236","0.418344519015658","1.06040268456376","-1.01938851603281","0","0.0625"
"601","1.17002237136465","1.46457867263236","2.41834451901566","1.06040268456376","-1.01938851603281","0","0.0625"
"606","1.17002237136465","1.46457867263236","2.41834451901566","3.06040268456376","-0.0193885160328113","0","0.0625"
"606","-1.82997762863535","-9.53542132736764","2.41834451901566","3.06040268456376","-0.0193885160328113","0","0.0625"
"612","-1.82997762863535","-9.53542132736764","2.41834451901566","-3.93959731543624","-0.0193885160328113","0","0.0625"
"612","-7.82997762863535","7.46457867263236","-5.58165548098434","-3.93959731543624","-0.0193885160328113","0","0.0625"
"618","-7.82997762863535","7.46457867263236","-5.58165548098434","-3.93959731543624","1.98061148396719","0","0.0625"
"618","0.170022371364653","4.46457867263236","-0.581655480984342","-3.93959731543624","1.98061148396719","0","0.0625"
"624","0.170022371364653","4.46457867263236","-0.581655480984342","5.06040268456376","-2.01938851603281","0","0.0625"
"624","3.17002237136465","-5.53542132736764","3.41834451901566","5.06040268456376","-2.01938851603281","0","0.0625"
"632","3.17002237136465","-5.53542132736764","3.41834451901566","-3.93959731543624","-2.01938851603281","0","0.0625"
"632","-0.829977628635347","-2.53542132736764","0.418344519015658","-3.93959731543624","-2.01938851603281","0","0.0625"
"640","-0.829977628635347","-2.53542132736764","0.418344519015658","-5.93959731543624","-2.01938851603281","0","0.0625"
"640","-1.82997762863535","8.46457867263236","-4.58165548098434","-5.93959731543624","-2.01938851603281","0","0.0625"
"647","-1.82997762863535","8.46457867263236","-4.58165548098434","4.06040268456376","-2.01938851603281","0","0.0625"
"647","1.17002237136465","-6.53542132736764","-0.581655480984342","4.06040268456376","-2.01938851603281","0","0.0625"
"653","1.17002237136465","-6.53542132736764","-0.581655480984342","0.0604026845637584","-1.01938851603281","0","0.0625"
"653","4.17002237136465","-9.53542132736764","4.41834451901566","0.0604026845637584","-1.01938851603281","0","0.0625"
"659","4.17002237136465","-9.53542132736764","4.41834451901566","-4.93959731543624","-2.01938851603281","0","0.0625"
"659","0.170022371364653","7.46457867263236","1.41834451901566","-4.93959731543624","-2.01938851603281","0","0.0625"
"665","0.170022371364653","7.46457867263236","1.41834451901566","1.06040268456376","-1.01938851603281","0","0.0625"
"665","-3.82997762863535","3.46457867263236","-0.581655480984342","1.06040268456376","-1.01938851603281","0","0.0625"
"670","-3.82997762863535","3.46457867263236","-0.581655480984342","0.0604026845637584","0.980611483967189","0","0.0625"
"671","-1.82997762863535","-3.53542132736764","-2.58165548098434","0.0604026845637584","0.980611483967189","0","0.0625"
"677","-1.82997762863535","-3.53542132736764","-2.58165548098434","-2.93959731543624","-1.01938851603281","0","0.0625"
"677","-2.82997762863535","-5.53542132736764","0.418344519015658","-2.93959731543624","-1.01938851603281","0","0.0625"
"685","-2.82997762863535","-5.53542132736764","0.418344519015658","-6.93959731543624","-0.0193885160328113","0","0.0625"
"685","-7.82997762863535","-0.535421327367636","-0.581655480984342","-6.93959731543624","-0.0193885160328113","0","0.0625"
"691","-7.82997762863535","-0.535421327367636","-0.581655480984342","-2.93959731543624","-0.0193885160328113","0","0.0625"
"692","-14.8299776286353","-6.53542132736764","-4.58165548098434","-2.93959731543624","-0.0193885160328113","0","0.0625"
"699","-14.8299776286353","-6.53542132736764","-4.58165548098434","-0.939597315436242","-2.01938851603281","0","0.0625"
"699","-5.82997762863535","-8.53542132736764","0.418344519015658","-0.939597315436242","-2.01938851603281","0","0.0625"
"706","-5.82997762863535","-8.53542132736764","0.418344519015658","-3.93959731543624","-1.01938851603281","0","0.0625"
"707","7.17002237136465","24.4645786726324","-10.5816554809843","-3.93959731543624","-1.01938851603281","0","0.0625"
"714","7.17002237136465","24.4645786726324","-10.5816554809843","7.06040268456376","-3.01938851603281","0","0.0625"
"714","8.17002237136465","-2.53542132736764","6.41834451901566","7.06040268456376","-3.01938851603281","0","0.0625"
"721","8.17002237136465","-2.53542132736764","6.41834451901566","3.06040268456376","-3.01938851603281","0","0.0625"
"721","7.17002237136465","-30.5354213273676","12.4183445190157","3.06040268456376","-3.01938851603281","0","0.0625"
"727","7.17002237136465","-30.5354213273676","12.4183445190157","-7.93959731543624","-1.01938851603281","0","0.0625"
"728","-5.82997762863535","39.4645786726324","-15.5816554809843","-7.93959731543624","-1.01938851603281","0","0.0625"
"734","-5.82997762863535","39.4645786726324","-15.5816554809843","-3.93959731543624","0.980611483967189","0","0.0625"
"734","21.1700223713647","26.4645786726324","3.41834451901566","-3.93959731543624","0.980611483967189","0","0.0625"
"739","21.1700223713647","26.4645786726324","3.41834451901566","16.0604026845638","-2.01938851603281","0","0.0625"
"740","17.1700223713647","-7.53542132736764","11.4183445190157","16.0604026845638","-2.01938851603281","0","0.0625"
"746","17.1700223713647","-7.53542132736764","11.4183445190157","-1.93959731543624","-5.01938851603281","0","0.0625"
"746","-4.82997762863535","-9.53542132736764","-0.581655480984342","-1.93959731543624","-5.01938851603281","0","0.0625"
"754","-4.82997762863535","-9.53542132736764","-0.581655480984342","-12.9395973154362","1.98061148396719","0","0.0625"
"754","-1.82997762863535","10.4645786726324","-3.58165548098434","-12.9395973154362","1.98061148396719","0","0.0625"
"761","-1.82997762863535","10.4645786726324","-3.58165548098434","2.06040268456376","-1.01938851603281","0","0.0625"
"761","0.170022371364653","-7.53542132736764","-0.581655480984342","2.06040268456376","-1.01938851603281","0","0.0625"
"767","0.170022371364653","-7.53542132736764","-0.581655480984342","4.06040268456376","-0.0193885160328113","0","0.0625"
"767","1.17002237136465","-13.5354213273676","0.418344519015658","4.06040268456376","-0.0193885160328113","0","0.0625"
"773","1.17002237136465","-13.5354213273676","0.418344519015658","-6.93959731543624","0.980611483967189","0","0.0625"
"773","1.17002237136465","8.46457867263236","3.41834451901566","-6.93959731543624","0.980611483967189","0","0.0625"
"779","1.17002237136465","8.46457867263236","3.41834451901566","1.06040268456376","0.980611483967189","0","0.0625"
"779","-2.82997762863535","2.46457867263236","-2.58165548098434","1.06040268456376","0.980611483967189","0","0.0625"
"785","-2.82997762863535","2.46457867263236","-2.58165548098434","5.06040268456376","-5.01938851603281","0","0.0625"
"785","1.17002237136465","-15.5354213273676","-1.58165548098434","5.06040268456376","-5.01938851603281","0","0.0625"
"791","1.17002237136465","-15.5354213273676","-1.58165548098434","-1.93959731543624","-0.0193885160328113","0","0.0625"
"791","3.17002237136465","-20.5354213273676","3.41834451901566","-1.93959731543624","-0.0193885160328113","0","0.0625"
"797","3.17002237136465","-20.5354213273676","3.41834451901566","3.06040268456376","-1.01938851603281","0","0.0625"
"797","-2.82997762863535","7.46457867263236","-3.58165548098434","3.06040268456376","-1.01938851603281","0","0.0625"
"803","-2.82997762863535","7.46457867263236","-3.58165548098434","3.06040268456376","-1.01938851603281","0","0.0625"
"803","-8.82997762863535","2.46457867263236","-7.58165548098434","3.06040268456376","-1.01938851603281","0","0.0625"
"808","-8.82997762863535","2.46457867263236","-7.58165548098434","3.06040268456376","0.980611483967189","0","0.0625"
"809","-8.82997762863535","-7.53542132736764","0.418344519015658","3.06040268456376","0.980611483967189","0","0.0625"
"815","-8.82997762863535","-7.53542132736764","0.418344519015658","-2.93959731543624","1.98061148396719","0","0.0625"
"815","0.170022371364653","2.46457867263236","1.41834451901566","-2.93959731543624","1.98061148396719","0","0.0625"
"820","0.170022371364653","2.46457867263236","1.41834451901566","1.06040268456376","1.98061148396719","0","0.0625"
"820","-2.82997762863535","5.46457867263236","0.418344519015658","1.06040268456376","1.98061148396719","0","0.0625"
"828","-2.82997762863535","5.46457867263236","0.418344519015658","-0.939597315436242","-0.0193885160328113","0","0.0625"
"828","-1.82997762863535","6.46457867263236","2.41834451901566","-0.939597315436242","-0.0193885160328113","0","0.0625"
"834","-1.82997762863535","6.46457867263236","2.41834451901566","-0.939597315436242","-0.0193885160328113","0","0.0625"
"834","-0.829977628635347","2.46457867263236","-2.58165548098434","-0.939597315436242","-0.0193885160328113","0","0.0625"
"840","-0.829977628635347","2.46457867263236","-2.58165548098434","-0.939597315436242","-3.01938851603281","0","0.0625"
"840","4.17002237136465","1.46457867263236","1.41834451901566","-0.939597315436242","-3.01938851603281","0","0.0625"
"846","4.17002237136465","1.46457867263236","1.41834451901566","-2.93959731543624","-1.01938851603281","0","0.0625"
"846","0.170022371364653","6.46457867263236","-3.58165548098434","-2.93959731543624","-1.01938851603281","0","0.0625"
"852","0.170022371364653","6.46457867263236","-3.58165548098434","0.0604026845637584","0.980611483967189","0","0.0625"
"852","0.170022371364653","5.46457867263236","1.41834451901566","0.0604026845637584","0.980611483967189","0","0.0625"
"858","0.170022371364653","5.46457867263236","1.41834451901566","-2.93959731543624","-2.01938851603281","0","0.0625"
"858","2.17002237136465","0.464578672632364","-0.581655480984342","-2.93959731543624","-2.01938851603281","0","0.0625"
"865","2.17002237136465","0.464578672632364","-0.581655480984342","-2.93959731543624","-2.01938851603281","0","0.0625"
"865","6.17002237136465","3.46457867263236","1.41834451901566","-2.93959731543624","-2.01938851603281","0","0.0625"
"870","6.17002237136465","3.46457867263236","1.41834451901566","-0.939597315436242","-3.01938851603281","0","0.0625"
"871","4.17002237136465","2.46457867263236","-1.58165548098434","-0.939597315436242","-3.01938851603281","0","0.0625"
"877","4.17002237136465","2.46457867263236","-1.58165548098434","-0.939597315436242","-1.01938851603281","0","0.0625"
"877","1.17002237136465","1.46457867263236","0.418344519015658","-0.939597315436242","-1.01938851603281","0","0.0625"
"883","1.17002237136465","1.46457867263236","0.418344519015658","1.06040268456376","1.98061148396719","0","0.0625"
"883","-1.82997762863535","2.46457867263236","-0.581655480984342","1.06040268456376","1.98061148396719","0","0.0625"
"889","-1.82997762863535","2.46457867263236","-0.581655480984342","-0.939597315436242","-0.0193885160328113","0","0.0625"
"889","5.17002237136465","-0.535421327367636","1.41834451901566","-0.939597315436242","-0.0193885160328113","0","0.0625"
"896","5.17002237136465","-0.535421327367636","1.41834451901566","-0.939597315436242","1.98061148396719","0","0.0625"
"896","4.17002237136465","2.46457867263236","-0.581655480984342","-0.939597315436242","1.98061148396719","0","0.0625"
"903","4.17002237136465","2.46457867263236","-0.581655480984342","-0.939597315436242","-0.0193885160328113","0","0.0625"
"903","2.17002237136465","3.46457867263236","-0.581655480984342","-0.939597315436242","-0.0193885160328113","0","0.0625"
"910","2.17002237136465","3.46457867263236","-0.581655480984342","1.06040268456376","-0.0193885160328113","0","0.0625"
"910","2.17002237136465","1.46457867263236","2.41834451901566","1.06040268456376","-0.0193885160328113","0","0.0625"
"916","2.17002237136465","1.46457867263236","2.41834451901566","-1.93959731543624","1.98061148396719","0","0.0625"
"916","1.17002237136465","-7.53542132736764","4.41834451901566","-1.93959731543624","1.98061148396719","0","0.0625"
"922","1.17002237136465","-7.53542132736764","4.41834451901566","-1.93959731543624","0.980611483967189","0","0.0625"
"922","-0.829977628635347","4.46457867263236","-2.58165548098434","-1.93959731543624","0.980611483967189","0","0.0625"
"931","-0.829977628635347","4.46457867263236","-2.58165548098434","-1.93959731543624","0.980611483967189","0","0.0625"
"931","-1.82997762863535","-0.535421327367636","1.41834451901566","-1.93959731543624","0.980611483967189","0","0.0625"
"938","-1.82997762863535","-0.535421327367636","1.41834451901566","5.06040268456376","-3.01938851603281","0","0.0625"
"938","-9.82997762863535","-1.53542132736764","-2.58165548098434","5.06040268456376","-3.01938851603281","0","0.0625"
"946","-9.82997762863535","-1.53542132736764","-2.58165548098434","-1.93959731543624","0.980611483967189","0","0.0625"
"946","0.170022371364653","2.46457867263236","1.41834451901566","-1.93959731543624","0.980611483967189","0","0.0625"
"952","0.170022371364653","2.46457867263236","1.41834451901566","-1.93959731543624","0.980611483967189","0","0.0625"
"952","-1.82997762863535","-7.53542132736764","0.418344519015658","-1.93959731543624","0.980611483967189","0","0.0625"
"958","-1.82997762863535","-7.53542132736764","0.418344519015658","-6.93959731543624","-0.0193885160328113","0","0.0625"
"958","0.170022371364653","-9.53542132736764","3.41834451901566","-6.93959731543624","-0.0193885160328113","0","0.0625"
"965","0.170022371364653","-9.53542132736764","3.41834451901566","-6.93959731543624","-0.0193885160328113","0","0.0625"
"965","-1.82997762863535","2.46457867263236","-0.581655480984342","-6.93959731543624","-0.0193885160328113","0","0.0625"
"970","-1.82997762863535","2.46457867263236","-0.581655480984342","2.06040268456376","-0.0193885160328113","0","0.0625"
"970","-2.82997762863535","2.46457867263236","-3.58165548098434","2.06040268456376","-0.0193885160328113","0","0.0625"
"976","-2.82997762863535","2.46457867263236","-3.58165548098434","4.06040268456376","-1.01938851603281","0","0.0625"
"977","4.17002237136465","-5.53542132736764","3.41834451901566","4.06040268456376","-1.01938851603281","0","0.0625"
"983","4.17002237136465","-5.53542132736764","3.41834451901566","-0.939597315436242","-0.0193885160328113","0","0.0625"
"983","0.170022371364653","2.46457867263236","-1.58165548098434","-0.939597315436242","-0.0193885160328113","0","0.0625"
"988","0.170022371364653","2.46457867263236","-1.58165548098434","1.06040268456376","-0.0193885160328113","0","0.0625"
"988","3.17002237136465","0.464578672632364","1.41834451901566","1.06040268456376","-0.0193885160328113","0","0.0625"
"994","3.17002237136465","0.464578672632364","1.41834451901566","1.06040268456376","-0.0193885160328113","0","0.0625"
"994","-1.82997762863535","2.46457867263236","-2.58165548098434","1.06040268456376","-0.0193885160328113","0","0.0625"
"1001","-1.82997762863535","2.46457867263236","-2.58165548098434","1.06040268456376","-0.0193885160328113","0","0.0625"
"1001","8.17002237136465","2.46457867263236","1.41834451901566","1.06040268456376","-0.0193885160328113","0","0.0625"
"1006","8.17002237136465","2.46457867263236","1.41834451901566","-1.93959731543624","-1.01938851603281","0","0.0625"
"1006","2.17002237136465","4.46457867263236","-1.58165548098434","-1.93959731543624","-1.01938851603281","0","0.0625"
"1012","2.17002237136465","4.46457867263236","-1.58165548098434","-2.93959731543624","-3.01938851603281","0","0.0625"
"1012","3.17002237136465","2.46457867263236","-0.581655480984342","-2.93959731543624","-3.01938851603281","0","0.0625"
"1019","3.17002237136465","2.46457867263236","-0.581655480984342","0.0604026845637584","0.980611483967189","0","0.0625"
"1019","2.17002237136465","1.46457867263236","1.41834451901566","0.0604026845637584","0.980611483967189","0","0.0625"
"1024","2.17002237136465","1.46457867263236","1.41834451901566","0.0604026845637584","0.980611483967189","0","0.0625"
"1024","8.17002237136465","-2.53542132736764","2.41834451901566","0.0604026845637584","0.980611483967189","0","0.0625"
"1030","8.17002237136465","-2.53542132736764","2.41834451901566","-1.93959731543624","-3.01938851603281","0","0.0625"
"1031","8.17002237136465","-0.535421327367636","0.418344519015658","-1.93959731543624","-3.01938851603281","0","0.0625"
"1036","8.17002237136465","-0.535421327367636","0.418344519015658","1.06040268456376","-1.01938851603281","0","0.0625"
"1036","3.17002237136465","0.464578672632364","3.41834451901566","1.06040268456376","-1.01938851603281","0","0.0625"
"1042","3.17002237136465","0.464578672632364","3.41834451901566","0.0604026845637584","-1.01938851603281","0","0.0625"
"1042","1.17002237136465","0.464578672632364","1.41834451901566","0.0604026845637584","-1.01938851603281","0","0.0625"
"1049","1.17002237136465","0.464578672632364","1.41834451901566","-0.939597315436242","-0.0193885160328113","0","0.0625"
"1049","1.17002237136465","-9.53542132736764","1.41834451901566","-0.939597315436242","-0.0193885160328113","0","0.0625"
"1055","1.17002237136465","-9.53542132736764","1.41834451901566","1.06040268456376","-1.01938851603281","0","0.0625"
"1055","1.17002237136465","-4.53542132736764","-2.58165548098434","1.06040268456376","-1.01938851603281","0","0.0625"
"1062","1.17002237136465","-4.53542132736764","-2.58165548098434","3.06040268456376","0.980611483967189","0","0.0625"
"1062","0.170022371364653","0.464578672632364","-0.581655480984342","3.06040268456376","0.980611483967189","0","0.0625"
"1068","0.170022371364653","0.464578672632364","-0.581655480984342","-0.939597315436242","0.980611483967189","0","0.0625"
"1068","1.17002237136465","2.46457867263236","2.41834451901566","-0.939597315436242","0.980611483967189","0","0.0625"
"1073","1.17002237136465","2.46457867263236","2.41834451901566","1.06040268456376","-0.0193885160328113","0","0.0625"
"1073","-2.82997762863535","1.46457867263236","-1.58165548098434","1.06040268456376","-0.0193885160328113","0","0.0625"
"1080","-2.82997762863535","1.46457867263236","-1.58165548098434","-1.93959731543624","-2.01938851603281","0","0.0625"
"1080","0.170022371364653","0.464578672632364","2.41834451901566","-1.93959731543624","-2.01938851603281","0","0.0625"
"1085","0.170022371364653","0.464578672632364","2.41834451901566","-1.93959731543624","-2.01938851603281","0","0.0625"
"1085","-4.82997762863535","5.46457867263236","-1.58165548098434","-1.93959731543624","-2.01938851603281","0","0.0625"
"1091","-4.82997762863535","5.46457867263236","-1.58165548098434","-2.93959731543624","1.98061148396719","0","0.0625"
"1091","-4.82997762863535","5.46457867263236","-0.581655480984342","-2.93959731543624","1.98061148396719","0","0.0625"
"1097","-4.82997762863535","5.46457867263236","-0.581655480984342","-1.93959731543624","-0.0193885160328113","0","0.0625"
"1097","-1.82997762863535","4.46457867263236","-1.58165548098434","-1.93959731543624","-0.0193885160328113","0","0.0625"
"1103","-1.82997762863535","4.46457867263236","-1.58165548098434","-1.93959731543624","-1.01938851603281","0","0.0625"
"1104","3.17002237136465","0.464578672632364","7.41834451901566","-1.93959731543624","-1.01938851603281","0","0.0625"
"1112","3.17002237136465","0.464578672632364","7.41834451901566","-2.93959731543624","-0.0193885160328113","0","0.0625"
"1112","-0.829977628635347","7.46457867263236","-2.58165548098434","-2.93959731543624","-0.0193885160328113","0","0.0625"
"1118","-0.829977628635347","7.46457867263236","-2.58165548098434","-1.93959731543624","0.980611483967189","0","0.0625"
"1119","-1.82997762863535","2.46457867263236","-3.58165548098434","-1.93959731543624","0.980611483967189","0","0.0625"
"1128","-1.82997762863535","2.46457867263236","-3.58165548098434","-4.93959731543624","0.980611483967189","0","0.0625"
"1128","-0.829977628635347","-3.53542132736764","0.418344519015658","-4.93959731543624","0.980611483967189","0","0.0625"
"1138","-0.829977628635347","-3.53542132736764","0.418344519015658","-1.93959731543624","0.980611483967189","0","0.0625"
"1138","1.17002237136465","-5.53542132736764","-1.58165548098434","-1.93959731543624","0.980611483967189","0","0.0625"
"1145","1.17002237136465","-5.53542132736764","-1.58165548098434","-1.93959731543624","0.980611483967189","0","0.0625"
"1146","2.17002237136465","3.46457867263236","-1.58165548098434","-1.93959731543624","0.980611483967189","0","0.0625"
"1152","2.17002237136465","3.46457867263236","-1.58165548098434","1.06040268456376","-1.01938851603281","0","0.0625"
"1152","1.17002237136465","-0.535421327367636","0.418344519015658","1.06040268456376","-1.01938851603281","0","0.0625"
"1160","1.17002237136465","-0.535421327367636","0.418344519015658","1.06040268456376","-1.01938851603281","0","0.0625"
"1160","3.17002237136465","-3.53542132736764","0.418344519015658","1.06040268456376","-1.01938851603281","0","0.0625"
"1168","3.17002237136465","-3.53542132736764","0.418344519015658","-0.939597315436242","-0.0193885160328113","0","0.0625"
"1169","-6.82997762863535","1.46457867263236","-4.58165548098434","-0.939597315436242","-0.0193885160328113","0","0.0625"
"1176","-6.82997762863535","1.46457867263236","-4.58165548098434","4.06040268456376","2.98061148396719","0","0.0625"
"1176","8.17002237136465","3.46457867263236","4.41834451901566","4.06040268456376","2.98061148396719","0","0.0625"
"1184","8.17002237136465","3.46457867263236","4.41834451901566","1.06040268456376","-3.01938851603281","0","0.0625"
"1185","14.1700223713647","5.46457867263236","5.41834451901566","1.06040268456376","-3.01938851603281","0","0.0625"
"1193","14.1700223713647","5.46457867263236","5.41834451901566","-0.939597315436242","-1.01938851603281","0","0.0625"
"1193","-12.8299776286353","-7.53542132736764","-5.58165548098434","-0.939597315436242","-1.01938851603281","0","0.0625"
"1200","-12.8299776286353","-7.53542132736764","-5.58165548098434","-5.93959731543624","5.98061148396719","0","0.0625"
"1201","-4.82997762863535","2.46457867263236","-6.58165548098434","-5.93959731543624","5.98061148396719","0","0.0625"
"1206","-4.82997762863535","2.46457867263236","-6.58165548098434","4.06040268456376","-2.01938851603281","0","0.0625"
"1207","9.17002237136465","13.4645786726324","1.41834451901566","4.06040268456376","-2.01938851603281","0","0.0625"
"1212","9.17002237136465","13.4645786726324","1.41834451901566","1.06040268456376","-4.01938851603281","0","0.0625"
"1213","7.17002237136465","10.4645786726324","4.41834451901566","1.06040268456376","-4.01938851603281","0","0.0625"
"1219","7.17002237136465","10.4645786726324","4.41834451901566","-9.93959731543624","0.980611483967189","0","0.0625"
"1219","-8.82997762863535","-13.5354213273676","-3.58165548098434","-9.93959731543624","0.980611483967189","0","0.0625"
"1225","-8.82997762863535","-13.5354213273676","-3.58165548098434","-5.93959731543624","2.98061148396719","0","0.0625"
"1225","-12.8299776286353","-0.535421327367636","-6.58165548098434","-5.93959731543624","2.98061148396719","0","0.0625"
"1231","-12.8299776286353","-0.535421327367636","-6.58165548098434","4.06040268456376","-2.01938851603281","0","0.0625"
"1231","7.17002237136465","5.46457867263236","0.418344519015658","4.06040268456376","-2.01938851603281","0","0.0625"
"1237","7.17002237136465","5.46457867263236","0.418344519015658","5.06040268456376","-3.01938851603281","0","0.0625"
"1237","5.17002237136465","-4.53542132736764","4.41834451901566","5.06040268456376","-3.01938851603281","0","0.0625"
"1243","5.17002237136465","-4.53542132736764","4.41834451901566","-0.939597315436242","-1.01938851603281","0","0.0625"
"1243","-4.82997762863535","-5.53542132736764","1.41834451901566","-0.939597315436242","-1.01938851603281","0","0.0625"
"1249","-4.82997762863535","-5.53542132736764","1.41834451901566","-0.939597315436242","3.98061148396719","0","0.0625"
"1249","0.170022371364653","0.464578672632364","-2.58165548098434","-0.939597315436242","3.98061148396719","0","0.0625"
"1255","0.170022371364653","0.464578672632364","-2.58165548098434","-0.939597315436242","-0.0193885160328113","0","0.0625"
"1255","6.17002237136465","1.46457867263236","0.418344519015658","-0.939597315436242","-0.0193885160328113","0","0.0625"
"1261","6.17002237136465","1.46457867263236","0.418344519015658","-2.93959731543624","-1.01938851603281","0","0.0625"
"1261","-0.829977628635347","-6.53542132736764","-1.58165548098434","-2.93959731543624","-1.01938851603281","0","0.0625"
"1267","-0.829977628635347","-6.53542132736764","-1.58165548098434","-0.939597315436242","-0.0193885160328113","0","0.0625"
"1267","-3.82997762863535","2.46457867263236","-5.58165548098434","-0.939597315436242","-0.0193885160328113","0","0.0625"
"1273","-3.82997762863535","2.46457867263236","-5.58165548098434","5.06040268456376","1.98061148396719","0","0.0625"
"1273","-2.82997762863535","8.46457867263236","-1.58165548098434","5.06040268456376","1.98061148396719","0","0.0625"
"1279","-2.82997762863535","8.46457867263236","-1.58165548098434","2.06040268456376","0.980611483967189","0","0.0625"
"1279","0.170022371364653","2.46457867263236","-0.581655480984342","2.06040268456376","0.980611483967189","0","0.0625"
"1285","0.170022371364653","2.46457867263236","-0.581655480984342","-3.93959731543624","1.98061148396719","0","0.0625"
"1285","0.170022371364653","-2.53542132736764","-0.581655480984342","-3.93959731543624","1.98061148396719","0","0.0625"
"1291","0.170022371364653","-2.53542132736764","-0.581655480984342","-0.939597315436242","-2.01938851603281","0","0.0625"
"1291","2.17002237136465","-0.535421327367636","1.41834451901566","-0.939597315436242","-2.01938851603281","0","0.0625"
"1297","2.17002237136465","-0.535421327367636","1.41834451901566","1.06040268456376","-1.01938851603281","0","0.0625"
"1297","-0.829977628635347","2.46457867263236","-5.58165548098434","1.06040268456376","-1.01938851603281","0","0.0625"
"1302","-0.829977628635347","2.46457867263236","-5.58165548098434","-0.939597315436242","1.98061148396719","0","0.0625"
"1303","3.17002237136465","-0.535421327367636","-0.581655480984342","-0.939597315436242","1.98061148396719","0","0.0625"
"1308","3.17002237136465","-0.535421327367636","-0.581655480984342","2.06040268456376","-0.0193885160328113","0","0.0625"
"1308","3.17002237136465","-3.53542132736764","1.41834451901566","2.06040268456376","-0.0193885160328113","0","0.0625"
"1314","3.17002237136465","-3.53542132736764","1.41834451901566","1.06040268456376","0.980611483967189","0","0.0625"
"1314","-2.82997762863535","1.46457867263236","-2.58165548098434","1.06040268456376","0.980611483967189","0","0.0625"
"1320","-2.82997762863535","1.46457867263236","-2.58165548098434","3.06040268456376","1.98061148396719","0","0.0625"
"1320","4.17002237136465","-0.535421327367636","-0.581655480984342","3.06040268456376","1.98061148396719","0","0.0625"
"1328","4.17002237136465","-0.535421327367636","-0.581655480984342","1.06040268456376","-1.01938851603281","0","0.0625"
"1328","2.17002237136465","-6.53542132736764","-0.581655480984342","1.06040268456376","-1.01938851603281","0","0.0625"
"1335","2.17002237136465","-6.53542132736764","-0.581655480984342","-2.93959731543624","0.980611483967189","0","0.0625"
"1335","-2.82997762863535","-2.53542132736764","-2.58165548098434","-2.93959731543624","0.980611483967189","0","0.0625"
"1344","-2.82997762863535","-2.53542132736764","-2.58165548098434","3.06040268456376","1.98061148396719","0","0.0625"
"1344","3.17002237136465","3.46457867263236","1.41834451901566","3.06040268456376","1.98061148396719","0","0.0625"
"1351","3.17002237136465","3.46457867263236","1.41834451901566","2.06040268456376","-1.01938851603281","0","0.0625"
"1351","-0.829977628635347","2.46457867263236","0.418344519015658","2.06040268456376","-1.01938851603281","0","0.0625"
"1357","-0.829977628635347","2.46457867263236","0.418344519015658","-0.939597315436242","2.98061148396719","0","0.0625"
"1357","2.17002237136465","-0.535421327367636","-2.58165548098434","-0.939597315436242","2.98061148396719","0","0.0625"
"1365","2.17002237136465","-0.535421327367636","-2.58165548098434","1.06040268456376","-0.0193885160328113","0","0.0625"
"1365","0.170022371364653","2.46457867263236","1.41834451901566","1.06040268456376","-0.0193885160328113","0","0.0625"
"1373","0.170022371364653","2.46457867263236","1.41834451901566","2.06040268456376","1.98061148396719","0","0.0625"
"1373","-0.829977628635347","2.46457867263236","-0.581655480984342","2.06040268456376","1.98061148396719","0","0.0625"
"1380","-0.829977628635347","2.46457867263236","-0.581655480984342","1.06040268456376","0.980611483967189","0","0.0625"
"1380","3.17002237136465","3.46457867263236","2.41834451901566","1.06040268456376","0.980611483967189","0","0.0625"
"1386","3.17002237136465","3.46457867263236","2.41834451901566","1.06040268456376","0.980611483967189","0","0.0625"
"1387","3.17002237136465","0.464578672632364","3.41834451901566","1.06040268456376","0.980611483967189","0","0.0625"
"1393","3.17002237136465","0.464578672632364","3.41834451901566","2.06040268456376","1.98061148396719","0","0.0625"
"1393","-3.82997762863535","1.46457867263236","-2.58165548098434","2.06040268456376","1.98061148396719","0","0.0625"
"1399","-3.82997762863535","1.46457867263236","-2.58165548098434","1.06040268456376","1.98061148396719","0","0.0625"
"1399","-1.82997762863535","2.46457867263236","-1.58165548098434","1.06040268456376","1.98061148396719","0","0.0625"
"1405","-1.82997762863535","2.46457867263236","-1.58165548098434","1.06040268456376","-1.01938851603281","0","0.0625"
"1405","-0.829977628635347","2.46457867263236","-0.581655480984342","1.06040268456376","-1.01938851603281","0","0.0625"
"1411","-0.829977628635347","2.46457867263236","-0.581655480984342","-1.93959731543624","0.980611483967189","0","0.0625"
"1411","2.17002237136465","-1.53542132736764","1.41834451901566","-1.93959731543624","0.980611483967189","0","0.0625"
"1418","2.17002237136465","-1.53542132736764","1.41834451901566","-2.93959731543624","-0.0193885160328113","0","0.0625"
"1418","1.17002237136465","-0.535421327367636","0.418344519015658","-2.93959731543624","-0.0193885160328113","0","0.0625"
"1423","1.17002237136465","-0.535421327367636","0.418344519015658","1.06040268456376","0.980611483967189","0","0.0625"
"1423","-0.829977628635347","1.46457867263236","-1.58165548098434","1.06040268456376","0.980611483967189","0","0.0625"
"1429","-0.829977628635347","1.46457867263236","-1.58165548098434","4.06040268456376","-1.01938851603281","0","0.0625"
"1429","0.170022371364653","6.46457867263236","-2.58165548098434","4.06040268456376","-1.01938851603281","0","0.0625"
"1435","0.170022371364653","6.46457867263236","-2.58165548098434","0.0604026845637584","-2.01938851603281","0","0.0625"
"1435","4.17002237136465","0.464578672632364","3.41834451901566","0.0604026845637584","-2.01938851603281","0","0.0625"
"1441","4.17002237136465","0.464578672632364","3.41834451901566","-0.939597315436242","-1.01938851603281","0","0.0625"
"1441","0.170022371364653","-1.53542132736764","0.418344519015658","-0.939597315436242","-1.01938851603281","0","0.0625"
"1447","0.170022371364653","-1.53542132736764","0.418344519015658","-0.939597315436242","-1.01938851603281","0","0.0625"
"1447","-0.829977628635347","3.46457867263236","-0.581655480984342","-0.939597315436242","-1.01938851603281","0","0.0625"
"1453","-0.829977628635347","3.46457867263236","-0.581655480984342","1.06040268456376","0.980611483967189","0","0.0625"
"1453","0.170022371364653","2.46457867263236","-0.581655480984342","1.06040268456376","0.980611483967189","0","0.0625"
"1459","0.170022371364653","2.46457867263236","-0.581655480984342","1.06040268456376","-0.0193885160328113","0","0.0625"
"1459","1.17002237136465","-7.53542132736764","0.418344519015658","1.06040268456376","-0.0193885160328113","0","0.0625"
"1465","1.17002237136465","-7.53542132736764","0.418344519015658","-4.93959731543624","3.98061148396719","0","0.0625"
"1466","-3.82997762863535","-2.53542132736764","-1.58165548098434","-4.93959731543624","3.98061148396719","0","0.0625"
"1471","-3.82997762863535","-2.53542132736764","-1.58165548098434","2.06040268456376","1.98061148396719","0","0.0625"
"1471","-2.82997762863535","5.46457867263236","-1.58165548098434","2.06040268456376","1.98061148396719","0","0.0625"
"1477","-2.82997762863535","5.46457867263236","-1.58165548098434","1.06040268456376","-1.01938851603281","0","0.0625"
"1477","-0.829977628635347","0.464578672632364","-1.58165548098434","1.06040268456376","-1.01938851603281","0","0.0625"
"1484","-0.829977628635347","0.464578672632364","-1.58165548098434","-3.93959731543624","-0.0193885160328113","0","0.0625"
"1484","1.17002237136465","-4.53542132736764","-1.58165548098434","-3.93959731543624","-0.0193885160328113","0","0.0625"
"1489","1.17002237136465","-4.53542132736764","-1.58165548098434","-5.93959731543624","0.980611483967189","0","0.0625"
"1489","-5.82997762863535","3.46457867263236","-0.581655480984342","-5.93959731543624","0.980611483967189","0","0.0625"
"1495","-5.82997762863535","3.46457867263236","-0.581655480984342","-1.93959731543624","0.980611483967189","0","0.0625"
"1496","14.1700223713647","-7.53542132736764","11.4183445190157","-1.93959731543624","0.980611483967189","0","0.0625"
"1502","14.1700223713647","-7.53542132736764","11.4183445190157","-3.93959731543624","-4.01938851603281","0","0.0625"
"1502","14.1700223713647","-7.53542132736764","11.4183445190157","-3.93959731543624","-4.01938851603281","0","0.0625"
"1507","14.1700223713647","-7.53542132736764","11.4183445190157","-3.93959731543624","-4.01938851603281","0","0.0625"
"1507","-6.82997762863535","3.46457867263236","-6.58165548098434","-3.93959731543624","-4.01938851603281","0","0.0625"
"1513","-6.82997762863535","3.46457867263236","-6.58165548098434","9.06040268456376","3.98061148396719","0","0.0625"
"1513","6.17002237136465","3.46457867263236","2.41834451901566","9.06040268456376","3.98061148396719","0","0.0625"
"1519","6.17002237136465","3.46457867263236","2.41834451901566","-3.93959731543624","-1.01938851603281","0","0.0625"
"1519","4.17002237136465","-22.5354213273676","9.41834451901566","-3.93959731543624","-1.01938851603281","0","0.0625"
"1526","4.17002237136465","-22.5354213273676","9.41834451901566","-8.93959731543624","-1.01938851603281","0","0.0625"
"1526","1.17002237136465","-7.53542132736764","0.418344519015658","-8.93959731543624","-1.01938851603281","0","0.0625"
"1535","1.17002237136465","-7.53542132736764","0.418344519015658","7.06040268456376","-1.01938851603281","0","0.0625"
"1535","1.17002237136465","-7.53542132736764","0.418344519015658","7.06040268456376","-1.01938851603281","0","0.0625"
"1541","1.17002237136465","-7.53542132736764","0.418344519015658","7.06040268456376","-1.01938851603281","0","0.0625"
"1541","3.17002237136465","-9.53542132736764","5.41834451901566","7.06040268456376","-1.01938851603281","0","0.0625"
"1550","3.17002237136465","-9.53542132736764","5.41834451901566","-2.93959731543624","-2.01938851603281","0","0.0625"
"1551","3.17002237136465","-0.535421327367636","-1.58165548098434","-2.93959731543624","-2.01938851603281","0","0.0625"
"1558","3.17002237136465","-0.535421327367636","-1.58165548098434","5.06040268456376","-3.01938851603281","0","0.0625"
"1558","9.17002237136465","10.4645786726324","1.41834451901566","5.06040268456376","-3.01938851603281","0","0.0625"
"1567","9.17002237136465","10.4645786726324","1.41834451901566","5.06040268456376","0.980611483967189","0","0.0625"
"1567","-6.82997762863535","-0.535421327367636","-3.58165548098434","5.06040268456376","0.980611483967189","0","0.0625"
"1574","-6.82997762863535","-0.535421327367636","-3.58165548098434","-6.93959731543624","2.98061148396719","0","0.0625"
"1574","-6.82997762863535","-0.535421327367636","-3.58165548098434","-6.93959731543624","2.98061148396719","0","0.0625"
"1582","-6.82997762863535","-0.535421327367636","-3.58165548098434","-6.93959731543624","2.98061148396719","0","0.0625"
"1582","5.17002237136465","-1.53542132736764","2.41834451901566","-6.93959731543624","2.98061148396719","0","0.0625"
"1588","5.17002237136465","-1.53542132736764","2.41834451901566","3.06040268456376","2.98061148396719","0","0.0625"
"1588","0.170022371364653","8.46457867263236","-3.58165548098434","3.06040268456376","2.98061148396719","0","0.0625"
"1595","0.170022371364653","8.46457867263236","-3.58165548098434","2.06040268456376","-0.0193885160328113","0","0.0625"
"1595","-6.82997762863535","1.46457867263236","-1.58165548098434","2.06040268456376","-0.0193885160328113","0","0.0625"
"1600","-6.82997762863535","1.46457867263236","-1.58165548098434","-3.93959731543624","2.98061148396719","0","0.0625"
"1600","-1.82997762863535","-6.53542132736764","-1.58165548098434","-3.93959731543624","2.98061148396719","0","0.0625"
"1606","-1.82997762863535","-6.53542132736764","-1.58165548098434","-3.93959731543624","2.98061148396719","0","0.0625"
"1606","-1.82997762863535","-3.53542132736764","1.41834451901566","-3.93959731543624","2.98061148396719","0","0.0625"
"1612","-1.82997762863535","-3.53542132736764","1.41834451901566","-2.93959731543624","0.980611483967189","0","0.0625"
"1612","-10.8299776286353","2.46457867263236","-4.58165548098434","-2.93959731543624","0.980611483967189","0","0.0625"
"1618","-10.8299776286353","2.46457867263236","-4.58165548098434","1.06040268456376","4.98061148396719","0","0.0625"
"1618","-0.829977628635347","-0.535421327367636","1.41834451901566","1.06040268456376","4.98061148396719","0","0.0625"
"1624","-0.829977628635347","-0.535421327367636","1.41834451901566","1.06040268456376","-0.0193885160328113","0","0.0625"
"1624","4.17002237136465","2.46457867263236","-1.58165548098434","1.06040268456376","-0.0193885160328113","0","0.0625"
"1630","4.17002237136465","2.46457867263236","-1.58165548098434","1.06040268456376","-0.0193885160328113","0","0.0625"
"1630","0.170022371364653","-1.53542132736764","1.41834451901566","1.06040268456376","-0.0193885160328113","0","0.0625"
"1636","0.170022371364653","-1.53542132736764","1.41834451901566","-0.939597315436242","-2.01938851603281","0","0.0625"
"1636","0.170022371364653","-1.53542132736764","1.41834451901566","-0.939597315436242","-2.01938851603281","0","0.0625"
"1642","0.170022371364653","-1.53542132736764","1.41834451901566","-1.93959731543624","-0.0193885160328113","0","0.0625"
"1642","0.170022371364653","5.46457867263236","-1.58165548098434","-1.93959731543624","-0.0193885160328113","0","0.0625"
"1648","0.170022371364653","5.46457867263236","-1.58165548098434","1.06040268456376","-0.0193885160328113","0","0.0625"
"1648","6.17002237136465","-11.5354213273676","8.41834451901566","1.06040268456376","-0.0193885160328113","0","0.0625"
"1654","6.17002237136465","-11.5354213273676","8.41834451901566","2.06040268456376","-1.01938851603281","0","0.0625"
"1654","-3.82997762863535","-3.53542132736764","-2.58165548098434","2.06040268456376","-1.01938851603281","0","0.0625"
"1660","-3.82997762863535","-3.53542132736764","-2.58165548098434","-5.93959731543624","-0.0193885160328113","0","0.0625"
"1660","-3.82997762863535","11.4645786726324","-5.58165548098434","-5.93959731543624","-0.0193885160328113","0","0.0625"
"1666","-3.82997762863535","11.4645786726324","-5.58165548098434","3.06040268456376","0.980611483967189","0","0.0625"
"1666","-3.82997762863535","11.4645786726324","-5.58165548098434","3.06040268456376","0.980611483967189","0","0.0625"
"1672","-3.82997762863535","11.4645786726324","-5.58165548098434","7.06040268456376","-2.01938851603281","0","0.0625"
"1672","-1.82997762863535","-7.53542132736764","0.418344519015658","7.06040268456376","-2.01938851603281","0","0.0625"
"1678","-1.82997762863535","-7.53542132736764","0.418344519015658","-3.93959731543624","-1.01938851603281","0","0.0625"
"1678","-2.82997762863535","7.46457867263236","-3.58165548098434","-3.93959731543624","-1.01938851603281","0","0.0625"
"1684","-2.82997762863535","7.46457867263236","-3.58165548098434","-0.939597315436242","0.980611483967189","0","0.0625"
"1684","0.170022371364653","9.46457867263236","-4.58165548098434","-0.939597315436242","0.980611483967189","0","0.0625"
"1689","0.170022371364653","9.46457867263236","-4.58165548098434","7.06040268456376","-3.01938851603281","0","0.0625"
"1689","3.17002237136465","-4.53542132736764","3.41834451901566","7.06040268456376","-3.01938851603281","0","0.0625"
"1695","3.17002237136465","-4.53542132736764","3.41834451901566","-0.939597315436242","-3.01938851603281","0","0.0625"
"1695","3.17002237136465","-4.53542132736764","3.41834451901566","-0.939597315436242","-3.01938851603281","0","0.0625"
"1701","3.17002237136465","-4.53542132736764","3.41834451901566","-3.93959731543624","-3.01938851603281","0","0.0625"
"1701","3.17002237136465","10.4645786726324","0.418344519015658","-3.93959731543624","-3.01938851603281","0","0.0625"
"1707","3.17002237136465","10.4645786726324","0.418344519015658","3.06040268456376","-0.0193885160328113","0","0.0625"
"1708","3.17002237136465","0.464578672632364","-3.58165548098434","3.06040268456376","-0.0193885160328113","0","0.0625"
"1715","3.17002237136465","0.464578672632364","-3.58165548098434","0.0604026845637584","0.980611483967189","0","0.0625"
"1715","3.17002237136465","-1.53542132736764","1.41834451901566","0.0604026845637584","0.980611483967189","0","0.0625"
"1721","3.17002237136465","-1.53542132736764","1.41834451901566","-3.93959731543624","1.98061148396719","0","0.0625"
"1722","1.17002237136465","8.46457867263236","0.418344519015658","-3.93959731543624","1.98061148396719","0","0.0625"
"1728","1.17002237136465","8.46457867263236","0.418344519015658","2.06040268456376","1.98061148396719","0","0.0625"
"1728","1.17002237136465","8.46457867263236","0.418344519015658","2.06040268456376","1.98061148396719","0","0.0625"
"1734","1.17002237136465","8.46457867263236","0.418344519015658","2.06040268456376","2.98061148396719","0","0.0625"
"1734","-3.82997762863535","-4.53542132736764","0.418344519015658","2.06040268456376","2.98061148396719","0","0.0625"
"1741","-3.82997762863535","-4.53542132736764","0.418344519015658","-1.93959731543624","-2.01938851603281","0","0.0625"
"1741","4.17002237136465","-1.53542132736764","3.41834451901566","-1.93959731543624","-2.01938851603281","0","0.0625"
"1751","4.17002237136465","-1.53542132736764","3.41834451901566","-3.93959731543624","-1.01938851603281","0","0.0625"
"1751","2.17002237136465","2.46457867263236","0.418344519015658","-3.93959731543624","-1.01938851603281","0","0.0625"
"1759","2.17002237136465","2.46457867263236","0.418344519015658","0.0604026845637584","-2.01938851603281","0","0.0625"
"1759","1.17002237136465","0.464578672632364","0.418344519015658","0.0604026845637584","-2.01938851603281","0","0.0625"
"1766","1.17002237136465","0.464578672632364","0.418344519015658","4.06040268456376","-1.01938851603281","0","0.0625"
"1766","1.17002237136465","0.464578672632364","0.418344519015658","4.06040268456376","-1.01938851603281","0","0.0625"
"1772","1.17002237136465","0.464578672632364","0.418344519015658","1.06040268456376","0.980611483967189","0","0.0625"
"1772","-0.829977628635347","0.464578672632364","-1.58165548098434","1.06040268456376","0.980611483967189","0","0.0625"
"1778","-0.829977628635347","0.464578672632364","-1.58165548098434","-0.939597315436242","-0.0193885160328113","0","0.0625"
"1779","-0.829977628635347","2.46457867263236","-3.58165548098434","-0.939597315436242","-0.0193885160328113","0","0.0625"
"1784","-0.829977628635347","2.46457867263236","-3.58165548098434","1.06040268456376","-1.01938851603281","0","0.0625"
"1784","-9.82997762863535","0.464578672632364","-4.58165548098434","1.06040268456376","-1.01938851603281","0","0.0625"
"1790","-9.82997762863535","0.464578672632364","-4.58165548098434","2.06040268456376","-0.0193885160328113","0","0.0625"
"1790","-0.829977628635347","2.46457867263236","4.41834451901566","2.06040268456376","-0.0193885160328113","0","0.0625"
"1796","-0.829977628635347","2.46457867263236","4.41834451901566","-0.939597315436242","-3.01938851603281","0","0.0625"
"1797","-0.829977628635347","2.46457867263236","4.41834451901566","-0.939597315436242","-3.01938851603281","0","0.0625"
"1802","-0.829977628635347","2.46457867263236","4.41834451901566","1.06040268456376","-4.01938851603281","0","0.0625"
"1802","-14.8299776286353","-8.53542132736764","-5.58165548098434","1.06040268456376","-4.01938851603281","0","0.0625"
"1808","-14.8299776286353","-8.53542132736764","-5.58165548098434","2.06040268456376","-0.0193885160328113","0","0.0625"
"1808","-3.82997762863535","-4.53542132736764","-3.58165548098434","2.06040268456376","-0.0193885160328113","0","0.0625"
"1814","-3.82997762863535","-4.53542132736764","-3.58165548098434","-3.93959731543624","2.98061148396719","0","0.0625"
"1814","4.17002237136465","9.46457867263236","-0.581655480984342","-3.93959731543624","2.98061148396719","0","0.0625"
"1820","4.17002237136465","9.46457867263236","-0.581655480984342","0.0604026845637584","-0.0193885160328113","0","0.0625"
"1820","2.17002237136465","10.4645786726324","-0.581655480984342","0.0604026845637584","-0.0193885160328113","0","0.0625"
"1826","2.17002237136465","10.4645786726324","-0.581655480984342","4.06040268456376","-0.0193885160328113","0","0.0625"
"1826","2.17002237136465","10.4645786726324","-0.581655480984342","4.06040268456376","-0.0193885160328113","0","0.0625"
"1832","2.17002237136465","10.4645786726324","-0.581655480984342","-9.93959731543624","0.980611483967189","0","0.0625"
"1832","-4.82997762863535","7.46457867263236","-3.58165548098434","-9.93959731543624","0.980611483967189","0","0.0625"
"1838","-4.82997762863535","7.46457867263236","-3.58165548098434","-3.93959731543624","3.98061148396719","0","0.0625"
"1838","5.17002237136465","9.46457867263236","3.41834451901566","-3.93959731543624","3.98061148396719","0","0.0625"
"1844","5.17002237136465","9.46457867263236","3.41834451901566","8.06040268456376","-2.01938851603281","0","0.0625"
"1844","5.17002237136465","-6.53542132736764","4.41834451901566","8.06040268456376","-2.01938851603281","0","0.0625"
"1850","5.17002237136465","-6.53542132736764","4.41834451901566","-2.93959731543624","-2.01938851603281","0","0.0625"
"1850","-0.829977628635347","6.46457867263236","-1.58165548098434","-2.93959731543624","-2.01938851603281","0","0.0625"
"1855","-0.829977628635347","6.46457867263236","-1.58165548098434","-2.93959731543624","-2.01938851603281","0","0.0625"
"1855","-0.829977628635347","6.46457867263236","-1.58165548098434","-2.93959731543624","-2.01938851603281","0","0.0625"
"1861","-0.829977628635347","6.46457867263236","-1.58165548098434","4.06040268456376","-1.01938851603281","0","0.0625"
"1862","22.1700223713647","-10.5354213273676","8.41834451901566","4.06040268456376","-1.01938851603281","0","0.0625"
"1867","22.1700223713647","-10.5354213273676","8.41834451901566","-0.939597315436242","0.980611483967189","0","0.0625"
"1868","15.1700223713647","-7.53542132736764","12.4183445190157","-0.939597315436242","0.980611483967189","0","0.0625"
"1873","15.1700223713647","-7.53542132736764","12.4183445190157","-3.93959731543624","-2.01938851603281","0","0.0625"
"1873","-8.82997762863535","13.4645786726324","-9.58165548098434","-3.93959731543624","-2.01938851603281","0","0.0625"
"1880","-8.82997762863535","13.4645786726324","-9.58165548098434","0.0604026845637584","1.98061148396719","0","0.0625"
"1880","-10.8299776286353","16.4645786726324","-12.5816554809843","0.0604026845637584","1.98061148396719","0","0.0625"
"1886","-10.8299776286353","16.4645786726324","-12.5816554809843","4.06040268456376","4.98061148396719","0","0.0625"
"1886","-10.8299776286353","16.4645786726324","-12.5816554809843","4.06040268456376","4.98061148396719","0","0.0625"
"1891","-10.8299776286353","16.4645786726324","-12.5816554809843","-4.93959731543624","1.98061148396719","0","0.0625"
"1891","0.170022371364653","15.4645786726324","-4.58165548098434","-4.93959731543624","1.98061148396719","0","0.0625"
"1898","0.170022371364653","15.4645786726324","-4.58165548098434","-7.93959731543624","-0.0193885160328113","0","0.0625"
"1898","2.17002237136465","33.4645786726324","-4.58165548098434","-7.93959731543624","-0.0193885160328113","0","0.0625"
"1903","2.17002237136465","33.4645786726324","-4.58165548098434","12.0604026845638","-0.0193885160328113","0","0.0625"
"1904","-7.82997762863535","-34.5354213273676","5.41834451901566","12.0604026845638","-0.0193885160328113","0","0.0625"
"1909","-7.82997762863535","-34.5354213273676","5.41834451901566","-1.93959731543624","2.98061148396719","0","0.0625"
"1909","2.17002237136465","-10.5354213273676","-0.581655480984342","-1.93959731543624","2.98061148396719","0","0.0625"
"1915","2.17002237136465","-10.5354213273676","-0.581655480984342","-13.9395973154362","0.980611483967189","0","0.0625"
"1915","2.17002237136465","-10.5354213273676","-0.581655480984342","-13.9395973154362","0.980611483967189","0","0.0625"
"1921","2.17002237136465","-10.5354213273676","-0.581655480984342","7.06040268456376","-4.01938851603281","0","0.0625"
"1921","-7.82997762863535","-4.53542132736764","1.41834451901566","7.06040268456376","-4.01938851603281","0","0.0625"
"1927","-7.82997762863535","-4.53542132736764","1.41834451901566","10.0604026845638","-2.01938851603281","0","0.0625"
"1927","-12.8299776286353","-19.5354213273676","-9.58165548098434","10.0604026845638","-2.01938851603281","0","0.0625"
"1934","-12.8299776286353","-19.5354213273676","-9.58165548098434","-7.93959731543624","3.98061148396719","0","0.0625"
"1934","4.17002237136465","-1.53542132736764","1.41834451901566","-7.93959731543624","3.98061148396719","0","0.0625"
"1940","4.17002237136465","-1.53542132736764","1.41834451901566","-6.93959731543624","2.98061148396719","0","0.0625"
"1940","-0.829977628635347","17.4645786726324","1.41834451901566","-6.93959731543624","2.98061148396719","0","0.0625"
"1948","-0.829977628635347","17.4645786726324","1.41834451901566","8.06040268456376","-1.01938851603281","0","0.0625"
"1948","-0.829977628635347","17.4645786726324","1.41834451901566","8.06040268456376","-1.01938851603281","0","0.0625"
"1956","-0.829977628635347","17.4645786726324","1.41834451901566","1.06040268456376","-0.0193885160328113","0","0.0625"
"1956","-13.8299776286353","-7.53542132736764","-1.58165548098434","1.06040268456376","-0.0193885160328113","0","0.0625"
"1963","-13.8299776286353","-7.53542132736764","-1.58165548098434","-6.93959731543624","0.980611483967189","0","0.0625"
"1963","4.17002237136465","8.46457867263236","-1.58165548098434","-6.93959731543624","0.980611483967189","0","0.0625"
"1970","4.17002237136465","8.46457867263236","-1.58165548098434","0.0604026845637584","-2.01938851603281","0","0.0625"
"1970","2.17002237136465","-4.53542132736764","2.41834451901566","0.0604026845637584","-2.01938851603281","0","0.0625"
"1977","2.17002237136465","-4.53542132736764","2.41834451901566","8.06040268456376","-5.01938851603281","0","0.0625"
"1977","0.170022371364653","-8.53542132736764","4.41834451901566","8.06040268456376","-5.01938851603281","0","0.0625"
"1983","0.170022371364653","-8.53542132736764","4.41834451901566","-1.93959731543624","-2.01938851603281","0","0.0625"
"1983","0.170022371364653","-8.53542132736764","4.41834451901566","-1.93959731543624","-2.01938851603281","0","0.0625"
"1988","0.170022371364653","-8.53542132736764","4.41834451901566","-1.93959731543624","-3.01938851603281","0","0.0625"
"1988","8.17002237136465","8.46457867263236","3.41834451901566","-1.93959731543624","-3.01938851603281","0","0.0625"
"1994","8.17002237136465","8.46457867263236","3.41834451901566","5.06040268456376","0.980611483967189","0","0.0625"
"1995","2.17002237136465","-0.535421327367636","0.418344519015658","5.06040268456376","0.980611483967189","0","0.0625"
"2000","2.17002237136465","-0.535421327367636","0.418344519015658","1.06040268456376","0.980611483967189","0","0.0625"
"2000","-3.82997762863535","-1.53542132736764","-4.58165548098434","1.06040268456376","0.980611483967189","0","0.0625"
"2006","-3.82997762863535","-1.53542132736764","-4.58165548098434","-1.93959731543624","0.980611483967189","0","0.0625"
"2006","-0.829977628635347","1.46457867263236","0.418344519015658","-1.93959731543624","0.980611483967189","0","0.0625"
"2012","-0.829977628635347","1.46457867263236","0.418344519015658","-0.939597315436242","-1.01938851603281","0","0.0625"
"2012","-0.829977628635347","1.46457867263236","0.418344519015658","-0.939597315436242","-1.01938851603281","0","0.0625"
"2018","-0.829977628635347","1.46457867263236","0.418344519015658","2.06040268456376","-1.01938851603281","0","0.0625"
"2018","4.17002237136465","1.46457867263236","3.41834451901566","2.06040268456376","-1.01938851603281","0","0.0625"
"2024","4.17002237136465","1.46457867263236","3.41834451901566","3.06040268456376","1.98061148396719","0","0.0625"
"2024","-6.82997762863535","1.46457867263236","-2.58165548098434","3.06040268456376","1.98061148396719","0","0.0625"
"2030","-6.82997762863535","1.46457867263236","-2.58165548098434","-1.93959731543624","0.980611483967189","0","0.0625"
"2030","-10.8299776286353","-4.53542132736764","-8.58165548098434","-1.93959731543624","0.980611483967189","0","0.0625"
"2036","-10.8299776286353","-4.53542132736764","-8.58165548098434","-0.939597315436242","2.98061148396719","0","0.0625"
"2036","2.17002237136465","2.46457867263236","0.418344519015658","-0.939597315436242","2.98061148396719","0","0.0625"
"2042","2.17002237136465","2.46457867263236","0.418344519015658","-2.93959731543624","1.98061148396719","0","0.0625"
"2042","2.17002237136465","2.46457867263236","0.418344519015658","-2.93959731543624","1.98061148396719","0","0.0625"
"2048","2.17002237136465","2.46457867263236","0.418344519015658","3.06040268456376","-6.01938851603281","0","0.0625"
"2048","9.17002237136465","-1.53542132736764","8.41834451901566","3.06040268456376","-6.01938851603281","0","0.0625"
"2054","9.17002237136465","-1.53542132736764","8.41834451901566","1.06040268456376","-4.01938851603281","0","0.0625"
"2054","1.17002237136465","-3.53542132736764","-5.58165548098434","1.06040268456376","-4.01938851603281","0","0.0625"
"2060","1.17002237136465","-3.53542132736764","-5.58165548098434","-5.93959731543624","3.98061148396719","0","0.0625"
"2060","5.17002237136465","12.4645786726324","-0.581655480984342","-5.93959731543624","3.98061148396719","0","0.0625"
"2067","5.17002237136465","12.4645786726324","-0.581655480984342","0.0604026845637584","0.980611483967189","0","0.0625"
"2067","1.17002237136465","8.46457867263236","-0.581655480984342","0.0604026845637584","0.980611483967189","0","0.0625"
"2073","1.17002237136465","8.46457867263236","-0.581655480984342","4.06040268456376","-1.01938851603281","0","0.0625"
"2073","1.17002237136465","8.46457867263236","-0.581655480984342","4.06040268456376","-1.01938851603281","0","0.0625"
"2079","1.17002237136465","8.46457867263236","-0.581655480984342","-3.93959731543624","1.98061148396719","0","0.0625"
"2079","-5.82997762863535","13.4645786726324","-5.58165548098434","-3.93959731543624","1.98061148396719","0","0.0625"
"2085","-5.82997762863535","13.4645786726324","-5.58165548098434","-1.93959731543624","-0.0193885160328113","0","0.0625"
"2085","3.17002237136465","18.4645786726324","-1.58165548098434","-1.93959731543624","-0.0193885160328113","0","0.0625"
"2091","3.17002237136465","18.4645786726324","-1.58165548098434","11.0604026845638","-0.0193885160328113","0","0.0625"
"2091","4.17002237136465","-21.5354213273676","4.41834451901566","11.0604026845638","-0.0193885160328113","0","0.0625"
"2097","4.17002237136465","-21.5354213273676","4.41834451901566","3.06040268456376","-1.01938851603281","0","0.0625"
"2097","-5.82997762863535","-1.53542132736764","-0.581655480984342","3.06040268456376","-1.01938851603281","0","0.0625"
"2103","-5.82997762863535","-1.53542132736764","-0.581655480984342","-9.93959731543624","-1.01938851603281","0","0.0625"
"2103","-5.82997762863535","-1.53542132736764","-0.581655480984342","-9.93959731543624","-1.01938851603281","0","0.0625"
"2109","-5.82997762863535","-1.53542132736764","-0.581655480984342","2.06040268456376","-2.01938851603281","0","0.0625"
"2109","4.17002237136465","9.46457867263236","1.41834451901566","2.06040268456376","-2.01938851603281","0","0.0625"
"2116","4.17002237136465","9.46457867263236","1.41834451901566","6.06040268456376","0.980611483967189","0","0.0625"
"2116","11.1700223713647","-7.53542132736764","3.41834451901566","6.06040268456376","0.980611483967189","0","0.0625"
"2121","11.1700223713647","-7.53542132736764","3.41834451901566","-2.93959731543624","0.980611483967189","0","0.0625"
"2121","10.1700223713647","-2.53542132736764","13.4183445190157","-2.93959731543624","0.980611483967189","0","0.0625"
"2127","10.1700223713647","-2.53542132736764","13.4183445190157","-1.93959731543624","-3.01938851603281","0","0.0625"
"2127","-9.82997762863535","13.4645786726324","-8.58165548098434","-1.93959731543624","-3.01938851603281","0","0.0625"
"2133","-9.82997762863535","13.4645786726324","-8.58165548098434","0.0604026845637584","1.98061148396719","0","0.0625"
"2134","-9.82997762863535","13.4645786726324","-8.58165548098434","0.0604026845637584","1.98061148396719","0","0.0625"
"2139","-9.82997762863535","13.4645786726324","-8.58165548098434","4.06040268456376","5.98061148396719","0","0.0625"
"2139","4.17002237136465","-22.5354213273676","8.41834451901566","4.06040268456376","5.98061148396719","0","0.0625"
"2146","4.17002237136465","-22.5354213273676","8.41834451901566","-1.93959731543624","-4.01938851603281","0","0.0625"
"2146","-5.82997762863535","9.46457867263236","-3.58165548098434","-1.93959731543624","-4.01938851603281","0","0.0625"
"2152","-5.82997762863535","9.46457867263236","-3.58165548098434","-2.93959731543624","-3.01938851603281","0","0.0625"
"2153","-3.82997762863535","21.4645786726324","-3.58165548098434","-2.93959731543624","-3.01938851603281","0","0.0625"
"2160","-3.82997762863535","21.4645786726324","-3.58165548098434","8.06040268456376","-0.0193885160328113","0","0.0625"
"2160","13.1700223713647","-15.5354213273676","6.41834451901566","8.06040268456376","-0.0193885160328113","0","0.0625"
"2166","13.1700223713647","-15.5354213273676","6.41834451901566","-0.939597315436242","-2.01938851603281","0","0.0625"
"2166","13.1700223713647","-15.5354213273676","6.41834451901566","-0.939597315436242","-2.01938851603281","0","0.0625"
"2174","13.1700223713647","-15.5354213273676","6.41834451901566","-8.93959731543624","-4.01938851603281","0","0.0625"
"2174","0.170022371364653","4.46457867263236","-0.581655480984342","-8.93959731543624","-4.01938851603281","0","0.0625"
"2181","0.170022371364653","4.46457867263236","-0.581655480984342","2.06040268456376","-1.01938851603281","0","0.0625"
"2181","-8.82997762863535","9.46457867263236","-6.58165548098434","2.06040268456376","-1.01938851603281","0","0.0625"
"2187","-8.82997762863535","9.46457867263236","-6.58165548098434","1.06040268456376","3.98061148396719","0","0.0625"
"2187","-8.82997762863535","9.46457867263236","-6.58165548098434","1.06040268456376","3.98061148396719","0","0.0625"
"2194","-8.82997762863535","9.46457867263236","-6.58165548098434","3.06040268456376","1.98061148396719","0","0.0625"
"2194","9.17002237136465","-8.53542132736764","6.41834451901566","3.06040268456376","1.98061148396719","0","0.0625"
"2200","9.17002237136465","-8.53542132736764","6.41834451901566","-0.939597315436242","-3.01938851603281","0","0.0625"
"2200","9.17002237136465","-8.53542132736764","6.41834451901566","-0.939597315436242","-3.01938851603281","0","0.0625"
"2206","9.17002237136465","-8.53542132736764","6.41834451901566","-4.93959731543624","-0.0193885160328113","0","0.0625"
"2206","-4.82997762863535","10.4645786726324","-3.58165548098434","-4.93959731543624","-0.0193885160328113","0","0.0625"
"2212","-4.82997762863535","10.4645786726324","-3.58165548098434","3.06040268456376","0.980611483967189","0","0.0625"
"2213","-4.82997762863535","10.4645786726324","-3.58165548098434","3.06040268456376","0.980611483967189","0","0.0625"
"2219","-4.82997762863535","10.4645786726324","-3.58165548098434","2.06040268456376","-0.0193885160328113","0","0.0625"
"2219","4.17002237136465","-13.5354213273676","0.418344519015658","2.06040268456376","-0.0193885160328113","0","0.0625"
"2224","4.17002237136465","-13.5354213273676","0.418344519015658","-7.93959731543624","-2.01938851603281","0","0.0625"
"2224","-1.82997762863535","11.4645786726324","-1.58165548098434","-7.93959731543624","-2.01938851603281","0","0.0625"
"2230","-1.82997762863535","11.4645786726324","-1.58165548098434","1.06040268456376","-3.01938851603281","0","0.0625"
"2231","-1.82997762863535","11.4645786726324","-1.58165548098434","1.06040268456376","-3.01938851603281","0","0.0625"
"2237","-1.82997762863535","11.4645786726324","-1.58165548098434","5.06040268456376","-2.01938851603281","0","0.0625"
"2238","1.17002237136465","2.46457867263236","2.41834451901566","5.06040268456376","-2.01938851603281","0","0.0625"
"2245","1.17002237136465","2.46457867263236","2.41834451901566","-3.93959731543624","0.980611483967189","0","0.0625"
"2245","6.17002237136465","-8.53542132736764","3.41834451901566","-3.93959731543624","0.980611483967189","0","0.0625"
"2253","6.17002237136465","-8.53542132736764","3.41834451901566","-2.93959731543624","-1.01938851603281","0","0.0625"
"2253","3.17002237136465","6.46457867263236","0.418344519015658","-2.93959731543624","-1.01938851603281","0","0.0625"
"2259","3.17002237136465","6.46457867263236","0.418344519015658","4.06040268456376","-0.0193885160328113","0","0.0625"
"2259","-9.82997762863535","0.464578672632364","-4.58165548098434","4.06040268456376","-0.0193885160328113","0","0.0625"
"2266","-9.82997762863535","0.464578672632364","-4.58165548098434","1.06040268456376","1.98061148396719","0","0.0625"
"2266","-9.82997762863535","0.464578672632364","-4.58165548098434","1.06040268456376","1.98061148396719","0","0.0625"
"2272","-9.82997762863535","0.464578672632364","-4.58165548098434","-2.93959731543624","-0.0193885160328113","0","0.0625"
"2272","-1.82997762863535","0.464578672632364","-2.58165548098434","-2.93959731543624","-0.0193885160328113","0","0.0625"
"2278","-1.82997762863535","0.464578672632364","-2.58165548098434","0.0604026845637584","-0.0193885160328113","0","0.0625"
"2278","0.170022371364653","3.46457867263236","0.418344519015658","0.0604026845637584","-0.0193885160328113","0","0.0625"
"2284","0.170022371364653","3.46457867263236","0.418344519015658","-1.93959731543624","-2.01938851603281","0","0.0625"
"2284","2.17002237136465","1.46457867263236","-1.58165548098434","-1.93959731543624","-2.01938851603281","0","0.0625"
"2290","2.17002237136465","1.46457867263236","-1.58165548098434","1.06040268456376","0.980611483967189","0","0.0625"
"2290","6.17002237136465","0.464578672632364","2.41834451901566","1.06040268456376","0.980611483967189","0","0.0625"
"2296","6.17002237136465","0.464578672632364","2.41834451901566","0.0604026845637584","-0.0193885160328113","0","0.0625"
"2296","6.17002237136465","0.464578672632364","2.41834451901566","0.0604026845637584","-0.0193885160328113","0","0.0625"
"2302","6.17002237136465","0.464578672632364","2.41834451901566","3.06040268456376","-1.01938851603281","0","0.0625"
"2302","1.17002237136465","1.46457867263236","1.41834451901566","3.06040268456376","-1.01938851603281","0","0.0625"
"2308","1.17002237136465","1.46457867263236","1.41834451901566","-1.93959731543624","1.98061148396719","0","0.0625"
"2309","1.17002237136465","1.46457867263236","1.41834451901566","-1.93959731543624","1.98061148396719","0","0.0625"
"2315","1.17002237136465","1.46457867263236","1.41834451901566","-1.93959731543624","-0.0193885160328113","0","0.0625"
"2315","1.17002237136465","0.464578672632364","-1.58165548098434","-1.93959731543624","-0.0193885160328113","0","0.0625"
"2320","1.17002237136465","0.464578672632364","-1.58165548098434","4.06040268456376","-0.0193885160328113","0","0.0625"
"2320","1.17002237136465","0.464578672632364","-0.581655480984342","4.06040268456376","-0.0193885160328113","0","0.0625"
"2326","1.17002237136465","0.464578672632364","-0.581655480984342","2.06040268456376","-1.01938851603281","0","0.0625"
"2326","0.170022371364653","1.46457867263236","-0.581655480984342","2.06040268456376","-1.01938851603281","0","0.0625"
"2332","0.170022371364653","1.46457867263236","-0.581655480984342","-0.939597315436242","0.980611483967189","0","0.0625"
"2332","-0.829977628635347","0.464578672632364","0.418344519015658","-0.939597315436242","0.980611483967189","0","0.0625"
"2338","-0.829977628635347","0.464578672632364","0.418344519015658","-2.93959731543624","2.98061148396719","0","0.0625"
"2338","-0.829977628635347","1.46457867263236","-4.58165548098434","-2.93959731543624","2.98061148396719","0","0.0625"
"2344","-0.829977628635347","1.46457867263236","-4.58165548098434","2.06040268456376","0.980611483967189","0","0.0625"
"2345","0.170022371364653","2.46457867263236","-3.58165548098434","2.06040268456376","0.980611483967189","0","0.0625"
"2350","0.170022371364653","2.46457867263236","-3.58165548098434","1.06040268456376","-1.01938851603281","0","0.0625"
"2350","-2.82997762863535","2.46457867263236","-2.58165548098434","1.06040268456376","-1.01938851603281","0","0.0625"
"2357","-2.82997762863535","2.46457867263236","-2.58165548098434","1.06040268456376","1.98061148396719","0","0.0625"
"2357","4.17002237136465","1.46457867263236","3.41834451901566","1.06040268456376","1.98061148396719","0","0.0625"
"2366","4.17002237136465","1.46457867263236","3.41834451901566","0.0604026845637584","-0.0193885160328113","0","0.0625"
"2366","4.17002237136465","2.46457867263236","2.41834451901566","0.0604026845637584","-0.0193885160328113","0","0.0625"
"2373","4.17002237136465","2.46457867263236","2.41834451901566","1.06040268456376","-0.0193885160328113","0","0.0625"
"2373","4.17002237136465","1.46457867263236","4.41834451901566","1.06040268456376","-0.0193885160328113","0","0.0625"
"2382","4.17002237136465","1.46457867263236","4.41834451901566","-0.939597315436242","1.98061148396719","0","0.0625"
"2382","1.17002237136465","1.46457867263236","0.418344519015658","-0.939597315436242","1.98061148396719","0","0.0625"
"2388","1.17002237136465","1.46457867263236","0.418344519015658","1.06040268456376","-0.0193885160328113","0","0.0625"
"2388","-3.82997762863535","1.46457867263236","-1.58165548098434","1.06040268456376","-0.0193885160328113","0","0.0625"
"2395","-3.82997762863535","1.46457867263236","-1.58165548098434","1.06040268456376","-0.0193885160328113","0","0.0625"
"2395","-1.82997762863535","2.46457867263236","0.418344519015658","1.06040268456376","-0.0193885160328113","0","0.0625"
"2402","-1.82997762863535","2.46457867263236","0.418344519015658","4.06040268456376","-0.0193885160328113","0","0.0625"
"2402","0.170022371364653","3.46457867263236","0.418344519015658","4.06040268456376","-0.0193885160328113","0","0.0625"
"2409","0.170022371364653","3.46457867263236","0.418344519015658","-1.93959731543624","0.980611483967189","0","0.0625"
"2409","1.17002237136465","-4.53542132736764","1.41834451901566","-1.93959731543624","0.980611483967189","0","0.0625"
"2415","1.17002237136465","-4.53542132736764","1.41834451901566","-0.939597315436242","0.980611483967189","0","0.0625"
"2416","0.170022371364653","1.46457867263236","1.41834451901566","-0.939597315436242","0.980611483967189","0","0.0625"
"2421","0.170022371364653","1.46457867263236","1.41834451901566","2.06040268456376","-1.01938851603281","0","0.0625"
"2421","2.17002237136465","5.46457867263236","-1.58165548098434","2.06040268456376","-1.01938851603281","0","0.0625"
"2428","2.17002237136465","5.46457867263236","-1.58165548098434","1.06040268456376","-2.01938851603281","0","0.0625"
"2428","1.17002237136465","-2.53542132736764","0.418344519015658","1.06040268456376","-2.01938851603281","0","0.0625"
"2433","1.17002237136465","-2.53542132736764","0.418344519015658","-3.93959731543624","0.980611483967189","0","0.0625"
"2434","-1.82997762863535","1.46457867263236","1.41834451901566","-3.93959731543624","0.980611483967189","0","0.0625"
"2439","-1.82997762863535","1.46457867263236","1.41834451901566","-0.939597315436242","1.98061148396719","0","0.0625"
"2439","0.170022371364653","2.46457867263236","3.41834451901566","-0.939597315436242","1.98061148396719","0","0.0625"
"2445","0.170022371364653","2.46457867263236","3.41834451901566","4.06040268456376","-0.0193885160328113","0","0.0625"
"2446","1.17002237136465","4.46457867263236","-0.581655480984342","4.06040268456376","-0.0193885160328113","0","0.0625"
"2451","1.17002237136465","4.46457867263236","-0.581655480984342","1.06040268456376","1.98061148396719","0","0.0625"
"2451","3.17002237136465","0.464578672632364","1.41834451901566","1.06040268456376","1.98061148396719","0","0.0625"
"2457","3.17002237136465","0.464578672632364","1.41834451901566","-0.939597315436242","1.98061148396719","0","0.0625"
"2457","0.170022371364653","-0.535421327367636","-0.581655480984342","-0.939597315436242","1.98061148396719","0","0.0625"
"2463","0.170022371364653","-0.535421327367636","-0.581655480984342","1.06040268456376","0.980611483967189","0","0.0625"
"2463","-0.829977628635347","1.46457867263236","-2.58165548098434","1.06040268456376","0.980611483967189","0","0.0625"
"2468","-0.829977628635347","1.46457867263236","-2.58165548098434","2.06040268456376","-0.0193885160328113","0","0.0625"
"2469","-0.829977628635347","1.46457867263236","-1.58165548098434","2.06040268456376","-0.0193885160328113","0","0.0625"
"2475","-0.829977628635347","1.46457867263236","-1.58165548098434","1.06040268456376","-0.0193885160328113","0","0.0625"
"2475","-0.829977628635347","-1.53542132736764","-1.58165548098434","1.06040268456376","-0.0193885160328113","0","0.0625"
"2481","-0.829977628635347","-1.53542132736764","-1.58165548098434","-1.93959731543624","-2.01938851603281","0","0.0625"
"2481","1.17002237136465","-2.53542132736764","0.418344519015658","-1.93959731543624","-2.01938851603281","0","0.0625"
"2486","1.17002237136465","-2.53542132736764","0.418344519015658","0.0604026845637584","1.98061148396719","0","0.0625"
"2486","2.17002237136465","2.46457867263236","0.418344519015658","0.0604026845637584","1.98061148396719","0","0.0625"
"2493","2.17002237136465","2.46457867263236","0.418344519015658","2.06040268456376","-1.01938851603281","0","0.0625"
"2493","1.17002237136465","2.46457867263236","3.41834451901566","2.06040268456376","-1.01938851603281","0","0.0625"
"2499","1.17002237136465","2.46457867263236","3.41834451901566","4.06040268456376","-0.0193885160328113","0","0.0625"
"2499","1.17002237136465","1.46457867263236","3.41834451901566","4.06040268456376","-0.0193885160328113","0","0.0625"
"2504","1.17002237136465","1.46457867263236","3.41834451901566","1.06040268456376","3.98061148396719","0","0.0625"
"2505","0.170022371364653","-0.535421327367636","-4.58165548098434","1.06040268456376","3.98061148396719","0","0.0625"
"2511","0.170022371364653","-0.535421327367636","-4.58165548098434","1.06040268456376","0.980611483967189","0","0.0625"
"2511","-0.829977628635347","2.46457867263236","1.41834451901566","1.06040268456376","0.980611483967189","0","0.0625"
"2516","-0.829977628635347","2.46457867263236","1.41834451901566","0.0604026845637584","-0.0193885160328113","0","0.0625"
"2517","1.17002237136465","3.46457867263236","-0.581655480984342","0.0604026845637584","-0.0193885160328113","0","0.0625"
"2522","1.17002237136465","3.46457867263236","-0.581655480984342","1.06040268456376","-0.0193885160328113","0","0.0625"
"2522","1.17002237136465","2.46457867263236","1.41834451901566","1.06040268456376","-0.0193885160328113","0","0.0625"
"2528","1.17002237136465","2.46457867263236","1.41834451901566","-1.93959731543624","0.980611483967189","0","0.0625"
"2529","-1.82997762863535","-0.535421327367636","-1.58165548098434","-1.93959731543624","0.980611483967189","0","0.0625"
"2534","-1.82997762863535","-0.535421327367636","-1.58165548098434","1.06040268456376","-1.01938851603281","0","0.0625"
"2535","0.170022371364653","2.46457867263236","-0.581655480984342","1.06040268456376","-1.01938851603281","0","0.0625"
"2540","0.170022371364653","2.46457867263236","-0.581655480984342","4.06040268456376","-2.01938851603281","0","0.0625"
"2540","2.17002237136465","2.46457867263236","-0.581655480984342","4.06040268456376","-2.01938851603281","0","0.0625"
"2546","2.17002237136465","2.46457867263236","-0.581655480984342","0.0604026845637584","-0.0193885160328113","0","0.0625"
"2547","1.17002237136465","2.46457867263236","0.418344519015658","0.0604026845637584","-0.0193885160328113","0","0.0625"
"2552","1.17002237136465","2.46457867263236","0.418344519015658","0.0604026845637584","-1.01938851603281","0","0.0625"
"2552","-0.829977628635347","-1.53542132736764","-0.581655480984342","0.0604026845637584","-1.01938851603281","0","0.0625"
"2558","-0.829977628635347","-1.53542132736764","-0.581655480984342","-1.93959731543624","-0.0193885160328113","0","0.0625"
"2558","1.17002237136465","-0.535421327367636","2.41834451901566","-1.93959731543624","-0.0193885160328113","0","0.0625"
"2565","1.17002237136465","-0.535421327367636","2.41834451901566","-2.93959731543624","-1.01938851603281","0","0.0625"
"2565","3.17002237136465","0.464578672632364","-1.58165548098434","-2.93959731543624","-1.01938851603281","0","0.0625"
"2572","3.17002237136465","0.464578672632364","-1.58165548098434","-0.939597315436242","-0.0193885160328113","0","0.0625"
"2573","-0.829977628635347","1.46457867263236","1.41834451901566","-0.939597315436242","-0.0193885160328113","0","0.0625"
"2582","-0.829977628635347","1.46457867263236","1.41834451901566","-1.93959731543624","-0.0193885160328113","0","0.0625"
"2582","-0.829977628635347","-2.53542132736764","-0.581655480984342","-1.93959731543624","-0.0193885160328113","0","0.0625"
"2589","-0.829977628635347","-2.53542132736764","-0.581655480984342","-2.93959731543624","0.980611483967189","0","0.0625"
"2589","0.170022371364653","-0.535421327367636","0.418344519015658","-2.93959731543624","0.980611483967189","0","0.0625"
"2598","0.170022371364653","-0.535421327367636","0.418344519015658","-0.939597315436242","-1.01938851603281","0","0.0625"
"2599","-0.829977628635347","2.46457867263236","-1.58165548098434","-0.939597315436242","-1.01938851603281","0","0.0625"
"2605","-0.829977628635347","2.46457867263236","-1.58165548098434","1.06040268456376","0.980611483967189","0","0.0625"
"2605","1.17002237136465","1.46457867263236","-3.58165548098434","1.06040268456376","0.980611483967189","0","0.0625"
"2613","1.17002237136465","1.46457867263236","-3.58165548098434","0.0604026845637584","-1.01938851603281","0","0.0625"
"2613","1.17002237136465","0.464578672632364","-0.581655480984342","0.0604026845637584","-1.01938851603281","0","0.0625"
"2619","1.17002237136465","0.464578672632364","-0.581655480984342","-2.93959731543624","-0.0193885160328113","0","0.0625"
"2620","-0.829977628635347","1.46457867263236","-0.581655480984342","-2.93959731543624","-0.0193885160328113","0","0.0625"
"2627","-0.829977628635347","1.46457867263236","-0.581655480984342","-2.93959731543624","0.980611483967189","0","0.0625"
"2627","1.17002237136465","2.46457867263236","0.418344519015658","-2.93959731543624","0.980611483967189","0","0.0625"
"2633","1.17002237136465","2.46457867263236","0.418344519015658","-2.93959731543624","-1.01938851603281","0","0.0625"
"2633","1.17002237136465","1.46457867263236","0.418344519015658","-2.93959731543624","-1.01938851603281","0","0.0625"
"2639","1.17002237136465","1.46457867263236","0.418344519015658","-0.939597315436242","-2.01938851603281","0","0.0625"
"2639","-0.829977628635347","2.46457867263236","-2.58165548098434","-0.939597315436242","-2.01938851603281","0","0.0625"
"2646","-0.829977628635347","2.46457867263236","-2.58165548098434","-4.93959731543624","-2.01938851603281","0","0.0625"
"2646","-1.82997762863535","1.46457867263236","0.418344519015658","-4.93959731543624","-2.01938851603281","0","0.0625"
"2652","-1.82997762863535","1.46457867263236","0.418344519015658","1.06040268456376","-0.0193885160328113","0","0.0625"
"2652","-0.829977628635347","0.464578672632364","0.418344519015658","1.06040268456376","-0.0193885160328113","0","0.0625"
"2660","-0.829977628635347","0.464578672632364","0.418344519015658","-0.939597315436242","-2.01938851603281","0","0.0625"
"2660","0.170022371364653","-0.535421327367636","2.41834451901566","-0.939597315436242","-2.01938851603281","0","0.0625"
"2667","0.170022371364653","-0.535421327367636","2.41834451901566","2.06040268456376","0.980611483967189","0","0.0625"
"2667","1.17002237136465","1.46457867263236","1.41834451901566","2.06040268456376","0.980611483967189","0","0.0625"
"2673","1.17002237136465","1.46457867263236","1.41834451901566","0.0604026845637584","-1.01938851603281","0","0.0625"
"2673","0.170022371364653","1.46457867263236","-0.581655480984342","0.0604026845637584","-1.01938851603281","0","0.0625"
"2679","0.170022371364653","1.46457867263236","-0.581655480984342","0.0604026845637584","0.980611483967189","0","0.0625"
"2679","1.17002237136465","1.46457867263236","-2.58165548098434","0.0604026845637584","0.980611483967189","0","0.0625"
"2686","1.17002237136465","1.46457867263236","-2.58165548098434","0.0604026845637584","-0.0193885160328113","0","0.0625"
"2686","1.17002237136465","0.464578672632364","-1.58165548098434","0.0604026845637584","-0.0193885160328113","0","0.0625"
"2693","1.17002237136465","0.464578672632364","-1.58165548098434","0.0604026845637584","-1.01938851603281","0","0.0625"
"2693","0.170022371364653","0.464578672632364","0.418344519015658","0.0604026845637584","-1.01938851603281","0","0.0625"
"2699","0.170022371364653","0.464578672632364","0.418344519015658","-0.939597315436242","-2.01938851603281","0","0.0625"
"2699","0.170022371364653","1.46457867263236","1.41834451901566","-0.939597315436242","-2.01938851603281","0","0.0625"
"2705","0.170022371364653","1.46457867263236","1.41834451901566","1.06040268456376","-0.0193885160328113","0","0.0625"
"2705","-0.829977628635347","1.46457867263236","-1.58165548098434","1.06040268456376","-0.0193885160328113","0","0.0625"
"2711","-0.829977628635347","1.46457867263236","-1.58165548098434","1.06040268456376","-1.01938851603281","0","0.0625"
"2711","2.17002237136465","2.46457867263236","0.418344519015658","1.06040268456376","-1.01938851603281","0","0.0625"
"2717","2.17002237136465","2.46457867263236","0.418344519015658","0.0604026845637584","0.980611483967189","0","0.0625"
"2717","0.170022371364653","1.46457867263236","-2.58165548098434","0.0604026845637584","0.980611483967189","0","0.0625"
"2723","0.170022371364653","1.46457867263236","-2.58165548098434","-2.93959731543624","-0.0193885160328113","0","0.0625"
"2723","0.170022371364653","1.46457867263236","0.418344519015658","-2.93959731543624","-0.0193885160328113","0","0.0625"
"2730","0.170022371364653","1.46457867263236","0.418344519015658","-1.93959731543624","2.98061148396719","0","0.0625"
"2730","-0.829977628635347","0.464578672632364","1.41834451901566","-1.93959731543624","2.98061148396719","0","0.0625"
"2737","-0.829977628635347","0.464578672632364","1.41834451901566","0.0604026845637584","-3.01938851603281","0","0.0625"
"2737","0.170022371364653","1.46457867263236","-3.58165548098434","0.0604026845637584","-3.01938851603281","0","0.0625"
"2745","0.170022371364653","1.46457867263236","-3.58165548098434","1.06040268456376","-1.01938851603281","0","0.0625"
"2745","0.170022371364653","-0.535421327367636","1.41834451901566","1.06040268456376","-1.01938851603281","0","0.0625"
"2752","0.170022371364653","-0.535421327367636","1.41834451901566","-1.93959731543624","-1.01938851603281","0","0.0625"
"2752","0.170022371364653","0.464578672632364","0.418344519015658","-1.93959731543624","-1.01938851603281","0","0.0625"
"2759","0.170022371364653","0.464578672632364","0.418344519015658","-0.939597315436242","1.98061148396719","0","0.0625"
"2759","0.170022371364653","1.46457867263236","3.41834451901566","-0.939597315436242","1.98061148396719","0","0.0625"
"2770","0.170022371364653","1.46457867263236","3.41834451901566","1.06040268456376","0.980611483967189","0","0.0625"
"2770","-0.829977628635347","-0.535421327367636","-1.58165548098434","1.06040268456376","0.980611483967189","0","0.0625"
"2782","-0.829977628635347","-0.535421327367636","-1.58165548098434","0.0604026845637584","0.980611483967189","0","0.0625"
"2783","0.170022371364653","1.46457867263236","1.41834451901566","0.0604026845637584","0.980611483967189","0","0.0625"
"2789","0.170022371364653","1.46457867263236","1.41834451901566","0.0604026845637584","0.980611483967189","0","0.0625"
"2789","-0.829977628635347","1.46457867263236","-0.581655480984342","0.0604026845637584","0.980611483967189","0","0.0625"
"2801","-0.829977628635347","1.46457867263236","-0.581655480984342","1.06040268456376","0.980611483967189","0","0.0625"
"2801","0.170022371364653","-0.535421327367636","1.41834451901566","1.06040268456376","0.980611483967189","0","0.0625"
"2809","0.170022371364653","-0.535421327367636","1.41834451901566","-2.93959731543624","3.98061148396719","0","0.0625"
"2809","1.17002237136465","1.46457867263236","1.41834451901566","-2.93959731543624","3.98061148396719","0","0.0625"
"2819","1.17002237136465","1.46457867263236","1.41834451901566","-0.939597315436242","-0.0193885160328113","0","0.0625"
"2819","0.170022371364653","2.46457867263236","1.41834451901566","-0.939597315436242","-0.0193885160328113","0","0.0625"
"2827","0.170022371364653","2.46457867263236","1.41834451901566","-0.939597315436242","2.98061148396719","0","0.0625"
"2827","-0.829977628635347","1.46457867263236","-3.58165548098434","-0.939597315436242","2.98061148396719","0","0.0625"
"2834","-0.829977628635347","1.46457867263236","-3.58165548098434","0.0604026845637584","1.98061148396719","0","0.0625"
"2834","0.170022371364653","2.46457867263236","-1.58165548098434","0.0604026845637584","1.98061148396719","0","0.0625"
"2840","0.170022371364653","2.46457867263236","-1.58165548098434","-1.93959731543624","-1.01938851603281","0","0.0625"
"2840","1.17002237136465","1.46457867263236","0.418344519015658","-1.93959731543624","-1.01938851603281","0","0.0625"
"2847","1.17002237136465","1.46457867263236","0.418344519015658","-1.93959731543624","-3.01938851603281","0","0.0625"
"2847","1.17002237136465","2.46457867263236","-1.58165548098434","-1.93959731543624","-3.01938851603281","0","0.0625"
"2853","1.17002237136465","2.46457867263236","-1.58165548098434","1.06040268456376","-3.01938851603281","0","0.0625"
"2853","0.170022371364653","-2.53542132736764","0.418344519015658","1.06040268456376","-3.01938851603281","0","0.0625"
"2860","0.170022371364653","-2.53542132736764","0.418344519015658","-2.93959731543624","-0.0193885160328113","0","0.0625"
"2860","-2.82997762863535","-0.535421327367636","0.418344519015658","-2.93959731543624","-0.0193885160328113","0","0.0625"
"2867","-2.82997762863535","-0.535421327367636","0.418344519015658","-1.93959731543624","1.98061148396719","0","0.0625"
"2867","-3.82997762863535","1.46457867263236","-2.58165548098434","-1.93959731543624","1.98061148396719","0","0.0625"
"2874","-3.82997762863535","1.46457867263236","-2.58165548098434","0.0604026845637584","-0.0193885160328113","0","0.0625"
"2874","-8.82997762863535","1.46457867263236","-3.58165548098434","0.0604026845637584","-0.0193885160328113","0","0.0625"
"2882","-8.82997762863535","1.46457867263236","-3.58165548098434","0.0604026845637584","-3.01938851603281","0","0.0625"
"2882","-7.82997762863535","-4.53542132736764","0.418344519015658","0.0604026845637584","-3.01938851603281","0","0.0625"
"2889","-7.82997762863535","-4.53542132736764","0.418344519015658","-0.939597315436242","-4.01938851603281","0","0.0625"
"2889","-6.82997762863535","-1.53542132736764","1.41834451901566","-0.939597315436242","-4.01938851603281","0","0.0625"
"2899","-6.82997762863535","-1.53542132736764","1.41834451901566","3.06040268456376","-2.01938851603281","0","0.0625"
"2899","-5.82997762863535","6.46457867263236","-2.58165548098434","3.06040268456376","-2.01938851603281","0","0.0625"
"2906","-5.82997762863535","6.46457867263236","-2.58165548098434","5.06040268456376","-5.01938851603281","0","0.0625"
"2906","-12.8299776286353","-6.53542132736764","2.41834451901566","5.06040268456376","-5.01938851603281","0","0.0625"
"2913","-12.8299776286353","-6.53542132736764","2.41834451901566","-0.939597315436242","-2.01938851603281","0","0.0625"
"2914","-13.8299776286353","1.46457867263236","-8.58165548098434","-0.939597315436242","-2.01938851603281","0","0.0625"
"2920","-13.8299776286353","1.46457867263236","-8.58165548098434","2.06040268456376","-2.01938851603281","0","0.0625"
"2920","15.1700223713647","14.4645786726324","11.4183445190157","2.06040268456376","-2.01938851603281","0","0.0625"
"2926","15.1700223713647","14.4645786726324","11.4183445190157","4.06040268456376","-8.01938851603281","0","0.0625"
"2927","7.17002237136465","-15.5354213273676","12.4183445190157","4.06040268456376","-8.01938851603281","0","0.0625"
"2933","7.17002237136465","-15.5354213273676","12.4183445190157","-10.9395973154362","-1.01938851603281","0","0.0625"
"2933","-21.8299776286353","-7.53542132736764","-6.58165548098434","-10.9395973154362","-1.01938851603281","0","0.0625"
"2939","-21.8299776286353","-7.53542132736764","-6.58165548098434","2.06040268456376","4.98061148396719","0","0.0625"
"2939","-17.8299776286353","22.4645786726324","-22.5816554809843","2.06040268456376","4.98061148396719","0","0.0625"
"2947","-17.8299776286353","22.4645786726324","-22.5816554809843","3.06040268456376","-4.01938851603281","0","0.0625"
"2947","4.17002237136465","-20.5354213273676","3.41834451901566","3.06040268456376","-4.01938851603281","0","0.0625"
"2954","4.17002237136465","-20.5354213273676","3.41834451901566","-10.9395973154362","-5.01938851603281","0","0.0625"
"2954","23.1700223713647","-13.5354213273676","19.4183445190157","-10.9395973154362","-5.01938851603281","0","0.0625"
"2961","23.1700223713647","-13.5354213273676","19.4183445190157","1.06040268456376","-7.01938851603281","0","0.0625"
"2961","-2.82997762863535","27.4645786726324","-4.58165548098434","1.06040268456376","-7.01938851603281","0","0.0625"
"2968","-2.82997762863535","27.4645786726324","-4.58165548098434","9.06040268456376","0.980611483967189","0","0.0625"
"2968","20.1700223713647","-35.5354213273676","0.418344519015658","9.06040268456376","0.980611483967189","0","0.0625"
"2974","20.1700223713647","-35.5354213273676","0.418344519015658","-13.9395973154362","-2.01938851603281","0","0.0625"
"2974","46.1700223713647","-39.5354213273676","18.4183445190157","-13.9395973154362","-2.01938851603281","0","0.0625"
"2982","46.1700223713647","-39.5354213273676","18.4183445190157","-5.93959731543624","-5.01938851603281","0","0.0625"
"2983","36.1700223713647","12.4645786726324","9.41834451901566","-5.93959731543624","-5.01938851603281","0","0.0625"
"2989","36.1700223713647","12.4645786726324","9.41834451901566","18.0604026845638","3.98061148396719","0","0.0625"
"2989","34.1700223713647","4.46457867263236","11.4183445190157","18.0604026845638","3.98061148396719","0","0.0625"
"2999","34.1700223713647","4.46457867263236","11.4183445190157","1.06040268456376","6.98061148396719","0","0.0625"
"2999","9.17002237136465","-36.5354213273676","0.418344519015658","1.06040268456376","6.98061148396719","0","0.0625"
"3007","9.17002237136465","-36.5354213273676","0.418344519015658","-19.9395973154362","14.9806114839672","0","0.0625"
"3007","4.17002237136465","-29.5354213273676","-11.5816554809843","-19.9395973154362","14.9806114839672","0","0.0625"
"3016","4.17002237136465","-29.5354213273676","-11.5816554809843","1.06040268456376","8.98061148396719","0","0.0625"
"3016","43.1700223713647","-0.535421327367636","11.4183445190157","1.06040268456376","8.98061148396719","0","0.0625"
"3024","43.1700223713647","-0.535421327367636","11.4183445190157","12.0604026845638","5.98061148396719","0","0.0625"
"3024","-17.8299776286353","23.4645786726324","-26.5816554809843","12.0604026845638","5.98061148396719","0","0.0625"
"3033","-17.8299776286353","23.4645786726324","-26.5816554809843","4.06040268456376","16.9806114839672","0","0.0625"
"3033","18.1700223713647","-12.5354213273676","2.41834451901566","4.06040268456376","16.9806114839672","0","0.0625"
"3039","18.1700223713647","-12.5354213273676","2.41834451901566","-13.9395973154362","4.98061148396719","0","0.0625"
"3039","54.1700223713647","-41.5354213273676","37.4183445190157","-13.9395973154362","4.98061148396719","0","0.0625"
"3046","54.1700223713647","-41.5354213273676","37.4183445190157","-0.939597315436242","9.98061148396719","0","0.0625"
"3046","-49.8299776286353","51.4645786726324","-44.5816554809843","-0.939597315436242","9.98061148396719","0","0.0625"
"3052","-49.8299776286353","51.4645786726324","-44.5816554809843","16.0604026845638","20.9806114839672","0","0.0625"
"3052","-3.82997762863535","40.4645786726324","-5.58165548098434","16.0604026845638","20.9806114839672","0","0.0625"
"3059","-3.82997762863535","40.4645786726324","-5.58165548098434","5.06040268456376","0.980611483967189","0","0.0625"
"3059","-5.82997762863535","-29.5354213273676","11.4183445190157","5.06040268456376","0.980611483967189","0","0.0625"
"3066","-5.82997762863535","-29.5354213273676","11.4183445190157","-24.9395973154362","4.98061148396719","0","0.0625"
"3066","-21.8299776286353","-37.5354213273676","13.4183445190157","-24.9395973154362","4.98061148396719","0","0.0625"
"3072","-21.8299776286353","-37.5354213273676","13.4183445190157","9.06040268456376","1.98061148396719","0","0.0625"
"3072","-6.82997762863535","42.4645786726324","4.41834451901566","9.06040268456376","1.98061148396719","0","0.0625"
"3081","-6.82997762863535","42.4645786726324","4.41834451901566","15.0604026845638","-7.01938851603281","0","0.0625"
"3081","-38.8299776286353","19.4645786726324","-13.5816554809843","15.0604026845638","-7.01938851603281","0","0.0625"
"3088","-38.8299776286353","19.4645786726324","-13.5816554809843","-9.93959731543624","0.980611483967189","0","0.0625"
"3088","23.1700223713647","-16.5354213273676","12.4183445190157","-9.93959731543624","0.980611483967189","0","0.0625"
"3096","23.1700223713647","-16.5354213273676","12.4183445190157","-12.9395973154362","-7.01938851603281","0","0.0625"
"3096","-49.8299776286353","7.46457867263236","-27.5816554809843","-12.9395973154362","-7.01938851603281","0","0.0625"
"3102","-49.8299776286353","7.46457867263236","-27.5816554809843","1.06040268456376","9.98061148396719","0","0.0625"
"3102","5.17002237136465","9.46457867263236","-8.58165548098434","1.06040268456376","9.98061148396719","0","0.0625"
"3108","5.17002237136465","9.46457867263236","-8.58165548098434","-1.93959731543624","-11.0193885160328","0","0.0625"
"3109","53.1700223713647","-15.5354213273676","40.4183445190157","-1.93959731543624","-11.0193885160328","0","0.0625"
"3115","53.1700223713647","-15.5354213273676","40.4183445190157","-4.93959731543624","-3.01938851603281","0","0.0625"
"3116","-57.8299776286353","18.4645786726324","-38.5816554809843","-4.93959731543624","-3.01938851603281","0","0.0625"
"3121","-57.8299776286353","18.4645786726324","-38.5816554809843","1.06040268456376","14.9806114839672","0","0.0625"
"3121","27.1700223713647","-15.5354213273676","25.4183445190157","1.06040268456376","14.9806114839672","0","0.0625"
"3128","27.1700223713647","-15.5354213273676","25.4183445190157","2.06040268456376","-5.01938851603281","0","0.0625"
"3128","-35.8299776286353","2.46457867263236","-21.5816554809843","2.06040268456376","-5.01938851603281","0","0.0625"
"3135","-35.8299776286353","2.46457867263236","-21.5816554809843","5.06040268456376","9.98061148396719","0","0.0625"
"3135","-33.8299776286353","13.4645786726324","-24.5816554809843","5.06040268456376","9.98061148396719","0","0.0625"
"3141","-33.8299776286353","13.4645786726324","-24.5816554809843","4.06040268456376","-18.0193885160328","0","0.0625"
"3141","-73.8299776286353","25.4645786726324","-57.5816554809843","4.06040268456376","-18.0193885160328","0","0.0625"
"3148","-73.8299776286353","25.4645786726324","-57.5816554809843","1.06040268456376","-2.01938851603281","0","0.0625"
"3148","46.1700223713647","29.4645786726324","-2.58165548098434","1.06040268456376","-2.01938851603281","0","0.0625"
"3154","46.1700223713647","29.4645786726324","-2.58165548098434","11.0604026845638","-33.0193885160328","0","0.0625"
"3154","128.170022371365","24.4645786726324","60.4183445190157","11.0604026845638","-33.0193885160328","0","0.0625"
"3161","128.170022371365","24.4645786726324","60.4183445190157","1.06040268456376","-15.0193885160328","0","0.0625"
"3161","41.1700223713647","-16.5354213273676","-0.581655480984342","1.06040268456376","-15.0193885160328","0","0.0625"
"3167","41.1700223713647","-16.5354213273676","-0.581655480984342","-18.9395973154362","-2.01938851603281","0","0.0625"
"3167","89.1700223713647","-23.5354213273676","28.4183445190157","-18.9395973154362","-2.01938851603281","0","0.0625"
"3173","89.1700223713647","-23.5354213273676","28.4183445190157","-10.9395973154362","-21.0193885160328","0","0.0625"
"3173","65.1700223713647","10.4645786726324","0.418344519015658","-10.9395973154362","-21.0193885160328","0","0.0625"
"3173","65.1700223713647","10.4645786726324","0.418344519015658","7.06040268456376","-3.01938851603281","0","0.0625"
"3173","78.1700223713647","16.4645786726324","13.4183445190157","7.06040268456376","-3.01938851603281","0","0.0625"
"3180","78.1700223713647","16.4645786726324","13.4183445190157","-7.93959731543624","0.980611483967189","0","0.0625"
"3180","51.1700223713647","-51.5354213273676","30.4183445190157","-7.93959731543624","0.980611483967189","0","0.0625"
"3180","51.1700223713647","-51.5354213273676","30.4183445190157","-17.9395973154362","13.9806114839672","0","0.0625"
"3180","-13.8299776286353","-48.5354213273676","-5.58165548098434","-17.9395973154362","13.9806114839672","0","0.0625"
"3181","-13.8299776286353","-48.5354213273676","-5.58165548098434","-6.93959731543624","24.9806114839672","0","0.0625"
"3181","-0.829977628635347","-33.5354213273676","-9.58165548098434","-6.93959731543624","24.9806114839672","0","0.0625"
"3181","-0.829977628635347","-33.5354213273676","-9.58165548098434","11.0604026845638","7.98061148396719","0","0.0625"
"3181","-25.8299776286353","40.4645786726324","-32.5816554809843","11.0604026845638","7.98061148396719","0","0.0625"
"3181","-25.8299776286353","40.4645786726324","-32.5816554809843","17.0604026845638","7.98061148396719","1","0"
"3181","-45.8299776286353","55.4645786726324","-67.5816554809843","17.0604026845638","7.98061148396719","1","0"
"3181","-45.8299776286353","55.4645786726324","-67.5816554809843","0.0604026845637584","5.98061148396719","1","0"
"3181","47.1700223713647","-44.5354213273676","8.41834451901566","0.0604026845637584","5.98061148396719","1","0"
"3181","47.1700223713647","-44.5354213273676","8.41834451901566","-39.9395973154362","-15.0193885160328","1","0"
"3181","-69.8299776286353","-65.5354213273676","-41.5816554809843","-39.9395973154362","-15.0193885160328","1","0"
"3181","-69.8299776286353","-65.5354213273676","-41.5816554809843","-18.9395973154362","0.980611483967189","2","0"
"3181","68.1700223713647","-63.5354213273676","-11.5816554809843","-18.9395973154362","0.980611483967189","2","0"
"3182","68.1700223713647","-63.5354213273676","-11.5816554809843","10.0604026845638","-42.0193885160328","2","359.9375"
"3182","137.170022371365","-68.5354213273676","26.4183445190157","10.0604026845638","-42.0193885160328","2","359.9375"
"3182","137.170022371365","-68.5354213273676","26.4183445190157","13.0604026845638","-39.0193885160328","2","359.9375"
"3182","116.170022371365","-29.5354213273676","48.4183445190157","13.0604026845638","-39.0193885160328","2","359.9375"
"3182","116.170022371365","-29.5354213273676","48.4183445190157","45.0604026845638","-10.0193885160328","2","359.9375"
"3182","-23.8299776286353","199.464578672632","-87.5816554809843","45.0604026845638","-10.0193885160328","2","359.9375"
"3182","-23.8299776286353","199.464578672632","-87.5816554809843","52.0604026845638","-5.01938851603281","2","359.875"
"3182","211.170022371365","116.464578672632","-7.58165548098434","52.0604026845638","-5.01938851603281","2","359.875"
"3182","211.170022371365","116.464578672632","-7.58165548098434","-9.93959731543624","-51.0193885160328","1","359.875"
"3182","209.170022371365","-22.5354213273676","79.4183445190157","-9.93959731543624","-51.0193885160328","1","359.875"
"3182","209.170022371365","-22.5354213273676","79.4183445190157","-51.9395973154362","11.9806114839672","1","359.875"
"3183","-17.8299776286353","21.4645786726324","-38.5816554809843","-51.9395973154362","11.9806114839672","1","359.875"
"3183","-17.8299776286353","21.4645786726324","-38.5816554809843","-8.93959731543624","22.9806114839672","2","359.875"
"3183","131.170022371365","99.4645786726324","15.4183445190157","-8.93959731543624","22.9806114839672","2","359.875"
"3183","131.170022371365","99.4645786726324","15.4183445190157","31.0604026845638","-29.0193885160328","0","359.8125"
"3183","208.170022371365","82.4645786726324","79.4183445190157","31.0604026845638","-29.0193885160328","0","359.8125"
