Timer,AX,AY,AZ,GX,GY,GZ,A
"90","-0.239042357274401","1.09834254143646","0.894290976058933","0.0519337016574586","1.99447513812155","0","358.6875"
"96","-0.239042357274401","1.09834254143646","0.894290976058933","-0.948066298342541","-1.00552486187845","0","358.6875"
"96","0.760957642725599","-1.90165745856354","2.89429097605893","-0.948066298342541","-1.00552486187845","0","358.6875"
"102","0.760957642725599","-1.90165745856354","2.89429097605893","-0.948066298342541","0.994475138121547","0","358.6875"
"102","0.760957642725599","-1.90165745856354","2.89429097605893","-0.948066298342541","0.994475138121547","0","358.6875"
"108","0.760957642725599","-1.90165745856354","2.89429097605893","-1.94806629834254","-1.00552486187845","0","358.6875"
"109","-1.2390423572744","0.0983425414364643","0.894290976058933","-1.94806629834254","-1.00552486187845","0","358.6875"
"116","-1.2390423572744","0.0983425414364643","0.894290976058933","-2.94806629834254","-2.00552486187845","0","358.6875"
"116","1.7609576427256","2.09834254143646","0.894290976058933","-2.94806629834254","-2.00552486187845","0","358.6875"
"122","1.7609576427256","2.09834254143646","0.894290976058933","1.05193370165746","-1.00552486187845","0","358.6875"
"122","0.760957642725599","1.09834254143646","-1.10570902394107","1.05193370165746","-1.00552486187845","0","358.6875"
"128","0.760957642725599","1.09834254143646","-1.10570902394107","2.05193370165746","-1.00552486187845","0","358.6875"
"128","-1.2390423572744","0.0983425414364643","0.894290976058933","2.05193370165746","-1.00552486187845","0","358.6875"
"134","-1.2390423572744","0.0983425414364643","0.894290976058933","-0.948066298342541","0.994475138121547","0","358.6875"
"134","-1.2390423572744","0.0983425414364643","0.894290976058933","-0.948066298342541","0.994475138121547","0","358.6875"
"140","-1.2390423572744","0.0983425414364643","0.894290976058933","2.05193370165746","-2.00552486187845","0","358.6875"
"140","0.760957642725599","1.09834254143646","-0.105709023941067","2.05193370165746","-2.00552486187845","0","358.6875"
"146","0.760957642725599","1.09834254143646","-0.105709023941067","2.05193370165746","0.994475138121547","0","358.6875"
"146","0.760957642725599","4.09834254143646","-1.10570902394107","2.05193370165746","0.994475138121547","0","358.6875"
"152","0.760957642725599","4.09834254143646","-1.10570902394107","-2.94806629834254","-0.00552486187845304","0","358.6875"
"152","0.760957642725599","2.09834254143646","1.89429097605893","-2.94806629834254","-0.00552486187845304","0","358.6875"
"158","0.760957642725599","2.09834254143646","1.89429097605893","-4.94806629834254","-2.00552486187845","0","358.6875"
"158","0.760957642725599","0.0983425414364643","-0.105709023941067","-4.94806629834254","-2.00552486187845","0","358.6875"
"164","0.760957642725599","0.0983425414364643","-0.105709023941067","-0.948066298342541","0.994475138121547","0","358.6875"
"164","0.760957642725599","0.0983425414364643","-0.105709023941067","-0.948066298342541","0.994475138121547","0","358.6875"
"170","0.760957642725599","0.0983425414364643","-0.105709023941067","-1.94806629834254","-0.00552486187845304","0","358.6875"
"170","0.760957642725599","0.0983425414364643","-0.105709023941067","-1.94806629834254","-0.00552486187845304","0","358.6875"
"177","0.760957642725599","0.0983425414364643","-0.105709023941067","-2.94806629834254","-0.00552486187845304","0","358.6875"
"177","1.7609576427256","-0.901657458563536","1.89429097605893","-2.94806629834254","-0.00552486187845304","0","358.6875"
"183","1.7609576427256","-0.901657458563536","1.89429097605893","-0.948066298342541","-1.00552486187845","0","358.6875"
"183","-0.239042357274401","1.09834254143646","-3.10570902394107","-0.948066298342541","-1.00552486187845","0","358.6875"
"189","-0.239042357274401","1.09834254143646","-3.10570902394107","-2.94806629834254","-1.00552486187845","0","358.6875"
"189","-0.239042357274401","-0.901657458563536","-0.105709023941067","-2.94806629834254","-1.00552486187845","0","358.6875"
"195","-0.239042357274401","-0.901657458563536","-0.105709023941067","-3.94806629834254","-0.00552486187845304","0","358.6875"
"195","-0.239042357274401","-0.901657458563536","-0.105709023941067","-3.94806629834254","-0.00552486187845304","0","358.6875"
"201","-0.239042357274401","-0.901657458563536","-0.105709023941067","-4.94806629834254","-1.00552486187845","0","358.6875"
"201","1.7609576427256","2.09834254143646","1.89429097605893","-4.94806629834254","-1.00552486187845","0","358.6875"
"208","1.7609576427256","2.09834254143646","1.89429097605893","1.05193370165746","-0.00552486187845304","0","358.6875"
"208","-0.239042357274401","1.09834254143646","-0.105709023941067","1.05193370165746","-0.00552486187845304","0","358.6875"
"214","-0.239042357274401","1.09834254143646","-0.105709023941067","0.0519337016574586","1.99447513812155","0","358.6875"
"214","1.7609576427256","1.09834254143646","-0.105709023941067","0.0519337016574586","1.99447513812155","0","358.6875"
"220","1.7609576427256","1.09834254143646","-0.105709023941067","-0.948066298342541","1.99447513812155","0","358.6875"
"220","-0.239042357274401","2.09834254143646","-2.10570902394107","-0.948066298342541","1.99447513812155","0","358.6875"
"226","-0.239042357274401","2.09834254143646","-2.10570902394107","0.0519337016574586","-2.00552486187845","0","358.6875"
"226","-0.239042357274401","2.09834254143646","-2.10570902394107","0.0519337016574586","-2.00552486187845","0","358.6875"
"232","-0.239042357274401","2.09834254143646","-2.10570902394107","0.0519337016574586","-2.00552486187845","0","358.6875"
"232","0.760957642725599","1.09834254143646","-0.105709023941067","0.0519337016574586","-2.00552486187845","0","358.6875"
"237","0.760957642725599","1.09834254143646","-0.105709023941067","-2.94806629834254","1.99447513812155","0","358.6875"
"237","0.760957642725599","1.09834254143646","-0.105709023941067","-2.94806629834254","1.99447513812155","0","358.6875"
"243","0.760957642725599","1.09834254143646","-0.105709023941067","2.05193370165746","0.994475138121547","0","358.6875"
"244","1.7609576427256","1.09834254143646","-2.10570902394107","2.05193370165746","0.994475138121547","0","358.6875"
"249","1.7609576427256","1.09834254143646","-2.10570902394107","-1.94806629834254","-2.00552486187845","0","358.6875"
"249","-0.239042357274401","-1.90165745856354","1.89429097605893","-1.94806629834254","-2.00552486187845","0","358.6875"
"255","-0.239042357274401","-1.90165745856354","1.89429097605893","-0.948066298342541","-0.00552486187845304","0","358.6875"
"256","-0.239042357274401","-1.90165745856354","1.89429097605893","-0.948066298342541","-0.00552486187845304","0","358.6875"
"262","-0.239042357274401","-1.90165745856354","1.89429097605893","-1.94806629834254","0.994475138121547","0","358.6875"
"263","-1.2390423572744","2.09834254143646","1.89429097605893","-1.94806629834254","0.994475138121547","0","358.6875"
"269","-1.2390423572744","2.09834254143646","1.89429097605893","3.05193370165746","-0.00552486187845304","0","358.6875"
"269","-1.2390423572744","2.09834254143646","1.89429097605893","3.05193370165746","-0.00552486187845304","0","358.6875"
"276","-1.2390423572744","2.09834254143646","1.89429097605893","3.05193370165746","0.994475138121547","0","358.6875"
"276","1.7609576427256","2.09834254143646","0.894290976058933","3.05193370165746","0.994475138121547","0","358.6875"
"283","1.7609576427256","2.09834254143646","0.894290976058933","0.0519337016574586","-0.00552486187845304","0","358.6875"
"283","-1.2390423572744","4.09834254143646","-1.10570902394107","0.0519337016574586","-0.00552486187845304","0","358.6875"
"291","-1.2390423572744","4.09834254143646","-1.10570902394107","0.0519337016574586","-4.00552486187845","0","358.6875"
"291","-1.2390423572744","4.09834254143646","-1.10570902394107","0.0519337016574586","-4.00552486187845","0","358.6875"
"298","-1.2390423572744","4.09834254143646","-1.10570902394107","1.05193370165746","-2.00552486187845","0","358.6875"
"298","0.760957642725599","0.0983425414364643","1.89429097605893","1.05193370165746","-2.00552486187845","0","358.6875"
"304","0.760957642725599","0.0983425414364643","1.89429097605893","0.0519337016574586","0.994475138121547","0","358.6875"
"304","0.760957642725599","2.09834254143646","0.894290976058933","0.0519337016574586","0.994475138121547","0","358.6875"
"311","0.760957642725599","2.09834254143646","0.894290976058933","-1.94806629834254","-0.00552486187845304","0","358.6875"
"311","-0.239042357274401","2.09834254143646","-1.10570902394107","-1.94806629834254","-0.00552486187845304","0","358.6875"
"317","-0.239042357274401","2.09834254143646","-1.10570902394107","-1.94806629834254","-1.00552486187845","0","358.6875"
"317","-2.2390423572744","2.09834254143646","0.894290976058933","-1.94806629834254","-1.00552486187845","0","358.6875"
"323","-2.2390423572744","2.09834254143646","0.894290976058933","-0.948066298342541","1.99447513812155","0","358.6875"
"323","-1.2390423572744","-0.901657458563536","-1.10570902394107","-0.948066298342541","1.99447513812155","0","358.6875"
"329","-1.2390423572744","-0.901657458563536","-1.10570902394107","2.05193370165746","-1.00552486187845","0","358.6875"
"329","-0.239042357274401","-1.90165745856354","1.89429097605893","2.05193370165746","-1.00552486187845","0","358.6875"
"335","-0.239042357274401","-1.90165745856354","1.89429097605893","-4.94806629834254","-1.00552486187845","0","358.6875"
"335","-0.239042357274401","1.09834254143646","-0.105709023941067","-4.94806629834254","-1.00552486187845","0","358.6875"
"341","-0.239042357274401","1.09834254143646","-0.105709023941067","-2.94806629834254","-2.00552486187845","0","358.6875"
"341","-2.2390423572744","1.09834254143646","-2.10570902394107","-2.94806629834254","-2.00552486187845","0","358.6875"
"347","-2.2390423572744","1.09834254143646","-2.10570902394107","-2.94806629834254","-3.00552486187845","0","358.6875"
"347","-0.239042357274401","-0.901657458563536","-0.105709023941067","-2.94806629834254","-3.00552486187845","0","358.6875"
"353","-0.239042357274401","-0.901657458563536","-0.105709023941067","-0.948066298342541","-2.00552486187845","0","358.6875"
"353","-0.239042357274401","0.0983425414364643","1.89429097605893","-0.948066298342541","-2.00552486187845","0","358.6875"
"359","-0.239042357274401","0.0983425414364643","1.89429097605893","1.05193370165746","-0.00552486187845304","0","358.6875"
"359","0.760957642725599","-0.901657458563536","0.894290976058933","1.05193370165746","-0.00552486187845304","0","358.6875"
"365","0.760957642725599","-0.901657458563536","0.894290976058933","2.05193370165746","-0.00552486187845304","0","358.6875"
"365","-0.239042357274401","1.09834254143646","-1.10570902394107","2.05193370165746","-0.00552486187845304","0","358.6875"
"371","-0.239042357274401","1.09834254143646","-1.10570902394107","1.05193370165746","-2.00552486187845","0","358.6875"
"371","1.7609576427256","0.0983425414364643","-1.10570902394107","1.05193370165746","-2.00552486187845","0","358.6875"
"377","1.7609576427256","0.0983425414364643","-1.10570902394107","1.05193370165746","-1.00552486187845","0","358.6875"
"377","-1.2390423572744","0.0983425414364643","1.89429097605893","1.05193370165746","-1.00552486187845","0","358.6875"
"383","-1.2390423572744","0.0983425414364643","1.89429097605893","0.0519337016574586","-1.00552486187845","0","358.6875"
"383","-1.2390423572744","1.09834254143646","1.89429097605893","0.0519337016574586","-1.00552486187845","0","358.6875"
"390","-1.2390423572744","1.09834254143646","1.89429097605893","-1.94806629834254","-0.00552486187845304","0","358.6875"
"390","-2.2390423572744","0.0983425414364643","-0.105709023941067","-1.94806629834254","-0.00552486187845304","0","358.6875"
"396","-2.2390423572744","0.0983425414364643","-0.105709023941067","0.0519337016574586","-0.00552486187845304","0","358.6875"
"397","-0.239042357274401","2.09834254143646","1.89429097605893","0.0519337016574586","-0.00552486187845304","0","358.6875"
"403","-0.239042357274401","2.09834254143646","1.89429097605893","-0.948066298342541","0.994475138121547","0","358.6875"
"403","-0.239042357274401","1.09834254143646","-0.105709023941067","-0.948066298342541","0.994475138121547","0","358.6875"
"410","-0.239042357274401","1.09834254143646","-0.105709023941067","1.05193370165746","-1.00552486187845","0","358.6875"
"410","-0.239042357274401","1.09834254143646","-0.105709023941067","1.05193370165746","-1.00552486187845","0","358.6875"
"417","-0.239042357274401","1.09834254143646","-0.105709023941067","1.05193370165746","2.99447513812155","0","358.6875"
"417","-2.2390423572744","3.09834254143646","-0.105709023941067","1.05193370165746","2.99447513812155","0","358.6875"
"425","-2.2390423572744","3.09834254143646","-0.105709023941067","0.0519337016574586","0.994475138121547","0","358.6875"
"425","-0.239042357274401","2.09834254143646","-0.105709023941067","0.0519337016574586","0.994475138121547","0","358.6875"
"432","-0.239042357274401","2.09834254143646","-0.105709023941067","-0.948066298342541","-0.00552486187845304","0","358.6875"
"432","0.760957642725599","1.09834254143646","-0.105709023941067","-0.948066298342541","-0.00552486187845304","0","358.6875"
"438","0.760957642725599","1.09834254143646","-0.105709023941067","-3.94806629834254","-0.00552486187845304","0","358.6875"
"438","-0.239042357274401","-1.90165745856354","0.894290976058933","-3.94806629834254","-0.00552486187845304","0","358.6875"
"444","-0.239042357274401","-1.90165745856354","0.894290976058933","-2.94806629834254","1.99447513812155","0","358.6875"
"444","0.760957642725599","1.09834254143646","-2.10570902394107","-2.94806629834254","1.99447513812155","0","358.6875"
"450","0.760957642725599","1.09834254143646","-2.10570902394107","-0.948066298342541","0.994475138121547","0","358.6875"
"450","-0.239042357274401","2.09834254143646","-0.105709023941067","-0.948066298342541","0.994475138121547","0","358.6875"
"456","-0.239042357274401","2.09834254143646","-0.105709023941067","0.0519337016574586","-1.00552486187845","0","358.6875"
"456","-1.2390423572744","-0.901657458563536","0.894290976058933","0.0519337016574586","-1.00552486187845","0","358.6875"
"463","-1.2390423572744","-0.901657458563536","0.894290976058933","-1.94806629834254","1.99447513812155","0","358.6875"
"463","-1.2390423572744","-0.901657458563536","-1.10570902394107","-1.94806629834254","1.99447513812155","0","358.6875"
"470","-1.2390423572744","-0.901657458563536","-1.10570902394107","-3.94806629834254","1.99447513812155","0","358.6875"
"470","-0.239042357274401","1.09834254143646","-1.10570902394107","-3.94806629834254","1.99447513812155","0","358.6875"
"476","-0.239042357274401","1.09834254143646","-1.10570902394107","-3.94806629834254","2.99447513812155","0","358.6875"
"476","-1.2390423572744","2.09834254143646","0.894290976058933","-3.94806629834254","2.99447513812155","0","358.6875"
"486","-1.2390423572744","2.09834254143646","0.894290976058933","-2.94806629834254","0.994475138121547","0","358.6875"
"486","-0.239042357274401","1.09834254143646","-1.10570902394107","-2.94806629834254","0.994475138121547","0","358.6875"
"494","-0.239042357274401","1.09834254143646","-1.10570902394107","-2.94806629834254","1.99447513812155","0","358.6875"
"494","-1.2390423572744","1.09834254143646","1.89429097605893","-2.94806629834254","1.99447513812155","0","358.6875"
"502","-1.2390423572744","1.09834254143646","1.89429097605893","-3.94806629834254","-0.00552486187845304","0","358.6875"
"502","0.760957642725599","2.09834254143646","-2.10570902394107","-3.94806629834254","-0.00552486187845304","0","358.6875"
"510","0.760957642725599","2.09834254143646","-2.10570902394107","3.05193370165746","-0.00552486187845304","0","358.6875"
"510","-0.239042357274401","-0.901657458563536","-2.10570902394107","3.05193370165746","-0.00552486187845304","0","358.6875"
"516","-0.239042357274401","-0.901657458563536","-2.10570902394107","-1.94806629834254","1.99447513812155","0","358.6875"
"516","-0.239042357274401","0.0983425414364643","-0.105709023941067","-1.94806629834254","1.99447513812155","0","358.6875"
"523","-0.239042357274401","0.0983425414364643","-0.105709023941067","0.0519337016574586","0.994475138121547","0","358.6875"
"523","-1.2390423572744","-0.901657458563536","0.894290976058933","0.0519337016574586","0.994475138121547","0","358.6875"
"529","-1.2390423572744","-0.901657458563536","0.894290976058933","2.05193370165746","0.994475138121547","0","358.6875"
"530","-1.2390423572744","0.0983425414364643","-1.10570902394107","2.05193370165746","0.994475138121547","0","358.6875"
"535","-1.2390423572744","0.0983425414364643","-1.10570902394107","-0.948066298342541","-0.00552486187845304","0","358.6875"
"535","1.7609576427256","1.09834254143646","-0.105709023941067","-0.948066298342541","-0.00552486187845304","0","358.6875"
"541","1.7609576427256","1.09834254143646","-0.105709023941067","0.0519337016574586","-0.00552486187845304","0","358.6875"
"542","0.760957642725599","-0.901657458563536","-4.10570902394107","0.0519337016574586","-0.00552486187845304","0","358.6875"
"548","0.760957642725599","-0.901657458563536","-4.10570902394107","1.05193370165746","1.99447513812155","0","358.6875"
"548","0.760957642725599","2.09834254143646","-0.105709023941067","1.05193370165746","1.99447513812155","0","358.6875"
"553","0.760957642725599","2.09834254143646","-0.105709023941067","2.05193370165746","-0.00552486187845304","0","358.6875"
"553","0.760957642725599","1.09834254143646","0.894290976058933","2.05193370165746","-0.00552486187845304","0","358.6875"
"560","0.760957642725599","1.09834254143646","0.894290976058933","3.05193370165746","-1.00552486187845","0","358.6875"
"560","0.760957642725599","0.0983425414364643","-2.10570902394107","3.05193370165746","-1.00552486187845","0","358.6875"
"566","0.760957642725599","0.0983425414364643","-2.10570902394107","1.05193370165746","0.994475138121547","0","358.6875"
"566","-1.2390423572744","-0.901657458563536","0.894290976058933","1.05193370165746","0.994475138121547","0","358.6875"
"572","-1.2390423572744","-0.901657458563536","0.894290976058933","-1.94806629834254","-0.00552486187845304","0","358.6875"
"572","0.760957642725599","1.09834254143646","-2.10570902394107","-1.94806629834254","-0.00552486187845304","0","358.6875"
"579","0.760957642725599","1.09834254143646","-2.10570902394107","1.05193370165746","1.99447513812155","0","358.6875"
"579","1.7609576427256","2.09834254143646","-0.105709023941067","1.05193370165746","1.99447513812155","0","358.6875"
"584","1.7609576427256","2.09834254143646","-0.105709023941067","0.0519337016574586","0.994475138121547","0","358.6875"
"585","1.7609576427256","0.0983425414364643","0.894290976058933","0.0519337016574586","0.994475138121547","0","358.6875"
"590","1.7609576427256","0.0983425414364643","0.894290976058933","1.05193370165746","-0.00552486187845304","0","358.6875"
"591","1.7609576427256","2.09834254143646","2.89429097605893","1.05193370165746","-0.00552486187845304","0","358.6875"
"597","1.7609576427256","2.09834254143646","2.89429097605893","0.0519337016574586","1.99447513812155","0","358.6875"
"597","-1.2390423572744","-0.901657458563536","-1.10570902394107","0.0519337016574586","1.99447513812155","0","358.6875"
"602","-1.2390423572744","-0.901657458563536","-1.10570902394107","1.05193370165746","-0.00552486187845304","0","358.6875"
"602","0.760957642725599","2.09834254143646","-1.10570902394107","1.05193370165746","-0.00552486187845304","0","358.6875"
"609","0.760957642725599","2.09834254143646","-1.10570902394107","1.05193370165746","0.994475138121547","0","358.6875"
"609","-0.239042357274401","-0.901657458563536","-0.105709023941067","1.05193370165746","0.994475138121547","0","358.6875"
"615","-0.239042357274401","-0.901657458563536","-0.105709023941067","1.05193370165746","0.994475138121547","0","358.6875"
"615","0.760957642725599","1.09834254143646","-1.10570902394107","1.05193370165746","0.994475138121547","0","358.6875"
"620","0.760957642725599","1.09834254143646","-1.10570902394107","-1.94806629834254","-0.00552486187845304","0","358.6875"
"620","-0.239042357274401","0.0983425414364643","-0.105709023941067","-1.94806629834254","-0.00552486187845304","0","358.6875"
"626","-0.239042357274401","0.0983425414364643","-0.105709023941067","2.05193370165746","1.99447513812155","0","358.6875"
"627","1.7609576427256","-0.901657458563536","-1.10570902394107","2.05193370165746","1.99447513812155","0","358.6875"
"632","1.7609576427256","-0.901657458563536","-1.10570902394107","0.0519337016574586","-0.00552486187845304","0","358.6875"
"632","0.760957642725599","4.09834254143646","-1.10570902394107","0.0519337016574586","-0.00552486187845304","0","358.6875"
"638","0.760957642725599","4.09834254143646","-1.10570902394107","0.0519337016574586","-1.00552486187845","0","358.6875"
"638","-0.239042357274401","-0.901657458563536","0.894290976058933","0.0519337016574586","-1.00552486187845","0","358.6875"
"644","-0.239042357274401","-0.901657458563536","0.894290976058933","1.05193370165746","0.994475138121547","0","358.6875"
"644","-0.239042357274401","-0.901657458563536","0.894290976058933","1.05193370165746","0.994475138121547","0","358.6875"
"650","-0.239042357274401","-0.901657458563536","0.894290976058933","-1.94806629834254","0.994475138121547","0","358.6875"
"650","1.7609576427256","2.09834254143646","-1.10570902394107","-1.94806629834254","0.994475138121547","0","358.6875"
"656","1.7609576427256","2.09834254143646","-1.10570902394107","0.0519337016574586","0.994475138121547","0","358.6875"
"656","-1.2390423572744","-0.901657458563536","-0.105709023941067","0.0519337016574586","0.994475138121547","0","358.6875"
"662","-1.2390423572744","-0.901657458563536","-0.105709023941067","-0.948066298342541","0.994475138121547","0","358.6875"
"662","-3.2390423572744","1.09834254143646","-2.10570902394107","-0.948066298342541","0.994475138121547","0","358.6875"
"668","-3.2390423572744","1.09834254143646","-2.10570902394107","-4.94806629834254","0.994475138121547","0","358.6875"
"668","0.760957642725599","3.09834254143646","-0.105709023941067","-4.94806629834254","0.994475138121547","0","358.6875"
"674","0.760957642725599","3.09834254143646","-0.105709023941067","-0.948066298342541","1.99447513812155","0","358.6875"
"674","-0.239042357274401","-1.90165745856354","-0.105709023941067","-0.948066298342541","1.99447513812155","0","358.6875"
"681","-0.239042357274401","-1.90165745856354","-0.105709023941067","0.0519337016574586","-1.00552486187845","0","358.6875"
"681","-2.2390423572744","-0.901657458563536","1.89429097605893","0.0519337016574586","-1.00552486187845","0","358.6875"
"687","-2.2390423572744","-0.901657458563536","1.89429097605893","0.0519337016574586","1.99447513812155","0","358.6875"
"687","-0.239042357274401","3.09834254143646","1.89429097605893","0.0519337016574586","1.99447513812155","0","358.6875"
"695","-0.239042357274401","3.09834254143646","1.89429097605893","0.0519337016574586","2.99447513812155","0","358.6875"
"695","-0.239042357274401","-0.901657458563536","-0.105709023941067","0.0519337016574586","2.99447513812155","0","358.6875"
"701","-0.239042357274401","-0.901657458563536","-0.105709023941067","-4.94806629834254","-0.00552486187845304","0","358.6875"
"701","-0.239042357274401","1.09834254143646","-0.105709023941067","-4.94806629834254","-0.00552486187845304","0","358.6875"
"710","-0.239042357274401","1.09834254143646","-0.105709023941067","1.05193370165746","1.99447513812155","0","358.6875"
"710","1.7609576427256","2.09834254143646","-0.105709023941067","1.05193370165746","1.99447513812155","0","358.6875"
"717","1.7609576427256","2.09834254143646","-0.105709023941067","-1.94806629834254","-0.00552486187845304","0","358.6875"
"718","1.7609576427256","0.0983425414364643","0.894290976058933","-1.94806629834254","-0.00552486187845304","0","358.6875"
"724","1.7609576427256","0.0983425414364643","0.894290976058933","0.0519337016574586","-1.00552486187845","0","358.6875"
"725","-0.239042357274401","2.09834254143646","0.894290976058933","0.0519337016574586","-1.00552486187845","0","358.6875"
"731","-0.239042357274401","2.09834254143646","0.894290976058933","2.05193370165746","-0.00552486187845304","0","358.6875"
"731","1.7609576427256","2.09834254143646","-2.10570902394107","2.05193370165746","-0.00552486187845304","0","358.6875"
"737","1.7609576427256","2.09834254143646","-2.10570902394107","-0.948066298342541","0.994475138121547","0","358.6875"
"737","-0.239042357274401","0.0983425414364643","-1.10570902394107","-0.948066298342541","0.994475138121547","0","358.6875"
"743","-0.239042357274401","0.0983425414364643","-1.10570902394107","1.05193370165746","0.994475138121547","0","358.6875"
"743","0.760957642725599","1.09834254143646","-0.105709023941067","1.05193370165746","0.994475138121547","0","358.6875"
"749","0.760957642725599","1.09834254143646","-0.105709023941067","2.05193370165746","-1.00552486187845","0","358.6875"
"749","-0.239042357274401","-0.901657458563536","-0.105709023941067","2.05193370165746","-1.00552486187845","0","358.6875"
"757","-0.239042357274401","-0.901657458563536","-0.105709023941067","-0.948066298342541","-1.00552486187845","0","358.6875"
"757","-1.2390423572744","2.09834254143646","0.894290976058933","-0.948066298342541","-1.00552486187845","0","358.6875"
"764","-1.2390423572744","2.09834254143646","0.894290976058933","2.05193370165746","-1.00552486187845","0","358.6875"
"764","0.760957642725599","1.09834254143646","-2.10570902394107","2.05193370165746","-1.00552486187845","0","358.6875"
"771","0.760957642725599","1.09834254143646","-2.10570902394107","1.05193370165746","-3.00552486187845","0","358.6875"
"772","-0.239042357274401","1.09834254143646","-0.105709023941067","1.05193370165746","-3.00552486187845","0","358.6875"
"778","-0.239042357274401","1.09834254143646","-0.105709023941067","0.0519337016574586","-3.00552486187845","0","358.6875"
"778","-0.239042357274401","-2.90165745856354","-1.10570902394107","0.0519337016574586","-3.00552486187845","0","358.6875"
"784","-0.239042357274401","-2.90165745856354","-1.10570902394107","-2.94806629834254","1.99447513812155","0","358.6875"
"784","0.760957642725599","3.09834254143646","2.89429097605893","-2.94806629834254","1.99447513812155","0","358.6875"
"790","0.760957642725599","3.09834254143646","2.89429097605893","0.0519337016574586","-0.00552486187845304","0","358.6875"
"790","0.760957642725599","0.0983425414364643","-1.10570902394107","0.0519337016574586","-0.00552486187845304","0","358.6875"
"796","0.760957642725599","0.0983425414364643","-1.10570902394107","-0.948066298342541","-1.00552486187845","0","358.6875"
"796","0.760957642725599","-0.901657458563536","-0.105709023941067","-0.948066298342541","-1.00552486187845","0","358.6875"
"801","0.760957642725599","-0.901657458563536","-0.105709023941067","-2.94806629834254","0.994475138121547","0","358.6875"
"802","1.7609576427256","2.09834254143646","1.89429097605893","-2.94806629834254","0.994475138121547","0","358.6875"
"807","1.7609576427256","2.09834254143646","1.89429097605893","-1.94806629834254","-0.00552486187845304","0","358.6875"
"807","1.7609576427256","1.09834254143646","-0.105709023941067","-1.94806629834254","-0.00552486187845304","0","358.6875"
"813","1.7609576427256","1.09834254143646","-0.105709023941067","-4.94806629834254","1.99447513812155","0","358.6875"
"813","1.7609576427256","-0.901657458563536","-0.105709023941067","-4.94806629834254","1.99447513812155","0","358.6875"
"819","1.7609576427256","-0.901657458563536","-0.105709023941067","-4.94806629834254","0.994475138121547","0","358.6875"
"819","0.760957642725599","0.0983425414364643","-0.105709023941067","-4.94806629834254","0.994475138121547","0","358.6875"
"825","0.760957642725599","0.0983425414364643","-0.105709023941067","-2.94806629834254","-0.00552486187845304","0","358.6875"
"825","-0.239042357274401","2.09834254143646","-1.10570902394107","-2.94806629834254","-0.00552486187845304","0","358.6875"
"832","-0.239042357274401","2.09834254143646","-1.10570902394107","-2.94806629834254","0.994475138121547","0","358.6875"
"832","0.760957642725599","0.0983425414364643","-0.105709023941067","-2.94806629834254","0.994475138121547","0","358.6875"
"837","0.760957642725599","0.0983425414364643","-0.105709023941067","-1.94806629834254","1.99447513812155","0","358.6875"
"837","-0.239042357274401","0.0983425414364643","0.894290976058933","-1.94806629834254","1.99447513812155","0","358.6875"
"844","-0.239042357274401","0.0983425414364643","0.894290976058933","-0.948066298342541","-0.00552486187845304","0","358.6875"
"844","0.760957642725599","0.0983425414364643","0.894290976058933","-0.948066298342541","-0.00552486187845304","0","358.6875"
"849","0.760957642725599","0.0983425414364643","0.894290976058933","0.0519337016574586","-2.00552486187845","0","358.6875"
"850","0.760957642725599","2.09834254143646","-2.10570902394107","0.0519337016574586","-2.00552486187845","0","358.6875"
"856","0.760957642725599","2.09834254143646","-2.10570902394107","0.0519337016574586","-2.00552486187845","0","358.6875"
"856","-1.2390423572744","2.09834254143646","-2.10570902394107","0.0519337016574586","-2.00552486187845","0","358.6875"
"862","-1.2390423572744","2.09834254143646","-2.10570902394107","0.0519337016574586","0.994475138121547","0","358.6875"
"862","-1.2390423572744","0.0983425414364643","0.894290976058933","0.0519337016574586","0.994475138121547","0","358.6875"
"867","-1.2390423572744","0.0983425414364643","0.894290976058933","-0.948066298342541","-0.00552486187845304","0","358.6875"
"867","-0.239042357274401","0.0983425414364643","0.894290976058933","-0.948066298342541","-0.00552486187845304","0","358.6875"
"874","-0.239042357274401","0.0983425414364643","0.894290976058933","1.05193370165746","-1.00552486187845","0","358.6875"
"874","-0.239042357274401","0.0983425414364643","-1.10570902394107","1.05193370165746","-1.00552486187845","0","358.6875"
"879","-0.239042357274401","0.0983425414364643","-1.10570902394107","-0.948066298342541","1.99447513812155","0","358.6875"
"880","-0.239042357274401","0.0983425414364643","0.894290976058933","-0.948066298342541","1.99447513812155","0","358.6875"
"885","-0.239042357274401","0.0983425414364643","0.894290976058933","0.0519337016574586","0.994475138121547","0","358.6875"
"885","0.760957642725599","1.09834254143646","-0.105709023941067","0.0519337016574586","0.994475138121547","0","358.6875"
"891","0.760957642725599","1.09834254143646","-0.105709023941067","-0.948066298342541","0.994475138121547","0","358.6875"
"891","-2.2390423572744","0.0983425414364643","-0.105709023941067","-0.948066298342541","0.994475138121547","0","358.6875"
"899","-2.2390423572744","0.0983425414364643","-0.105709023941067","-0.948066298342541","-0.00552486187845304","0","358.6875"
"899","-0.239042357274401","0.0983425414364643","-0.105709023941067","-0.948066298342541","-0.00552486187845304","0","358.6875"
"906","-0.239042357274401","0.0983425414364643","-0.105709023941067","0.0519337016574586","-1.00552486187845","0","358.6875"
"906","1.7609576427256","1.09834254143646","0.894290976058933","0.0519337016574586","-1.00552486187845","0","358.6875"
"913","1.7609576427256","1.09834254143646","0.894290976058933","0.0519337016574586","-2.00552486187845","0","358.6875"
"913","-0.239042357274401","-0.901657458563536","1.89429097605893","0.0519337016574586","-2.00552486187845","0","358.6875"
"921","-0.239042357274401","-0.901657458563536","1.89429097605893","2.05193370165746","-1.00552486187845","0","358.6875"
"921","0.760957642725599","2.09834254143646","-1.10570902394107","2.05193370165746","-1.00552486187845","0","358.6875"
"928","0.760957642725599","2.09834254143646","-1.10570902394107","2.05193370165746","1.99447513812155","0","358.6875"
"928","1.7609576427256","0.0983425414364643","-1.10570902394107","2.05193370165746","1.99447513812155","0","358.6875"
"934","1.7609576427256","0.0983425414364643","-1.10570902394107","-0.948066298342541","0.994475138121547","0","358.6875"
"934","1.7609576427256","0.0983425414364643","-0.105709023941067","-0.948066298342541","0.994475138121547","0","358.6875"
"940","1.7609576427256","0.0983425414364643","-0.105709023941067","-0.948066298342541","0.994475138121547","0","358.6875"
"940","-0.239042357274401","-1.90165745856354","1.89429097605893","-0.948066298342541","0.994475138121547","0","358.6875"
"946","-0.239042357274401","-1.90165745856354","1.89429097605893","-1.94806629834254","0.994475138121547","0","358.6875"
"946","1.7609576427256","3.09834254143646","-0.105709023941067","-1.94806629834254","0.994475138121547","0","358.6875"
"952","1.7609576427256","3.09834254143646","-0.105709023941067","1.05193370165746","-0.00552486187845304","0","358.6875"
"952","1.7609576427256","3.09834254143646","-1.10570902394107","1.05193370165746","-0.00552486187845304","0","358.6875"
"959","1.7609576427256","3.09834254143646","-1.10570902394107","2.05193370165746","0.994475138121547","0","358.6875"
"959","-0.239042357274401","-1.90165745856354","-1.10570902394107","2.05193370165746","0.994475138121547","0","358.6875"
"965","-0.239042357274401","-1.90165745856354","-1.10570902394107","-1.94806629834254","-0.00552486187845304","0","358.6875"
"965","1.7609576427256","2.09834254143646","-0.105709023941067","-1.94806629834254","-0.00552486187845304","0","358.6875"
"970","1.7609576427256","2.09834254143646","-0.105709023941067","1.05193370165746","-1.00552486187845","0","358.6875"
"970","0.760957642725599","1.09834254143646","-0.105709023941067","1.05193370165746","-1.00552486187845","0","358.6875"
"977","0.760957642725599","1.09834254143646","-0.105709023941067","2.05193370165746","-2.00552486187845","0","358.6875"
"977","1.7609576427256","-1.90165745856354","-1.10570902394107","2.05193370165746","-2.00552486187845","0","358.6875"
"983","1.7609576427256","-1.90165745856354","-1.10570902394107","1.05193370165746","0.994475138121547","0","358.6875"
"983","0.760957642725599","0.0983425414364643","-1.10570902394107","1.05193370165746","0.994475138121547","0","358.6875"
"989","0.760957642725599","0.0983425414364643","-1.10570902394107","-1.94806629834254","1.99447513812155","0","358.6875"
"989","0.760957642725599","0.0983425414364643","-0.105709023941067","-1.94806629834254","1.99447513812155","0","358.6875"
"995","0.760957642725599","0.0983425414364643","-0.105709023941067","-0.948066298342541","-1.00552486187845","0","358.6875"
"995","-2.2390423572744","2.09834254143646","-0.105709023941067","-0.948066298342541","-1.00552486187845","0","358.6875"
"1001","-2.2390423572744","2.09834254143646","-0.105709023941067","-0.948066298342541","-0.00552486187845304","0","358.6875"
"1001","0.760957642725599","1.09834254143646","-0.105709023941067","-0.948066298342541","-0.00552486187845304","0","358.6875"
"1008","0.760957642725599","1.09834254143646","-0.105709023941067","2.05193370165746","0.994475138121547","0","358.6875"
"1008","-0.239042357274401","2.09834254143646","1.89429097605893","2.05193370165746","0.994475138121547","0","358.6875"
"1015","-0.239042357274401","2.09834254143646","1.89429097605893","0.0519337016574586","0.994475138121547","0","358.6875"
"1015","-1.2390423572744","2.09834254143646","-2.10570902394107","0.0519337016574586","0.994475138121547","0","358.6875"
"1021","-1.2390423572744","2.09834254143646","-2.10570902394107","0.0519337016574586","-1.00552486187845","0","358.6875"
"1021","-2.2390423572744","1.09834254143646","-0.105709023941067","0.0519337016574586","-1.00552486187845","0","358.6875"
"1028","-2.2390423572744","1.09834254143646","-0.105709023941067","-1.94806629834254","-0.00552486187845304","0","358.6875"
"1028","-1.2390423572744","3.09834254143646","-0.105709023941067","-1.94806629834254","-0.00552486187845304","0","358.6875"
"1033","-1.2390423572744","3.09834254143646","-0.105709023941067","1.05193370165746","0.994475138121547","0","358.6875"
"1033","-2.2390423572744","2.09834254143646","-0.105709023941067","1.05193370165746","0.994475138121547","0","358.6875"
"1039","-2.2390423572744","2.09834254143646","-0.105709023941067","-3.94806629834254","-1.00552486187845","0","358.6875"
"1040","1.7609576427256","0.0983425414364643","-0.105709023941067","-3.94806629834254","-1.00552486187845","0","358.6875"
"1046","1.7609576427256","0.0983425414364643","-0.105709023941067","-1.94806629834254","-1.00552486187845","0","358.6875"
"1046","-1.2390423572744","1.09834254143646","-1.10570902394107","-1.94806629834254","-1.00552486187845","0","358.6875"
"1051","-1.2390423572744","1.09834254143646","-1.10570902394107","-0.948066298342541","-0.00552486187845304","0","358.6875"
"1052","0.760957642725599","0.0983425414364643","-0.105709023941067","-0.948066298342541","-0.00552486187845304","0","358.6875"
"1057","0.760957642725599","0.0983425414364643","-0.105709023941067","-3.94806629834254","1.99447513812155","0","358.6875"
"1058","0.760957642725599","0.0983425414364643","0.894290976058933","-3.94806629834254","1.99447513812155","0","358.6875"
"1064","0.760957642725599","0.0983425414364643","0.894290976058933","0.0519337016574586","-1.00552486187845","0","358.6875"
"1064","-2.2390423572744","0.0983425414364643","0.894290976058933","0.0519337016574586","-1.00552486187845","0","358.6875"
"1070","-2.2390423572744","0.0983425414364643","0.894290976058933","-1.94806629834254","-2.00552486187845","0","358.6875"
"1070","0.760957642725599","0.0983425414364643","0.894290976058933","-1.94806629834254","-2.00552486187845","0","358.6875"
"1076","0.760957642725599","0.0983425414364643","0.894290976058933","1.05193370165746","-1.00552486187845","0","358.6875"
"1076","-0.239042357274401","0.0983425414364643","-0.105709023941067","1.05193370165746","-1.00552486187845","0","358.6875"
"1083","-0.239042357274401","0.0983425414364643","-0.105709023941067","-0.948066298342541","1.99447513812155","0","358.6875"
"1083","-0.239042357274401","1.09834254143646","-0.105709023941067","-0.948066298342541","1.99447513812155","0","358.6875"
"1089","-0.239042357274401","1.09834254143646","-0.105709023941067","-1.94806629834254","1.99447513812155","0","358.6875"
"1089","-1.2390423572744","0.0983425414364643","-2.10570902394107","-1.94806629834254","1.99447513812155","0","358.6875"
"1095","-1.2390423572744","0.0983425414364643","-2.10570902394107","-2.94806629834254","-3.00552486187845","0","358.6875"
"1095","-0.239042357274401","2.09834254143646","0.894290976058933","-2.94806629834254","-3.00552486187845","0","358.6875"
"1102","-0.239042357274401","2.09834254143646","0.894290976058933","-1.94806629834254","0.994475138121547","0","358.6875"
"1102","-0.239042357274401","0.0983425414364643","1.89429097605893","-1.94806629834254","0.994475138121547","0","358.6875"
"1109","-0.239042357274401","0.0983425414364643","1.89429097605893","-1.94806629834254","1.99447513812155","0","358.6875"
"1109","0.760957642725599","-1.90165745856354","-0.105709023941067","-1.94806629834254","1.99447513812155","0","358.6875"
"1117","0.760957642725599","-1.90165745856354","-0.105709023941067","-1.94806629834254","-1.00552486187845","0","358.6875"
"1117","-1.2390423572744","0.0983425414364643","-3.10570902394107","-1.94806629834254","-1.00552486187845","0","358.6875"
"1124","-1.2390423572744","0.0983425414364643","-3.10570902394107","-0.948066298342541","-3.00552486187845","0","358.6875"
"1124","-0.239042357274401","-0.901657458563536","1.89429097605893","-0.948066298342541","-3.00552486187845","0","358.6875"
"1131","-0.239042357274401","-0.901657458563536","1.89429097605893","-1.94806629834254","1.99447513812155","0","358.6875"
"1131","-0.239042357274401","0.0983425414364643","1.89429097605893","-1.94806629834254","1.99447513812155","0","358.6875"
"1136","-0.239042357274401","0.0983425414364643","1.89429097605893","0.0519337016574586","-1.00552486187845","0","358.6875"
"1136","-0.239042357274401","1.09834254143646","-0.105709023941067","0.0519337016574586","-1.00552486187845","0","358.6875"
"1143","-0.239042357274401","1.09834254143646","-0.105709023941067","1.05193370165746","0.994475138121547","0","358.6875"
"1143","-0.239042357274401","1.09834254143646","-0.105709023941067","1.05193370165746","0.994475138121547","0","358.6875"
"1149","-0.239042357274401","1.09834254143646","-0.105709023941067","-0.948066298342541","-0.00552486187845304","0","358.6875"
"1149","-1.2390423572744","-0.901657458563536","1.89429097605893","-0.948066298342541","-0.00552486187845304","0","358.6875"
"1155","-1.2390423572744","-0.901657458563536","1.89429097605893","1.05193370165746","1.99447513812155","0","358.6875"
"1155","-0.239042357274401","0.0983425414364643","-0.105709023941067","1.05193370165746","1.99447513812155","0","358.6875"
"1161","-0.239042357274401","0.0983425414364643","-0.105709023941067","-0.948066298342541","2.99447513812155","0","358.6875"
"1162","-0.239042357274401","0.0983425414364643","0.894290976058933","-0.948066298342541","2.99447513812155","0","358.6875"
"1167","-0.239042357274401","0.0983425414364643","0.894290976058933","-0.948066298342541","0.994475138121547","0","358.6875"
"1167","0.760957642725599","2.09834254143646","0.894290976058933","-0.948066298342541","0.994475138121547","0","358.6875"
"1174","0.760957642725599","2.09834254143646","0.894290976058933","0.0519337016574586","0.994475138121547","0","358.6875"
"1174","-1.2390423572744","-0.901657458563536","-0.105709023941067","0.0519337016574586","0.994475138121547","0","358.6875"
"1180","-1.2390423572744","-0.901657458563536","-0.105709023941067","-1.94806629834254","0.994475138121547","0","358.6875"
"1180","1.7609576427256","0.0983425414364643","-0.105709023941067","-1.94806629834254","0.994475138121547","0","358.6875"
"1185","1.7609576427256","0.0983425414364643","-0.105709023941067","-3.94806629834254","-0.00552486187845304","0","358.6875"
"1186","-2.2390423572744","0.0983425414364643","1.89429097605893","-3.94806629834254","-0.00552486187845304","0","358.6875"
"1192","-2.2390423572744","0.0983425414364643","1.89429097605893","-2.94806629834254","-2.00552486187845","0","358.6875"
"1192","-0.239042357274401","2.09834254143646","0.894290976058933","-2.94806629834254","-2.00552486187845","0","358.6875"
"1198","-0.239042357274401","2.09834254143646","0.894290976058933","1.05193370165746","-0.00552486187845304","0","358.6875"
"1198","0.760957642725599","-0.901657458563536","-0.105709023941067","1.05193370165746","-0.00552486187845304","0","358.6875"
"1204","0.760957642725599","-0.901657458563536","-0.105709023941067","0.0519337016574586","-2.00552486187845","0","358.6875"
"1204","-0.239042357274401","-2.90165745856354","0.894290976058933","0.0519337016574586","-2.00552486187845","0","358.6875"
"1210","-0.239042357274401","-2.90165745856354","0.894290976058933","1.05193370165746","-0.00552486187845304","0","358.6875"
"1210","0.760957642725599","2.09834254143646","-0.105709023941067","1.05193370165746","-0.00552486187845304","0","358.6875"
"1216","0.760957642725599","2.09834254143646","-0.105709023941067","0.0519337016574586","-0.00552486187845304","0","358.6875"
"1216","0.760957642725599","2.09834254143646","-0.105709023941067","0.0519337016574586","-0.00552486187845304","0","358.6875"
"1222","0.760957642725599","2.09834254143646","-0.105709023941067","-1.94806629834254","1.99447513812155","0","358.6875"
"1222","0.760957642725599","0.0983425414364643","0.894290976058933","-1.94806629834254","1.99447513812155","0","358.6875"
"1228","0.760957642725599","0.0983425414364643","0.894290976058933","-5.94806629834254","-0.00552486187845304","0","358.6875"
"1228","-0.239042357274401","0.0983425414364643","0.894290976058933","-5.94806629834254","-0.00552486187845304","0","358.6875"
"1234","-0.239042357274401","0.0983425414364643","0.894290976058933","-0.948066298342541","-0.00552486187845304","0","358.6875"
"1234","1.7609576427256","0.0983425414364643","-0.105709023941067","-0.948066298342541","-0.00552486187845304","0","358.6875"
"1240","1.7609576427256","0.0983425414364643","-0.105709023941067","-0.948066298342541","-1.00552486187845","0","358.6875"
"1240","0.760957642725599","1.09834254143646","-0.105709023941067","-0.948066298342541","-1.00552486187845","0","358.6875"
"1246","0.760957642725599","1.09834254143646","-0.105709023941067","0.0519337016574586","-0.00552486187845304","0","358.6875"
"1246","-0.239042357274401","0.0983425414364643","-1.10570902394107","0.0519337016574586","-0.00552486187845304","0","358.6875"
"1252","-0.239042357274401","0.0983425414364643","-1.10570902394107","-1.94806629834254","0.994475138121547","0","358.6875"
"1252","-0.239042357274401","-0.901657458563536","-0.105709023941067","-1.94806629834254","0.994475138121547","0","358.6875"
"1258","-0.239042357274401","-0.901657458563536","-0.105709023941067","-0.948066298342541","0.994475138121547","0","358.6875"
"1258","0.760957642725599","1.09834254143646","-0.105709023941067","-0.948066298342541","0.994475138121547","0","358.6875"
"1264","0.760957642725599","1.09834254143646","-0.105709023941067","1.05193370165746","0.994475138121547","0","358.6875"
"1264","0.760957642725599","1.09834254143646","-2.10570902394107","1.05193370165746","0.994475138121547","0","358.6875"
"1270","0.760957642725599","1.09834254143646","-2.10570902394107","1.05193370165746","3.99447513812155","0","358.6875"
"1270","0.760957642725599","2.09834254143646","0.894290976058933","1.05193370165746","3.99447513812155","0","358.6875"
"1276","0.760957642725599","2.09834254143646","0.894290976058933","1.05193370165746","0.994475138121547","0","358.6875"
"1277","1.7609576427256","1.09834254143646","-0.105709023941067","1.05193370165746","0.994475138121547","0","358.6875"
"1283","1.7609576427256","1.09834254143646","-0.105709023941067","-0.948066298342541","0.994475138121547","0","358.6875"
"1283","-2.2390423572744","1.09834254143646","1.89429097605893","-0.948066298342541","0.994475138121547","0","358.6875"
"1289","-2.2390423572744","1.09834254143646","1.89429097605893","-2.94806629834254","1.99447513812155","0","358.6875"
"1289","0.760957642725599","2.09834254143646","0.894290976058933","-2.94806629834254","1.99447513812155","0","358.6875"
"1295","0.760957642725599","2.09834254143646","0.894290976058933","-0.948066298342541","-1.00552486187845","0","358.6875"
"1295","1.7609576427256","1.09834254143646","-1.10570902394107","-0.948066298342541","-1.00552486187845","0","358.6875"
"1301","1.7609576427256","1.09834254143646","-1.10570902394107","-0.948066298342541","-1.00552486187845","0","358.6875"
"1301","0.760957642725599","1.09834254143646","-1.10570902394107","-0.948066298342541","-1.00552486187845","0","358.6875"
"1307","0.760957642725599","1.09834254143646","-1.10570902394107","-1.94806629834254","-1.00552486187845","0","358.6875"
"1308","-1.2390423572744","1.09834254143646","-0.105709023941067","-1.94806629834254","-1.00552486187845","0","358.6875"
"1317","-1.2390423572744","1.09834254143646","-0.105709023941067","0.0519337016574586","-1.00552486187845","0","358.6875"
"1317","-0.239042357274401","1.09834254143646","-0.105709023941067","0.0519337016574586","-1.00552486187845","0","358.6875"
"1324","-0.239042357274401","1.09834254143646","-0.105709023941067","1.05193370165746","-0.00552486187845304","0","358.6875"
"1324","-2.2390423572744","-1.90165745856354","-0.105709023941067","1.05193370165746","-0.00552486187845304","0","358.6875"
"1333","-2.2390423572744","-1.90165745856354","-0.105709023941067","-0.948066298342541","0.994475138121547","0","358.6875"
"1333","0.760957642725599","0.0983425414364643","-4.10570902394107","-0.948066298342541","0.994475138121547","0","358.6875"
"1342","0.760957642725599","0.0983425414364643","-4.10570902394107","1.05193370165746","0.994475138121547","0","358.6875"
"1342","-1.2390423572744","2.09834254143646","-2.10570902394107","1.05193370165746","0.994475138121547","0","358.6875"
"1350","-1.2390423572744","2.09834254143646","-2.10570902394107","2.05193370165746","0.994475138121547","0","358.6875"
"1350","-1.2390423572744","-0.901657458563536","1.89429097605893","2.05193370165746","0.994475138121547","0","358.6875"
"1358","-1.2390423572744","-0.901657458563536","1.89429097605893","1.05193370165746","1.99447513812155","0","358.6875"
"1358","-1.2390423572744","1.09834254143646","-0.105709023941067","1.05193370165746","1.99447513812155","0","358.6875"
"1364","-1.2390423572744","1.09834254143646","-0.105709023941067","2.05193370165746","0.994475138121547","0","358.6875"
"1365","1.7609576427256","2.09834254143646","-0.105709023941067","2.05193370165746","0.994475138121547","0","358.6875"
"1370","1.7609576427256","2.09834254143646","-0.105709023941067","-1.94806629834254","-0.00552486187845304","0","358.6875"
"1370","-0.239042357274401","-0.901657458563536","0.894290976058933","-1.94806629834254","-0.00552486187845304","0","358.6875"
"1377","-0.239042357274401","-0.901657458563536","0.894290976058933","-0.948066298342541","0.994475138121547","0","358.6875"
"1377","-1.2390423572744","1.09834254143646","-2.10570902394107","-0.948066298342541","0.994475138121547","0","358.6875"
"1383","-1.2390423572744","1.09834254143646","-2.10570902394107","-4.94806629834254","-2.00552486187845","0","358.6875"
"1383","0.760957642725599","2.09834254143646","0.894290976058933","-4.94806629834254","-2.00552486187845","0","358.6875"
"1393","0.760957642725599","2.09834254143646","0.894290976058933","-5.94806629834254","1.99447513812155","0","358.6875"
"1393","0.760957642725599","0.0983425414364643","1.89429097605893","-5.94806629834254","1.99447513812155","0","358.6875"
"1399","0.760957642725599","0.0983425414364643","1.89429097605893","-3.94806629834254","0.994475138121547","0","358.6875"
"1399","0.760957642725599","-0.901657458563536","-0.105709023941067","-3.94806629834254","0.994475138121547","0","358.6875"
"1405","0.760957642725599","-0.901657458563536","-0.105709023941067","-2.94806629834254","0.994475138121547","0","358.6875"
"1405","1.7609576427256","1.09834254143646","-2.10570902394107","-2.94806629834254","0.994475138121547","0","358.6875"
"1411","1.7609576427256","1.09834254143646","-2.10570902394107","-0.948066298342541","-0.00552486187845304","0","358.6875"
"1411","-0.239042357274401","0.0983425414364643","-2.10570902394107","-0.948066298342541","-0.00552486187845304","0","358.6875"
"1417","-0.239042357274401","0.0983425414364643","-2.10570902394107","-4.94806629834254","-2.00552486187845","0","358.6875"
"1417","0.760957642725599","0.0983425414364643","1.89429097605893","-4.94806629834254","-2.00552486187845","0","358.6875"
"1423","0.760957642725599","0.0983425414364643","1.89429097605893","0.0519337016574586","-3.00552486187845","0","358.6875"
"1423","-0.239042357274401","0.0983425414364643","-0.105709023941067","0.0519337016574586","-3.00552486187845","0","358.6875"
"1429","-0.239042357274401","0.0983425414364643","-0.105709023941067","2.05193370165746","-2.00552486187845","0","358.6875"
"1429","-1.2390423572744","0.0983425414364643","0.894290976058933","2.05193370165746","-2.00552486187845","0","358.6875"
"1435","-1.2390423572744","0.0983425414364643","0.894290976058933","-1.94806629834254","-0.00552486187845304","0","358.6875"
"1435","-1.2390423572744","0.0983425414364643","-0.105709023941067","-1.94806629834254","-0.00552486187845304","0","358.6875"
"1442","-1.2390423572744","0.0983425414364643","-0.105709023941067","-0.948066298342541","0.994475138121547","0","358.6875"
"1442","1.7609576427256","-0.901657458563536","0.894290976058933","-0.948066298342541","0.994475138121547","0","358.6875"
"1449","1.7609576427256","-0.901657458563536","0.894290976058933","-3.94806629834254","0.994475138121547","0","358.6875"
"1449","-0.239042357274401","2.09834254143646","-1.10570902394107","-3.94806629834254","0.994475138121547","0","358.6875"
"1454","-0.239042357274401","2.09834254143646","-1.10570902394107","0.0519337016574586","-1.00552486187845","0","358.6875"
"1455","-0.239042357274401","-0.901657458563536","-0.105709023941067","0.0519337016574586","-1.00552486187845","0","358.6875"
"1461","-0.239042357274401","-0.901657458563536","-0.105709023941067","-2.94806629834254","0.994475138121547","0","358.6875"
"1461","-1.2390423572744","4.09834254143646","-0.105709023941067","-2.94806629834254","0.994475138121547","0","358.6875"
"1467","-1.2390423572744","4.09834254143646","-0.105709023941067","-1.94806629834254","-1.00552486187845","0","358.6875"
"1467","0.760957642725599","3.09834254143646","-0.105709023941067","-1.94806629834254","-1.00552486187845","0","358.6875"
"1474","0.760957642725599","3.09834254143646","-0.105709023941067","-1.94806629834254","0.994475138121547","0","358.6875"
"1474","-1.2390423572744","-0.901657458563536","-0.105709023941067","-1.94806629834254","0.994475138121547","0","358.6875"
"1480","-1.2390423572744","-0.901657458563536","-0.105709023941067","-4.94806629834254","2.99447513812155","0","358.6875"
"1480","-1.2390423572744","-0.901657458563536","1.89429097605893","-4.94806629834254","2.99447513812155","0","358.6875"
"1486","-1.2390423572744","-0.901657458563536","1.89429097605893","1.05193370165746","-0.00552486187845304","0","358.6875"
"1486","-2.2390423572744","2.09834254143646","1.89429097605893","1.05193370165746","-0.00552486187845304","0","358.6875"
"1492","-2.2390423572744","2.09834254143646","1.89429097605893","0.0519337016574586","-2.00552486187845","0","358.6875"
"1492","-2.2390423572744","3.09834254143646","-0.105709023941067","0.0519337016574586","-2.00552486187845","0","358.6875"
"1497","-2.2390423572744","3.09834254143646","-0.105709023941067","0.0519337016574586","-0.00552486187845304","0","358.6875"
"1498","-0.239042357274401","-0.901657458563536","-0.105709023941067","0.0519337016574586","-0.00552486187845304","0","358.6875"
"1503","-0.239042357274401","-0.901657458563536","-0.105709023941067","-2.94806629834254","-0.00552486187845304","0","358.6875"
"1503","-0.239042357274401","1.09834254143646","-1.10570902394107","-2.94806629834254","-0.00552486187845304","0","358.6875"
"1509","-0.239042357274401","1.09834254143646","-1.10570902394107","2.05193370165746","-2.00552486187845","0","358.6875"
"1509","-1.2390423572744","1.09834254143646","-0.105709023941067","2.05193370165746","-2.00552486187845","0","358.6875"
"1516","-1.2390423572744","1.09834254143646","-0.105709023941067","-3.94806629834254","-4.00552486187845","0","358.6875"
"1516","-2.2390423572744","0.0983425414364643","-0.105709023941067","-3.94806629834254","-4.00552486187845","0","358.6875"
"1523","-2.2390423572744","0.0983425414364643","-0.105709023941067","-4.94806629834254","-2.00552486187845","0","358.6875"
"1523","1.7609576427256","2.09834254143646","0.894290976058933","-4.94806629834254","-2.00552486187845","0","358.6875"
"1530","1.7609576427256","2.09834254143646","0.894290976058933","-0.948066298342541","-4.00552486187845","0","358.6875"
"1530","-0.239042357274401","2.09834254143646","-2.10570902394107","-0.948066298342541","-4.00552486187845","0","358.6875"
"1540","-0.239042357274401","2.09834254143646","-2.10570902394107","0.0519337016574586","-3.00552486187845","0","358.6875"
"1540","0.760957642725599","-0.901657458563536","-1.10570902394107","0.0519337016574586","-3.00552486187845","0","358.6875"
"1550","0.760957642725599","-0.901657458563536","-1.10570902394107","-3.94806629834254","-0.00552486187845304","0","358.6875"
"1550","-2.2390423572744","1.09834254143646","0.894290976058933","-3.94806629834254","-0.00552486187845304","0","358.6875"
"1560","-2.2390423572744","1.09834254143646","0.894290976058933","-1.94806629834254","1.99447513812155","0","358.6875"
"1561","0.760957642725599","-0.901657458563536","-0.105709023941067","-1.94806629834254","1.99447513812155","0","358.6875"
"1568","0.760957642725599","-0.901657458563536","-0.105709023941067","-0.948066298342541","-1.00552486187845","0","358.6875"
"1569","1.7609576427256","0.0983425414364643","1.89429097605893","-0.948066298342541","-1.00552486187845","0","358.6875"
"1576","1.7609576427256","0.0983425414364643","1.89429097605893","-1.94806629834254","-1.00552486187845","0","358.6875"
"1576","-0.239042357274401","0.0983425414364643","-1.10570902394107","-1.94806629834254","-1.00552486187845","0","358.6875"
"1583","-0.239042357274401","0.0983425414364643","-1.10570902394107","-0.948066298342541","-2.00552486187845","0","358.6875"
"1583","1.7609576427256","-0.901657458563536","0.894290976058933","-0.948066298342541","-2.00552486187845","0","358.6875"
"1590","1.7609576427256","-0.901657458563536","0.894290976058933","-1.94806629834254","0.994475138121547","0","358.6875"
"1590","-0.239042357274401","0.0983425414364643","0.894290976058933","-1.94806629834254","0.994475138121547","0","358.6875"
"1596","-0.239042357274401","0.0983425414364643","0.894290976058933","-1.94806629834254","0.994475138121547","0","358.6875"
"1597","-1.2390423572744","1.09834254143646","1.89429097605893","-1.94806629834254","0.994475138121547","0","358.6875"
"1602","-1.2390423572744","1.09834254143646","1.89429097605893","2.05193370165746","0.994475138121547","0","358.6875"
"1602","-2.2390423572744","0.0983425414364643","-0.105709023941067","2.05193370165746","0.994475138121547","0","358.6875"
"1609","-2.2390423572744","0.0983425414364643","-0.105709023941067","-0.948066298342541","0.994475138121547","0","358.6875"
"1609","0.760957642725599","0.0983425414364643","-3.10570902394107","-0.948066298342541","0.994475138121547","0","358.6875"
"1615","0.760957642725599","0.0983425414364643","-3.10570902394107","-1.94806629834254","-0.00552486187845304","0","358.6875"
"1615","-1.2390423572744","0.0983425414364643","-2.10570902394107","-1.94806629834254","-0.00552486187845304","0","358.6875"
"1620","-1.2390423572744","0.0983425414364643","-2.10570902394107","-2.94806629834254","-0.00552486187845304","0","358.6875"
"1620","-0.239042357274401","0.0983425414364643","-1.10570902394107","-2.94806629834254","-0.00552486187845304","0","358.6875"
"1626","-0.239042357274401","0.0983425414364643","-1.10570902394107","0.0519337016574586","-1.00552486187845","0","358.6875"
"1626","-1.2390423572744","1.09834254143646","-3.10570902394107","0.0519337016574586","-1.00552486187845","0","358.6875"
"1632","-1.2390423572744","1.09834254143646","-3.10570902394107","-2.94806629834254","-1.00552486187845","0","358.6875"
"1632","-0.239042357274401","-0.901657458563536","-1.10570902394107","-2.94806629834254","-1.00552486187845","0","358.6875"
"1638","-0.239042357274401","-0.901657458563536","-1.10570902394107","-1.94806629834254","0.994475138121547","0","358.6875"
"1638","-2.2390423572744","-0.901657458563536","-2.10570902394107","-1.94806629834254","0.994475138121547","0","358.6875"
"1644","-2.2390423572744","-0.901657458563536","-2.10570902394107","-1.94806629834254","-2.00552486187845","0","358.6875"
"1645","-0.239042357274401","-0.901657458563536","-1.10570902394107","-1.94806629834254","-2.00552486187845","0","358.6875"
"1650","-0.239042357274401","-0.901657458563536","-1.10570902394107","1.05193370165746","-2.00552486187845","0","358.6875"
"1650","-1.2390423572744","-0.901657458563536","0.894290976058933","1.05193370165746","-2.00552486187845","0","358.6875"
"1656","-1.2390423572744","-0.901657458563536","0.894290976058933","2.05193370165746","-1.00552486187845","0","358.6875"
"1656","-1.2390423572744","-1.90165745856354","1.89429097605893","2.05193370165746","-1.00552486187845","0","358.6875"
"1662","-1.2390423572744","-1.90165745856354","1.89429097605893","-3.94806629834254","1.99447513812155","0","358.6875"
"1662","-1.2390423572744","-1.90165745856354","1.89429097605893","-3.94806629834254","1.99447513812155","0","358.6875"
"1668","-1.2390423572744","-1.90165745856354","1.89429097605893","2.05193370165746","3.99447513812155","0","358.6875"
"1668","-1.2390423572744","-1.90165745856354","1.89429097605893","2.05193370165746","3.99447513812155","0","358.6875"
"1675","-1.2390423572744","-1.90165745856354","1.89429097605893","7.05193370165746","2.99447513812155","0","358.6875"
"1675","21.7609576427256","-15.9016574585635","10.8942909760589","7.05193370165746","2.99447513812155","0","358.6875"
"1681","21.7609576427256","-15.9016574585635","10.8942909760589","5.05193370165746","5.99447513812155","0","358.6875"
"1681","-4.2390423572744","-29.9016574585635","7.89429097605893","5.05193370165746","5.99447513812155","0","358.6875"
"1687","-4.2390423572744","-29.9016574585635","7.89429097605893","-11.9480662983425","-6.00552486187845","0","358.6875"
"1687","-3.2390423572744","7.09834254143646","-2.10570902394107","-11.9480662983425","-6.00552486187845","0","358.6875"
"1694","-3.2390423572744","7.09834254143646","-2.10570902394107","2.05193370165746","3.99447513812155","0","358.6875"
"1694","-4.2390423572744","34.0983425414365","-9.10570902394107","2.05193370165746","3.99447513812155","0","358.6875"
"1700","-4.2390423572744","34.0983425414365","-9.10570902394107","16.0519337016575","-5.00552486187845","0","358.6875"
"1700","-10.2390423572744","-24.9016574585635","-0.105709023941067","16.0519337016575","-5.00552486187845","0","358.6875"
"1707","-10.2390423572744","-24.9016574585635","-0.105709023941067","-9.94806629834254","-4.00552486187845","0","358.6875"
"1707","-4.2390423572744","0.0983425414364643","-11.1057090239411","-9.94806629834254","-4.00552486187845","0","358.6875"
"1713","-4.2390423572744","0.0983425414364643","-11.1057090239411","-4.94806629834254","0.994475138121547","0","358.6875"
"1713","17.7609576427256","16.0983425414365","4.89429097605893","-4.94806629834254","0.994475138121547","0","358.6875"
"1720","17.7609576427256","16.0983425414365","4.89429097605893","10.0519337016575","-5.00552486187845","0","358.6875"
"1720","-2.2390423572744","-0.901657458563536","4.89429097605893","10.0519337016575","-5.00552486187845","0","358.6875"
"1727","-2.2390423572744","-0.901657458563536","4.89429097605893","1.05193370165746","-0.00552486187845304","0","358.6875"
"1728","1.7609576427256","-7.90165745856354","-6.10570902394107","1.05193370165746","-0.00552486187845304","0","358.6875"
"1734","1.7609576427256","-7.90165745856354","-6.10570902394107","-7.94806629834254","-1.00552486187845","0","358.6875"
"1734","3.7609576427256","-6.90165745856354","3.89429097605893","-7.94806629834254","-1.00552486187845","0","358.6875"
"1743","3.7609576427256","-6.90165745856354","3.89429097605893","-3.94806629834254","-0.00552486187845304","0","358.6875"
"1744","0.760957642725599","11.0983425414365","0.894290976058933","-3.94806629834254","-0.00552486187845304","0","358.6875"
"1750","0.760957642725599","11.0983425414365","0.894290976058933","0.0519337016574586","-2.00552486187845","0","358.6875"
"1750","1.7609576427256","-3.90165745856354","-0.105709023941067","0.0519337016574586","-2.00552486187845","0","358.6875"
"1757","1.7609576427256","-3.90165745856354","-0.105709023941067","3.05193370165746","-0.00552486187845304","0","358.6875"
"1758","-5.2390423572744","-12.9016574585635","-0.105709023941067","3.05193370165746","-0.00552486187845304","0","358.6875"
"1765","-5.2390423572744","-12.9016574585635","-0.105709023941067","-5.94806629834254","2.99447513812155","0","358.6875"
"1765","9.7609576427256","-3.90165745856354","4.89429097605893","-5.94806629834254","2.99447513812155","0","358.6875"
"1772","9.7609576427256","-3.90165745856354","4.89429097605893","1.05193370165746","-2.00552486187845","0","358.6875"
"1772","3.7609576427256","5.09834254143646","2.89429097605893","1.05193370165746","-2.00552486187845","0","358.6875"
"1779","3.7609576427256","5.09834254143646","2.89429097605893","2.05193370165746","-1.00552486187845","0","358.6875"
"1779","2.7609576427256","2.09834254143646","0.894290976058933","2.05193370165746","-1.00552486187845","0","358.6875"
"1785","2.7609576427256","2.09834254143646","0.894290976058933","0.0519337016574586","2.99447513812155","0","358.6875"
"1785","1.7609576427256","0.0983425414364643","-4.10570902394107","0.0519337016574586","2.99447513812155","0","358.6875"
"1791","1.7609576427256","0.0983425414364643","-4.10570902394107","-1.94806629834254","1.99447513812155","0","358.6875"
"1792","0.760957642725599","2.09834254143646","2.89429097605893","-1.94806629834254","1.99447513812155","0","358.6875"
"1798","0.760957642725599","2.09834254143646","2.89429097605893","-3.94806629834254","0.994475138121547","0","358.6875"
"1798","4.7609576427256","6.09834254143646","3.89429097605893","-3.94806629834254","0.994475138121547","0","358.6875"
"1803","4.7609576427256","6.09834254143646","3.89429097605893","0.0519337016574586","0.994475138121547","0","358.6875"
"1803","2.7609576427256","4.09834254143646","-0.105709023941067","0.0519337016574586","0.994475138121547","0","358.6875"
"1810","2.7609576427256","4.09834254143646","-0.105709023941067","4.05193370165746","-1.00552486187845","0","358.6875"
"1810","-3.2390423572744","1.09834254143646","-3.10570902394107","4.05193370165746","-1.00552486187845","0","358.6875"
"1816","-3.2390423572744","1.09834254143646","-3.10570902394107","0.0519337016574586","2.99447513812155","0","358.6875"
"1816","1.7609576427256","-0.901657458563536","-1.10570902394107","0.0519337016574586","2.99447513812155","0","358.6875"
"1822","1.7609576427256","-0.901657458563536","-1.10570902394107","-3.94806629834254","-0.00552486187845304","0","358.6875"
"1822","-1.2390423572744","0.0983425414364643","-0.105709023941067","-3.94806629834254","-0.00552486187845304","0","358.6875"
"1828","-1.2390423572744","0.0983425414364643","-0.105709023941067","1.05193370165746","1.99447513812155","0","358.6875"
"1828","-2.2390423572744","-1.90165745856354","1.89429097605893","1.05193370165746","1.99447513812155","0","358.6875"
"1834","-2.2390423572744","-1.90165745856354","1.89429097605893","0.0519337016574586","0.994475138121547","0","358.6875"
"1834","1.7609576427256","-2.90165745856354","0.894290976058933","0.0519337016574586","0.994475138121547","0","358.6875"
"1840","1.7609576427256","-2.90165745856354","0.894290976058933","1.05193370165746","-1.00552486187845","0","358.6875"
"1840","1.7609576427256","-1.90165745856354","-0.105709023941067","1.05193370165746","-1.00552486187845","0","358.6875"
"1846","1.7609576427256","-1.90165745856354","-0.105709023941067","0.0519337016574586","1.99447513812155","0","358.6875"
"1846","-0.239042357274401","-2.90165745856354","-0.105709023941067","0.0519337016574586","1.99447513812155","0","358.6875"
"1852","-0.239042357274401","-2.90165745856354","-0.105709023941067","0.0519337016574586","1.99447513812155","0","358.6875"
"1852","-3.2390423572744","-1.90165745856354","3.89429097605893","0.0519337016574586","1.99447513812155","0","358.6875"
"1858","-3.2390423572744","-1.90165745856354","3.89429097605893","1.05193370165746","3.99447513812155","0","358.6875"
"1858","-2.2390423572744","1.09834254143646","-0.105709023941067","1.05193370165746","3.99447513812155","0","358.6875"
"1864","-2.2390423572744","1.09834254143646","-0.105709023941067","4.05193370165746","1.99447513812155","0","358.6875"
"1864","-0.239042357274401","1.09834254143646","-1.10570902394107","4.05193370165746","1.99447513812155","0","358.6875"
"1870","-0.239042357274401","1.09834254143646","-1.10570902394107","0.0519337016574586","1.99447513812155","0","358.6875"
"1870","1.7609576427256","1.09834254143646","-1.10570902394107","0.0519337016574586","1.99447513812155","0","358.6875"
"1876","1.7609576427256","1.09834254143646","-1.10570902394107","0.0519337016574586","2.99447513812155","0","358.6875"
"1876","0.760957642725599","3.09834254143646","1.89429097605893","0.0519337016574586","2.99447513812155","0","358.6875"
"1882","0.760957642725599","3.09834254143646","1.89429097605893","2.05193370165746","0.994475138121547","0","358.6875"
"1882","0.760957642725599","4.09834254143646","-2.10570902394107","2.05193370165746","0.994475138121547","0","358.6875"
"1887","0.760957642725599","4.09834254143646","-2.10570902394107","1.05193370165746","2.99447513812155","0","358.6875"
"1888","-0.239042357274401","6.09834254143646","0.894290976058933","1.05193370165746","2.99447513812155","0","358.6875"
"1894","-0.239042357274401","6.09834254143646","0.894290976058933","1.05193370165746","1.99447513812155","0","358.6875"
"1894","-0.239042357274401","3.09834254143646","-0.105709023941067","1.05193370165746","1.99447513812155","0","358.6875"
"1900","-0.239042357274401","3.09834254143646","-0.105709023941067","2.05193370165746","0.994475138121547","0","358.6875"
"1900","0.760957642725599","4.09834254143646","-2.10570902394107","2.05193370165746","0.994475138121547","0","358.6875"
"1905","0.760957642725599","4.09834254143646","-2.10570902394107","-1.94806629834254","0.994475138121547","0","358.6875"
"1906","0.760957642725599","4.09834254143646","-0.105709023941067","-1.94806629834254","0.994475138121547","0","358.6875"
"1911","0.760957642725599","4.09834254143646","-0.105709023941067","2.05193370165746","1.99447513812155","0","358.6875"
"1911","0.760957642725599","1.09834254143646","-0.105709023941067","2.05193370165746","1.99447513812155","0","358.6875"
"1917","0.760957642725599","1.09834254143646","-0.105709023941067","-3.94806629834254","0.994475138121547","0","358.6875"
"1917","0.760957642725599","0.0983425414364643","-0.105709023941067","-3.94806629834254","0.994475138121547","0","358.6875"
"1923","0.760957642725599","0.0983425414364643","-0.105709023941067","-2.94806629834254","0.994475138121547","0","358.6875"
"1923","0.760957642725599","4.09834254143646","-0.105709023941067","-2.94806629834254","0.994475138121547","0","358.6875"
"1930","0.760957642725599","4.09834254143646","-0.105709023941067","1.05193370165746","-2.00552486187845","0","358.6875"
"1930","-0.239042357274401","1.09834254143646","-2.10570902394107","1.05193370165746","-2.00552486187845","0","358.6875"
"1937","-0.239042357274401","1.09834254143646","-2.10570902394107","-0.948066298342541","-0.00552486187845304","0","358.6875"
"1937","1.7609576427256","-3.90165745856354","1.89429097605893","-0.948066298342541","-0.00552486187845304","0","358.6875"
"1945","1.7609576427256","-3.90165745856354","1.89429097605893","-2.94806629834254","1.99447513812155","0","358.6875"
"1945","-0.239042357274401","-0.901657458563536","-0.105709023941067","-2.94806629834254","1.99447513812155","0","358.6875"
"1951","-0.239042357274401","-0.901657458563536","-0.105709023941067","-0.948066298342541","0.994475138121547","0","358.6875"
"1952","-0.239042357274401","1.09834254143646","-0.105709023941067","-0.948066298342541","0.994475138121547","0","358.6875"
"1961","-0.239042357274401","1.09834254143646","-0.105709023941067","-2.94806629834254","0.994475138121547","0","358.6875"
"1961","-0.239042357274401","-2.90165745856354","-1.10570902394107","-2.94806629834254","0.994475138121547","0","358.6875"
"1967","-0.239042357274401","-2.90165745856354","-1.10570902394107","2.05193370165746","-0.00552486187845304","0","358.6875"
"1968","1.7609576427256","-2.90165745856354","1.89429097605893","2.05193370165746","-0.00552486187845304","0","358.6875"
"1974","1.7609576427256","-2.90165745856354","1.89429097605893","1.05193370165746","-2.00552486187845","0","358.6875"
"1974","1.7609576427256","2.09834254143646","-0.105709023941067","1.05193370165746","-2.00552486187845","0","358.6875"
"1980","1.7609576427256","2.09834254143646","-0.105709023941067","-0.948066298342541","1.99447513812155","0","358.6875"
"1980","0.760957642725599","4.09834254143646","-1.10570902394107","-0.948066298342541","1.99447513812155","0","358.6875"
"1986","0.760957642725599","4.09834254143646","-1.10570902394107","0.0519337016574586","-0.00552486187845304","0","358.6875"
"1986","0.760957642725599","1.09834254143646","1.89429097605893","0.0519337016574586","-0.00552486187845304","0","358.6875"
"1993","0.760957642725599","1.09834254143646","1.89429097605893","-1.94806629834254","0.994475138121547","0","358.6875"
"1993","1.7609576427256","-2.90165745856354","0.894290976058933","-1.94806629834254","0.994475138121547","0","358.6875"
"1999","1.7609576427256","-2.90165745856354","0.894290976058933","-2.94806629834254","2.99447513812155","0","358.6875"
"1999","-0.239042357274401","1.09834254143646","-1.10570902394107","-2.94806629834254","2.99447513812155","0","358.6875"
"2005","-0.239042357274401","1.09834254143646","-1.10570902394107","0.0519337016574586","3.99447513812155","0","358.6875"
"2005","1.7609576427256","5.09834254143646","-1.10570902394107","0.0519337016574586","3.99447513812155","0","358.6875"
"2012","1.7609576427256","5.09834254143646","-1.10570902394107","-1.94806629834254","1.99447513812155","0","358.6875"
"2012","1.7609576427256","-0.901657458563536","1.89429097605893","-1.94806629834254","1.99447513812155","0","358.6875"
"2017","1.7609576427256","-0.901657458563536","1.89429097605893","-0.948066298342541","0.994475138121547","0","358.6875"
"2018","0.760957642725599","-0.901657458563536","1.89429097605893","-0.948066298342541","0.994475138121547","0","358.6875"
"2023","0.760957642725599","-0.901657458563536","1.89429097605893","-1.94806629834254","1.99447513812155","0","358.6875"
"2024","-1.2390423572744","0.0983425414364643","-0.105709023941067","-1.94806629834254","1.99447513812155","0","358.6875"
"2029","-1.2390423572744","0.0983425414364643","-0.105709023941067","1.05193370165746","0.994475138121547","0","358.6875"
"2029","1.7609576427256","-1.90165745856354","0.894290976058933","1.05193370165746","0.994475138121547","0","358.6875"
"2035","1.7609576427256","-1.90165745856354","0.894290976058933","-0.948066298342541","-0.00552486187845304","0","358.6875"
"2035","1.7609576427256","-3.90165745856354","-0.105709023941067","-0.948066298342541","-0.00552486187845304","0","358.6875"
"2041","1.7609576427256","-3.90165745856354","-0.105709023941067","-0.948066298342541","1.99447513812155","0","358.6875"
"2042","0.760957642725599","3.09834254143646","-0.105709023941067","-0.948066298342541","1.99447513812155","0","358.6875"
"2047","0.760957642725599","3.09834254143646","-0.105709023941067","3.05193370165746","3.99447513812155","0","358.6875"
"2048","-0.239042357274401","1.09834254143646","0.894290976058933","3.05193370165746","3.99447513812155","0","358.6875"
"2053","-0.239042357274401","1.09834254143646","0.894290976058933","4.05193370165746","0.994475138121547","0","358.6875"
"2053","-0.239042357274401","-3.90165745856354","-1.10570902394107","4.05193370165746","0.994475138121547","0","358.6875"
"2059","-0.239042357274401","-3.90165745856354","-1.10570902394107","0.0519337016574586","2.99447513812155","0","358.6875"
"2059","-3.2390423572744","1.09834254143646","-2.10570902394107","0.0519337016574586","2.99447513812155","0","358.6875"
"2067","-3.2390423572744","1.09834254143646","-2.10570902394107","-1.94806629834254","2.99447513812155","0","358.6875"
"2067","-0.239042357274401","7.09834254143646","-0.105709023941067","-1.94806629834254","2.99447513812155","0","358.6875"
"2074","-0.239042357274401","7.09834254143646","-0.105709023941067","1.05193370165746","0.994475138121547","0","358.6875"
"2074","-0.239042357274401","-1.90165745856354","1.89429097605893","1.05193370165746","0.994475138121547","0","358.6875"
"2081","-0.239042357274401","-1.90165745856354","1.89429097605893","-1.94806629834254","0.994475138121547","0","358.6875"
"2081","-0.239042357274401","-1.90165745856354","1.89429097605893","-1.94806629834254","0.994475138121547","0","358.6875"
"2087","-0.239042357274401","-1.90165745856354","1.89429097605893","-4.94806629834254","2.99447513812155","0","358.6875"
"2087","1.7609576427256","2.09834254143646","-1.10570902394107","-4.94806629834254","2.99447513812155","0","358.6875"
"2093","1.7609576427256","2.09834254143646","-1.10570902394107","0.0519337016574586","0.994475138121547","0","358.6875"
"2093","0.760957642725599","-0.901657458563536","0.894290976058933","0.0519337016574586","0.994475138121547","0","358.6875"
"2099","0.760957642725599","-0.901657458563536","0.894290976058933","0.0519337016574586","-0.00552486187845304","0","358.6875"
"2099","0.760957642725599","-2.90165745856354","1.89429097605893","0.0519337016574586","-0.00552486187845304","0","358.6875"
"2105","0.760957642725599","-2.90165745856354","1.89429097605893","-3.94806629834254","2.99447513812155","0","358.6875"
"2105","0.760957642725599","-1.90165745856354","-0.105709023941067","-3.94806629834254","2.99447513812155","0","358.6875"
"2111","0.760957642725599","-1.90165745856354","-0.105709023941067","3.05193370165746","-0.00552486187845304","0","358.6875"
"2111","-0.239042357274401","-0.901657458563536","-0.105709023941067","3.05193370165746","-0.00552486187845304","0","358.6875"
"2117","-0.239042357274401","-0.901657458563536","-0.105709023941067","1.05193370165746","1.99447513812155","0","358.6875"
"2117","-1.2390423572744","0.0983425414364643","-0.105709023941067","1.05193370165746","1.99447513812155","0","358.6875"
"2123","-1.2390423572744","0.0983425414364643","-0.105709023941067","-1.94806629834254","0.994475138121547","0","358.6875"
"2123","0.760957642725599","1.09834254143646","-2.10570902394107","-1.94806629834254","0.994475138121547","0","358.6875"
"2129","0.760957642725599","1.09834254143646","-2.10570902394107","2.05193370165746","-1.00552486187845","0","358.6875"
"2129","1.7609576427256","1.09834254143646","-0.105709023941067","2.05193370165746","-1.00552486187845","0","358.6875"
"2137","1.7609576427256","1.09834254143646","-0.105709023941067","0.0519337016574586","1.99447513812155","0","358.6875"
"2137","1.7609576427256","0.0983425414364643","-2.10570902394107","0.0519337016574586","1.99447513812155","0","358.6875"
"2147","1.7609576427256","0.0983425414364643","-2.10570902394107","-0.948066298342541","1.99447513812155","0","358.6875"
"2147","0.760957642725599","1.09834254143646","0.894290976058933","-0.948066298342541","1.99447513812155","0","358.6875"
"2153","0.760957642725599","1.09834254143646","0.894290976058933","0.0519337016574586","1.99447513812155","0","358.6875"
"2153","1.7609576427256","3.09834254143646","2.89429097605893","0.0519337016574586","1.99447513812155","0","358.6875"
"2161","1.7609576427256","3.09834254143646","2.89429097605893","0.0519337016574586","0.994475138121547","0","358.6875"
"2161","-0.239042357274401","2.09834254143646","-2.10570902394107","0.0519337016574586","0.994475138121547","0","358.6875"
"2167","-0.239042357274401","2.09834254143646","-2.10570902394107","2.05193370165746","1.99447513812155","0","358.6875"
"2167","0.760957642725599","3.09834254143646","-0.105709023941067","2.05193370165746","1.99447513812155","0","358.6875"
"2175","0.760957642725599","3.09834254143646","-0.105709023941067","-0.948066298342541","2.99447513812155","0","358.6875"
"2175","1.7609576427256","3.09834254143646","0.894290976058933","-0.948066298342541","2.99447513812155","0","358.6875"
"2181","1.7609576427256","3.09834254143646","0.894290976058933","1.05193370165746","0.994475138121547","0","358.6875"
"2181","1.7609576427256","0.0983425414364643","2.89429097605893","1.05193370165746","0.994475138121547","0","358.6875"
"2187","1.7609576427256","0.0983425414364643","2.89429097605893","0.0519337016574586","1.99447513812155","0","358.6875"
"2187","-1.2390423572744","0.0983425414364643","0.894290976058933","0.0519337016574586","1.99447513812155","0","358.6875"
"2194","-1.2390423572744","0.0983425414364643","0.894290976058933","0.0519337016574586","-3.00552486187845","0","358.6875"
"2194","-1.2390423572744","2.09834254143646","-2.10570902394107","0.0519337016574586","-3.00552486187845","0","358.6875"
"2200","-1.2390423572744","2.09834254143646","-2.10570902394107","1.05193370165746","-1.00552486187845","0","358.6875"
"2200","-1.2390423572744","1.09834254143646","-3.10570902394107","1.05193370165746","-1.00552486187845","0","358.6875"
"2207","-1.2390423572744","1.09834254143646","-3.10570902394107","1.05193370165746","-0.00552486187845304","0","358.6875"
"2207","1.7609576427256","-0.901657458563536","1.89429097605893","1.05193370165746","-0.00552486187845304","0","358.6875"
"2213","1.7609576427256","-0.901657458563536","1.89429097605893","-2.94806629834254","-4.00552486187845","0","358.6875"
"2213","1.7609576427256","-0.901657458563536","1.89429097605893","-2.94806629834254","-4.00552486187845","0","358.6875"
"2219","1.7609576427256","-0.901657458563536","1.89429097605893","-1.94806629834254","-1.00552486187845","0","358.6875"
"2219","0.760957642725599","1.09834254143646","1.89429097605893","-1.94806629834254","-1.00552486187845","0","358.6875"
"2225","0.760957642725599","1.09834254143646","1.89429097605893","-0.948066298342541","-1.00552486187845","0","358.6875"
"2225","0.760957642725599","-1.90165745856354","0.894290976058933","-0.948066298342541","-1.00552486187845","0","358.6875"
"2231","0.760957642725599","-1.90165745856354","0.894290976058933","0.0519337016574586","-1.00552486187845","0","358.6875"
"2231","0.760957642725599","1.09834254143646","-2.10570902394107","0.0519337016574586","-1.00552486187845","0","358.6875"
"2237","0.760957642725599","1.09834254143646","-2.10570902394107","-0.948066298342541","-1.00552486187845","0","358.6875"
"2237","1.7609576427256","3.09834254143646","-0.105709023941067","-0.948066298342541","-1.00552486187845","0","358.6875"
"2243","1.7609576427256","3.09834254143646","-0.105709023941067","3.05193370165746","-2.00552486187845","0","358.6875"
"2244","0.760957642725599","1.09834254143646","-0.105709023941067","3.05193370165746","-2.00552486187845","0","358.6875"
"2250","0.760957642725599","1.09834254143646","-0.105709023941067","4.05193370165746","-0.00552486187845304","0","358.6875"
"2250","0.760957642725599","0.0983425414364643","0.894290976058933","4.05193370165746","-0.00552486187845304","0","358.6875"
"2256","0.760957642725599","0.0983425414364643","0.894290976058933","-0.948066298342541","-0.00552486187845304","0","358.6875"
"2256","-1.2390423572744","2.09834254143646","-1.10570902394107","-0.948066298342541","-0.00552486187845304","0","358.6875"
"2262","-1.2390423572744","2.09834254143646","-1.10570902394107","-3.94806629834254","-0.00552486187845304","0","358.6875"
"2262","1.7609576427256","4.09834254143646","-1.10570902394107","-3.94806629834254","-0.00552486187845304","0","358.6875"
"2269","1.7609576427256","4.09834254143646","-1.10570902394107","0.0519337016574586","0.994475138121547","0","358.6875"
"2269","-0.239042357274401","1.09834254143646","-0.105709023941067","0.0519337016574586","0.994475138121547","0","358.6875"
"2275","-0.239042357274401","1.09834254143646","-0.105709023941067","0.0519337016574586","-3.00552486187845","0","358.6875"
"2275","-0.239042357274401","1.09834254143646","-0.105709023941067","0.0519337016574586","-3.00552486187845","0","358.6875"
"2281","-0.239042357274401","1.09834254143646","-0.105709023941067","1.05193370165746","0.994475138121547","0","358.6875"
"2281","-0.239042357274401","2.09834254143646","-1.10570902394107","1.05193370165746","0.994475138121547","0","358.6875"
"2287","-0.239042357274401","2.09834254143646","-1.10570902394107","-2.94806629834254","-0.00552486187845304","0","358.6875"
"2287","0.760957642725599","1.09834254143646","-2.10570902394107","-2.94806629834254","-0.00552486187845304","0","358.6875"
"2293","0.760957642725599","1.09834254143646","-2.10570902394107","-1.94806629834254","0.994475138121547","0","358.6875"
"2293","1.7609576427256","1.09834254143646","-0.105709023941067","-1.94806629834254","0.994475138121547","0","358.6875"
"2299","1.7609576427256","1.09834254143646","-0.105709023941067","1.05193370165746","-1.00552486187845","0","358.6875"
"2299","-0.239042357274401","-0.901657458563536","0.894290976058933","1.05193370165746","-1.00552486187845","0","358.6875"
"2305","-0.239042357274401","-0.901657458563536","0.894290976058933","2.05193370165746","-4.00552486187845","0","358.6875"
"2305","0.760957642725599","1.09834254143646","-0.105709023941067","2.05193370165746","-4.00552486187845","0","358.6875"
"2311","0.760957642725599","1.09834254143646","-0.105709023941067","2.05193370165746","-3.00552486187845","0","358.6875"
"2311","0.760957642725599","0.0983425414364643","-2.10570902394107","2.05193370165746","-3.00552486187845","0","358.6875"
"2317","0.760957642725599","0.0983425414364643","-2.10570902394107","2.05193370165746","-1.00552486187845","0","358.6875"
"2317","1.7609576427256","-1.90165745856354","0.894290976058933","2.05193370165746","-1.00552486187845","0","358.6875"
"2324","1.7609576427256","-1.90165745856354","0.894290976058933","0.0519337016574586","-0.00552486187845304","0","358.6875"
"2324","0.760957642725599","2.09834254143646","-3.10570902394107","0.0519337016574586","-0.00552486187845304","0","358.6875"
"2330","0.760957642725599","2.09834254143646","-3.10570902394107","2.05193370165746","0.994475138121547","0","358.6875"
"2330","-0.239042357274401","2.09834254143646","-3.10570902394107","2.05193370165746","0.994475138121547","0","358.6875"
"2336","-0.239042357274401","2.09834254143646","-3.10570902394107","0.0519337016574586","-2.00552486187845","0","358.6875"
"2336","-1.2390423572744","0.0983425414364643","-0.105709023941067","0.0519337016574586","-2.00552486187845","0","358.6875"
"2342","-1.2390423572744","0.0983425414364643","-0.105709023941067","1.05193370165746","-1.00552486187845","0","358.6875"
"2342","0.760957642725599","1.09834254143646","0.894290976058933","1.05193370165746","-1.00552486187845","0","358.6875"
"2348","0.760957642725599","1.09834254143646","0.894290976058933","1.05193370165746","-3.00552486187845","0","358.6875"
"2348","1.7609576427256","2.09834254143646","0.894290976058933","1.05193370165746","-3.00552486187845","0","358.6875"
"2354","1.7609576427256","2.09834254143646","0.894290976058933","3.05193370165746","0.994475138121547","0","358.6875"
"2354","0.760957642725599","1.09834254143646","-0.105709023941067","3.05193370165746","0.994475138121547","0","358.6875"
"2361","0.760957642725599","1.09834254143646","-0.105709023941067","-0.948066298342541","1.99447513812155","0","358.6875"
"2362","0.760957642725599","0.0983425414364643","1.89429097605893","-0.948066298342541","1.99447513812155","0","358.6875"
"2368","0.760957642725599","0.0983425414364643","1.89429097605893","-1.94806629834254","-0.00552486187845304","0","358.6875"
"2369","1.7609576427256","-0.901657458563536","-0.105709023941067","-1.94806629834254","-0.00552486187845304","0","358.6875"
"2375","1.7609576427256","-0.901657458563536","-0.105709023941067","-3.94806629834254","1.99447513812155","0","358.6875"
"2375","1.7609576427256","1.09834254143646","0.894290976058933","-3.94806629834254","1.99447513812155","0","358.6875"
"2382","1.7609576427256","1.09834254143646","0.894290976058933","1.05193370165746","-0.00552486187845304","0","358.6875"
"2383","-1.2390423572744","2.09834254143646","-2.10570902394107","1.05193370165746","-0.00552486187845304","0","358.6875"
"2390","-1.2390423572744","2.09834254143646","-2.10570902394107","0.0519337016574586","-1.00552486187845","0","358.6875"
"2391","0.760957642725599","0.0983425414364643","0.894290976058933","0.0519337016574586","-1.00552486187845","0","358.6875"
"2397","0.760957642725599","0.0983425414364643","0.894290976058933","0.0519337016574586","-0.00552486187845304","0","358.6875"
"2397","-1.2390423572744","1.09834254143646","0.894290976058933","0.0519337016574586","-0.00552486187845304","0","358.6875"
"2403","-1.2390423572744","1.09834254143646","0.894290976058933","1.05193370165746","-1.00552486187845","0","358.6875"
"2403","0.760957642725599","1.09834254143646","0.894290976058933","1.05193370165746","-1.00552486187845","0","358.6875"
"2410","0.760957642725599","1.09834254143646","0.894290976058933","-1.94806629834254","-0.00552486187845304","0","358.6875"
"2410","-0.239042357274401","-0.901657458563536","1.89429097605893","-1.94806629834254","-0.00552486187845304","0","358.6875"
"2415","-0.239042357274401","-0.901657458563536","1.89429097605893","2.05193370165746","-1.00552486187845","0","358.6875"
"2416","0.760957642725599","0.0983425414364643","-0.105709023941067","2.05193370165746","-1.00552486187845","0","358.6875"
"2422","0.760957642725599","0.0983425414364643","-0.105709023941067","2.05193370165746","-0.00552486187845304","0","358.6875"
"2422","1.7609576427256","2.09834254143646","0.894290976058933","2.05193370165746","-0.00552486187845304","0","358.6875"
"2428","1.7609576427256","2.09834254143646","0.894290976058933","-0.948066298342541","-1.00552486187845","0","358.6875"
"2428","1.7609576427256","2.09834254143646","2.89429097605893","-0.948066298342541","-1.00552486187845","0","358.6875"
"2434","1.7609576427256","2.09834254143646","2.89429097605893","1.05193370165746","-1.00552486187845","0","358.6875"
"2434","-1.2390423572744","-1.90165745856354","1.89429097605893","1.05193370165746","-1.00552486187845","0","358.6875"
"2441","-1.2390423572744","-1.90165745856354","1.89429097605893","-1.94806629834254","-2.00552486187845","0","358.6875"
"2441","0.760957642725599","1.09834254143646","-0.105709023941067","-1.94806629834254","-2.00552486187845","0","358.6875"
"2451","0.760957642725599","1.09834254143646","-0.105709023941067","-1.94806629834254","-4.00552486187845","0","358.6875"
"2451","1.7609576427256","2.09834254143646","-0.105709023941067","-1.94806629834254","-4.00552486187845","0","358.6875"
"2458","1.7609576427256","2.09834254143646","-0.105709023941067","3.05193370165746","-2.00552486187845","0","358.6875"
"2459","1.7609576427256","2.09834254143646","-0.105709023941067","3.05193370165746","-2.00552486187845","0","358.6875"
"2465","1.7609576427256","2.09834254143646","-0.105709023941067","3.05193370165746","-0.00552486187845304","0","358.6875"
"2465","-0.239042357274401","-0.901657458563536","0.894290976058933","3.05193370165746","-0.00552486187845304","0","358.6875"
"2472","-0.239042357274401","-0.901657458563536","0.894290976058933","-0.948066298342541","-2.00552486187845","0","358.6875"
"2472","-1.2390423572744","1.09834254143646","2.89429097605893","-0.948066298342541","-2.00552486187845","0","358.6875"
"2477","-1.2390423572744","1.09834254143646","2.89429097605893","1.05193370165746","-4.00552486187845","0","358.6875"
"2477","2.7609576427256","2.09834254143646","1.89429097605893","1.05193370165746","-4.00552486187845","0","358.6875"
"2483","2.7609576427256","2.09834254143646","1.89429097605893","2.05193370165746","-0.00552486187845304","0","358.6875"
"2483","0.760957642725599","-1.90165745856354","-0.105709023941067","2.05193370165746","-0.00552486187845304","0","358.6875"
"2489","0.760957642725599","-1.90165745856354","-0.105709023941067","1.05193370165746","0.994475138121547","0","358.6875"
"2489","-0.239042357274401","2.09834254143646","1.89429097605893","1.05193370165746","0.994475138121547","0","358.6875"
"2495","-0.239042357274401","2.09834254143646","1.89429097605893","-0.948066298342541","-0.00552486187845304","0","358.6875"
"2495","1.7609576427256","-1.90165745856354","0.894290976058933","-0.948066298342541","-0.00552486187845304","0","358.6875"
"2501","1.7609576427256","-1.90165745856354","0.894290976058933","2.05193370165746","-1.00552486187845","0","358.6875"
"2501","1.7609576427256","1.09834254143646","1.89429097605893","2.05193370165746","-1.00552486187845","0","358.6875"
"2507","1.7609576427256","1.09834254143646","1.89429097605893","-0.948066298342541","0.994475138121547","0","358.6875"
"2507","1.7609576427256","0.0983425414364643","-0.105709023941067","-0.948066298342541","0.994475138121547","0","358.6875"
"2513","1.7609576427256","0.0983425414364643","-0.105709023941067","2.05193370165746","1.99447513812155","0","358.6875"
"2513","0.760957642725599","1.09834254143646","-2.10570902394107","2.05193370165746","1.99447513812155","0","358.6875"
"2520","0.760957642725599","1.09834254143646","-2.10570902394107","-1.94806629834254","1.99447513812155","0","358.6875"
"2520","-0.239042357274401","0.0983425414364643","-0.105709023941067","-1.94806629834254","1.99447513812155","0","358.6875"
"2526","-0.239042357274401","0.0983425414364643","-0.105709023941067","-0.948066298342541","0.994475138121547","0","358.6875"
"2526","-1.2390423572744","1.09834254143646","-0.105709023941067","-0.948066298342541","0.994475138121547","0","358.6875"
"2532","-1.2390423572744","1.09834254143646","-0.105709023941067","3.05193370165746","-2.00552486187845","0","358.6875"
"2532","-0.239042357274401","0.0983425414364643","-0.105709023941067","3.05193370165746","-2.00552486187845","0","358.6875"
"2537","-0.239042357274401","0.0983425414364643","-0.105709023941067","0.0519337016574586","1.99447513812155","0","358.6875"
"2537","0.760957642725599","0.0983425414364643","1.89429097605893","0.0519337016574586","1.99447513812155","0","358.6875"
"2544","0.760957642725599","0.0983425414364643","1.89429097605893","-1.94806629834254","-0.00552486187845304","0","358.6875"
"2544","0.760957642725599","1.09834254143646","-0.105709023941067","-1.94806629834254","-0.00552486187845304","0","358.6875"
"2550","0.760957642725599","1.09834254143646","-0.105709023941067","1.05193370165746","-2.00552486187845","0","358.6875"
"2550","0.760957642725599","-1.90165745856354","-1.10570902394107","1.05193370165746","-2.00552486187845","0","358.6875"
"2556","0.760957642725599","-1.90165745856354","-1.10570902394107","0.0519337016574586","-0.00552486187845304","0","358.6875"
"2556","0.760957642725599","-0.901657458563536","4.89429097605893","0.0519337016574586","-0.00552486187845304","0","358.6875"
"2563","0.760957642725599","-0.901657458563536","4.89429097605893","-0.948066298342541","-1.00552486187845","0","358.6875"
"2563","-0.239042357274401","3.09834254143646","1.89429097605893","-0.948066298342541","-1.00552486187845","0","358.6875"
"2569","-0.239042357274401","3.09834254143646","1.89429097605893","2.05193370165746","0.994475138121547","0","358.6875"
"2570","0.760957642725599","-0.901657458563536","-2.10570902394107","2.05193370165746","0.994475138121547","0","358.6875"
"2578","0.760957642725599","-0.901657458563536","-2.10570902394107","0.0519337016574586","0.994475138121547","0","358.6875"
"2578","0.760957642725599","-1.90165745856354","-0.105709023941067","0.0519337016574586","0.994475138121547","0","358.6875"
"2585","0.760957642725599","-1.90165745856354","-0.105709023941067","-0.948066298342541","1.99447513812155","0","358.6875"
"2585","0.760957642725599","1.09834254143646","-0.105709023941067","-0.948066298342541","1.99447513812155","0","358.6875"
"2593","0.760957642725599","1.09834254143646","-0.105709023941067","-4.94806629834254","-0.00552486187845304","0","358.6875"
"2593","0.760957642725599","2.09834254143646","0.894290976058933","-4.94806629834254","-0.00552486187845304","0","358.6875"
"2600","0.760957642725599","2.09834254143646","0.894290976058933","0.0519337016574586","-0.00552486187845304","0","358.6875"
"2601","-2.2390423572744","1.09834254143646","0.894290976058933","0.0519337016574586","-0.00552486187845304","0","358.6875"
"2608","-2.2390423572744","1.09834254143646","0.894290976058933","-0.948066298342541","0.994475138121547","0","358.6875"
"2608","1.7609576427256","1.09834254143646","-0.105709023941067","-0.948066298342541","0.994475138121547","0","358.6875"
"2616","1.7609576427256","1.09834254143646","-0.105709023941067","-2.94806629834254","0.994475138121547","0","358.6875"
"2616","1.7609576427256","0.0983425414364643","-1.10570902394107","-2.94806629834254","0.994475138121547","0","358.6875"
"2622","1.7609576427256","0.0983425414364643","-1.10570902394107","0.0519337016574586","-1.00552486187845","0","358.6875"
"2622","0.760957642725599","2.09834254143646","0.894290976058933","0.0519337016574586","-1.00552486187845","0","358.6875"
"2628","0.760957642725599","2.09834254143646","0.894290976058933","0.0519337016574586","-1.00552486187845","0","358.6875"
"2628","0.760957642725599","3.09834254143646","0.894290976058933","0.0519337016574586","-1.00552486187845","0","358.6875"
"2633","0.760957642725599","3.09834254143646","0.894290976058933","2.05193370165746","-1.00552486187845","0","358.6875"
"2633","-0.239042357274401","0.0983425414364643","-0.105709023941067","2.05193370165746","-1.00552486187845","0","358.6875"
"2639","-0.239042357274401","0.0983425414364643","-0.105709023941067","-2.94806629834254","0.994475138121547","0","358.6875"
"2639","1.7609576427256","1.09834254143646","-1.10570902394107","-2.94806629834254","0.994475138121547","0","358.6875"
"2645","1.7609576427256","1.09834254143646","-1.10570902394107","0.0519337016574586","0.994475138121547","0","358.6875"
"2645","-2.2390423572744","4.09834254143646","-1.10570902394107","0.0519337016574586","0.994475138121547","0","358.6875"
"2651","-2.2390423572744","4.09834254143646","-1.10570902394107","1.05193370165746","-0.00552486187845304","0","358.6875"
"2651","-2.2390423572744","2.09834254143646","-0.105709023941067","1.05193370165746","-0.00552486187845304","0","358.6875"
"2657","-2.2390423572744","2.09834254143646","-0.105709023941067","-0.948066298342541","-2.00552486187845","0","358.6875"
"2657","0.760957642725599","1.09834254143646","-0.105709023941067","-0.948066298342541","-2.00552486187845","0","358.6875"
"2663","0.760957642725599","1.09834254143646","-0.105709023941067","-1.94806629834254","-2.00552486187845","0","358.6875"
"2663","1.7609576427256","1.09834254143646","-0.105709023941067","-1.94806629834254","-2.00552486187845","0","358.6875"
"2669","1.7609576427256","1.09834254143646","-0.105709023941067","1.05193370165746","-1.00552486187845","0","358.6875"
"2669","0.760957642725599","1.09834254143646","0.894290976058933","1.05193370165746","-1.00552486187845","0","358.6875"
"2676","0.760957642725599","1.09834254143646","0.894290976058933","-1.94806629834254","-0.00552486187845304","0","358.6875"
"2676","0.760957642725599","3.09834254143646","-1.10570902394107","-1.94806629834254","-0.00552486187845304","0","358.6875"
"2681","0.760957642725599","3.09834254143646","-1.10570902394107","1.05193370165746","0.994475138121547","0","358.6875"
"2682","1.7609576427256","-0.901657458563536","-0.105709023941067","1.05193370165746","0.994475138121547","0","358.6875"
"2687","1.7609576427256","-0.901657458563536","-0.105709023941067","0.0519337016574586","-0.00552486187845304","0","358.6875"
"2687","0.760957642725599","-0.901657458563536","-0.105709023941067","0.0519337016574586","-0.00552486187845304","0","358.6875"
"2693","0.760957642725599","-0.901657458563536","-0.105709023941067","0.0519337016574586","-1.00552486187845","0","358.6875"
"2693","1.7609576427256","1.09834254143646","0.894290976058933","0.0519337016574586","-1.00552486187845","0","358.6875"
"2699","1.7609576427256","1.09834254143646","0.894290976058933","-1.94806629834254","-0.00552486187845304","0","358.6875"
"2699","-2.2390423572744","1.09834254143646","-1.10570902394107","-1.94806629834254","-0.00552486187845304","0","358.6875"
"2706","-2.2390423572744","1.09834254143646","-1.10570902394107","0.0519337016574586","-1.00552486187845","0","358.6875"
"2706","0.760957642725599","-0.901657458563536","1.89429097605893","0.0519337016574586","-1.00552486187845","0","358.6875"
"2711","0.760957642725599","-0.901657458563536","1.89429097605893","0.0519337016574586","-0.00552486187845304","0","358.6875"
"2712","1.7609576427256","1.09834254143646","0.894290976058933","0.0519337016574586","-0.00552486187845304","0","358.6875"
"2718","1.7609576427256","1.09834254143646","0.894290976058933","-1.94806629834254","-1.00552486187845","0","358.6875"
"2718","0.760957642725599","1.09834254143646","0.894290976058933","-1.94806629834254","-1.00552486187845","0","358.6875"
"2724","0.760957642725599","1.09834254143646","0.894290976058933","1.05193370165746","-3.00552486187845","0","358.6875"
"2724","-1.2390423572744","1.09834254143646","-0.105709023941067","1.05193370165746","-3.00552486187845","0","358.6875"
"2731","-1.2390423572744","1.09834254143646","-0.105709023941067","2.05193370165746","0.994475138121547","0","358.6875"
"2731","-0.239042357274401","-0.901657458563536","-0.105709023941067","2.05193370165746","0.994475138121547","0","358.6875"
"2737","-0.239042357274401","-0.901657458563536","-0.105709023941067","1.05193370165746","-1.00552486187845","0","358.6875"
"2737","0.760957642725599","0.0983425414364643","-5.10570902394107","1.05193370165746","-1.00552486187845","0","358.6875"
"2745","0.760957642725599","0.0983425414364643","-5.10570902394107","-0.948066298342541","-0.00552486187845304","0","358.6875"
"2746","1.7609576427256","1.09834254143646","-0.105709023941067","-0.948066298342541","-0.00552486187845304","0","358.6875"
"2751","1.7609576427256","1.09834254143646","-0.105709023941067","0.0519337016574586","-2.00552486187845","0","358.6875"
"2751","1.7609576427256","1.09834254143646","1.89429097605893","0.0519337016574586","-2.00552486187845","0","358.6875"
"2758","1.7609576427256","1.09834254143646","1.89429097605893","2.05193370165746","0.994475138121547","0","358.6875"
"2758","-2.2390423572744","0.0983425414364643","-0.105709023941067","2.05193370165746","0.994475138121547","0","358.6875"
"2764","-2.2390423572744","0.0983425414364643","-0.105709023941067","0.0519337016574586","0.994475138121547","0","358.6875"
"2764","1.7609576427256","0.0983425414364643","2.89429097605893","0.0519337016574586","0.994475138121547","0","358.6875"
"2770","1.7609576427256","0.0983425414364643","2.89429097605893","-2.94806629834254","-1.00552486187845","0","358.6875"
"2770","1.7609576427256","1.09834254143646","-0.105709023941067","-2.94806629834254","-1.00552486187845","0","358.6875"
"2777","1.7609576427256","1.09834254143646","-0.105709023941067","1.05193370165746","-0.00552486187845304","0","358.6875"
"2777","0.760957642725599","1.09834254143646","-0.105709023941067","1.05193370165746","-0.00552486187845304","0","358.6875"
"2785","0.760957642725599","1.09834254143646","-0.105709023941067","1.05193370165746","1.99447513812155","0","358.6875"
"2785","-0.239042357274401","1.09834254143646","-0.105709023941067","1.05193370165746","1.99447513812155","0","358.6875"
"2792","-0.239042357274401","1.09834254143646","-0.105709023941067","1.05193370165746","1.99447513812155","0","358.6875"
"2792","0.760957642725599","1.09834254143646","-0.105709023941067","1.05193370165746","1.99447513812155","0","358.6875"
"2801","0.760957642725599","1.09834254143646","-0.105709023941067","-0.948066298342541","-0.00552486187845304","0","358.6875"
"2801","1.7609576427256","1.09834254143646","0.894290976058933","-0.948066298342541","-0.00552486187845304","0","358.6875"
"2809","1.7609576427256","1.09834254143646","0.894290976058933","-3.94806629834254","0.994475138121547","0","358.6875"
"2810","2.7609576427256","1.09834254143646","-2.10570902394107","-3.94806629834254","0.994475138121547","0","358.6875"
"2816","2.7609576427256","1.09834254143646","-2.10570902394107","-0.948066298342541","-0.00552486187845304","0","358.6875"
"2817","1.7609576427256","1.09834254143646","0.894290976058933","-0.948066298342541","-0.00552486187845304","0","358.6875"
"2824","1.7609576427256","1.09834254143646","0.894290976058933","1.05193370165746","-0.00552486187845304","0","358.6875"
"2824","0.760957642725599","2.09834254143646","-0.105709023941067","1.05193370165746","-0.00552486187845304","0","358.6875"
"2830","0.760957642725599","2.09834254143646","-0.105709023941067","2.05193370165746","-2.00552486187845","0","358.6875"
"2831","1.7609576427256","-1.90165745856354","-0.105709023941067","2.05193370165746","-2.00552486187845","0","358.6875"
"2837","1.7609576427256","-1.90165745856354","-0.105709023941067","-2.94806629834254","-1.00552486187845","0","358.6875"
"2837","4.7609576427256","-0.901657458563536","2.89429097605893","-2.94806629834254","-1.00552486187845","0","358.6875"
"2843","4.7609576427256","-0.901657458563536","2.89429097605893","3.05193370165746","-1.00552486187845","0","358.6875"
"2843","1.7609576427256","2.09834254143646","-0.105709023941067","3.05193370165746","-1.00552486187845","0","358.6875"
"2849","1.7609576427256","2.09834254143646","-0.105709023941067","1.05193370165746","-0.00552486187845304","0","358.6875"
"2849","1.7609576427256","0.0983425414364643","-0.105709023941067","1.05193370165746","-0.00552486187845304","0","358.6875"
"2855","1.7609576427256","0.0983425414364643","-0.105709023941067","2.05193370165746","-2.00552486187845","0","358.6875"
"2855","1.7609576427256","-0.901657458563536","0.894290976058933","2.05193370165746","-2.00552486187845","0","358.6875"
"2861","1.7609576427256","-0.901657458563536","0.894290976058933","2.05193370165746","-0.00552486187845304","0","358.6875"
"2862","1.7609576427256","1.09834254143646","1.89429097605893","2.05193370165746","-0.00552486187845304","0","358.6875"
"2868","1.7609576427256","1.09834254143646","1.89429097605893","0.0519337016574586","0.994475138121547","0","358.6875"
"2868","-1.2390423572744","1.09834254143646","0.894290976058933","0.0519337016574586","0.994475138121547","0","358.6875"
"2874","-1.2390423572744","1.09834254143646","0.894290976058933","3.05193370165746","-1.00552486187845","0","358.6875"
"2874","0.760957642725599","3.09834254143646","-1.10570902394107","3.05193370165746","-1.00552486187845","0","358.6875"
"2880","0.760957642725599","3.09834254143646","-1.10570902394107","4.05193370165746","-0.00552486187845304","0","358.6875"
"2880","-0.239042357274401","0.0983425414364643","-0.105709023941067","4.05193370165746","-0.00552486187845304","0","358.6875"
"2886","-0.239042357274401","0.0983425414364643","-0.105709023941067","0.0519337016574586","-1.00552486187845","0","358.6875"
"2886","0.760957642725599","0.0983425414364643","-0.105709023941067","0.0519337016574586","-1.00552486187845","0","358.6875"
"2892","0.760957642725599","0.0983425414364643","-0.105709023941067","-3.94806629834254","-0.00552486187845304","0","358.6875"
"2892","-1.2390423572744","5.09834254143646","1.89429097605893","-3.94806629834254","-0.00552486187845304","0","358.6875"
"2898","-1.2390423572744","5.09834254143646","1.89429097605893","-1.94806629834254","-1.00552486187845","0","358.6875"
"2898","0.760957642725599","4.09834254143646","-0.105709023941067","-1.94806629834254","-1.00552486187845","0","358.6875"
"2903","0.760957642725599","4.09834254143646","-0.105709023941067","-0.948066298342541","0.994475138121547","0","358.6875"
"2904","1.7609576427256","-1.90165745856354","1.89429097605893","-0.948066298342541","0.994475138121547","0","358.6875"
"2909","1.7609576427256","-1.90165745856354","1.89429097605893","0.0519337016574586","0.994475138121547","0","358.6875"
"2910","0.760957642725599","-2.90165745856354","-1.10570902394107","0.0519337016574586","0.994475138121547","0","358.6875"
"2915","0.760957642725599","-2.90165745856354","-1.10570902394107","-0.948066298342541","0.994475138121547","0","358.6875"
"2915","-1.2390423572744","4.09834254143646","1.89429097605893","-0.948066298342541","0.994475138121547","0","358.6875"
"2922","-1.2390423572744","4.09834254143646","1.89429097605893","4.05193370165746","-1.00552486187845","0","358.6875"
"2922","1.7609576427256","1.09834254143646","-0.105709023941067","4.05193370165746","-1.00552486187845","0","358.6875"
"2930","1.7609576427256","1.09834254143646","-0.105709023941067","4.05193370165746","-1.00552486187845","0","358.6875"
"2930","1.7609576427256","-0.901657458563536","3.89429097605893","4.05193370165746","-1.00552486187845","0","358.6875"
"2938","1.7609576427256","-0.901657458563536","3.89429097605893","0.0519337016574586","-4.00552486187845","0","358.6875"
"2938","-0.239042357274401","0.0983425414364643","-1.10570902394107","0.0519337016574586","-4.00552486187845","0","358.6875"
"2947","-0.239042357274401","0.0983425414364643","-1.10570902394107","1.05193370165746","-0.00552486187845304","0","358.6875"
"2947","1.7609576427256","1.09834254143646","-0.105709023941067","1.05193370165746","-0.00552486187845304","0","358.6875"
"2954","1.7609576427256","1.09834254143646","-0.105709023941067","0.0519337016574586","-0.00552486187845304","0","358.6875"
"2954","-0.239042357274401","1.09834254143646","0.894290976058933","0.0519337016574586","-0.00552486187845304","0","358.6875"
"2963","-0.239042357274401","1.09834254143646","0.894290976058933","-0.948066298342541","0.994475138121547","0","358.6875"
"2963","1.7609576427256","0.0983425414364643","1.89429097605893","-0.948066298342541","0.994475138121547","0","358.6875"
"2969","1.7609576427256","0.0983425414364643","1.89429097605893","-2.94806629834254","1.99447513812155","0","358.6875"
"2969","1.7609576427256","1.09834254143646","2.89429097605893","-2.94806629834254","1.99447513812155","0","358.6875"
"2977","1.7609576427256","1.09834254143646","2.89429097605893","-0.948066298342541","1.99447513812155","0","358.6875"
"2977","1.7609576427256","5.09834254143646","-3.10570902394107","-0.948066298342541","1.99447513812155","0","358.6875"
"2985","1.7609576427256","5.09834254143646","-3.10570902394107","0.0519337016574586","-0.00552486187845304","0","358.6875"
"2985","-1.2390423572744","1.09834254143646","-1.10570902394107","0.0519337016574586","-0.00552486187845304","0","358.6875"
"2994","-1.2390423572744","1.09834254143646","-1.10570902394107","-1.94806629834254","0.994475138121547","0","358.6875"
"2994","0.760957642725599","-0.901657458563536","-0.105709023941067","-1.94806629834254","0.994475138121547","0","358.6875"
"3003","0.760957642725599","-0.901657458563536","-0.105709023941067","-1.94806629834254","0.994475138121547","0","358.6875"
"3003","0.760957642725599","-0.901657458563536","1.89429097605893","-1.94806629834254","0.994475138121547","0","358.6875"
"3010","0.760957642725599","-0.901657458563536","1.89429097605893","-1.94806629834254","0.994475138121547","0","358.6875"
"3010","1.7609576427256","1.09834254143646","-1.10570902394107","-1.94806629834254","0.994475138121547","0","358.6875"
"3015","1.7609576427256","1.09834254143646","-1.10570902394107","1.05193370165746","0.994475138121547","0","358.6875"
"3016","0.760957642725599","1.09834254143646","-3.10570902394107","1.05193370165746","0.994475138121547","0","358.6875"
"3022","0.760957642725599","1.09834254143646","-3.10570902394107","1.05193370165746","0.994475138121547","0","358.6875"
"3023","1.7609576427256","-0.901657458563536","-0.105709023941067","1.05193370165746","0.994475138121547","0","358.6875"
"3029","1.7609576427256","-0.901657458563536","-0.105709023941067","1.05193370165746","-1.00552486187845","0","358.6875"
"3029","1.7609576427256","-1.90165745856354","-0.105709023941067","1.05193370165746","-1.00552486187845","0","358.6875"
"3035","1.7609576427256","-1.90165745856354","-0.105709023941067","-2.94806629834254","1.99447513812155","0","358.6875"
"3035","1.7609576427256","0.0983425414364643","0.894290976058933","-2.94806629834254","1.99447513812155","0","358.6875"
"3042","1.7609576427256","0.0983425414364643","0.894290976058933","-2.94806629834254","1.99447513812155","0","358.6875"
"3042","-0.239042357274401","1.09834254143646","1.89429097605893","-2.94806629834254","1.99447513812155","0","358.6875"
"3048","-0.239042357274401","1.09834254143646","1.89429097605893","-0.948066298342541","1.99447513812155","0","358.6875"
"3048","-0.239042357274401","1.09834254143646","-1.10570902394107","-0.948066298342541","1.99447513812155","0","358.6875"
"3054","-0.239042357274401","1.09834254143646","-1.10570902394107","0.0519337016574586","-0.00552486187845304","0","358.6875"
"3054","1.7609576427256","-1.90165745856354","0.894290976058933","0.0519337016574586","-0.00552486187845304","0","358.6875"
"3062","1.7609576427256","-1.90165745856354","0.894290976058933","1.05193370165746","0.994475138121547","0","358.6875"
"3062","1.7609576427256","2.09834254143646","0.894290976058933","1.05193370165746","0.994475138121547","0","358.6875"
"3068","1.7609576427256","2.09834254143646","0.894290976058933","1.05193370165746","-1.00552486187845","0","358.6875"
"3068","1.7609576427256","2.09834254143646","0.894290976058933","1.05193370165746","-1.00552486187845","0","358.6875"
"3075","1.7609576427256","2.09834254143646","0.894290976058933","1.05193370165746","-1.00552486187845","0","358.6875"
"3075","1.7609576427256","2.09834254143646","-0.105709023941067","1.05193370165746","-1.00552486187845","0","358.6875"
"3082","1.7609576427256","2.09834254143646","-0.105709023941067","1.05193370165746","-0.00552486187845304","0","358.6875"
"3082","0.760957642725599","1.09834254143646","-0.105709023941067","1.05193370165746","-0.00552486187845304","0","358.6875"
"3088","0.760957642725599","1.09834254143646","-0.105709023941067","-0.948066298342541","-0.00552486187845304","0","358.6875"
"3089","1.7609576427256","1.09834254143646","-0.105709023941067","-0.948066298342541","-0.00552486187845304","0","358.6875"
"3096","1.7609576427256","1.09834254143646","-0.105709023941067","-0.948066298342541","-0.00552486187845304","0","358.6875"
"3096","1.7609576427256","0.0983425414364643","1.89429097605893","-0.948066298342541","-0.00552486187845304","0","358.6875"
"3101","1.7609576427256","0.0983425414364643","1.89429097605893","-0.948066298342541","0.994475138121547","0","358.6875"
"3101","-0.239042357274401","1.09834254143646","-0.105709023941067","-0.948066298342541","0.994475138121547","0","358.6875"
"3108","-0.239042357274401","1.09834254143646","-0.105709023941067","-0.948066298342541","0.994475138121547","0","358.6875"
"3108","0.760957642725599","1.09834254143646","1.89429097605893","-0.948066298342541","0.994475138121547","0","358.6875"
"3114","0.760957642725599","1.09834254143646","1.89429097605893","0.0519337016574586","-1.00552486187845","0","358.6875"
"3114","-0.239042357274401","1.09834254143646","-5.10570902394107","0.0519337016574586","-1.00552486187845","0","358.6875"
"3119","-0.239042357274401","1.09834254143646","-5.10570902394107","3.05193370165746","-4.00552486187845","0","358.6875"
"3119","-1.2390423572744","1.09834254143646","-2.10570902394107","3.05193370165746","-4.00552486187845","0","358.6875"
"3126","-1.2390423572744","1.09834254143646","-2.10570902394107","3.05193370165746","-4.00552486187845","0","358.6875"
"3126","1.7609576427256","2.09834254143646","1.89429097605893","3.05193370165746","-4.00552486187845","0","358.6875"
"3132","1.7609576427256","2.09834254143646","1.89429097605893","2.05193370165746","-0.00552486187845304","0","358.6875"
"3132","1.7609576427256","2.09834254143646","1.89429097605893","2.05193370165746","-0.00552486187845304","0","358.6875"
"3139","1.7609576427256","2.09834254143646","1.89429097605893","0.0519337016574586","-0.00552486187845304","0","358.6875"
"3139","1.7609576427256","-1.90165745856354","-0.105709023941067","0.0519337016574586","-0.00552486187845304","0","358.6875"
"3147","1.7609576427256","-1.90165745856354","-0.105709023941067","-0.948066298342541","-1.00552486187845","0","358.6875"
"3147","0.760957642725599","1.09834254143646","0.894290976058933","-0.948066298342541","-1.00552486187845","0","358.6875"
"3153","0.760957642725599","1.09834254143646","0.894290976058933","0.0519337016574586","0.994475138121547","0","358.6875"
"3153","0.760957642725599","3.09834254143646","-0.105709023941067","0.0519337016574586","0.994475138121547","0","358.6875"
"3159","0.760957642725599","3.09834254143646","-0.105709023941067","0.0519337016574586","-3.00552486187845","0","358.6875"
"3159","1.7609576427256","1.09834254143646","0.894290976058933","0.0519337016574586","-3.00552486187845","0","358.6875"
"3165","1.7609576427256","1.09834254143646","0.894290976058933","-1.94806629834254","-0.00552486187845304","0","358.6875"
"3165","1.7609576427256","1.09834254143646","0.894290976058933","-1.94806629834254","-0.00552486187845304","0","358.6875"
"3170","1.7609576427256","1.09834254143646","0.894290976058933","0.0519337016574586","-3.00552486187845","0","358.6875"
"3170","1.7609576427256","-0.901657458563536","0.894290976058933","0.0519337016574586","-3.00552486187845","0","358.6875"
"3177","1.7609576427256","-0.901657458563536","0.894290976058933","-2.94806629834254","-1.00552486187845","0","358.6875"
"3177","1.7609576427256","1.09834254143646","-1.10570902394107","-2.94806629834254","-1.00552486187845","0","358.6875"
"3183","1.7609576427256","1.09834254143646","-1.10570902394107","-2.94806629834254","1.99447513812155","0","358.6875"
"3183","1.7609576427256","2.09834254143646","-3.10570902394107","-2.94806629834254","1.99447513812155","0","358.6875"
"3190","1.7609576427256","2.09834254143646","-3.10570902394107","0.0519337016574586","2.99447513812155","0","358.6875"
"3190","1.7609576427256","-1.90165745856354","-1.10570902394107","0.0519337016574586","2.99447513812155","0","358.6875"
"3196","1.7609576427256","-1.90165745856354","-1.10570902394107","-0.948066298342541","2.99447513812155","0","358.6875"
"3197","1.7609576427256","-1.90165745856354","-1.10570902394107","-0.948066298342541","2.99447513812155","0","358.6875"
"3204","1.7609576427256","-1.90165745856354","-1.10570902394107","-0.948066298342541","2.99447513812155","0","358.6875"
"3204","1.7609576427256","5.09834254143646","-0.105709023941067","-0.948066298342541","2.99447513812155","0","358.6875"
"3211","1.7609576427256","5.09834254143646","-0.105709023941067","-0.948066298342541","1.99447513812155","0","358.6875"
"3211","1.7609576427256","1.09834254143646","-3.10570902394107","-0.948066298342541","1.99447513812155","0","358.6875"
"3217","1.7609576427256","1.09834254143646","-3.10570902394107","0.0519337016574586","0.994475138121547","0","358.6875"
"3217","-0.239042357274401","-1.90165745856354","-1.10570902394107","0.0519337016574586","0.994475138121547","0","358.6875"
"3223","-0.239042357274401","-1.90165745856354","-1.10570902394107","1.05193370165746","0.994475138121547","0","358.6875"
"3224","0.760957642725599","-0.901657458563536","0.894290976058933","1.05193370165746","0.994475138121547","0","358.6875"
"3230","0.760957642725599","-0.901657458563536","0.894290976058933","1.05193370165746","-1.00552486187845","0","358.6875"
"3231","0.760957642725599","-0.901657458563536","0.894290976058933","1.05193370165746","-1.00552486187845","0","358.6875"
"3236","0.760957642725599","-0.901657458563536","0.894290976058933","1.05193370165746","0.994475138121547","0","358.6875"
"3236","-2.2390423572744","1.09834254143646","-1.10570902394107","1.05193370165746","0.994475138121547","0","358.6875"
"3243","-2.2390423572744","1.09834254143646","-1.10570902394107","2.05193370165746","1.99447513812155","0","358.6875"
"3243","0.760957642725599","1.09834254143646","-1.10570902394107","2.05193370165746","1.99447513812155","0","358.6875"
"3249","0.760957642725599","1.09834254143646","-1.10570902394107","-3.94806629834254","0.994475138121547","0","358.6875"
"3249","-0.239042357274401","0.0983425414364643","-0.105709023941067","-3.94806629834254","0.994475138121547","0","358.6875"
"3256","-0.239042357274401","0.0983425414364643","-0.105709023941067","-1.94806629834254","1.99447513812155","0","358.6875"
"3256","-1.2390423572744","4.09834254143646","-3.10570902394107","-1.94806629834254","1.99447513812155","0","358.6875"
