Timer,AX,AY,AZ,GX,GY,GZ,A
"40","-1.96678966789668","-1.44169741697417","0.614022140221401","0.979704797047971","0.0335793357933579","0","358.75"
"40","-0.966789667896679","-2.44169741697417","-1.3859778597786","0.979704797047971","0.0335793357933579","0","358.75"
"47","-0.966789667896679","-2.44169741697417","-1.3859778597786","-0.0202952029520295","3.03357933579336","0","358.75"
"47","-0.966789667896679","-0.44169741697417","-0.385977859778599","-0.0202952029520295","3.03357933579336","0","358.75"
"53","-0.966789667896679","-0.44169741697417","-0.385977859778599","2.97970479704797","2.03357933579336","0","358.75"
"53","-0.966789667896679","-0.44169741697417","-0.385977859778599","2.97970479704797","2.03357933579336","0","358.75"
"59","-0.966789667896679","-0.44169741697417","-0.385977859778599","-1.02029520295203","-0.966420664206642","0","358.75"
"59","0.0332103321033213","-3.44169741697417","0.614022140221401","-1.02029520295203","-0.966420664206642","0","358.75"
"65","0.0332103321033213","-3.44169741697417","0.614022140221401","2.97970479704797","-0.966420664206642","0","358.75"
"65","-0.966789667896679","-3.44169741697417","-0.385977859778599","2.97970479704797","-0.966420664206642","0","358.75"
"71","-0.966789667896679","-3.44169741697417","-0.385977859778599","-0.0202952029520295","1.03357933579336","0","358.75"
"72","-2.96678966789668","0.55830258302583","-1.3859778597786","-0.0202952029520295","1.03357933579336","0","358.75"
"77","-2.96678966789668","0.55830258302583","-1.3859778597786","1.97970479704797","0.0335793357933579","0","358.75"
"78","-1.96678966789668","-2.44169741697417","0.614022140221401","1.97970479704797","0.0335793357933579","0","358.75"
"84","-1.96678966789668","-2.44169741697417","0.614022140221401","-0.0202952029520295","-0.966420664206642","0","358.75"
"84","-0.966789667896679","-2.44169741697417","1.6140221402214","-0.0202952029520295","-0.966420664206642","0","358.75"
"90","-0.966789667896679","-2.44169741697417","1.6140221402214","0.979704797047971","1.03357933579336","0","358.75"
"90","-0.966789667896679","-1.44169741697417","1.6140221402214","0.979704797047971","1.03357933579336","0","358.75"
"97","-0.966789667896679","-1.44169741697417","1.6140221402214","1.97970479704797","0.0335793357933579","0","358.75"
"97","-1.96678966789668","-1.44169741697417","0.614022140221401","1.97970479704797","0.0335793357933579","0","358.75"
"104","-1.96678966789668","-1.44169741697417","0.614022140221401","0.979704797047971","0.0335793357933579","0","358.75"
"104","0.0332103321033213","-1.44169741697417","-2.3859778597786","0.979704797047971","0.0335793357933579","0","358.75"
"110","0.0332103321033213","-1.44169741697417","-2.3859778597786","-3.02029520295203","1.03357933579336","0","358.75"
"110","-2.96678966789668","-0.44169741697417","0.614022140221401","-3.02029520295203","1.03357933579336","0","358.75"
"118","-2.96678966789668","-0.44169741697417","0.614022140221401","-1.02029520295203","2.03357933579336","0","358.75"
"118","-2.96678966789668","-3.44169741697417","-0.385977859778599","-1.02029520295203","2.03357933579336","0","358.75"
"126","-2.96678966789668","-3.44169741697417","-0.385977859778599","-1.02029520295203","-0.966420664206642","0","358.75"
"126","-0.966789667896679","-0.44169741697417","-0.385977859778599","-1.02029520295203","-0.966420664206642","0","358.75"
"137","-0.966789667896679","-0.44169741697417","-0.385977859778599","-0.0202952029520295","2.03357933579336","0","358.75"
"137","-0.966789667896679","-2.44169741697417","-0.385977859778599","-0.0202952029520295","2.03357933579336","0","358.75"
"144","-0.966789667896679","-2.44169741697417","-0.385977859778599","4.97970479704797","-1.96642066420664","0","358.75"
"144","-0.966789667896679","-2.44169741697417","-0.385977859778599","4.97970479704797","-1.96642066420664","0","358.75"
"151","-0.966789667896679","-2.44169741697417","-0.385977859778599","-0.0202952029520295","-0.966420664206642","0","358.75"
"151","-0.966789667896679","-2.44169741697417","-0.385977859778599","-0.0202952029520295","-0.966420664206642","0","358.75"
"159","-0.966789667896679","-2.44169741697417","-0.385977859778599","2.97970479704797","0.0335793357933579","0","358.75"
"159","-0.966789667896679","-1.44169741697417","2.6140221402214","2.97970479704797","0.0335793357933579","0","358.75"
"165","-0.966789667896679","-1.44169741697417","2.6140221402214","0.979704797047971","-0.966420664206642","0","358.75"
"165","-0.966789667896679","-1.44169741697417","0.614022140221401","0.979704797047971","-0.966420664206642","0","358.75"
"171","-0.966789667896679","-1.44169741697417","0.614022140221401","-0.0202952029520295","0.0335793357933579","0","358.75"
"171","-1.96678966789668","-2.44169741697417","-0.385977859778599","-0.0202952029520295","0.0335793357933579","0","358.75"
"178","-1.96678966789668","-2.44169741697417","-0.385977859778599","0.979704797047971","-0.966420664206642","0","358.75"
"178","-0.966789667896679","-0.44169741697417","-2.3859778597786","0.979704797047971","-0.966420664206642","0","358.75"
"184","-0.966789667896679","-0.44169741697417","-2.3859778597786","1.97970479704797","0.0335793357933579","0","358.75"
"184","-1.96678966789668","-2.44169741697417","0.614022140221401","1.97970479704797","0.0335793357933579","0","358.75"
"189","-1.96678966789668","-2.44169741697417","0.614022140221401","-0.0202952029520295","0.0335793357933579","0","358.75"
"189","-1.96678966789668","-1.44169741697417","-0.385977859778599","-0.0202952029520295","0.0335793357933579","0","358.75"
"196","-1.96678966789668","-1.44169741697417","-0.385977859778599","-0.0202952029520295","0.0335793357933579","0","358.75"
"196","-0.966789667896679","0.55830258302583","-0.385977859778599","-0.0202952029520295","0.0335793357933579","0","358.75"
"201","-0.966789667896679","0.55830258302583","-0.385977859778599","-2.02029520295203","5.03357933579336","0","358.75"
"201","-1.96678966789668","-0.44169741697417","-0.385977859778599","-2.02029520295203","5.03357933579336","0","358.75"
"207","-1.96678966789668","-0.44169741697417","-0.385977859778599","-1.02029520295203","-0.966420664206642","0","358.75"
"207","-0.966789667896679","0.55830258302583","-3.3859778597786","-1.02029520295203","-0.966420664206642","0","358.75"
"213","-0.966789667896679","0.55830258302583","-3.3859778597786","-0.0202952029520295","-0.966420664206642","0","358.75"
"213","-0.966789667896679","-0.44169741697417","-0.385977859778599","-0.0202952029520295","-0.966420664206642","0","358.75"
"218","-0.966789667896679","-0.44169741697417","-0.385977859778599","-1.02029520295203","-0.966420664206642","0","358.75"
"219","-1.96678966789668","-1.44169741697417","1.6140221402214","-1.02029520295203","-0.966420664206642","0","358.75"
"224","-1.96678966789668","-1.44169741697417","1.6140221402214","-1.02029520295203","-0.966420664206642","0","358.75"
"224","-0.966789667896679","-1.44169741697417","-0.385977859778599","-1.02029520295203","-0.966420664206642","0","358.75"
"230","-0.966789667896679","-1.44169741697417","-0.385977859778599","2.97970479704797","1.03357933579336","0","358.75"
"230","1.03321033210332","-1.44169741697417","0.614022140221401","2.97970479704797","1.03357933579336","0","358.75"
"235","1.03321033210332","-1.44169741697417","0.614022140221401","-1.02029520295203","0.0335793357933579","0","358.75"
"235","2.03321033210332","-0.44169741697417","-0.385977859778599","-1.02029520295203","0.0335793357933579","0","358.75"
"241","2.03321033210332","-0.44169741697417","-0.385977859778599","-0.0202952029520295","-0.966420664206642","0","358.75"
"241","-1.96678966789668","-0.44169741697417","-0.385977859778599","-0.0202952029520295","-0.966420664206642","0","358.75"
"247","-1.96678966789668","-0.44169741697417","-0.385977859778599","-0.0202952029520295","1.03357933579336","0","358.75"
"247","0.0332103321033213","-1.44169741697417","-0.385977859778599","-0.0202952029520295","1.03357933579336","0","358.75"
"253","0.0332103321033213","-1.44169741697417","-0.385977859778599","-1.02029520295203","2.03357933579336","0","358.75"
"253","-0.966789667896679","-2.44169741697417","2.6140221402214","-1.02029520295203","2.03357933579336","0","358.75"
"259","-0.966789667896679","-2.44169741697417","2.6140221402214","0.979704797047971","-0.966420664206642","0","358.75"
"259","-0.966789667896679","0.55830258302583","0.614022140221401","0.979704797047971","-0.966420664206642","0","358.75"
"265","-0.966789667896679","0.55830258302583","0.614022140221401","-1.02029520295203","0.0335793357933579","0","358.75"
"265","-0.966789667896679","0.55830258302583","-2.3859778597786","-1.02029520295203","0.0335793357933579","0","358.75"
"271","-0.966789667896679","0.55830258302583","-2.3859778597786","-2.02029520295203","0.0335793357933579","0","358.75"
"271","-1.96678966789668","-2.44169741697417","-0.385977859778599","-2.02029520295203","0.0335793357933579","0","358.75"
"277","-1.96678966789668","-2.44169741697417","-0.385977859778599","-1.02029520295203","2.03357933579336","0","358.75"
"277","-1.96678966789668","-1.44169741697417","0.614022140221401","-1.02029520295203","2.03357933579336","0","358.75"
"283","-1.96678966789668","-1.44169741697417","0.614022140221401","-4.02029520295203","1.03357933579336","0","358.75"
"283","1.03321033210332","-2.44169741697417","2.6140221402214","-4.02029520295203","1.03357933579336","0","358.75"
"288","1.03321033210332","-2.44169741697417","2.6140221402214","1.97970479704797","0.0335793357933579","0","358.75"
"288","-4.96678966789668","-0.44169741697417","0.614022140221401","1.97970479704797","0.0335793357933579","0","358.75"
"294","-4.96678966789668","-0.44169741697417","0.614022140221401","2.97970479704797","-0.966420664206642","0","358.75"
"294","-1.96678966789668","-1.44169741697417","0.614022140221401","2.97970479704797","-0.966420664206642","0","358.75"
"300","-1.96678966789668","-1.44169741697417","0.614022140221401","0.979704797047971","2.03357933579336","0","358.75"
"300","-1.96678966789668","-2.44169741697417","-0.385977859778599","0.979704797047971","2.03357933579336","0","358.75"
"306","-1.96678966789668","-2.44169741697417","-0.385977859778599","0.979704797047971","0.0335793357933579","0","358.75"
"306","-0.966789667896679","-1.44169741697417","1.6140221402214","0.979704797047971","0.0335793357933579","0","358.75"
"312","-0.966789667896679","-1.44169741697417","1.6140221402214","3.97970479704797","1.03357933579336","0","358.75"
"312","-0.966789667896679","0.55830258302583","0.614022140221401","3.97970479704797","1.03357933579336","0","358.75"
"318","-0.966789667896679","0.55830258302583","0.614022140221401","3.97970479704797","0.0335793357933579","0","358.75"
"318","0.0332103321033213","-2.44169741697417","-0.385977859778599","3.97970479704797","0.0335793357933579","0","358.75"
"324","0.0332103321033213","-2.44169741697417","-0.385977859778599","4.97970479704797","-0.966420664206642","0","358.75"
"324","1.03321033210332","-2.44169741697417","1.6140221402214","4.97970479704797","-0.966420664206642","0","358.75"
"331","1.03321033210332","-2.44169741697417","1.6140221402214","-0.0202952029520295","-2.96642066420664","0","358.75"
"331","-0.966789667896679","-1.44169741697417","-0.385977859778599","-0.0202952029520295","-2.96642066420664","0","358.75"
"339","-0.966789667896679","-1.44169741697417","-0.385977859778599","3.97970479704797","1.03357933579336","0","358.75"
"339","0.0332103321033213","0.55830258302583","-0.385977859778599","3.97970479704797","1.03357933579336","0","358.75"
"345","0.0332103321033213","0.55830258302583","-0.385977859778599","1.97970479704797","0.0335793357933579","0","358.75"
"346","1.03321033210332","-0.44169741697417","-0.385977859778599","1.97970479704797","0.0335793357933579","0","358.75"
"352","1.03321033210332","-0.44169741697417","-0.385977859778599","-1.02029520295203","1.03357933579336","0","358.75"
"352","-1.96678966789668","-1.44169741697417","-0.385977859778599","-1.02029520295203","1.03357933579336","0","358.75"
"360","-1.96678966789668","-1.44169741697417","-0.385977859778599","0.979704797047971","-0.966420664206642","0","358.75"
"360","0.0332103321033213","0.55830258302583","-1.3859778597786","0.979704797047971","-0.966420664206642","0","358.75"
"367","0.0332103321033213","0.55830258302583","-1.3859778597786","-0.0202952029520295","0.0335793357933579","0","358.75"
"367","-1.96678966789668","-0.44169741697417","-2.3859778597786","-0.0202952029520295","0.0335793357933579","0","358.75"
"374","-1.96678966789668","-0.44169741697417","-2.3859778597786","0.979704797047971","0.0335793357933579","0","358.75"
"374","-0.966789667896679","-0.44169741697417","0.614022140221401","0.979704797047971","0.0335793357933579","0","358.75"
"382","-0.966789667896679","-0.44169741697417","0.614022140221401","-1.02029520295203","-2.96642066420664","0","358.75"
"382","-0.966789667896679","-3.44169741697417","-1.3859778597786","-1.02029520295203","-2.96642066420664","0","358.75"
"388","-0.966789667896679","-3.44169741697417","-1.3859778597786","-1.02029520295203","-1.96642066420664","0","358.75"
"388","-0.966789667896679","-1.44169741697417","1.6140221402214","-1.02029520295203","-1.96642066420664","0","358.75"
"394","-0.966789667896679","-1.44169741697417","1.6140221402214","-0.0202952029520295","0.0335793357933579","0","358.75"
"394","-0.966789667896679","0.55830258302583","1.6140221402214","-0.0202952029520295","0.0335793357933579","0","358.75"
"400","-0.966789667896679","0.55830258302583","1.6140221402214","-1.02029520295203","0.0335793357933579","0","358.75"
"400","1.03321033210332","-0.44169741697417","0.614022140221401","-1.02029520295203","0.0335793357933579","0","358.75"
"406","1.03321033210332","-0.44169741697417","0.614022140221401","-1.02029520295203","2.03357933579336","0","358.75"
"406","-0.966789667896679","-3.44169741697417","2.6140221402214","-1.02029520295203","2.03357933579336","0","358.75"
"411","-0.966789667896679","-3.44169741697417","2.6140221402214","-3.02029520295203","1.03357933579336","0","358.75"
"412","0.0332103321033213","-1.44169741697417","2.6140221402214","-3.02029520295203","1.03357933579336","0","358.75"
"417","0.0332103321033213","-1.44169741697417","2.6140221402214","2.97970479704797","2.03357933579336","0","358.75"
"418","-0.966789667896679","-1.44169741697417","0.614022140221401","2.97970479704797","2.03357933579336","0","358.75"
"423","-0.966789667896679","-1.44169741697417","0.614022140221401","0.979704797047971","2.03357933579336","0","358.75"
"423","-0.966789667896679","-0.44169741697417","-2.3859778597786","0.979704797047971","2.03357933579336","0","358.75"
"429","-0.966789667896679","-0.44169741697417","-2.3859778597786","2.97970479704797","-0.966420664206642","0","358.75"
"429","-2.96678966789668","-3.44169741697417","1.6140221402214","2.97970479704797","-0.966420664206642","0","358.75"
"435","-2.96678966789668","-3.44169741697417","1.6140221402214","1.97970479704797","-0.966420664206642","0","358.75"
"435","0.0332103321033213","-0.44169741697417","0.614022140221401","1.97970479704797","-0.966420664206642","0","358.75"
"441","0.0332103321033213","-0.44169741697417","0.614022140221401","1.97970479704797","-0.966420664206642","0","358.75"
"441","-1.96678966789668","-1.44169741697417","-1.3859778597786","1.97970479704797","-0.966420664206642","0","358.75"
"447","-1.96678966789668","-1.44169741697417","-1.3859778597786","0.979704797047971","-2.96642066420664","0","358.75"
"447","0.0332103321033213","-1.44169741697417","-0.385977859778599","0.979704797047971","-2.96642066420664","0","358.75"
"452","0.0332103321033213","-1.44169741697417","-0.385977859778599","-0.0202952029520295","-0.966420664206642","0","358.75"
"453","-2.96678966789668","-1.44169741697417","-2.3859778597786","-0.0202952029520295","-0.966420664206642","0","358.75"
"458","-2.96678966789668","-1.44169741697417","-2.3859778597786","-1.02029520295203","1.03357933579336","0","358.75"
"458","-2.96678966789668","-1.44169741697417","-0.385977859778599","-1.02029520295203","1.03357933579336","0","358.75"
"464","-2.96678966789668","-1.44169741697417","-0.385977859778599","0.979704797047971","1.03357933579336","0","358.75"
"464","-0.966789667896679","-2.44169741697417","1.6140221402214","0.979704797047971","1.03357933579336","0","358.75"
"470","-0.966789667896679","-2.44169741697417","1.6140221402214","-0.0202952029520295","-3.96642066420664","0","358.75"
"470","-1.96678966789668","-1.44169741697417","0.614022140221401","-0.0202952029520295","-3.96642066420664","0","358.75"
"475","-1.96678966789668","-1.44169741697417","0.614022140221401","1.97970479704797","-0.966420664206642","0","358.75"
"476","-2.96678966789668","-0.44169741697417","-0.385977859778599","1.97970479704797","-0.966420664206642","0","358.75"
"481","-2.96678966789668","-0.44169741697417","-0.385977859778599","1.97970479704797","0.0335793357933579","0","358.75"
"481","-0.966789667896679","-1.44169741697417","-2.3859778597786","1.97970479704797","0.0335793357933579","0","358.75"
"487","-0.966789667896679","-1.44169741697417","-2.3859778597786","0.979704797047971","0.0335793357933579","0","358.75"
"487","-1.96678966789668","-3.44169741697417","2.6140221402214","0.979704797047971","0.0335793357933579","0","358.75"
"493","-1.96678966789668","-3.44169741697417","2.6140221402214","-2.02029520295203","0.0335793357933579","0","358.75"
"493","0.0332103321033213","-1.44169741697417","-0.385977859778599","-2.02029520295203","0.0335793357933579","0","358.75"
"499","0.0332103321033213","-1.44169741697417","-0.385977859778599","-1.02029520295203","1.03357933579336","0","358.75"
"499","-0.966789667896679","-2.44169741697417","-1.3859778597786","-1.02029520295203","1.03357933579336","0","358.75"
"505","-0.966789667896679","-2.44169741697417","-1.3859778597786","0.979704797047971","-0.966420664206642","0","358.75"
"505","-2.96678966789668","-0.44169741697417","-2.3859778597786","0.979704797047971","-0.966420664206642","0","358.75"
"511","-2.96678966789668","-0.44169741697417","-2.3859778597786","0.979704797047971","-0.966420664206642","0","358.75"
"511","1.03321033210332","-1.44169741697417","-1.3859778597786","0.979704797047971","-0.966420664206642","0","358.75"
"516","1.03321033210332","-1.44169741697417","-1.3859778597786","-1.02029520295203","-2.96642066420664","0","358.75"
"517","-0.966789667896679","-2.44169741697417","-0.385977859778599","-1.02029520295203","-2.96642066420664","0","358.75"
"522","-0.966789667896679","-2.44169741697417","-0.385977859778599","-0.0202952029520295","2.03357933579336","0","358.75"
"522","-1.96678966789668","-1.44169741697417","1.6140221402214","-0.0202952029520295","2.03357933579336","0","358.75"
"528","-1.96678966789668","-1.44169741697417","1.6140221402214","-0.0202952029520295","1.03357933579336","0","358.75"
"528","-1.96678966789668","0.55830258302583","1.6140221402214","-0.0202952029520295","1.03357933579336","0","358.75"
"534","-1.96678966789668","0.55830258302583","1.6140221402214","1.97970479704797","0.0335793357933579","0","358.75"
"534","-0.966789667896679","0.55830258302583","1.6140221402214","1.97970479704797","0.0335793357933579","0","358.75"
"540","-0.966789667896679","0.55830258302583","1.6140221402214","-0.0202952029520295","0.0335793357933579","0","358.75"
"540","1.03321033210332","-1.44169741697417","-2.3859778597786","-0.0202952029520295","0.0335793357933579","0","358.75"
"545","1.03321033210332","-1.44169741697417","-2.3859778597786","-0.0202952029520295","1.03357933579336","0","358.75"
"546","0.0332103321033213","-0.44169741697417","0.614022140221401","-0.0202952029520295","1.03357933579336","0","358.75"
"552","0.0332103321033213","-0.44169741697417","0.614022140221401","1.97970479704797","-1.96642066420664","0","358.75"
"552","-0.966789667896679","-1.44169741697417","-0.385977859778599","1.97970479704797","-1.96642066420664","0","358.75"
"559","-0.966789667896679","-1.44169741697417","-0.385977859778599","-2.02029520295203","1.03357933579336","0","358.75"
"559","-2.96678966789668","-0.44169741697417","4.6140221402214","-2.02029520295203","1.03357933579336","0","358.75"
"565","-2.96678966789668","-0.44169741697417","4.6140221402214","-2.02029520295203","0.0335793357933579","0","358.75"
"565","1.03321033210332","-2.44169741697417","-0.385977859778599","-2.02029520295203","0.0335793357933579","0","358.75"
"570","1.03321033210332","-2.44169741697417","-0.385977859778599","-1.02029520295203","-1.96642066420664","0","358.75"
"571","0.0332103321033213","-4.44169741697417","-2.3859778597786","-1.02029520295203","-1.96642066420664","0","358.75"
"578","0.0332103321033213","-4.44169741697417","-2.3859778597786","0.979704797047971","-2.96642066420664","0","358.75"
"578","2.03321033210332","-0.44169741697417","-0.385977859778599","0.979704797047971","-2.96642066420664","0","358.75"
"584","2.03321033210332","-0.44169741697417","-0.385977859778599","-2.02029520295203","0.0335793357933579","0","358.75"
"584","-0.966789667896679","0.55830258302583","0.614022140221401","-2.02029520295203","0.0335793357933579","0","358.75"
"590","-0.966789667896679","0.55830258302583","0.614022140221401","-0.0202952029520295","-0.966420664206642","0","358.75"
"590","1.03321033210332","-2.44169741697417","1.6140221402214","-0.0202952029520295","-0.966420664206642","0","358.75"
"598","1.03321033210332","-2.44169741697417","1.6140221402214","-1.02029520295203","3.03357933579336","0","358.75"
"598","0.0332103321033213","-1.44169741697417","-0.385977859778599","-1.02029520295203","3.03357933579336","0","358.75"
"604","0.0332103321033213","-1.44169741697417","-0.385977859778599","-1.02029520295203","0.0335793357933579","0","358.75"
"604","-1.96678966789668","-0.44169741697417","-0.385977859778599","-1.02029520295203","0.0335793357933579","0","358.75"
"612","-1.96678966789668","-0.44169741697417","-0.385977859778599","-1.02029520295203","1.03357933579336","0","358.75"
"612","0.0332103321033213","-1.44169741697417","-0.385977859778599","-1.02029520295203","1.03357933579336","0","358.75"
"618","0.0332103321033213","-1.44169741697417","-0.385977859778599","-2.02029520295203","-1.96642066420664","0","358.75"
"618","-0.966789667896679","-2.44169741697417","3.6140221402214","-2.02029520295203","-1.96642066420664","0","358.75"
"623","-0.966789667896679","-2.44169741697417","3.6140221402214","-0.0202952029520295","0.0335793357933579","0","358.75"
"624","-0.966789667896679","-1.44169741697417","-0.385977859778599","-0.0202952029520295","0.0335793357933579","0","358.75"
"630","-0.966789667896679","-1.44169741697417","-0.385977859778599","0.979704797047971","2.03357933579336","0","358.75"
"630","-0.966789667896679","-1.44169741697417","-0.385977859778599","0.979704797047971","2.03357933579336","0","358.75"
"635","-0.966789667896679","-1.44169741697417","-0.385977859778599","1.97970479704797","-3.96642066420664","0","358.75"
"635","-0.966789667896679","-0.44169741697417","-1.3859778597786","1.97970479704797","-3.96642066420664","0","358.75"
"641","-0.966789667896679","-0.44169741697417","-1.3859778597786","-3.02029520295203","-1.96642066420664","0","358.75"
"641","-1.96678966789668","-1.44169741697417","-2.3859778597786","-3.02029520295203","-1.96642066420664","0","358.75"
"647","-1.96678966789668","-1.44169741697417","-2.3859778597786","-3.02029520295203","3.03357933579336","0","358.75"
"648","-2.96678966789668","-3.44169741697417","-0.385977859778599","-3.02029520295203","3.03357933579336","0","358.75"
"654","-2.96678966789668","-3.44169741697417","-0.385977859778599","-0.0202952029520295","2.03357933579336","0","358.75"
"654","-2.96678966789668","-2.44169741697417","-0.385977859778599","-0.0202952029520295","2.03357933579336","0","358.75"
"661","-2.96678966789668","-2.44169741697417","-0.385977859778599","-1.02029520295203","0.0335793357933579","0","358.75"
"661","-0.966789667896679","0.55830258302583","3.6140221402214","-1.02029520295203","0.0335793357933579","0","358.75"
"667","-0.966789667896679","0.55830258302583","3.6140221402214","-1.02029520295203","2.03357933579336","0","358.75"
"667","-0.966789667896679","-0.44169741697417","-1.3859778597786","-1.02029520295203","2.03357933579336","0","358.75"
"673","-0.966789667896679","-0.44169741697417","-1.3859778597786","-2.02029520295203","3.03357933579336","0","358.75"
"673","-0.966789667896679","-2.44169741697417","-0.385977859778599","-2.02029520295203","3.03357933579336","0","358.75"
"679","-0.966789667896679","-2.44169741697417","-0.385977859778599","-3.02029520295203","2.03357933579336","0","358.75"
"679","-1.96678966789668","-1.44169741697417","-0.385977859778599","-3.02029520295203","2.03357933579336","0","358.75"
"686","-1.96678966789668","-1.44169741697417","-0.385977859778599","1.97970479704797","-2.96642066420664","0","358.75"
"686","-1.96678966789668","-0.44169741697417","-0.385977859778599","1.97970479704797","-2.96642066420664","0","358.75"
"691","-1.96678966789668","-0.44169741697417","-0.385977859778599","-0.0202952029520295","-0.966420664206642","0","358.75"
"691","-3.96678966789668","-1.44169741697417","0.614022140221401","-0.0202952029520295","-0.966420664206642","0","358.75"
"697","-3.96678966789668","-1.44169741697417","0.614022140221401","0.979704797047971","2.03357933579336","0","358.75"
"697","-0.966789667896679","-0.44169741697417","-0.385977859778599","0.979704797047971","2.03357933579336","0","358.75"
"703","-0.966789667896679","-0.44169741697417","-0.385977859778599","-1.02029520295203","1.03357933579336","0","358.75"
"703","-0.966789667896679","-2.44169741697417","-1.3859778597786","-1.02029520295203","1.03357933579336","0","358.75"
"709","-0.966789667896679","-2.44169741697417","-1.3859778597786","-2.02029520295203","-0.966420664206642","0","358.75"
"709","-1.96678966789668","-1.44169741697417","-0.385977859778599","-2.02029520295203","-0.966420664206642","0","358.75"
"715","-1.96678966789668","-1.44169741697417","-0.385977859778599","0.979704797047971","-0.966420664206642","0","358.75"
"715","0.0332103321033213","-7.44169741697417","1.6140221402214","0.979704797047971","-0.966420664206642","0","358.75"
"720","0.0332103321033213","-7.44169741697417","1.6140221402214","6.97970479704797","-1.96642066420664","0","358.75"
"720","-0.966789667896679","1.55830258302583","0.614022140221401","6.97970479704797","-1.96642066420664","0","358.75"
"726","-0.966789667896679","1.55830258302583","0.614022140221401","9.97970479704797","0.0335793357933579","0","358.75"
"726","2.03321033210332","7.55830258302583","-2.3859778597786","9.97970479704797","0.0335793357933579","0","358.75"
"732","2.03321033210332","7.55830258302583","-2.3859778597786","1.97970479704797","-0.966420664206642","0","358.75"
"732","-1.96678966789668","-8.44169741697417","0.614022140221401","1.97970479704797","-0.966420664206642","0","358.75"
"738","-1.96678966789668","-8.44169741697417","0.614022140221401","-2.02029520295203","0.0335793357933579","0","358.75"
"738","-1.96678966789668","-1.44169741697417","4.6140221402214","-2.02029520295203","0.0335793357933579","0","358.75"
"744","-1.96678966789668","-1.44169741697417","4.6140221402214","4.97970479704797","-1.96642066420664","0","358.75"
"744","0.0332103321033213","0.55830258302583","1.6140221402214","4.97970479704797","-1.96642066420664","0","358.75"
"751","0.0332103321033213","0.55830258302583","1.6140221402214","3.97970479704797","0.0335793357933579","0","358.75"
"751","-1.96678966789668","0.55830258302583","0.614022140221401","3.97970479704797","0.0335793357933579","0","358.75"
"757","-1.96678966789668","0.55830258302583","0.614022140221401","-0.0202952029520295","-0.966420664206642","0","358.75"
"757","-0.966789667896679","-2.44169741697417","-1.3859778597786","-0.0202952029520295","-0.966420664206642","0","358.75"
"764","-0.966789667896679","-2.44169741697417","-1.3859778597786","0.979704797047971","0.0335793357933579","0","358.75"
"765","1.03321033210332","-0.44169741697417","0.614022140221401","0.979704797047971","0.0335793357933579","0","358.75"
"772","1.03321033210332","-0.44169741697417","0.614022140221401","-0.0202952029520295","0.0335793357933579","0","358.75"
"772","-0.966789667896679","-0.44169741697417","-0.385977859778599","-0.0202952029520295","0.0335793357933579","0","358.75"
"780","-0.966789667896679","-0.44169741697417","-0.385977859778599","1.97970479704797","0.0335793357933579","0","358.75"
"780","1.03321033210332","-2.44169741697417","-0.385977859778599","1.97970479704797","0.0335793357933579","0","358.75"
"786","1.03321033210332","-2.44169741697417","-0.385977859778599","-1.02029520295203","0.0335793357933579","0","358.75"
"786","1.03321033210332","-4.44169741697417","-0.385977859778599","-1.02029520295203","0.0335793357933579","0","358.75"
"791","1.03321033210332","-4.44169741697417","-0.385977859778599","-2.02029520295203","-0.966420664206642","0","358.75"
"792","0.0332103321033213","-1.44169741697417","-0.385977859778599","-2.02029520295203","-0.966420664206642","0","358.75"
"800","0.0332103321033213","-1.44169741697417","-0.385977859778599","2.97970479704797","0.0335793357933579","0","358.75"
"801","0.0332103321033213","-0.44169741697417","0.614022140221401","2.97970479704797","0.0335793357933579","0","358.75"
"807","0.0332103321033213","-0.44169741697417","0.614022140221401","0.979704797047971","1.03357933579336","0","358.75"
"807","-0.966789667896679","-0.44169741697417","1.6140221402214","0.979704797047971","1.03357933579336","0","358.75"
"814","-0.966789667896679","-0.44169741697417","1.6140221402214","-1.02029520295203","2.03357933579336","0","358.75"
"814","0.0332103321033213","-0.44169741697417","-0.385977859778599","-1.02029520295203","2.03357933579336","0","358.75"
"820","0.0332103321033213","-0.44169741697417","-0.385977859778599","3.97970479704797","2.03357933579336","0","358.75"
"820","-0.966789667896679","-0.44169741697417","-0.385977859778599","3.97970479704797","2.03357933579336","0","358.75"
"826","-0.966789667896679","-0.44169741697417","-0.385977859778599","2.97970479704797","0.0335793357933579","0","358.75"
"826","1.03321033210332","-1.44169741697417","1.6140221402214","2.97970479704797","0.0335793357933579","0","358.75"
"832","1.03321033210332","-1.44169741697417","1.6140221402214","4.97970479704797","-0.966420664206642","0","358.75"
"832","0.0332103321033213","-1.44169741697417","-1.3859778597786","4.97970479704797","-0.966420664206642","0","358.75"
"838","0.0332103321033213","-1.44169741697417","-1.3859778597786","3.97970479704797","-0.966420664206642","0","358.75"
"838","-2.96678966789668","-2.44169741697417","-1.3859778597786","3.97970479704797","-0.966420664206642","0","358.75"
"844","-2.96678966789668","-2.44169741697417","-1.3859778597786","0.979704797047971","0.0335793357933579","0","358.75"
"844","1.03321033210332","1.55830258302583","1.6140221402214","0.979704797047971","0.0335793357933579","0","358.75"
"850","1.03321033210332","1.55830258302583","1.6140221402214","2.97970479704797","-3.96642066420664","0","358.75"
"850","-0.966789667896679","-2.44169741697417","-1.3859778597786","2.97970479704797","-3.96642066420664","0","358.75"
"856","-0.966789667896679","-2.44169741697417","-1.3859778597786","3.97970479704797","0.0335793357933579","0","358.75"
"856","1.03321033210332","-1.44169741697417","-3.3859778597786","3.97970479704797","0.0335793357933579","0","358.75"
"862","1.03321033210332","-1.44169741697417","-3.3859778597786","1.97970479704797","0.0335793357933579","0","358.75"
"862","-0.966789667896679","-2.44169741697417","-1.3859778597786","1.97970479704797","0.0335793357933579","0","358.75"
"868","-0.966789667896679","-2.44169741697417","-1.3859778597786","1.97970479704797","0.0335793357933579","0","358.75"
"869","0.0332103321033213","0.55830258302583","1.6140221402214","1.97970479704797","0.0335793357933579","0","358.75"
"874","0.0332103321033213","0.55830258302583","1.6140221402214","0.979704797047971","0.0335793357933579","0","358.75"
"875","-0.966789667896679","-1.44169741697417","-0.385977859778599","0.979704797047971","0.0335793357933579","0","358.75"
"881","-0.966789667896679","-1.44169741697417","-0.385977859778599","3.97970479704797","0.0335793357933579","0","358.75"
"881","-0.966789667896679","-2.44169741697417","0.614022140221401","3.97970479704797","0.0335793357933579","0","358.75"
"886","-0.966789667896679","-2.44169741697417","0.614022140221401","1.97970479704797","1.03357933579336","0","358.75"
"887","-0.966789667896679","-1.44169741697417","-1.3859778597786","1.97970479704797","1.03357933579336","0","358.75"
"892","-0.966789667896679","-1.44169741697417","-1.3859778597786","0.979704797047971","0.0335793357933579","0","358.75"
"893","1.03321033210332","-3.44169741697417","-1.3859778597786","0.979704797047971","0.0335793357933579","0","358.75"
"898","1.03321033210332","-3.44169741697417","-1.3859778597786","1.97970479704797","-0.966420664206642","0","358.75"
"899","-1.96678966789668","-1.44169741697417","0.614022140221401","1.97970479704797","-0.966420664206642","0","358.75"
"904","-1.96678966789668","-1.44169741697417","0.614022140221401","1.97970479704797","0.0335793357933579","0","358.75"
"905","0.0332103321033213","-0.44169741697417","-0.385977859778599","1.97970479704797","0.0335793357933579","0","358.75"
"910","0.0332103321033213","-0.44169741697417","-0.385977859778599","-0.0202952029520295","-0.966420664206642","0","358.75"
"910","0.0332103321033213","-1.44169741697417","-0.385977859778599","-0.0202952029520295","-0.966420664206642","0","358.75"
"916","0.0332103321033213","-1.44169741697417","-0.385977859778599","0.979704797047971","0.0335793357933579","0","358.75"
"916","-1.96678966789668","-1.44169741697417","-1.3859778597786","0.979704797047971","0.0335793357933579","0","358.75"
"922","-1.96678966789668","-1.44169741697417","-1.3859778597786","2.97970479704797","1.03357933579336","0","358.75"
"922","-0.966789667896679","-2.44169741697417","-0.385977859778599","2.97970479704797","1.03357933579336","0","358.75"
"928","-0.966789667896679","-2.44169741697417","-0.385977859778599","0.979704797047971","1.03357933579336","0","358.75"
"928","-0.966789667896679","1.55830258302583","1.6140221402214","0.979704797047971","1.03357933579336","0","358.75"
"934","-0.966789667896679","1.55830258302583","1.6140221402214","0.979704797047971","2.03357933579336","0","358.75"
"934","0.0332103321033213","0.55830258302583","0.614022140221401","0.979704797047971","2.03357933579336","0","358.75"
"939","0.0332103321033213","0.55830258302583","0.614022140221401","1.97970479704797","-0.966420664206642","0","358.75"
"939","-2.96678966789668","-1.44169741697417","-0.385977859778599","1.97970479704797","-0.966420664206642","0","358.75"
"945","-2.96678966789668","-1.44169741697417","-0.385977859778599","-0.0202952029520295","4.03357933579336","0","358.75"
"945","0.0332103321033213","-0.44169741697417","-1.3859778597786","-0.0202952029520295","4.03357933579336","0","358.75"
"951","0.0332103321033213","-0.44169741697417","-1.3859778597786","1.97970479704797","3.03357933579336","0","358.75"
"951","-0.966789667896679","-2.44169741697417","-0.385977859778599","1.97970479704797","3.03357933579336","0","358.75"
"957","-0.966789667896679","-2.44169741697417","-0.385977859778599","-0.0202952029520295","1.03357933579336","0","358.75"
"957","-0.966789667896679","0.55830258302583","1.6140221402214","-0.0202952029520295","1.03357933579336","0","358.75"
"963","-0.966789667896679","0.55830258302583","1.6140221402214","-1.02029520295203","2.03357933579336","0","358.75"
"963","0.0332103321033213","-1.44169741697417","-0.385977859778599","-1.02029520295203","2.03357933579336","0","358.75"
"968","0.0332103321033213","-1.44169741697417","-0.385977859778599","2.97970479704797","-2.96642066420664","0","358.75"
"969","-0.966789667896679","-3.44169741697417","-0.385977859778599","2.97970479704797","-2.96642066420664","0","358.75"
"974","-0.966789667896679","-3.44169741697417","-0.385977859778599","-0.0202952029520295","-0.966420664206642","0","358.75"
"974","-3.96678966789668","-1.44169741697417","-0.385977859778599","-0.0202952029520295","-0.966420664206642","0","358.75"
"981","-3.96678966789668","-1.44169741697417","-0.385977859778599","1.97970479704797","1.03357933579336","0","358.75"
"981","-0.966789667896679","-1.44169741697417","-2.3859778597786","1.97970479704797","1.03357933579336","0","358.75"
"988","-0.966789667896679","-1.44169741697417","-2.3859778597786","2.97970479704797","0.0335793357933579","0","358.75"
"988","0.0332103321033213","-2.44169741697417","-1.3859778597786","2.97970479704797","0.0335793357933579","0","358.75"
"996","0.0332103321033213","-2.44169741697417","-1.3859778597786","-0.0202952029520295","0.0335793357933579","0","358.75"
"996","-0.966789667896679","-2.44169741697417","-0.385977859778599","-0.0202952029520295","0.0335793357933579","0","358.75"
"1004","-0.966789667896679","-2.44169741697417","-0.385977859778599","2.97970479704797","0.0335793357933579","0","358.75"
"1004","-2.96678966789668","-1.44169741697417","1.6140221402214","2.97970479704797","0.0335793357933579","0","358.75"
"1012","-2.96678966789668","-1.44169741697417","1.6140221402214","0.979704797047971","1.03357933579336","0","358.75"
"1013","0.0332103321033213","-0.44169741697417","-0.385977859778599","0.979704797047971","1.03357933579336","0","358.75"
"1019","0.0332103321033213","-0.44169741697417","-0.385977859778599","-3.02029520295203","1.03357933579336","0","358.75"
"1019","-0.966789667896679","-1.44169741697417","0.614022140221401","-3.02029520295203","1.03357933579336","0","358.75"
"1026","-0.966789667896679","-1.44169741697417","0.614022140221401","-2.02029520295203","-0.966420664206642","0","358.75"
"1026","-0.966789667896679","-2.44169741697417","0.614022140221401","-2.02029520295203","-0.966420664206642","0","358.75"
"1033","-0.966789667896679","-2.44169741697417","0.614022140221401","-1.02029520295203","-0.966420664206642","0","358.75"
"1033","0.0332103321033213","-0.44169741697417","1.6140221402214","-1.02029520295203","-0.966420664206642","0","358.75"
"1039","0.0332103321033213","-0.44169741697417","1.6140221402214","-3.02029520295203","0.0335793357933579","0","358.75"
"1039","1.03321033210332","-1.44169741697417","0.614022140221401","-3.02029520295203","0.0335793357933579","0","358.75"
"1046","1.03321033210332","-1.44169741697417","0.614022140221401","-3.02029520295203","0.0335793357933579","0","358.75"
"1046","-1.96678966789668","-1.44169741697417","-1.3859778597786","-3.02029520295203","0.0335793357933579","0","358.75"
"1055","-1.96678966789668","-1.44169741697417","-1.3859778597786","-1.02029520295203","0.0335793357933579","0","358.75"
"1055","-0.966789667896679","-2.44169741697417","-0.385977859778599","-1.02029520295203","0.0335793357933579","0","358.75"
"1062","-0.966789667896679","-2.44169741697417","-0.385977859778599","-1.02029520295203","0.0335793357933579","0","358.75"
"1063","0.0332103321033213","-0.44169741697417","-0.385977859778599","-1.02029520295203","0.0335793357933579","0","358.75"
"1068","0.0332103321033213","-0.44169741697417","-0.385977859778599","0.979704797047971","0.0335793357933579","0","358.75"
"1068","-0.966789667896679","0.55830258302583","-0.385977859778599","0.979704797047971","0.0335793357933579","0","358.75"
"1074","-0.966789667896679","0.55830258302583","-0.385977859778599","-0.0202952029520295","-0.966420664206642","0","358.75"
"1074","0.0332103321033213","-0.44169741697417","2.6140221402214","-0.0202952029520295","-0.966420664206642","0","358.75"
"1080","0.0332103321033213","-0.44169741697417","2.6140221402214","-1.02029520295203","2.03357933579336","0","358.75"
"1080","-1.96678966789668","-0.44169741697417","-2.3859778597786","-1.02029520295203","2.03357933579336","0","358.75"
"1086","-1.96678966789668","-0.44169741697417","-2.3859778597786","-1.02029520295203","1.03357933579336","0","358.75"
"1086","1.03321033210332","-0.44169741697417","1.6140221402214","-1.02029520295203","1.03357933579336","0","358.75"
"1091","1.03321033210332","-0.44169741697417","1.6140221402214","-0.0202952029520295","-1.96642066420664","0","358.75"
"1091","-1.96678966789668","-2.44169741697417","1.6140221402214","-0.0202952029520295","-1.96642066420664","0","358.75"
"1097","-1.96678966789668","-2.44169741697417","1.6140221402214","1.97970479704797","-2.96642066420664","0","358.75"
"1097","-0.966789667896679","-0.44169741697417","1.6140221402214","1.97970479704797","-2.96642066420664","0","358.75"
"1103","-0.966789667896679","-0.44169741697417","1.6140221402214","-2.02029520295203","0.0335793357933579","0","358.75"
"1103","-1.96678966789668","-1.44169741697417","1.6140221402214","-2.02029520295203","0.0335793357933579","0","358.75"
"1109","-1.96678966789668","-1.44169741697417","1.6140221402214","-2.02029520295203","1.03357933579336","0","358.75"
"1109","-0.966789667896679","-1.44169741697417","-1.3859778597786","-2.02029520295203","1.03357933579336","0","358.75"
"1115","-0.966789667896679","-1.44169741697417","-1.3859778597786","-2.02029520295203","0.0335793357933579","0","358.75"
"1115","0.0332103321033213","0.55830258302583","-0.385977859778599","-2.02029520295203","0.0335793357933579","0","358.75"
"1120","0.0332103321033213","0.55830258302583","-0.385977859778599","-0.0202952029520295","-0.966420664206642","0","358.75"
"1120","0.0332103321033213","-0.44169741697417","0.614022140221401","-0.0202952029520295","-0.966420664206642","0","358.75"
"1126","0.0332103321033213","-0.44169741697417","0.614022140221401","-0.0202952029520295","-0.966420664206642","0","358.75"
"1126","-3.96678966789668","-0.44169741697417","-0.385977859778599","-0.0202952029520295","-0.966420664206642","0","358.75"
"1132","-3.96678966789668","-0.44169741697417","-0.385977859778599","-3.02029520295203","1.03357933579336","0","358.75"
"1132","1.03321033210332","-3.44169741697417","0.614022140221401","-3.02029520295203","1.03357933579336","0","358.75"
"1138","1.03321033210332","-3.44169741697417","0.614022140221401","-2.02029520295203","2.03357933579336","0","358.75"
"1138","-0.966789667896679","-0.44169741697417","-0.385977859778599","-2.02029520295203","2.03357933579336","0","358.75"
"1144","-0.966789667896679","-0.44169741697417","-0.385977859778599","0.979704797047971","2.03357933579336","0","358.75"
"1144","0.0332103321033213","-0.44169741697417","-0.385977859778599","0.979704797047971","2.03357933579336","0","358.75"
"1150","0.0332103321033213","-0.44169741697417","-0.385977859778599","-2.02029520295203","-1.96642066420664","0","358.75"
"1150","-1.96678966789668","-1.44169741697417","-1.3859778597786","-2.02029520295203","-1.96642066420664","0","358.75"
"1156","-1.96678966789668","-1.44169741697417","-1.3859778597786","0.979704797047971","-1.96642066420664","0","358.75"
"1156","-0.966789667896679","-2.44169741697417","-0.385977859778599","0.979704797047971","-1.96642066420664","0","358.75"
"1162","-0.966789667896679","-2.44169741697417","-0.385977859778599","0.979704797047971","0.0335793357933579","0","358.75"
"1162","-1.96678966789668","1.55830258302583","-0.385977859778599","0.979704797047971","0.0335793357933579","0","358.75"
"1168","-1.96678966789668","1.55830258302583","-0.385977859778599","0.979704797047971","0.0335793357933579","0","358.75"
"1168","-0.966789667896679","-0.44169741697417","-3.3859778597786","0.979704797047971","0.0335793357933579","0","358.75"
"1173","-0.966789667896679","-0.44169741697417","-3.3859778597786","-0.0202952029520295","2.03357933579336","0","358.75"
"1173","0.0332103321033213","-2.44169741697417","-1.3859778597786","-0.0202952029520295","2.03357933579336","0","358.75"
"1179","0.0332103321033213","-2.44169741697417","-1.3859778597786","-3.02029520295203","0.0335793357933579","0","358.75"
"1179","1.03321033210332","-0.44169741697417","-0.385977859778599","-3.02029520295203","0.0335793357933579","0","358.75"
"1185","1.03321033210332","-0.44169741697417","-0.385977859778599","-0.0202952029520295","1.03357933579336","0","358.75"
"1186","-0.966789667896679","-0.44169741697417","2.6140221402214","-0.0202952029520295","1.03357933579336","0","358.75"
"1191","-0.966789667896679","-0.44169741697417","2.6140221402214","-1.02029520295203","0.0335793357933579","0","358.75"
"1192","0.0332103321033213","-0.44169741697417","3.6140221402214","-1.02029520295203","0.0335793357933579","0","358.75"
"1199","0.0332103321033213","-0.44169741697417","3.6140221402214","-3.02029520295203","-0.966420664206642","0","358.75"
"1199","-1.96678966789668","-2.44169741697417","-0.385977859778599","-3.02029520295203","-0.966420664206642","0","358.75"
"1206","-1.96678966789668","-2.44169741697417","-0.385977859778599","0.979704797047971","-0.966420664206642","0","358.75"
"1206","0.0332103321033213","-1.44169741697417","-1.3859778597786","0.979704797047971","-0.966420664206642","0","358.75"
"1216","0.0332103321033213","-1.44169741697417","-1.3859778597786","-1.02029520295203","-0.966420664206642","0","358.75"
"1216","-3.96678966789668","-1.44169741697417","-0.385977859778599","-1.02029520295203","-0.966420664206642","0","358.75"
"1225","-3.96678966789668","-1.44169741697417","-0.385977859778599","1.97970479704797","-2.96642066420664","0","358.75"
"1225","-0.966789667896679","-0.44169741697417","-0.385977859778599","1.97970479704797","-2.96642066420664","0","358.75"
"1232","-0.966789667896679","-0.44169741697417","-0.385977859778599","-1.02029520295203","1.03357933579336","0","358.75"
"1232","0.0332103321033213","-2.44169741697417","-1.3859778597786","-1.02029520295203","1.03357933579336","0","358.75"
"1238","0.0332103321033213","-2.44169741697417","-1.3859778597786","0.979704797047971","1.03357933579336","0","358.75"
"1238","-0.966789667896679","-2.44169741697417","0.614022140221401","0.979704797047971","1.03357933579336","0","358.75"
"1245","-0.966789667896679","-2.44169741697417","0.614022140221401","-1.02029520295203","-1.96642066420664","0","358.75"
"1245","-3.96678966789668","-0.44169741697417","-0.385977859778599","-1.02029520295203","-1.96642066420664","0","358.75"
"1251","-3.96678966789668","-0.44169741697417","-0.385977859778599","1.97970479704797","0.0335793357933579","0","358.75"
"1251","-3.96678966789668","-0.44169741697417","-0.385977859778599","1.97970479704797","0.0335793357933579","0","358.75"
"1257","-3.96678966789668","-0.44169741697417","-0.385977859778599","-1.02029520295203","0.0335793357933579","0","358.75"
"1257","1.03321033210332","-1.44169741697417","0.614022140221401","-1.02029520295203","0.0335793357933579","0","358.75"
"1263","1.03321033210332","-1.44169741697417","0.614022140221401","-3.02029520295203","-2.96642066420664","0","358.75"
"1263","0.0332103321033213","0.55830258302583","-0.385977859778599","-3.02029520295203","-2.96642066420664","0","358.75"
"1269","0.0332103321033213","0.55830258302583","-0.385977859778599","0.979704797047971","-0.966420664206642","0","358.75"
"1269","-1.96678966789668","-2.44169741697417","-2.3859778597786","0.979704797047971","-0.966420664206642","0","358.75"
"1274","-1.96678966789668","-2.44169741697417","-2.3859778597786","-2.02029520295203","-1.96642066420664","0","358.75"
"1274","-2.96678966789668","0.55830258302583","0.614022140221401","-2.02029520295203","-1.96642066420664","0","358.75"
"1281","-2.96678966789668","0.55830258302583","0.614022140221401","-1.02029520295203","2.03357933579336","0","358.75"
"1281","-2.96678966789668","-1.44169741697417","-0.385977859778599","-1.02029520295203","2.03357933579336","0","358.75"
"1286","-2.96678966789668","-1.44169741697417","-0.385977859778599","-4.02029520295203","3.03357933579336","0","358.75"
"1286","-0.966789667896679","1.55830258302583","1.6140221402214","-4.02029520295203","3.03357933579336","0","358.75"
"1292","-0.966789667896679","1.55830258302583","1.6140221402214","1.97970479704797","1.03357933579336","0","358.75"
"1292","-0.966789667896679","-0.44169741697417","-0.385977859778599","1.97970479704797","1.03357933579336","0","358.75"
"1298","-0.966789667896679","-0.44169741697417","-0.385977859778599","-0.0202952029520295","0.0335793357933579","0","358.75"
"1298","-0.966789667896679","-0.44169741697417","-2.3859778597786","-0.0202952029520295","0.0335793357933579","0","358.75"
"1303","-0.966789667896679","-0.44169741697417","-2.3859778597786","-4.02029520295203","-1.96642066420664","0","358.75"
"1303","-0.966789667896679","-1.44169741697417","-0.385977859778599","-4.02029520295203","-1.96642066420664","0","358.75"
"1310","-0.966789667896679","-1.44169741697417","-0.385977859778599","-2.02029520295203","-2.96642066420664","0","358.75"
"1310","-1.96678966789668","-0.44169741697417","-1.3859778597786","-2.02029520295203","-2.96642066420664","0","358.75"
"1317","-1.96678966789668","-0.44169741697417","-1.3859778597786","-0.0202952029520295","0.0335793357933579","0","358.75"
"1317","-0.966789667896679","-1.44169741697417","3.6140221402214","-0.0202952029520295","0.0335793357933579","0","358.75"
"1323","-0.966789667896679","-1.44169741697417","3.6140221402214","-0.0202952029520295","0.0335793357933579","0","358.75"
"1323","-1.96678966789668","-0.44169741697417","-0.385977859778599","-0.0202952029520295","0.0335793357933579","0","358.75"
"1329","-1.96678966789668","-0.44169741697417","-0.385977859778599","0.979704797047971","1.03357933579336","0","358.75"
"1329","-0.966789667896679","-0.44169741697417","-0.385977859778599","0.979704797047971","1.03357933579336","0","358.75"
"1335","-0.966789667896679","-0.44169741697417","-0.385977859778599","1.97970479704797","1.03357933579336","0","358.75"
"1335","-1.96678966789668","-0.44169741697417","-0.385977859778599","1.97970479704797","1.03357933579336","0","358.75"
"1341","-1.96678966789668","-0.44169741697417","-0.385977859778599","1.97970479704797","-0.966420664206642","0","358.75"
"1341","0.0332103321033213","0.55830258302583","1.6140221402214","1.97970479704797","-0.966420664206642","0","358.75"
"1347","0.0332103321033213","0.55830258302583","1.6140221402214","-1.02029520295203","1.03357933579336","0","358.75"
"1347","-3.96678966789668","-2.44169741697417","3.6140221402214","-1.02029520295203","1.03357933579336","0","358.75"
"1353","-3.96678966789668","-2.44169741697417","3.6140221402214","-0.0202952029520295","-0.966420664206642","0","358.75"
"1353","-2.96678966789668","-1.44169741697417","-0.385977859778599","-0.0202952029520295","-0.966420664206642","0","358.75"
"1362","-2.96678966789668","-1.44169741697417","-0.385977859778599","0.979704797047971","2.03357933579336","0","358.75"
"1362","0.0332103321033213","-1.44169741697417","1.6140221402214","0.979704797047971","2.03357933579336","0","358.75"
"1368","0.0332103321033213","-1.44169741697417","1.6140221402214","2.97970479704797","1.03357933579336","0","358.75"
"1368","-3.96678966789668","-0.44169741697417","0.614022140221401","2.97970479704797","1.03357933579336","0","358.75"
"1374","-3.96678966789668","-0.44169741697417","0.614022140221401","-0.0202952029520295","-0.966420664206642","0","358.75"
"1374","-1.96678966789668","0.55830258302583","0.614022140221401","-0.0202952029520295","-0.966420664206642","0","358.75"
"1380","-1.96678966789668","0.55830258302583","0.614022140221401","2.97970479704797","0.0335793357933579","0","358.75"
"1380","-1.96678966789668","-2.44169741697417","-0.385977859778599","2.97970479704797","0.0335793357933579","0","358.75"
"1386","-1.96678966789668","-2.44169741697417","-0.385977859778599","1.97970479704797","1.03357933579336","0","358.75"
"1386","-0.966789667896679","-4.44169741697417","2.6140221402214","1.97970479704797","1.03357933579336","0","358.75"
"1392","-0.966789667896679","-4.44169741697417","2.6140221402214","0.979704797047971","-0.966420664206642","0","358.75"
"1393","-1.96678966789668","-0.44169741697417","-1.3859778597786","0.979704797047971","-0.966420664206642","0","358.75"
"1398","-1.96678966789668","-0.44169741697417","-1.3859778597786","0.979704797047971","0.0335793357933579","0","358.75"
"1399","0.0332103321033213","-1.44169741697417","0.614022140221401","0.979704797047971","0.0335793357933579","0","358.75"
"1404","0.0332103321033213","-1.44169741697417","0.614022140221401","0.979704797047971","2.03357933579336","0","358.75"
"1405","1.03321033210332","-0.44169741697417","0.614022140221401","0.979704797047971","2.03357933579336","0","358.75"
"1411","1.03321033210332","-0.44169741697417","0.614022140221401","0.979704797047971","0.0335793357933579","0","358.75"
"1411","-0.966789667896679","-0.44169741697417","-2.3859778597786","0.979704797047971","0.0335793357933579","0","358.75"
"1419","-0.966789667896679","-0.44169741697417","-2.3859778597786","3.97970479704797","0.0335793357933579","0","358.75"
"1419","-1.96678966789668","-0.44169741697417","-1.3859778597786","3.97970479704797","0.0335793357933579","0","358.75"
"1426","-1.96678966789668","-0.44169741697417","-1.3859778597786","-0.0202952029520295","0.0335793357933579","0","358.75"
"1426","-0.966789667896679","-2.44169741697417","0.614022140221401","-0.0202952029520295","0.0335793357933579","0","358.75"
"1434","-0.966789667896679","-2.44169741697417","0.614022140221401","-0.0202952029520295","-2.96642066420664","0","358.75"
"1434","-1.96678966789668","0.55830258302583","1.6140221402214","-0.0202952029520295","-2.96642066420664","0","358.75"
"1441","-1.96678966789668","0.55830258302583","1.6140221402214","-0.0202952029520295","-0.966420664206642","0","358.75"
"1441","-0.966789667896679","-0.44169741697417","-0.385977859778599","-0.0202952029520295","-0.966420664206642","0","358.75"
"1448","-0.966789667896679","-0.44169741697417","-0.385977859778599","-2.02029520295203","-1.96642066420664","0","358.75"
"1448","-1.96678966789668","-1.44169741697417","0.614022140221401","-2.02029520295203","-1.96642066420664","0","358.75"
"1455","-1.96678966789668","-1.44169741697417","0.614022140221401","-2.02029520295203","-1.96642066420664","0","358.75"
"1455","-2.96678966789668","-0.44169741697417","-0.385977859778599","-2.02029520295203","-1.96642066420664","0","358.75"
"1462","-2.96678966789668","-0.44169741697417","-0.385977859778599","1.97970479704797","2.03357933579336","0","358.75"
"1462","-1.96678966789668","-2.44169741697417","-0.385977859778599","1.97970479704797","2.03357933579336","0","358.75"
"1468","-1.96678966789668","-2.44169741697417","-0.385977859778599","3.97970479704797","-0.966420664206642","0","358.75"
"1468","-1.96678966789668","-2.44169741697417","0.614022140221401","3.97970479704797","-0.966420664206642","0","358.75"
"1474","-1.96678966789668","-2.44169741697417","0.614022140221401","1.97970479704797","1.03357933579336","0","358.75"
"1474","0.0332103321033213","-1.44169741697417","1.6140221402214","1.97970479704797","1.03357933579336","0","358.75"
"1481","0.0332103321033213","-1.44169741697417","1.6140221402214","1.97970479704797","2.03357933579336","0","358.75"
"1481","-0.966789667896679","0.55830258302583","-0.385977859778599","1.97970479704797","2.03357933579336","0","358.75"
"1487","-0.966789667896679","0.55830258302583","-0.385977859778599","-0.0202952029520295","2.03357933579336","0","358.75"
"1487","-1.96678966789668","0.55830258302583","0.614022140221401","-0.0202952029520295","2.03357933579336","0","358.75"
"1494","-1.96678966789668","0.55830258302583","0.614022140221401","0.979704797047971","1.03357933579336","0","358.75"
"1494","0.0332103321033213","-0.44169741697417","2.6140221402214","0.979704797047971","1.03357933579336","0","358.75"
"1500","0.0332103321033213","-0.44169741697417","2.6140221402214","-0.0202952029520295","1.03357933579336","0","358.75"
"1500","-2.96678966789668","-2.44169741697417","0.614022140221401","-0.0202952029520295","1.03357933579336","0","358.75"
"1506","-2.96678966789668","-2.44169741697417","0.614022140221401","-1.02029520295203","-0.966420664206642","0","358.75"
"1506","-0.966789667896679","-1.44169741697417","0.614022140221401","-1.02029520295203","-0.966420664206642","0","358.75"
"1512","-0.966789667896679","-1.44169741697417","0.614022140221401","-1.02029520295203","-0.966420664206642","0","358.75"
"1512","-0.966789667896679","-1.44169741697417","0.614022140221401","-1.02029520295203","-0.966420664206642","0","358.75"
"1518","-0.966789667896679","-1.44169741697417","0.614022140221401","-1.02029520295203","-0.966420664206642","0","358.75"
"1518","0.0332103321033213","-1.44169741697417","-0.385977859778599","-1.02029520295203","-0.966420664206642","0","358.75"
"1524","0.0332103321033213","-1.44169741697417","-0.385977859778599","0.979704797047971","-0.966420664206642","0","358.75"
"1524","-1.96678966789668","-1.44169741697417","-1.3859778597786","0.979704797047971","-0.966420664206642","0","358.75"
"1531","-1.96678966789668","-1.44169741697417","-1.3859778597786","-1.02029520295203","-0.966420664206642","0","358.75"
"1531","-2.96678966789668","-2.44169741697417","0.614022140221401","-1.02029520295203","-0.966420664206642","0","358.75"
"1537","-2.96678966789668","-2.44169741697417","0.614022140221401","0.979704797047971","-2.96642066420664","0","358.75"
"1537","1.03321033210332","-0.44169741697417","-1.3859778597786","0.979704797047971","-2.96642066420664","0","358.75"
"1543","1.03321033210332","-0.44169741697417","-1.3859778597786","2.97970479704797","0.0335793357933579","0","358.75"
"1544","-0.966789667896679","0.55830258302583","-0.385977859778599","2.97970479704797","0.0335793357933579","0","358.75"
"1550","-0.966789667896679","0.55830258302583","-0.385977859778599","-0.0202952029520295","-0.966420664206642","0","358.75"
"1550","-0.966789667896679","-0.44169741697417","1.6140221402214","-0.0202952029520295","-0.966420664206642","0","358.75"
"1556","-0.966789667896679","-0.44169741697417","1.6140221402214","-2.02029520295203","0.0335793357933579","0","358.75"
"1562","-0.966789667896679","-0.44169741697417","1.6140221402214","-7.02029520295203","-2.96642066420664","0","358.75"
"1562","18.0332103321033","-27.4416974169742","25.6140221402214","-7.02029520295203","-2.96642066420664","0","358.75"
"1568","18.0332103321033","-27.4416974169742","25.6140221402214","3.97970479704797","0.0335793357933579","0","358.75"
"1568","7.03321033210332","-4.44169741697417","2.6140221402214","3.97970479704797","0.0335793357933579","0","358.75"
"1574","7.03321033210332","-4.44169741697417","2.6140221402214","15.979704797048","2.03357933579336","0","358.75"
"1574","-11.9667896678967","-19.4416974169742","5.6140221402214","15.979704797048","2.03357933579336","0","358.75"
"1581","-11.9667896678967","-19.4416974169742","5.6140221402214","-7.02029520295203","-2.96642066420664","0","358.75"
"1581","18.0332103321033","-27.4416974169742","25.6140221402214","-7.02029520295203","-2.96642066420664","0","358.75"
"1587","18.0332103321033","-27.4416974169742","25.6140221402214","-7.02029520295203","-2.96642066420664","0","358.75"
"1587","18.0332103321033","-27.4416974169742","25.6140221402214","-7.02029520295203","-2.96642066420664","0","358.75"
"1593","18.0332103321033","-27.4416974169742","25.6140221402214","3.97970479704797","0.0335793357933579","0","358.75"
"1593","7.03321033210332","-4.44169741697417","2.6140221402214","3.97970479704797","0.0335793357933579","0","358.75"
"1600","7.03321033210332","-4.44169741697417","2.6140221402214","15.979704797048","2.03357933579336","0","358.75"
"1600","-11.9667896678967","-19.4416974169742","5.6140221402214","15.979704797048","2.03357933579336","0","358.75"
"1607","-11.9667896678967","-19.4416974169742","5.6140221402214","-4.02029520295203","-5.96642066420664","0","358.75"
"1607","9.03321033210332","2.55830258302583","-0.385977859778599","-4.02029520295203","-5.96642066420664","0","358.75"
"1614","9.03321033210332","2.55830258302583","-0.385977859778599","-10.020295202952","-0.966420664206642","0","358.75"
"1614","3.03321033210332","4.55830258302583","5.6140221402214","-10.020295202952","-0.966420664206642","0","358.75"
"1621","3.03321033210332","4.55830258302583","5.6140221402214","2.97970479704797","-3.96642066420664","0","358.75"
"1621","3.03321033210332","4.55830258302583","5.6140221402214","2.97970479704797","-3.96642066420664","0","358.75"
"1629","3.03321033210332","4.55830258302583","5.6140221402214","4.97970479704797","-0.966420664206642","0","358.75"
"1629","14.0332103321033","-13.4416974169742","3.6140221402214","4.97970479704797","-0.966420664206642","0","358.75"
"1635","14.0332103321033","-13.4416974169742","3.6140221402214","4.97970479704797","3.03357933579336","0","358.75"
"1635","3.03321033210332","-3.44169741697417","10.6140221402214","4.97970479704797","3.03357933579336","0","358.75"
"1643","3.03321033210332","-3.44169741697417","10.6140221402214","-7.02029520295203","-2.96642066420664","0","358.75"
"1643","14.0332103321033","9.55830258302583","4.6140221402214","-7.02029520295203","-2.96642066420664","0","358.75"
"1651","14.0332103321033","9.55830258302583","4.6140221402214","-1.02029520295203","0.0335793357933579","0","358.75"
"1651","-14.9667896678967","7.55830258302583","-13.3859778597786","-1.02029520295203","0.0335793357933579","0","358.75"
"1657","-14.9667896678967","7.55830258302583","-13.3859778597786","3.97970479704797","0.0335793357933579","0","358.75"
"1657","-14.9667896678967","7.55830258302583","-13.3859778597786","3.97970479704797","0.0335793357933579","0","358.75"
"1663","-14.9667896678967","7.55830258302583","-13.3859778597786","-7.02029520295203","2.03357933579336","0","358.75"
"1663","5.03321033210332","5.55830258302583","-0.385977859778599","-7.02029520295203","2.03357933579336","0","358.75"
"1669","5.03321033210332","5.55830258302583","-0.385977859778599","-10.020295202952","1.03357933579336","0","358.75"
"1669","3.03321033210332","10.5583025830258","-0.385977859778599","-10.020295202952","1.03357933579336","0","358.75"
"1675","3.03321033210332","10.5583025830258","-0.385977859778599","9.97970479704797","-2.96642066420664","0","358.75"
"1675","-1.96678966789668","-11.4416974169742","3.6140221402214","9.97970479704797","-2.96642066420664","0","358.75"
"1681","-1.96678966789668","-11.4416974169742","3.6140221402214","8.97970479704797","-0.966420664206642","0","358.75"
"1681","5.03321033210332","-2.44169741697417","-2.3859778597786","8.97970479704797","-0.966420664206642","0","358.75"
"1687","5.03321033210332","-2.44169741697417","-2.3859778597786","-7.02029520295203","2.03357933579336","0","358.75"
"1687","5.03321033210332","-2.44169741697417","-2.3859778597786","-7.02029520295203","2.03357933579336","0","358.75"
"1693","5.03321033210332","-2.44169741697417","-2.3859778597786","-1.02029520295203","-1.96642066420664","0","358.75"
"1693","3.03321033210332","-8.44169741697417","15.6140221402214","-1.02029520295203","-1.96642066420664","0","358.75"
"1699","3.03321033210332","-8.44169741697417","15.6140221402214","1.97970479704797","0.0335793357933579","0","358.75"
"1699","-9.96678966789668","9.55830258302583","-9.3859778597786","1.97970479704797","0.0335793357933579","0","358.75"
"1705","-9.96678966789668","9.55830258302583","-9.3859778597786","-2.02029520295203","2.03357933579336","0","358.75"
"1705","-2.96678966789668","-9.44169741697417","1.6140221402214","-2.02029520295203","2.03357933579336","0","358.75"
"1710","-2.96678966789668","-9.44169741697417","1.6140221402214","2.97970479704797","2.03357933579336","0","358.75"
"1710","5.03321033210332","-10.4416974169742","6.6140221402214","2.97970479704797","2.03357933579336","0","358.75"
"1716","5.03321033210332","-10.4416974169742","6.6140221402214","-5.02029520295203","0.0335793357933579","0","358.75"
"1717","5.03321033210332","-10.4416974169742","6.6140221402214","-5.02029520295203","0.0335793357933579","0","358.75"
"1722","5.03321033210332","-10.4416974169742","6.6140221402214","-3.02029520295203","1.03357933579336","0","358.75"
"1722","-3.96678966789668","4.55830258302583","-0.385977859778599","-3.02029520295203","1.03357933579336","0","358.75"
"1728","-3.96678966789668","4.55830258302583","-0.385977859778599","4.97970479704797","0.0335793357933579","0","358.75"
"1728","-4.96678966789668","-8.44169741697417","-1.3859778597786","4.97970479704797","0.0335793357933579","0","358.75"
"1734","-4.96678966789668","-8.44169741697417","-1.3859778597786","2.97970479704797","1.03357933579336","0","358.75"
"1734","-0.966789667896679","-1.44169741697417","4.6140221402214","2.97970479704797","1.03357933579336","0","358.75"
"1740","-0.966789667896679","-1.44169741697417","4.6140221402214","-8.02029520295203","4.03357933579336","0","358.75"
"1740","2.03321033210332","17.5583025830258","1.6140221402214","-8.02029520295203","4.03357933579336","0","358.75"
"1746","2.03321033210332","17.5583025830258","1.6140221402214","2.97970479704797","-0.966420664206642","0","358.75"
"1747","2.03321033210332","17.5583025830258","1.6140221402214","2.97970479704797","-0.966420664206642","0","358.75"
"1753","2.03321033210332","17.5583025830258","1.6140221402214","9.97970479704797","-1.96642066420664","0","358.75"
"1753","4.03321033210332","-11.4416974169742","4.6140221402214","9.97970479704797","-1.96642066420664","0","358.75"
"1760","4.03321033210332","-11.4416974169742","4.6140221402214","0.979704797047971","1.03357933579336","0","358.75"
"1760","-0.966789667896679","-10.4416974169742","-0.385977859778599","0.979704797047971","1.03357933579336","0","358.75"
"1766","-0.966789667896679","-10.4416974169742","-0.385977859778599","-7.02029520295203","-0.966420664206642","0","358.75"
"1766","4.03321033210332","7.55830258302583","0.614022140221401","-7.02029520295203","-0.966420664206642","0","358.75"
"1772","4.03321033210332","7.55830258302583","0.614022140221401","0.979704797047971","0.0335793357933579","0","358.75"
"1772","-9.96678966789668","15.5583025830258","-5.3859778597786","0.979704797047971","0.0335793357933579","0","358.75"
"1779","-9.96678966789668","15.5583025830258","-5.3859778597786","7.97970479704797","-1.96642066420664","0","358.75"
"1779","-9.96678966789668","15.5583025830258","-5.3859778597786","7.97970479704797","-1.96642066420664","0","358.75"
"1786","-9.96678966789668","15.5583025830258","-5.3859778597786","2.97970479704797","2.03357933579336","0","358.75"
"1786","3.03321033210332","-6.44169741697417","0.614022140221401","2.97970479704797","2.03357933579336","0","358.75"
"1792","3.03321033210332","-6.44169741697417","0.614022140221401","-5.02029520295203","-0.966420664206642","0","358.75"
"1792","0.0332103321033213","-0.44169741697417","-0.385977859778599","-5.02029520295203","-0.966420664206642","0","358.75"
"1799","0.0332103321033213","-0.44169741697417","-0.385977859778599","-2.02029520295203","0.0335793357933579","0","358.75"
"1799","3.03321033210332","-4.44169741697417","3.6140221402214","-2.02029520295203","0.0335793357933579","0","358.75"
"1805","3.03321033210332","-4.44169741697417","3.6140221402214","2.97970479704797","-0.966420664206642","0","358.75"
"1805","1.03321033210332","-8.44169741697417","2.6140221402214","2.97970479704797","-0.966420664206642","0","358.75"
"1811","1.03321033210332","-8.44169741697417","2.6140221402214","1.97970479704797","0.0335793357933579","0","358.75"
"1811","1.03321033210332","-8.44169741697417","2.6140221402214","1.97970479704797","0.0335793357933579","0","358.75"
"1817","1.03321033210332","-8.44169741697417","2.6140221402214","-2.02029520295203","1.03357933579336","0","358.75"
"1817","1.03321033210332","0.55830258302583","-1.3859778597786","-2.02029520295203","1.03357933579336","0","358.75"
"1823","1.03321033210332","0.55830258302583","-1.3859778597786","-0.0202952029520295","0.0335793357933579","0","358.75"
"1823","2.03321033210332","-3.44169741697417","-2.3859778597786","-0.0202952029520295","0.0335793357933579","0","358.75"
"1830","2.03321033210332","-3.44169741697417","-2.3859778597786","0.979704797047971","4.03357933579336","0","358.75"
"1830","3.03321033210332","-6.44169741697417","0.614022140221401","0.979704797047971","4.03357933579336","0","358.75"
"1837","3.03321033210332","-6.44169741697417","0.614022140221401","-1.02029520295203","2.03357933579336","0","358.75"
"1837","3.03321033210332","-1.44169741697417","1.6140221402214","-1.02029520295203","2.03357933579336","0","358.75"
"1844","3.03321033210332","-1.44169741697417","1.6140221402214","-1.02029520295203","2.03357933579336","0","358.75"
"1844","3.03321033210332","-1.44169741697417","1.6140221402214","-1.02029520295203","2.03357933579336","0","358.75"
"1853","3.03321033210332","-1.44169741697417","1.6140221402214","-2.02029520295203","3.03357933579336","0","358.75"
"1853","-2.96678966789668","-1.44169741697417","1.6140221402214","-2.02029520295203","3.03357933579336","0","358.75"
"1862","-2.96678966789668","-1.44169741697417","1.6140221402214","-0.0202952029520295","2.03357933579336","0","358.75"
"1863","1.03321033210332","2.55830258302583","-1.3859778597786","-0.0202952029520295","2.03357933579336","0","358.75"
"1869","1.03321033210332","2.55830258302583","-1.3859778597786","2.97970479704797","0.0335793357933579","0","358.75"
"1870","0.0332103321033213","2.55830258302583","-1.3859778597786","2.97970479704797","0.0335793357933579","0","358.75"
"1876","0.0332103321033213","2.55830258302583","-1.3859778597786","-0.0202952029520295","1.03357933579336","0","358.75"
"1877","1.03321033210332","-0.44169741697417","1.6140221402214","-0.0202952029520295","1.03357933579336","0","358.75"
"1882","1.03321033210332","-0.44169741697417","1.6140221402214","4.97970479704797","1.03357933579336","0","358.75"
"1883","1.03321033210332","-0.44169741697417","1.6140221402214","4.97970479704797","1.03357933579336","0","358.75"
"1888","1.03321033210332","-0.44169741697417","1.6140221402214","-1.02029520295203","3.03357933579336","0","358.75"
"1888","-2.96678966789668","-0.44169741697417","-1.3859778597786","-1.02029520295203","3.03357933579336","0","358.75"
"1894","-2.96678966789668","-0.44169741697417","-1.3859778597786","-0.0202952029520295","2.03357933579336","0","358.75"
"1894","-2.96678966789668","-0.44169741697417","-1.3859778597786","-0.0202952029520295","2.03357933579336","0","358.75"
"1899","-2.96678966789668","-0.44169741697417","-1.3859778597786","-3.02029520295203","1.03357933579336","0","358.75"
"1899","-2.96678966789668","-2.44169741697417","-0.385977859778599","-3.02029520295203","1.03357933579336","0","358.75"
"1905","-2.96678966789668","-2.44169741697417","-0.385977859778599","-3.02029520295203","1.03357933579336","0","358.75"
"1905","-3.96678966789668","-4.44169741697417","-1.3859778597786","-3.02029520295203","1.03357933579336","0","358.75"
"1911","-3.96678966789668","-4.44169741697417","-1.3859778597786","0.979704797047971","2.03357933579336","0","358.75"
"1911","-3.96678966789668","-4.44169741697417","-1.3859778597786","0.979704797047971","2.03357933579336","0","358.75"
"1917","-3.96678966789668","-4.44169741697417","-1.3859778597786","-1.02029520295203","2.03357933579336","0","358.75"
"1917","-3.96678966789668","-4.44169741697417","-1.3859778597786","-1.02029520295203","2.03357933579336","0","358.75"
"1922","-3.96678966789668","-4.44169741697417","-1.3859778597786","-1.02029520295203","-0.966420664206642","0","358.75"
"1922","-3.96678966789668","-6.44169741697417","-0.385977859778599","-1.02029520295203","-0.966420664206642","0","358.75"
"1928","-3.96678966789668","-6.44169741697417","-0.385977859778599","1.97970479704797","-0.966420664206642","0","358.75"
"1928","-1.96678966789668","-3.44169741697417","1.6140221402214","1.97970479704797","-0.966420664206642","0","358.75"
"1934","-1.96678966789668","-3.44169741697417","1.6140221402214","-3.02029520295203","-0.966420664206642","0","358.75"
"1934","-1.96678966789668","-2.44169741697417","-0.385977859778599","-3.02029520295203","-0.966420664206642","0","358.75"
"1939","-1.96678966789668","-2.44169741697417","-0.385977859778599","2.97970479704797","-0.966420664206642","0","358.75"
"1940","-1.96678966789668","-2.44169741697417","-0.385977859778599","2.97970479704797","-0.966420664206642","0","358.75"
"1945","-1.96678966789668","-2.44169741697417","-0.385977859778599","4.97970479704797","-0.966420664206642","0","358.75"
"1946","-1.96678966789668","-0.44169741697417","-0.385977859778599","4.97970479704797","-0.966420664206642","0","358.75"
"1951","-1.96678966789668","-0.44169741697417","-0.385977859778599","0.979704797047971","-2.96642066420664","0","358.75"
"1952","2.03321033210332","0.55830258302583","-1.3859778597786","0.979704797047971","-2.96642066420664","0","358.75"
"1957","2.03321033210332","0.55830258302583","-1.3859778597786","1.97970479704797","-2.96642066420664","0","358.75"
"1957","0.0332103321033213","2.55830258302583","0.614022140221401","1.97970479704797","-2.96642066420664","0","358.75"
"1963","0.0332103321033213","2.55830258302583","0.614022140221401","2.97970479704797","-0.966420664206642","0","358.75"
"1963","3.03321033210332","-0.44169741697417","0.614022140221401","2.97970479704797","-0.966420664206642","0","358.75"
"1969","3.03321033210332","-0.44169741697417","0.614022140221401","-0.0202952029520295","1.03357933579336","0","358.75"
"1969","3.03321033210332","-0.44169741697417","0.614022140221401","-0.0202952029520295","1.03357933579336","0","358.75"
"1975","3.03321033210332","-0.44169741697417","0.614022140221401","-1.02029520295203","0.0335793357933579","0","358.75"
"1975","1.03321033210332","0.55830258302583","0.614022140221401","-1.02029520295203","0.0335793357933579","0","358.75"
"1981","1.03321033210332","0.55830258302583","0.614022140221401","3.97970479704797","0.0335793357933579","0","358.75"
"1981","-1.96678966789668","-0.44169741697417","-0.385977859778599","3.97970479704797","0.0335793357933579","0","358.75"
"1987","-1.96678966789668","-0.44169741697417","-0.385977859778599","-1.02029520295203","0.0335793357933579","0","358.75"
"1987","0.0332103321033213","-3.44169741697417","-1.3859778597786","-1.02029520295203","0.0335793357933579","0","358.75"
"1993","0.0332103321033213","-3.44169741697417","-1.3859778597786","-3.02029520295203","-0.966420664206642","0","358.75"
"1993","3.03321033210332","-1.44169741697417","1.6140221402214","-3.02029520295203","-0.966420664206642","0","358.75"
"1999","3.03321033210332","-1.44169741697417","1.6140221402214","-5.02029520295203","2.03357933579336","0","358.75"
"1999","3.03321033210332","-1.44169741697417","1.6140221402214","-5.02029520295203","2.03357933579336","0","358.75"
"2005","3.03321033210332","-1.44169741697417","1.6140221402214","-1.02029520295203","1.03357933579336","0","358.75"
"2006","1.03321033210332","-0.44169741697417","0.614022140221401","-1.02029520295203","1.03357933579336","0","358.75"
"2012","1.03321033210332","-0.44169741697417","0.614022140221401","3.97970479704797","-0.966420664206642","0","358.75"
"2012","-1.96678966789668","-5.44169741697417","-0.385977859778599","3.97970479704797","-0.966420664206642","0","358.75"
"2018","-1.96678966789668","-5.44169741697417","-0.385977859778599","0.979704797047971","-1.96642066420664","0","358.75"
"2018","-0.966789667896679","-5.44169741697417","1.6140221402214","0.979704797047971","-1.96642066420664","0","358.75"
"2024","-0.966789667896679","-5.44169741697417","1.6140221402214","-2.02029520295203","2.03357933579336","0","358.75"
"2024","-1.96678966789668","-3.44169741697417","0.614022140221401","-2.02029520295203","2.03357933579336","0","358.75"
"2030","-1.96678966789668","-3.44169741697417","0.614022140221401","0.979704797047971","1.03357933579336","0","358.75"
"2030","-1.96678966789668","-3.44169741697417","0.614022140221401","0.979704797047971","1.03357933579336","0","358.75"
"2037","-1.96678966789668","-3.44169741697417","0.614022140221401","1.97970479704797","-0.966420664206642","0","358.75"
"2037","-2.96678966789668","-3.44169741697417","1.6140221402214","1.97970479704797","-0.966420664206642","0","358.75"
"2045","-2.96678966789668","-3.44169741697417","1.6140221402214","0.979704797047971","0.0335793357933579","0","358.75"
"2045","-1.96678966789668","-1.44169741697417","-0.385977859778599","0.979704797047971","0.0335793357933579","0","358.75"
"2052","-1.96678966789668","-1.44169741697417","-0.385977859778599","-0.0202952029520295","1.03357933579336","0","358.75"
"2052","-0.966789667896679","0.55830258302583","-0.385977859778599","-0.0202952029520295","1.03357933579336","0","358.75"
"2058","-0.966789667896679","0.55830258302583","-0.385977859778599","1.97970479704797","-0.966420664206642","0","358.75"
"2058","-1.96678966789668","-1.44169741697417","-0.385977859778599","1.97970479704797","-0.966420664206642","0","358.75"
"2066","-1.96678966789668","-1.44169741697417","-0.385977859778599","-1.02029520295203","2.03357933579336","0","358.75"
"2066","-1.96678966789668","-1.44169741697417","-0.385977859778599","-1.02029520295203","2.03357933579336","0","358.75"
"2072","-1.96678966789668","-1.44169741697417","-0.385977859778599","1.97970479704797","2.03357933579336","0","358.75"
"2072","0.0332103321033213","0.55830258302583","-0.385977859778599","1.97970479704797","2.03357933579336","0","358.75"
"2079","0.0332103321033213","0.55830258302583","-0.385977859778599","-0.0202952029520295","0.0335793357933579","0","358.75"
"2079","0.0332103321033213","0.55830258302583","-0.385977859778599","-0.0202952029520295","0.0335793357933579","0","358.75"
"2085","0.0332103321033213","0.55830258302583","-0.385977859778599","-0.0202952029520295","0.0335793357933579","0","358.75"
"2085","-2.96678966789668","0.55830258302583","-2.3859778597786","-0.0202952029520295","0.0335793357933579","0","358.75"
"2091","-2.96678966789668","0.55830258302583","-2.3859778597786","0.979704797047971","0.0335793357933579","0","358.75"
"2091","0.0332103321033213","-1.44169741697417","-0.385977859778599","0.979704797047971","0.0335793357933579","0","358.75"
"2098","0.0332103321033213","-1.44169741697417","-0.385977859778599","-0.0202952029520295","-0.966420664206642","0","358.75"
"2098","0.0332103321033213","-1.44169741697417","-0.385977859778599","-0.0202952029520295","-0.966420664206642","0","358.75"
"2103","0.0332103321033213","-1.44169741697417","-0.385977859778599","-1.02029520295203","3.03357933579336","0","358.75"
"2103","1.03321033210332","-0.44169741697417","-0.385977859778599","-1.02029520295203","3.03357933579336","0","358.75"
"2110","1.03321033210332","-0.44169741697417","-0.385977859778599","-2.02029520295203","-1.96642066420664","0","358.75"
"2110","0.0332103321033213","-1.44169741697417","0.614022140221401","-2.02029520295203","-1.96642066420664","0","358.75"
"2116","0.0332103321033213","-1.44169741697417","0.614022140221401","-3.02029520295203","3.03357933579336","0","358.75"
"2116","-0.966789667896679","-0.44169741697417","-1.3859778597786","-3.02029520295203","3.03357933579336","0","358.75"
"2122","-0.966789667896679","-0.44169741697417","-1.3859778597786","-3.02029520295203","1.03357933579336","0","358.75"
"2123","-1.96678966789668","-1.44169741697417","0.614022140221401","-3.02029520295203","1.03357933579336","0","358.75"
"2129","-1.96678966789668","-1.44169741697417","0.614022140221401","-0.0202952029520295","1.03357933579336","0","358.75"
"2130","-1.96678966789668","-1.44169741697417","0.614022140221401","-0.0202952029520295","1.03357933579336","0","358.75"
"2136","-1.96678966789668","-1.44169741697417","0.614022140221401","0.979704797047971","-0.966420664206642","0","358.75"
"2136","0.0332103321033213","-1.44169741697417","1.6140221402214","0.979704797047971","-0.966420664206642","0","358.75"
"2141","0.0332103321033213","-1.44169741697417","1.6140221402214","1.97970479704797","1.03357933579336","0","358.75"
"2141","0.0332103321033213","-0.44169741697417","-1.3859778597786","1.97970479704797","1.03357933579336","0","358.75"
"2148","0.0332103321033213","-0.44169741697417","-1.3859778597786","-0.0202952029520295","0.0335793357933579","0","358.75"
"2148","-0.966789667896679","-2.44169741697417","2.6140221402214","-0.0202952029520295","0.0335793357933579","0","358.75"
"2155","-0.966789667896679","-2.44169741697417","2.6140221402214","2.97970479704797","2.03357933579336","0","358.75"
"2155","0.0332103321033213","-2.44169741697417","-0.385977859778599","2.97970479704797","2.03357933579336","0","358.75"
"2161","0.0332103321033213","-2.44169741697417","-0.385977859778599","3.97970479704797","0.0335793357933579","0","358.75"
"2161","0.0332103321033213","-2.44169741697417","-0.385977859778599","3.97970479704797","0.0335793357933579","0","358.75"
"2167","0.0332103321033213","-2.44169741697417","-0.385977859778599","-1.02029520295203","1.03357933579336","0","358.75"
"2167","1.03321033210332","-0.44169741697417","3.6140221402214","-1.02029520295203","1.03357933579336","0","358.75"
"2173","1.03321033210332","-0.44169741697417","3.6140221402214","-2.02029520295203","-1.96642066420664","0","358.75"
"2173","1.03321033210332","-0.44169741697417","3.6140221402214","-2.02029520295203","-1.96642066420664","0","358.75"
"2179","1.03321033210332","-0.44169741697417","3.6140221402214","-3.02029520295203","-0.966420664206642","0","358.75"
"2179","0.0332103321033213","-0.44169741697417","-1.3859778597786","-3.02029520295203","-0.966420664206642","0","358.75"
"2185","0.0332103321033213","-0.44169741697417","-1.3859778597786","-1.02029520295203","-0.966420664206642","0","358.75"
"2185","-0.966789667896679","-2.44169741697417","1.6140221402214","-1.02029520295203","-0.966420664206642","0","358.75"
"2190","-0.966789667896679","-2.44169741697417","1.6140221402214","-2.02029520295203","-0.966420664206642","0","358.75"
"2191","-0.966789667896679","-2.44169741697417","1.6140221402214","-2.02029520295203","-0.966420664206642","0","358.75"
"2197","-0.966789667896679","-2.44169741697417","1.6140221402214","0.979704797047971","0.0335793357933579","0","358.75"
"2197","-0.966789667896679","1.55830258302583","-0.385977859778599","0.979704797047971","0.0335793357933579","0","358.75"
"2203","-0.966789667896679","1.55830258302583","-0.385977859778599","-0.0202952029520295","0.0335793357933579","0","358.75"
"2203","-0.966789667896679","1.55830258302583","-0.385977859778599","-0.0202952029520295","0.0335793357933579","0","358.75"
"2208","-0.966789667896679","1.55830258302583","-0.385977859778599","-0.0202952029520295","-0.966420664206642","0","358.75"
"2208","2.03321033210332","-3.44169741697417","0.614022140221401","-0.0202952029520295","-0.966420664206642","0","358.75"
"2215","2.03321033210332","-3.44169741697417","0.614022140221401","-2.02029520295203","-0.966420664206642","0","358.75"
"2215","-0.966789667896679","-7.44169741697417","1.6140221402214","-2.02029520295203","-0.966420664206642","0","358.75"
"2221","-0.966789667896679","-7.44169741697417","1.6140221402214","0.979704797047971","0.0335793357933579","0","358.75"
"2221","-0.966789667896679","-7.44169741697417","1.6140221402214","0.979704797047971","0.0335793357933579","0","358.75"
"2227","-0.966789667896679","-7.44169741697417","1.6140221402214","-7.02029520295203","3.03357933579336","0","358.75"
"2227","-0.966789667896679","-2.44169741697417","0.614022140221401","-7.02029520295203","3.03357933579336","0","358.75"
"2234","-0.966789667896679","-2.44169741697417","0.614022140221401","-2.02029520295203","1.03357933579336","0","358.75"
"2234","-1.96678966789668","-0.44169741697417","-3.3859778597786","-2.02029520295203","1.03357933579336","0","358.75"
"2241","-1.96678966789668","-0.44169741697417","-3.3859778597786","3.97970479704797","0.0335793357933579","0","358.75"
"2241","0.0332103321033213","0.55830258302583","-1.3859778597786","3.97970479704797","0.0335793357933579","0","358.75"
"2251","0.0332103321033213","0.55830258302583","-1.3859778597786","-1.02029520295203","1.03357933579336","0","358.75"
"2252","0.0332103321033213","-1.44169741697417","-0.385977859778599","-1.02029520295203","1.03357933579336","0","358.75"
"2261","0.0332103321033213","-1.44169741697417","-0.385977859778599","0.979704797047971","1.03357933579336","0","358.75"
"2261","1.03321033210332","0.55830258302583","0.614022140221401","0.979704797047971","1.03357933579336","0","358.75"
"2269","1.03321033210332","0.55830258302583","0.614022140221401","1.97970479704797","2.03357933579336","0","358.75"
"2269","0.0332103321033213","-2.44169741697417","-0.385977859778599","1.97970479704797","2.03357933579336","0","358.75"
"2275","0.0332103321033213","-2.44169741697417","-0.385977859778599","1.97970479704797","1.03357933579336","0","358.75"
"2275","-1.96678966789668","-3.44169741697417","-0.385977859778599","1.97970479704797","1.03357933579336","0","358.75"
"2283","-1.96678966789668","-3.44169741697417","-0.385977859778599","-0.0202952029520295","2.03357933579336","0","358.75"
"2283","-0.966789667896679","-1.44169741697417","-1.3859778597786","-0.0202952029520295","2.03357933579336","0","358.75"
"2289","-0.966789667896679","-1.44169741697417","-1.3859778597786","0.979704797047971","0.0335793357933579","0","358.75"
"2289","0.0332103321033213","-0.44169741697417","-0.385977859778599","0.979704797047971","0.0335793357933579","0","358.75"
"2296","0.0332103321033213","-0.44169741697417","-0.385977859778599","3.97970479704797","-0.966420664206642","0","358.75"
"2296","1.03321033210332","0.55830258302583","0.614022140221401","3.97970479704797","-0.966420664206642","0","358.75"
"2302","1.03321033210332","0.55830258302583","0.614022140221401","0.979704797047971","2.03357933579336","0","358.75"
"2302","-0.966789667896679","-3.44169741697417","1.6140221402214","0.979704797047971","2.03357933579336","0","358.75"
"2307","-0.966789667896679","-3.44169741697417","1.6140221402214","-3.02029520295203","-1.96642066420664","0","358.75"
"2307","2.03321033210332","-2.44169741697417","0.614022140221401","-3.02029520295203","-1.96642066420664","0","358.75"
"2313","2.03321033210332","-2.44169741697417","0.614022140221401","-1.02029520295203","-1.96642066420664","0","358.75"
"2313","2.03321033210332","-2.44169741697417","0.614022140221401","-1.02029520295203","-1.96642066420664","0","358.75"
"2319","2.03321033210332","-2.44169741697417","0.614022140221401","-0.0202952029520295","0.0335793357933579","0","358.75"
"2319","-0.966789667896679","2.55830258302583","-0.385977859778599","-0.0202952029520295","0.0335793357933579","0","358.75"
"2325","-0.966789667896679","2.55830258302583","-0.385977859778599","1.97970479704797","-1.96642066420664","0","358.75"
"2325","1.03321033210332","-0.44169741697417","-0.385977859778599","1.97970479704797","-1.96642066420664","0","358.75"
"2331","1.03321033210332","-0.44169741697417","-0.385977859778599","2.97970479704797","-0.966420664206642","0","358.75"
"2331","2.03321033210332","-2.44169741697417","1.6140221402214","2.97970479704797","-0.966420664206642","0","358.75"
"2336","2.03321033210332","-2.44169741697417","1.6140221402214","1.97970479704797","0.0335793357933579","0","358.75"
"2337","-0.966789667896679","0.55830258302583","-1.3859778597786","1.97970479704797","0.0335793357933579","0","358.75"
"2343","-0.966789667896679","0.55830258302583","-1.3859778597786","-1.02029520295203","0.0335793357933579","0","358.75"
"2343","-0.966789667896679","0.55830258302583","-5.3859778597786","-1.02029520295203","0.0335793357933579","0","358.75"
"2349","-0.966789667896679","0.55830258302583","-5.3859778597786","-0.0202952029520295","2.03357933579336","0","358.75"
"2349","0.0332103321033213","-1.44169741697417","0.614022140221401","-0.0202952029520295","2.03357933579336","0","358.75"
"2356","0.0332103321033213","-1.44169741697417","0.614022140221401","-1.02029520295203","-0.966420664206642","0","358.75"
"2356","0.0332103321033213","-0.44169741697417","-0.385977859778599","-1.02029520295203","-0.966420664206642","0","358.75"
"2362","0.0332103321033213","-0.44169741697417","-0.385977859778599","-1.02029520295203","0.0335793357933579","0","358.75"
"2362","-0.966789667896679","-0.44169741697417","1.6140221402214","-1.02029520295203","0.0335793357933579","0","358.75"
"2368","-0.966789667896679","-0.44169741697417","1.6140221402214","1.97970479704797","0.0335793357933579","0","358.75"
"2368","1.03321033210332","0.55830258302583","-3.3859778597786","1.97970479704797","0.0335793357933579","0","358.75"
"2374","1.03321033210332","0.55830258302583","-3.3859778597786","0.979704797047971","0.0335793357933579","0","358.75"
"2374","-0.966789667896679","-0.44169741697417","-1.3859778597786","0.979704797047971","0.0335793357933579","0","358.75"
"2381","-0.966789667896679","-0.44169741697417","-1.3859778597786","-1.02029520295203","0.0335793357933579","0","358.75"
"2382","0.0332103321033213","-2.44169741697417","2.6140221402214","-1.02029520295203","0.0335793357933579","0","358.75"
"2388","0.0332103321033213","-2.44169741697417","2.6140221402214","-0.0202952029520295","-0.966420664206642","0","358.75"
"2388","1.03321033210332","-0.44169741697417","0.614022140221401","-0.0202952029520295","-0.966420664206642","0","358.75"
"2394","1.03321033210332","-0.44169741697417","0.614022140221401","-0.0202952029520295","1.03357933579336","0","358.75"
"2394","-1.96678966789668","-5.44169741697417","1.6140221402214","-0.0202952029520295","1.03357933579336","0","358.75"
"2399","-1.96678966789668","-5.44169741697417","1.6140221402214","-0.0202952029520295","-0.966420664206642","0","358.75"
"2399","-0.966789667896679","-4.44169741697417","0.614022140221401","-0.0202952029520295","-0.966420664206642","0","358.75"
"2405","-0.966789667896679","-4.44169741697417","0.614022140221401","-1.02029520295203","-0.966420664206642","0","358.75"
"2405","-2.96678966789668","-2.44169741697417","-0.385977859778599","-1.02029520295203","-0.966420664206642","0","358.75"
"2411","-2.96678966789668","-2.44169741697417","-0.385977859778599","-0.0202952029520295","1.03357933579336","0","358.75"
"2411","-2.96678966789668","-1.44169741697417","-0.385977859778599","-0.0202952029520295","1.03357933579336","0","358.75"
"2417","-2.96678966789668","-1.44169741697417","-0.385977859778599","0.979704797047971","-0.966420664206642","0","358.75"
"2417","-1.96678966789668","-1.44169741697417","0.614022140221401","0.979704797047971","-0.966420664206642","0","358.75"
"2423","-1.96678966789668","-1.44169741697417","0.614022140221401","0.979704797047971","0.0335793357933579","0","358.75"
"2423","-2.96678966789668","-3.44169741697417","0.614022140221401","0.979704797047971","0.0335793357933579","0","358.75"
"2429","-2.96678966789668","-3.44169741697417","0.614022140221401","1.97970479704797","-1.96642066420664","0","358.75"
"2429","-0.966789667896679","0.55830258302583","1.6140221402214","1.97970479704797","-1.96642066420664","0","358.75"
"2434","-0.966789667896679","0.55830258302583","1.6140221402214","-3.02029520295203","-0.966420664206642","0","358.75"
"2435","-2.96678966789668","-0.44169741697417","-1.3859778597786","-3.02029520295203","-0.966420664206642","0","358.75"
"2440","-2.96678966789668","-0.44169741697417","-1.3859778597786","-2.02029520295203","-1.96642066420664","0","358.75"
"2440","-1.96678966789668","-1.44169741697417","1.6140221402214","-2.02029520295203","-1.96642066420664","0","358.75"
"2446","-1.96678966789668","-1.44169741697417","1.6140221402214","1.97970479704797","0.0335793357933579","0","358.75"
"2446","-0.966789667896679","-1.44169741697417","0.614022140221401","1.97970479704797","0.0335793357933579","0","358.75"
"2452","-0.966789667896679","-1.44169741697417","0.614022140221401","-1.02029520295203","-2.96642066420664","0","358.75"
"2452","-2.96678966789668","-1.44169741697417","0.614022140221401","-1.02029520295203","-2.96642066420664","0","358.75"
"2460","-2.96678966789668","-1.44169741697417","0.614022140221401","0.979704797047971","-0.966420664206642","0","358.75"
"2460","-0.966789667896679","-0.44169741697417","-1.3859778597786","0.979704797047971","-0.966420664206642","0","358.75"
"2467","-0.966789667896679","-0.44169741697417","-1.3859778597786","0.979704797047971","-0.966420664206642","0","358.75"
"2467","-1.96678966789668","-0.44169741697417","-0.385977859778599","0.979704797047971","-0.966420664206642","0","358.75"
"2473","-1.96678966789668","-0.44169741697417","-0.385977859778599","2.97970479704797","-0.966420664206642","0","358.75"
"2473","1.03321033210332","-2.44169741697417","0.614022140221401","2.97970479704797","-0.966420664206642","0","358.75"
"2481","1.03321033210332","-2.44169741697417","0.614022140221401","-0.0202952029520295","0.0335793357933579","0","358.75"
"2481","1.03321033210332","-2.44169741697417","3.6140221402214","-0.0202952029520295","0.0335793357933579","0","358.75"
"2490","1.03321033210332","-2.44169741697417","3.6140221402214","1.97970479704797","1.03357933579336","0","358.75"
"2490","-0.966789667896679","-0.44169741697417","-0.385977859778599","1.97970479704797","1.03357933579336","0","358.75"
"2498","-0.966789667896679","-0.44169741697417","-0.385977859778599","-1.02029520295203","1.03357933579336","0","358.75"
"2498","0.0332103321033213","-0.44169741697417","0.614022140221401","-1.02029520295203","1.03357933579336","0","358.75"
"2504","0.0332103321033213","-0.44169741697417","0.614022140221401","-3.02029520295203","4.03357933579336","0","358.75"
"2504","1.03321033210332","-2.44169741697417","-0.385977859778599","-3.02029520295203","4.03357933579336","0","358.75"
"2511","1.03321033210332","-2.44169741697417","-0.385977859778599","-3.02029520295203","0.0335793357933579","0","358.75"
"2511","1.03321033210332","-0.44169741697417","-2.3859778597786","-3.02029520295203","0.0335793357933579","0","358.75"
"2518","1.03321033210332","-0.44169741697417","-2.3859778597786","-0.0202952029520295","3.03357933579336","0","358.75"
"2518","1.03321033210332","-2.44169741697417","0.614022140221401","-0.0202952029520295","3.03357933579336","0","358.75"
"2523","1.03321033210332","-2.44169741697417","0.614022140221401","-0.0202952029520295","3.03357933579336","0","358.75"
"2523","-0.966789667896679","-1.44169741697417","-0.385977859778599","-0.0202952029520295","3.03357933579336","0","358.75"
"2530","-0.966789667896679","-1.44169741697417","-0.385977859778599","-1.02029520295203","2.03357933579336","0","358.75"
"2530","2.03321033210332","-2.44169741697417","-1.3859778597786","-1.02029520295203","2.03357933579336","0","358.75"
"2536","2.03321033210332","-2.44169741697417","-1.3859778597786","-2.02029520295203","2.03357933579336","0","358.75"
"2536","-0.966789667896679","-0.44169741697417","-0.385977859778599","-2.02029520295203","2.03357933579336","0","358.75"
"2542","-0.966789667896679","-0.44169741697417","-0.385977859778599","-4.02029520295203","2.03357933579336","0","358.75"
"2542","0.0332103321033213","-2.44169741697417","-1.3859778597786","-4.02029520295203","2.03357933579336","0","358.75"
"2548","0.0332103321033213","-2.44169741697417","-1.3859778597786","-0.0202952029520295","0.0335793357933579","0","358.75"
"2548","-0.966789667896679","-0.44169741697417","0.614022140221401","-0.0202952029520295","0.0335793357933579","0","358.75"
"2553","-0.966789667896679","-0.44169741697417","0.614022140221401","-1.02029520295203","-0.966420664206642","0","358.75"
"2554","0.0332103321033213","-0.44169741697417","2.6140221402214","-1.02029520295203","-0.966420664206642","0","358.75"
"2559","0.0332103321033213","-0.44169741697417","2.6140221402214","-1.02029520295203","1.03357933579336","0","358.75"
"2559","0.0332103321033213","-1.44169741697417","-1.3859778597786","-1.02029520295203","1.03357933579336","0","358.75"
"2565","0.0332103321033213","-1.44169741697417","-1.3859778597786","-0.0202952029520295","1.03357933579336","0","358.75"
"2565","-1.96678966789668","0.55830258302583","-1.3859778597786","-0.0202952029520295","1.03357933579336","0","358.75"
"2571","-1.96678966789668","0.55830258302583","-1.3859778597786","3.97970479704797","2.03357933579336","0","358.75"
"2571","-0.966789667896679","-0.44169741697417","-0.385977859778599","3.97970479704797","2.03357933579336","0","358.75"
"2579","-0.966789667896679","-0.44169741697417","-0.385977859778599","1.97970479704797","1.03357933579336","0","358.75"
"2579","1.03321033210332","-0.44169741697417","1.6140221402214","1.97970479704797","1.03357933579336","0","358.75"
"2585","1.03321033210332","-0.44169741697417","1.6140221402214","0.979704797047971","-0.966420664206642","0","358.75"
"2586","-2.96678966789668","-0.44169741697417","2.6140221402214","0.979704797047971","-0.966420664206642","0","358.75"
"2592","-2.96678966789668","-0.44169741697417","2.6140221402214","1.97970479704797","1.03357933579336","0","358.75"
"2592","-1.96678966789668","1.55830258302583","-0.385977859778599","1.97970479704797","1.03357933579336","0","358.75"
"2598","-1.96678966789668","1.55830258302583","-0.385977859778599","-0.0202952029520295","0.0335793357933579","0","358.75"
"2598","0.0332103321033213","1.55830258302583","-2.3859778597786","-0.0202952029520295","0.0335793357933579","0","358.75"
"2604","0.0332103321033213","1.55830258302583","-2.3859778597786","1.97970479704797","-0.966420664206642","0","358.75"
"2604","-0.966789667896679","-1.44169741697417","-0.385977859778599","1.97970479704797","-0.966420664206642","0","358.75"
"2610","-0.966789667896679","-1.44169741697417","-0.385977859778599","3.97970479704797","-1.96642066420664","0","358.75"
"2610","1.03321033210332","-0.44169741697417","0.614022140221401","3.97970479704797","-1.96642066420664","0","358.75"
"2615","1.03321033210332","-0.44169741697417","0.614022140221401","3.97970479704797","-1.96642066420664","0","358.75"
"2616","1.03321033210332","0.55830258302583","-1.3859778597786","3.97970479704797","-1.96642066420664","0","358.75"
"2621","1.03321033210332","0.55830258302583","-1.3859778597786","-2.02029520295203","0.0335793357933579","0","358.75"
"2621","0.0332103321033213","-1.44169741697417","0.614022140221401","-2.02029520295203","0.0335793357933579","0","358.75"
"2627","0.0332103321033213","-1.44169741697417","0.614022140221401","2.97970479704797","3.03357933579336","0","358.75"
"2627","0.0332103321033213","-0.44169741697417","-0.385977859778599","2.97970479704797","3.03357933579336","0","358.75"
"2633","0.0332103321033213","-0.44169741697417","-0.385977859778599","-2.02029520295203","1.03357933579336","0","358.75"
"2633","-0.966789667896679","-0.44169741697417","-0.385977859778599","-2.02029520295203","1.03357933579336","0","358.75"
"2638","-0.966789667896679","-0.44169741697417","-0.385977859778599","0.979704797047971","-0.966420664206642","0","358.75"
"2638","0.0332103321033213","-1.44169741697417","-0.385977859778599","0.979704797047971","-0.966420664206642","0","358.75"
"2644","0.0332103321033213","-1.44169741697417","-0.385977859778599","-1.02029520295203","2.03357933579336","0","358.75"
"2644","1.03321033210332","-1.44169741697417","1.6140221402214","-1.02029520295203","2.03357933579336","0","358.75"
"2650","1.03321033210332","-1.44169741697417","1.6140221402214","2.97970479704797","-0.966420664206642","0","358.75"
"2650","0.0332103321033213","-0.44169741697417","-1.3859778597786","2.97970479704797","-0.966420664206642","0","358.75"
"2655","0.0332103321033213","-0.44169741697417","-1.3859778597786","4.97970479704797","-0.966420664206642","0","358.75"
"2655","1.03321033210332","-0.44169741697417","-1.3859778597786","4.97970479704797","-0.966420664206642","0","358.75"
"2661","1.03321033210332","-0.44169741697417","-1.3859778597786","1.97970479704797","1.03357933579336","0","358.75"
"2661","1.03321033210332","-1.44169741697417","0.614022140221401","1.97970479704797","1.03357933579336","0","358.75"
"2667","1.03321033210332","-1.44169741697417","0.614022140221401","0.979704797047971","0.0335793357933579","0","358.75"
"2667","0.0332103321033213","-2.44169741697417","-0.385977859778599","0.979704797047971","0.0335793357933579","0","358.75"
"2673","0.0332103321033213","-2.44169741697417","-0.385977859778599","-2.02029520295203","-0.966420664206642","0","358.75"
"2673","0.0332103321033213","-0.44169741697417","0.614022140221401","-2.02029520295203","-0.966420664206642","0","358.75"
"2680","0.0332103321033213","-0.44169741697417","0.614022140221401","-0.0202952029520295","4.03357933579336","0","358.75"
"2680","1.03321033210332","-0.44169741697417","1.6140221402214","-0.0202952029520295","4.03357933579336","0","358.75"
"2687","1.03321033210332","-0.44169741697417","1.6140221402214","0.979704797047971","4.03357933579336","0","358.75"
"2687","2.03321033210332","-1.44169741697417","-0.385977859778599","0.979704797047971","4.03357933579336","0","358.75"
"2695","2.03321033210332","-1.44169741697417","-0.385977859778599","0.979704797047971","4.03357933579336","0","358.75"
"2695","-0.966789667896679","0.55830258302583","-0.385977859778599","0.979704797047971","4.03357933579336","0","358.75"
"2703","-0.966789667896679","0.55830258302583","-0.385977859778599","1.97970479704797","1.03357933579336","0","358.75"
"2703","3.03321033210332","-0.44169741697417","-0.385977859778599","1.97970479704797","1.03357933579336","0","358.75"
"2710","3.03321033210332","-0.44169741697417","-0.385977859778599","1.97970479704797","2.03357933579336","0","358.75"
"2710","2.03321033210332","-1.44169741697417","-1.3859778597786","1.97970479704797","2.03357933579336","0","358.75"
"2718","2.03321033210332","-1.44169741697417","-1.3859778597786","-0.0202952029520295","1.03357933579336","0","358.75"
"2718","2.03321033210332","-0.44169741697417","0.614022140221401","-0.0202952029520295","1.03357933579336","0","358.75"
"2726","2.03321033210332","-0.44169741697417","0.614022140221401","1.97970479704797","1.03357933579336","0","358.75"
"2726","-0.966789667896679","-0.44169741697417","-0.385977859778599","1.97970479704797","1.03357933579336","0","358.75"
"2733","-0.966789667896679","-0.44169741697417","-0.385977859778599","1.97970479704797","2.03357933579336","0","358.75"
"2733","-0.966789667896679","0.55830258302583","-0.385977859778599","1.97970479704797","2.03357933579336","0","358.75"
"2738","-0.966789667896679","0.55830258302583","-0.385977859778599","1.97970479704797","1.03357933579336","0","358.75"
"2738","-0.966789667896679","-0.44169741697417","0.614022140221401","1.97970479704797","1.03357933579336","0","358.75"
"2745","-0.966789667896679","-0.44169741697417","0.614022140221401","0.979704797047971","0.0335793357933579","0","358.75"
"2745","-0.966789667896679","-2.44169741697417","1.6140221402214","0.979704797047971","0.0335793357933579","0","358.75"
"2751","-0.966789667896679","-2.44169741697417","1.6140221402214","-1.02029520295203","1.03357933579336","0","358.75"
"2751","-1.96678966789668","-1.44169741697417","2.6140221402214","-1.02029520295203","1.03357933579336","0","358.75"
"2757","-1.96678966789668","-1.44169741697417","2.6140221402214","0.979704797047971","4.03357933579336","0","358.75"
"2757","-2.96678966789668","-1.44169741697417","-0.385977859778599","0.979704797047971","4.03357933579336","0","358.75"
"2763","-2.96678966789668","-1.44169741697417","-0.385977859778599","-0.0202952029520295","1.03357933579336","0","358.75"
"2763","-0.966789667896679","-1.44169741697417","0.614022140221401","-0.0202952029520295","1.03357933579336","0","358.75"
"2769","-0.966789667896679","-1.44169741697417","0.614022140221401","-2.02029520295203","0.0335793357933579","0","358.75"
"2769","-0.966789667896679","-1.44169741697417","1.6140221402214","-2.02029520295203","0.0335793357933579","0","358.75"
"2774","-0.966789667896679","-1.44169741697417","1.6140221402214","-0.0202952029520295","2.03357933579336","0","358.75"
"2774","-1.96678966789668","-1.44169741697417","0.614022140221401","-0.0202952029520295","2.03357933579336","0","358.75"
"2780","-1.96678966789668","-1.44169741697417","0.614022140221401","0.979704797047971","3.03357933579336","0","358.75"
"2780","-1.96678966789668","-0.44169741697417","-0.385977859778599","0.979704797047971","3.03357933579336","0","358.75"
"2786","-1.96678966789668","-0.44169741697417","-0.385977859778599","-0.0202952029520295","1.03357933579336","0","358.75"
"2786","-0.966789667896679","-3.44169741697417","-1.3859778597786","-0.0202952029520295","1.03357933579336","0","358.75"
"2792","-0.966789667896679","-3.44169741697417","-1.3859778597786","-2.02029520295203","0.0335793357933579","0","358.75"
"2792","0.0332103321033213","-3.44169741697417","-1.3859778597786","-2.02029520295203","0.0335793357933579","0","358.75"
"2798","0.0332103321033213","-3.44169741697417","-1.3859778597786","0.979704797047971","-2.96642066420664","0","358.75"
"2798","-0.966789667896679","0.55830258302583","-0.385977859778599","0.979704797047971","-2.96642066420664","0","358.75"
"2805","-0.966789667896679","0.55830258302583","-0.385977859778599","-1.02029520295203","-0.966420664206642","0","358.75"
"2805","0.0332103321033213","1.55830258302583","2.6140221402214","-1.02029520295203","-0.966420664206642","0","358.75"
"2811","0.0332103321033213","1.55830258302583","2.6140221402214","-1.02029520295203","-0.966420664206642","0","358.75"
"2811","-1.96678966789668","-1.44169741697417","2.6140221402214","-1.02029520295203","-0.966420664206642","0","358.75"
"2817","-1.96678966789668","-1.44169741697417","2.6140221402214","-2.02029520295203","1.03357933579336","0","358.75"
"2817","-0.966789667896679","-0.44169741697417","-1.3859778597786","-2.02029520295203","1.03357933579336","0","358.75"
"2823","-0.966789667896679","-0.44169741697417","-1.3859778597786","-0.0202952029520295","-0.966420664206642","0","358.75"
"2823","0.0332103321033213","0.55830258302583","0.614022140221401","-0.0202952029520295","-0.966420664206642","0","358.75"
"2829","0.0332103321033213","0.55830258302583","0.614022140221401","1.97970479704797","-4.96642066420664","0","358.75"
"2829","2.03321033210332","-0.44169741697417","-0.385977859778599","1.97970479704797","-4.96642066420664","0","358.75"
"2834","2.03321033210332","-0.44169741697417","-0.385977859778599","-3.02029520295203","-3.96642066420664","0","358.75"
"2834","1.03321033210332","-0.44169741697417","4.6140221402214","-3.02029520295203","-3.96642066420664","0","358.75"
"2840","1.03321033210332","-0.44169741697417","4.6140221402214","-4.02029520295203","0.0335793357933579","0","358.75"
"2840","2.03321033210332","-1.44169741697417","-0.385977859778599","-4.02029520295203","0.0335793357933579","0","358.75"
"2846","2.03321033210332","-1.44169741697417","-0.385977859778599","-2.02029520295203","1.03357933579336","0","358.75"
"2846","1.03321033210332","-0.44169741697417","-1.3859778597786","-2.02029520295203","1.03357933579336","0","358.75"
"2852","1.03321033210332","-0.44169741697417","-1.3859778597786","-1.02029520295203","-0.966420664206642","0","358.75"
"2852","2.03321033210332","0.55830258302583","-1.3859778597786","-1.02029520295203","-0.966420664206642","0","358.75"
"2857","2.03321033210332","0.55830258302583","-1.3859778597786","-0.0202952029520295","0.0335793357933579","0","358.75"
"2858","1.03321033210332","-0.44169741697417","1.6140221402214","-0.0202952029520295","0.0335793357933579","0","358.75"
"2863","1.03321033210332","-0.44169741697417","1.6140221402214","-3.02029520295203","2.03357933579336","0","358.75"
"2863","2.03321033210332","-1.44169741697417","-0.385977859778599","-3.02029520295203","2.03357933579336","0","358.75"
"2869","2.03321033210332","-1.44169741697417","-0.385977859778599","-1.02029520295203","-1.96642066420664","0","358.75"
"2869","2.03321033210332","-1.44169741697417","-1.3859778597786","-1.02029520295203","-1.96642066420664","0","358.75"
"2875","2.03321033210332","-1.44169741697417","-1.3859778597786","-1.02029520295203","-0.966420664206642","0","358.75"
"2875","1.03321033210332","-1.44169741697417","-0.385977859778599","-1.02029520295203","-0.966420664206642","0","358.75"
"2882","1.03321033210332","-1.44169741697417","-0.385977859778599","-1.02029520295203","2.03357933579336","0","358.75"
"2882","1.03321033210332","-0.44169741697417","-0.385977859778599","-1.02029520295203","2.03357933579336","0","358.75"
"2887","1.03321033210332","-0.44169741697417","-0.385977859778599","0.979704797047971","0.0335793357933579","0","358.75"
"2887","0.0332103321033213","-2.44169741697417","-0.385977859778599","0.979704797047971","0.0335793357933579","0","358.75"
"2893","0.0332103321033213","-2.44169741697417","-0.385977859778599","-0.0202952029520295","0.0335793357933579","0","358.75"
"2893","1.03321033210332","-3.44169741697417","1.6140221402214","-0.0202952029520295","0.0335793357933579","0","358.75"
"2900","1.03321033210332","-3.44169741697417","1.6140221402214","-0.0202952029520295","2.03357933579336","0","358.75"
"2900","-1.96678966789668","-1.44169741697417","-1.3859778597786","-0.0202952029520295","2.03357933579336","0","358.75"
"2906","-1.96678966789668","-1.44169741697417","-1.3859778597786","-1.02029520295203","3.03357933579336","0","358.75"
"2907","-0.966789667896679","-1.44169741697417","-0.385977859778599","-1.02029520295203","3.03357933579336","0","358.75"
"2914","-0.966789667896679","-1.44169741697417","-0.385977859778599","-2.02029520295203","1.03357933579336","0","358.75"
"2914","-3.96678966789668","-0.44169741697417","-2.3859778597786","-2.02029520295203","1.03357933579336","0","358.75"
"2921","-3.96678966789668","-0.44169741697417","-2.3859778597786","-0.0202952029520295","2.03357933579336","0","358.75"
"2921","-3.96678966789668","-0.44169741697417","-0.385977859778599","-0.0202952029520295","2.03357933579336","0","358.75"
"2929","-3.96678966789668","-0.44169741697417","-0.385977859778599","0.979704797047971","-0.966420664206642","0","358.75"
"2929","-1.96678966789668","1.55830258302583","-1.3859778597786","0.979704797047971","-0.966420664206642","0","358.75"
"2935","-1.96678966789668","1.55830258302583","-1.3859778597786","-1.02029520295203","3.03357933579336","0","358.75"
"2936","-1.96678966789668","-0.44169741697417","-0.385977859778599","-1.02029520295203","3.03357933579336","0","358.75"
"2942","-1.96678966789668","-0.44169741697417","-0.385977859778599","-1.02029520295203","-0.966420664206642","0","358.75"
"2942","-3.96678966789668","-0.44169741697417","-1.3859778597786","-1.02029520295203","-0.966420664206642","0","358.75"
"2948","-3.96678966789668","-0.44169741697417","-1.3859778597786","-4.02029520295203","2.03357933579336","0","358.75"
"2948","-3.96678966789668","1.55830258302583","-0.385977859778599","-4.02029520295203","2.03357933579336","0","358.75"
"2954","-3.96678966789668","1.55830258302583","-0.385977859778599","-2.02029520295203","0.0335793357933579","0","358.75"
"2954","-2.96678966789668","-0.44169741697417","-0.385977859778599","-2.02029520295203","0.0335793357933579","0","358.75"
"2961","-2.96678966789668","-0.44169741697417","-0.385977859778599","-1.02029520295203","0.0335793357933579","0","358.75"
"2961","-0.966789667896679","-1.44169741697417","1.6140221402214","-1.02029520295203","0.0335793357933579","0","358.75"
"2967","-0.966789667896679","-1.44169741697417","1.6140221402214","-0.0202952029520295","0.0335793357933579","0","358.75"
"2967","-0.966789667896679","-0.44169741697417","-0.385977859778599","-0.0202952029520295","0.0335793357933579","0","358.75"
"2972","-0.966789667896679","-0.44169741697417","-0.385977859778599","-2.02029520295203","-1.96642066420664","0","358.75"
"2972","-0.966789667896679","-0.44169741697417","-0.385977859778599","-2.02029520295203","-1.96642066420664","0","358.75"
"2978","-0.966789667896679","-0.44169741697417","-0.385977859778599","-2.02029520295203","0.0335793357933579","0","358.75"
"2978","-0.966789667896679","-1.44169741697417","-0.385977859778599","-2.02029520295203","0.0335793357933579","0","358.75"
"2984","-0.966789667896679","-1.44169741697417","-0.385977859778599","-1.02029520295203","0.0335793357933579","0","358.75"
"2984","0.0332103321033213","-3.44169741697417","-0.385977859778599","-1.02029520295203","0.0335793357933579","0","358.75"
"2990","0.0332103321033213","-3.44169741697417","-0.385977859778599","-0.0202952029520295","-1.96642066420664","0","358.75"
"2990","-0.966789667896679","-2.44169741697417","0.614022140221401","-0.0202952029520295","-1.96642066420664","0","358.75"
"2996","-0.966789667896679","-2.44169741697417","0.614022140221401","-2.02029520295203","-2.96642066420664","0","358.75"
"2996","1.03321033210332","-0.44169741697417","1.6140221402214","-2.02029520295203","-2.96642066420664","0","358.75"
"3002","1.03321033210332","-0.44169741697417","1.6140221402214","-1.02029520295203","2.03357933579336","0","358.75"
"3002","-0.966789667896679","-2.44169741697417","-0.385977859778599","-1.02029520295203","2.03357933579336","0","358.75"
"3008","-0.966789667896679","-2.44169741697417","-0.385977859778599","-3.02029520295203","0.0335793357933579","0","358.75"
"3008","2.03321033210332","-2.44169741697417","1.6140221402214","-3.02029520295203","0.0335793357933579","0","358.75"
"3013","2.03321033210332","-2.44169741697417","1.6140221402214","-2.02029520295203","0.0335793357933579","0","358.75"
"3014","1.03321033210332","-1.44169741697417","0.614022140221401","-2.02029520295203","0.0335793357933579","0","358.75"
"3019","1.03321033210332","-1.44169741697417","0.614022140221401","-2.02029520295203","-1.96642066420664","0","358.75"
"3019","1.03321033210332","1.55830258302583","-0.385977859778599","-2.02029520295203","-1.96642066420664","0","358.75"
"3025","1.03321033210332","1.55830258302583","-0.385977859778599","-1.02029520295203","0.0335793357933579","0","358.75"
"3025","1.03321033210332","-1.44169741697417","-1.3859778597786","-1.02029520295203","0.0335793357933579","0","358.75"
"3031","1.03321033210332","-1.44169741697417","-1.3859778597786","-4.02029520295203","2.03357933579336","0","358.75"
"3031","1.03321033210332","-2.44169741697417","-0.385977859778599","-4.02029520295203","2.03357933579336","0","358.75"
"3036","1.03321033210332","-2.44169741697417","-0.385977859778599","-3.02029520295203","2.03357933579336","0","358.75"
"3036","0.0332103321033213","-2.44169741697417","-2.3859778597786","-3.02029520295203","2.03357933579336","0","358.75"
"3042","0.0332103321033213","-2.44169741697417","-2.3859778597786","-2.02029520295203","2.03357933579336","0","358.75"
"3042","0.0332103321033213","0.55830258302583","-0.385977859778599","-2.02029520295203","2.03357933579336","0","358.75"
"3048","0.0332103321033213","0.55830258302583","-0.385977859778599","-1.02029520295203","3.03357933579336","0","358.75"
"3048","2.03321033210332","-3.44169741697417","2.6140221402214","-1.02029520295203","3.03357933579336","0","358.75"
"3054","2.03321033210332","-3.44169741697417","2.6140221402214","3.97970479704797","0.0335793357933579","0","358.75"
"3054","1.03321033210332","-2.44169741697417","-0.385977859778599","3.97970479704797","0.0335793357933579","0","358.75"
"3060","1.03321033210332","-2.44169741697417","-0.385977859778599","0.979704797047971","1.03357933579336","0","358.75"
"3060","-0.966789667896679","0.55830258302583","-0.385977859778599","0.979704797047971","1.03357933579336","0","358.75"
"3066","-0.966789667896679","0.55830258302583","-0.385977859778599","-1.02029520295203","1.03357933579336","0","358.75"
"3066","-0.966789667896679","-3.44169741697417","1.6140221402214","-1.02029520295203","1.03357933579336","0","358.75"
"3072","-0.966789667896679","-3.44169741697417","1.6140221402214","-1.02029520295203","-1.96642066420664","0","358.75"
"3072","-0.966789667896679","-2.44169741697417","-0.385977859778599","-1.02029520295203","-1.96642066420664","0","358.75"
"3078","-0.966789667896679","-2.44169741697417","-0.385977859778599","-4.02029520295203","1.03357933579336","0","358.75"
"3078","-1.96678966789668","0.55830258302583","-0.385977859778599","-4.02029520295203","1.03357933579336","0","358.75"
"3084","-1.96678966789668","0.55830258302583","-0.385977859778599","-1.02029520295203","1.03357933579336","0","358.75"
"3084","-0.966789667896679","-0.44169741697417","2.6140221402214","-1.02029520295203","1.03357933579336","0","358.75"
"3089","-0.966789667896679","-0.44169741697417","2.6140221402214","0.979704797047971","4.03357933579336","0","358.75"
"3089","-0.966789667896679","-2.44169741697417","-1.3859778597786","0.979704797047971","4.03357933579336","0","358.75"
"3095","-0.966789667896679","-2.44169741697417","-1.3859778597786","-2.02029520295203","0.0335793357933579","0","358.75"
"3095","-0.966789667896679","2.55830258302583","-1.3859778597786","-2.02029520295203","0.0335793357933579","0","358.75"
"3101","-0.966789667896679","2.55830258302583","-1.3859778597786","0.979704797047971","-0.966420664206642","0","358.75"
"3101","0.0332103321033213","-0.44169741697417","1.6140221402214","0.979704797047971","-0.966420664206642","0","358.75"
"3108","0.0332103321033213","-0.44169741697417","1.6140221402214","-0.0202952029520295","0.0335793357933579","0","358.75"
"3108","-1.96678966789668","-0.44169741697417","-0.385977859778599","-0.0202952029520295","0.0335793357933579","0","358.75"
"3117","-1.96678966789668","-0.44169741697417","-0.385977859778599","3.97970479704797","2.03357933579336","0","358.75"
"3117","1.03321033210332","-1.44169741697417","1.6140221402214","3.97970479704797","2.03357933579336","0","358.75"
"3124","1.03321033210332","-1.44169741697417","1.6140221402214","1.97970479704797","-2.96642066420664","0","358.75"
"3124","-0.966789667896679","1.55830258302583","-0.385977859778599","1.97970479704797","-2.96642066420664","0","358.75"
"3130","-0.966789667896679","1.55830258302583","-0.385977859778599","-0.0202952029520295","0.0335793357933579","0","358.75"
"3130","-1.96678966789668","-2.44169741697417","0.614022140221401","-0.0202952029520295","0.0335793357933579","0","358.75"
"3137","-1.96678966789668","-2.44169741697417","0.614022140221401","-2.02029520295203","-1.96642066420664","0","358.75"
"3137","-0.966789667896679","-2.44169741697417","0.614022140221401","-2.02029520295203","-1.96642066420664","0","358.75"
"3145","-0.966789667896679","-2.44169741697417","0.614022140221401","-1.02029520295203","-0.966420664206642","0","358.75"
"3145","-0.966789667896679","-3.44169741697417","1.6140221402214","-1.02029520295203","-0.966420664206642","0","358.75"
"3152","-0.966789667896679","-3.44169741697417","1.6140221402214","1.97970479704797","1.03357933579336","0","358.75"
"3152","-1.96678966789668","-0.44169741697417","-2.3859778597786","1.97970479704797","1.03357933579336","0","358.75"
"3158","-1.96678966789668","-0.44169741697417","-2.3859778597786","0.979704797047971","2.03357933579336","0","358.75"
"3158","-1.96678966789668","-0.44169741697417","-2.3859778597786","0.979704797047971","2.03357933579336","0","358.75"
"3164","-1.96678966789668","-0.44169741697417","-2.3859778597786","-0.0202952029520295","1.03357933579336","0","358.75"
"3164","-1.96678966789668","-1.44169741697417","-0.385977859778599","-0.0202952029520295","1.03357933579336","0","358.75"
"3170","-1.96678966789668","-1.44169741697417","-0.385977859778599","-2.02029520295203","-3.96642066420664","0","358.75"
"3170","-1.96678966789668","-0.44169741697417","2.6140221402214","-2.02029520295203","-3.96642066420664","0","358.75"
"3176","-1.96678966789668","-0.44169741697417","2.6140221402214","-0.0202952029520295","-0.966420664206642","0","358.75"
"3176","0.0332103321033213","0.55830258302583","-0.385977859778599","-0.0202952029520295","-0.966420664206642","0","358.75"
"3182","0.0332103321033213","0.55830258302583","-0.385977859778599","0.979704797047971","2.03357933579336","0","358.75"
"3182","-0.966789667896679","-0.44169741697417","-0.385977859778599","0.979704797047971","2.03357933579336","0","358.75"
