Timer,AX,AY,AZ,GX,GY,GZ
"1002","4.62796634740354","7.00292060996086","-25.6687680208286","-0.108997719498579","0.0562052780466944","0.441613051158827"
"1010","4.47614354479654","7.42066498634912","-25.7370654488077","0.0501698732306053","0.00991970842414942","0.399779676795427"
"1010","4.35268903419425","7.80421945508692","-25.8697743149394","0.148459774193837","-0.0217623626187616","0.358034095234079"
"1019","4.21773648512849","8.20086180355586","-25.9775611392057","0.197344648056671","-0.171936021913182","0.411338776688783"
"1019","4.21472419687296","7.84596013931958","-25.9737419166201","0.254773415026127","-0.294187484653025","0.46193903531405"
"1027","4.17223353195487","7.75755717790886","-26.0032807110559","-0.181082814347604","-0.372972656705007","0.487993148355251"
"1027","4.11761359511746","7.72358601671241","-26.0407832290834","-0.450990597694329","-0.452431903820022","0.512990514645282"
"1039","4.05926672836177","7.70073243638251","-26.0801869862242","-0.328771391654058","-0.563297556383182","0.538951117670635"
"1039","4.30446600922359","7.71606464059993","-26.0495941450263","-0.315889107701991","-0.668129774642674","0.563802963197089"
"1051","4.46293604655853","7.71919621110821","-26.0422904832492","-0.505165599137731","-0.739173441500742","0.541068061896773"
"1051","4.89944807354976","7.43251549174943","-25.8996458332583","-0.641182910209622","-0.815190266920797","0.518742659551177"
"1060","5.2413941832952","7.24664122089557","-25.8046901992694","-0.623382925075492","-0.924524155841981","0.49701031465431"
"1060","5.62199216528072","7.04544141341176","-25.7915702225804","-0.650019079380375","-1.02867524494267","0.475499304083598"
"1068","5.97446672481487","6.86111139726042","-25.7579874950899","-0.722305075914274","-1.0994160327498","0.431511670370591"
"1072","6.28444519680884","6.68022700055611","-25.64906904377","-0.785145702283101","-1.17529815495621","0.388052657552669"
"1076","6.60136587755156","6.50004636438681","-25.5621651218304","-0.739674986888083","-1.22236145981017","0.276879999738389"
"1076","6.92041969378772","6.32000946982863","-25.4805168960101","-0.729161772693037","-1.27660808375595","0.167214467963289"
"1088","7.2401289594922","6.14000193419261","-25.4001234025178","-0.762106859353208","-1.27183868971171","0.126909707928414"
"1092","7.35691207748935","5.85225526903315","-25.3552547086314","-0.785099872936776","-1.28082292123623","0.086647233097006"
"1100","7.53134199006084","5.60250311295954","-25.2988671204821","-0.841167713755753","-1.23371316729328","0.0464208422434984"
"1100","7.75733964953057","5.36051125556455","-25.2749547868613","-0.884882734527129","-1.20165656339212","0.00622535732416857"
"1109","7.97918255295733","5.12010442287524","-25.2387955178757","-1.0318691710181","-1.08297857677729","0.0340864430882346"
"1109","8.16589423136767","5.05959653818899","-25.1997124448169","-1.14273283275731","-0.985777197329477","0.0608961486236456"
"1121","8.36181112302898","4.93583263577973","-25.159931349763","-1.06836544953464","-0.898127175164306","0.109467379898586"
"1121","8.45899273058382","5.05055411866144","-25.1199836106065","-1.05117108119992","-0.814724957376763","0.156893001538184"
"1125","8.58583590456463","5.07398574058356","-25.0799960872354","-0.834940613233114","-0.733211878640002","0.180645385887494"
"1129","8.72179320092691","5.07877160014631","-25.0399990658759","-0.6926913146893","-0.652538962499237","0.203897127138253"
"1141","8.86055099762661","5.07974910190997","-24.9999997769895","-0.602922919331477","-0.603345033188195","0.181370780135376"
"1141","8.49235043540535","4.97220362857046","-25.0304504423776","-0.505288552909655","-0.548150850101876","0.159182248165386"
"1150","8.26837655834419","4.9024925655035","-25.0377201614411","-0.441211338162186","-0.334761462050822","0.182631786798642"
"1150","8.05486468606585","4.62501884922555","-25.004230468983","-0.364892820859067","-0.151017435985084","0.205620441206152"
"1158","7.86456747853504","4.42511004740572","-24.9810099720522","-0.462623164563581","0.0817529949393163","0.182864126110135"
"1162","7.51213049448582","4.63610917852898","-25.2068178529786","-0.500595077820737","0.296327089051621","0.160476211439327"
"1170","7.20987275097733","4.71103539190109","-25.3520781735409","-0.170992028752097","0.409492654327216","0.251768987797329"
"1170","7.02459737845","5.65604504780493","-25.3372077708507","0.0435974622076819","0.537558493985347","0.3415529531746"
"1178","6.81526722979541","6.27876741935703","-25.3641081420783","0.125467352980711","0.51672428457924","0.293997434026957"
"1178","6.59854575964638","6.83566328999975","-25.4009807680194","0.236651349051563","0.529669300310721","0.247451320241755"
"1191","6.37955315493576","7.3791142360911","-25.4402341462125","0.354613014337752","0.557637054294611","0.26979604331864"
"1191","6.09215351507337","7.12968816042343","-25.480055899507","0.474141734102521","0.59228591667223","0.291827479337783"
"1199","5.8237344158482","7.15831861838902","-25.5200133453147","0.417153616373464","0.567695411357871","0.290915288415566"
"1199","5.83198420617715","7.4233167493663","-25.5952284338378","0.419353312042918","0.556759200615103","0.290124972972447"
"1211","5.7652461662051","7.6365924810989","-25.6588608477007","0.258358577296238","0.614106183607122","0.2894402485342"
"1211","5.77703035706521","7.55198368536379","-25.8254037849311","0.159631909205239","0.661820960482455","0.28884700683913"
"1219","5.75294210785229","7.56653260055828","-25.9565153345062","0.146053806568444","0.643041299340157","0.220316860402976"
"1219","6.09023182299293","7.63724931195042","-25.7973660968155","0.112162772834","0.634689363123131","0.152926364693904"
"1227","6.31856230198894","7.69943817774331","-25.7289206926314","0.038199386781603","0.630974980949528","0.177211486865099"
"1227","6.51341282923349","7.7598852489841","-25.6821297048342","-0.0250290662388007","0.629323072389276","0.200924103916377"
"1240","6.69797595718137","7.81997656234602","-25.6405084406411","-0.0503996811477941","0.566377736545493","0.269484797728377"
"1240","6.57468674956056","6.83845899469934","-25.6705718795219","-0.0870172435136499","0.516173187060099","0.33690176176611"
"1252","6.53680362125796","6.22419500086075","-25.6777491530547","-0.232362687559051","0.471634886513582","0.335311662097181"
"1252","6.69443621261733","5.86451698814363","-25.6090121425622","-0.342846937957958","0.429616554211896","0.333934002926257"
"1256","6.81214500396257","5.45683762734824","-25.5621515373721","-0.692901800623755","0.482034951341367","0.332740401887754"
"1260","7.01915016593533","4.75203375597033","-25.4148379094611","-0.958347416210852","0.516452484385864","0.331706268503722"
"1268","7.19359346244328","4.1465428273745","-25.3035423670352","-0.885848181117158","0.511759099268684","0.308138246873994"
"1272","7.56115900837584","4.42329736692196","-25.2360709440474","-0.915213236689334","0.509671795730904","0.285046921557332"
"1277","7.86806531165628","4.40024869030419","-25.1590619865741","-0.649747701538712","0.570954180326097","0.239696559071213"
"1277","8.05476904916105","4.24413575246508","-25.0445508131077","-0.496114838810471","0.620419160409519","0.19506101749825"
"1289","8.26453809214181","4.10084471875442","-24.9410864502428","-0.332962805579665","0.664628549990788","0.287077074605155"
"1293","8.21055769094115","3.81651236400254","-24.9811603677711","-0.187609859572728","0.70650060471153","0.377487758519296"
"1301","8.23553488362498","3.5833726156656","-24.9755022712372","-0.117123874656829","0.77843850808631","0.375819364850579"
"1301","8.08164586247998","4.07898968981017","-25.0998272142241","-0.023947764706489","0.843747688416865","0.374373872447992"
"1309","7.9927965422282","4.32345381429458","-25.1751839973462","0.0390986634167989","0.999424872681534","0.463809687072293"
"1309","7.72080445113123","4.51662047632262","-25.2388502390389","0.11517885412938","1.13529169610949","0.551984854939706"
"1322","7.51253800139811","4.69930973938711","-25.2997255088166","0.158896730300668","1.26234819708855","0.616395755034775"
"1322","7.25614337447806","4.8439439737124","-25.5008354598683","0.215132165484072","1.38548645638119","0.680217348621426"
"1326","7.02496038167809","5.00080554834699","-25.6554247035011","0.23888593549077","1.38246078906724","0.743528368468296"
"1330","6.76766958730484","5.19607957356514","-25.693231961223","0.275129669632673","1.4033258522663","0.806397028365404"
"1342","6.52235663741785","5.37919926113499","-25.7631589667918","0.349637019928991","1.46592125196269","0.846210382145601"
"1342","6.48385167295133","5.73941166080471","-25.7350784207525","0.412991242085884","1.52707551201871","0.886048672294744"
"1351","6.38889268786834","6.03579487496229","-25.743599786126","0.579894258883926","1.5253781721382","0.903236520820154"
"1351","6.10731409475869","6.39097119605775","-25.7608594043346","0.710738633284195","1.53572864771984","0.920800079312041"
"1359","5.86839281374404","6.71815588575854","-25.7802051721365","0.797870113665912","1.58254252391649","0.893345059158755"
"1359","5.57486968086961","6.96779325952507","-25.8352742301147","0.894894803030378","1.62557287994655","0.866886047008646"
"1371","5.30456901329056","7.24159175688934","-25.8788717809944","0.817327732282426","1.63581524071978","0.795945881003406"
"1371","5.07525851402057","7.08934460891488","-26.0606316429288","0.799393569114523","1.65147569594136","0.726467346578368"
"1379","4.83854308154647","7.0900785327294","-26.1953760447322","0.724495377322146","1.66954575690115","0.612911073486464"
"1379","4.73497069733467","7.05022843512701","-26.0370941054983","0.676426620053962","1.6886874492009","0.50116594995514"
"1391","4.59230923531351","7.04208913639129","-25.9688557580745","0.599185224341644","1.7083057313886","0.481678187943345"
"1392","4.2683638987741","7.07634174372719","-25.8516637068947","0.535198867747725","1.72813596885683","0.462121989747053"
"1400","3.98871538747922","7.09925280883993","-25.7627845655024","0.403525526868501","1.53032309862968","0.397162405727229"
"1400","3.01173156306693","6.97618721974609","-26.4556202323165","0.296202382421725","1.375717142533","0.33286543364763"
"1412","2.24047721452241","6.90330620563414","-26.8950806237795","0.300636701703832","1.11590537470826","0.269142547014567"
"1412","1.76941959053808","7.09208057960701","-26.9217983295969","0.270910292347076","0.88930510401569","0.205917046679458"
"1420","1.25060354432032","7.19429751702558","-27.0499788332905","0.0917823104436366","0.7396857616513","0.188466573548877"
"1420","1.15722243421203","7.0992600697937","-26.9558055881405","-0.0418885793427116","0.584302383314836","0.170675477709161"
"1428","0.934564901455387","7.06393382880228","-26.9485481405206","-0.0589219125008785","0.301934192625937","0.243277452888645"
"1428","1.68782228598642","6.96897339225599","-26.6097882845407","-0.108987655521828","0.0430916574181279","0.314195774925032"
"1441","2.14094947045756","6.90183279652093","-26.3918863360341","-0.378945755740225","-0.329709595955453","0.383655383787174"
"1441","3.21280193599833","7.55867518498405","-26.1323872198323","-0.579744829780724","-0.673192059084774","0.451851166942161"
"1449","4.05477038702674","7.96338957734442","-25.9029572952515","-0.516922936460305","-1.06584616432336","0.541624020874425"
"1453","4.9615206425031","7.67013659993071","-25.9272827522642","-0.533149644594829","-1.44036852455714","0.630091198830889"
"1457","5.80817643113142","7.59432525322371","-25.872189162485","-0.638404719834344","-1.80682709830212","0.717427142153416"
"1457","7.17804042806458","6.44955960065927","-25.4811080290394","-0.724243906950678","-2.16969943958465","0.803782986415582"
"1469","8.38867083810622","5.7064622763128","-25.1898140325855","-1.19472811467709","-2.40655550973963","0.866617628691788"
"1473","10.19361071001","5.29681015840704","-24.6053157483956","-1.53414550622525","-2.66736797768103","0.929073556178465"
"1478","11.8011643080432","4.81526352356167","-24.1308185734462","-1.48950083321975","-2.72109727656574","1.03654545892212"
"1478","13.3142123487624","4.71409804671508","-23.6825828003631","-1.55605776076601","-2.82272984343405","1.14301909811108"
"1490","14.8182216258938","4.47062462245221","-23.2406166115846","-1.15306380890156","-2.72792920617147","1.08992351902431"
"1490","15.1345428618435","4.30583022484916","-23.1171744386595","-0.921505720145212","-2.68576822841202","1.03857753970863"
"1498","15.7859226782171","4.09710585318708","-22.8897759278586","-0.729585053714658","-2.26264844395726","1.03409150244378"
"1502","14.9490902976568","3.66391862454896","-23.8704428027832","-0.54682889475733","-1.93010368262327","1.03020481017312"
"1511","14.5949743098296","3.30488532882639","-24.4395203200571","-0.260064155232135","-1.45120859625825","1.02683738901388"
"1511","15.3032567631505","3.03282790216626","-24.0649300305522","-0.00925175170751833","-1.02722668160923","1.02391986313994"
"1519","15.7979828463006","2.73853511408145","-23.9450507446624","0.0917448444869167","-0.72098248623785","0.976048032625279"
"1522","16.2270893709578","2.43970080012793","-23.9916562983257","0.238102758211039","-0.407100147360783","0.929227896944062"
"1527","16.6360329454142","2.13993888905456","-24.0180080446076","0.430324423168057","-0.463084938471287","0.905990993660404"
"1527","17.1403448153916","1.91181760223217","-24.0747496931406","0.613150175531902","-0.443561871107864","0.883186548170832"
"1539","17.6139605428999","1.65832876244191","-24.1187465542911","0.723051851891154","-0.172720591367968","0.792740643802971"
"1539","20.3802564634944","2.44119487144802","-22.1166363824276","0.856092864758489","0.0698902066843563","0.703690336511785"
"1547","22.4910252214733","2.85573430202685","-20.786043508651","1.06523554954321","0.268840637407945","0.683865310594566"
"1547","23.7909872200098","3.73376941226383","-18.6999106263385","1.25197358488527","0.46837385924909","0.664016907733635"
"1555","25.2018122738833","4.406472541563","-16.9534019284805","1.61041062942741","0.668166267568881","0.666820297578619"
"1556","24.0398987348354","4.78583175097632","-17.5423901563553","1.90854593789868","0.868073944685143","0.669249148031448"
"1568","23.62745869241","5.24527608088092","-17.4089493373544","2.61724894368831","1.78345567678609","0.671353498424515"
"1568","20.466105659781","4.21264586413547","-19.1461019075843","3.18087867552519","2.55703237667108","0.673176702719222"
"1576","18.2200929403055","3.71526255513112","-20.16983547197","2.64969131623949","3.88965046517096","0.810788601301091"
"1576","14.3256255303607","6.84687641952795","-22.0447812747741","2.4653729806017","5.07089274262772","0.946047509341406"
"1588","11.0646367326549","8.75970533438981","-23.5429434525846","3.24564946736114","5.06502099718708","0.784531188175944"
"1588","11.1129195848005","9.70529914305268","-23.2251160657961","3.74894843993801","5.25120039652219","0.625889497474428"
"1596","10.3380437721994","10.8533372128168","-23.4537436714159","4.50659034406579","4.93178985351709","0.152329729833225"
"1596","12.1201667196064","12.5455346858058","-20.8539098196592","5.14303848634402","4.7675267469647","-0.31407432849693"
"1609","13.0279797851046","14.0688755739726","-19.2588158409082","4.76094234427838","4.20568275382399","-0.796950743329668"
"1609","11.1280489245831","16.6710941615727","-20.9329623692435","4.70335014424616","3.76702139530415","-1.274098769591"
"1617","9.86538137004873","18.8736712532499","-21.6675995612334","5.039168478476","3.07209003970349","-1.65559554755146"
"1617","8.90008976193419","17.4031182080553","-22.9528959919338","5.28594665746206","2.46318694341281","-2.03422030606555"
"1625","7.9661729898635","17.1823360473017","-23.9296554929521","4.73386972255181","2.32801820080013","-2.29699652142114"
"1625","7.82055237774696","15.2055746123223","-24.1634759165479","4.43709072500104","2.12353478822363","-2.55940182795945"
"1637","7.45715186862462","13.9901580987716","-24.5999288407704","2.81968137177177","1.48385544649362","-2.66278145490996"
"1638","9.32894624618399","16.19851350898","-24.0280003295269","1.67693110448138","0.910630086299379","-2.76838160228878"
"1645","10.5275499260945","17.2861671434611","-23.8153332448816","2.12971092616426","0.335853670099566","-2.76254537123279"
"1646","12.5687943394143","16.3850827357743","-22.103299223001","2.11139080658374","-0.219612551988083","-2.76016092063201"
"1654","14.2489573363859","16.0578027600414","-20.9333099227102","2.09027588615233","-0.579858859834882","-2.69275094529633"
"1658","15.7504615072865","13.0463478577767","-19.7166008444657","2.00851478411321","-0.973284417313592","-2.62900300630553"
"1666","17.2370691032066","11.0466558645028","-18.5887379981147","0.67457769541511","-1.008201819158","-2.50041170779446"
"1666","17.8388800476221","9.14586919430171","-20.5114574003829","-0.248873077932028","-1.12367879093005","-2.37564027314728"
"1674","18.6888191411474","7.32528372860148","-21.4424655163745","-0.759033464680648","-0.870613863281291","-2.20883426681153"
"1678","19.2087455827763","5.8802296105412","-19.4948212648336","-1.35363761657971","-0.713646167955254","-2.04560960515997"
"1691","19.8672688937133","4.31187698148518","-18.3599344283876","-1.01261845133402","-0.568310750335691","-1.90815985866338"
"1691","18.7740855845764","2.7183408905296","-18.8633185145346","-0.995275257456486","-0.448148591207165","-1.77304143881326"
"1699","18.2026546224831","1.11966113037539","-18.937819484511","-0.699010379764744","0.0340822525160089","-1.68528696782815"
"1699","17.3852876344776","0.274146668742302","-18.9451551723725","-0.538256448401704","0.437337011261049","-1.59856851217086"
"1711","16.7323517771147","-0.837535362586455","-18.9164559813383","-0.0196996563395923","0.867679171341002","-1.60343584353086"
"1711","17.1117238930105","1.48017751372157","-18.5269014313634","0.361584185021192","1.27006799437828","-1.60765288812027"
"1719","17.2282937276152","2.55833709694896","-18.2511971356074","1.17101515825933","1.38007699551191","-1.54329038645447"
"1719","15.6390918076586","4.06570632171032","-19.4821335853797","1.81943737158062","1.54005502296708","-1.47951072514"
"1727","14.4857566607959","5.28074071426003","-20.2327618451664","2.67826381232391","1.5978345735595","-1.68830059258074"
"1728","11.6720571461371","5.64593540718044","-20.7982719802176","3.44573749099197","1.69016308252944","-1.89324406688755"
"1740","9.40817675199908","6.27755212642126","-21.3595874566879","3.02468722324284","1.76675131682786","-1.84546252432126"
"1740","11.3419358851787","6.31711422882598","-20.5108915980233","2.98884016120367","1.85633933056325","-1.79872061390888"
"1748","12.1855055366521","6.59575041927002","-20.1255730037923","2.54679370960369","1.36070733986363","-1.77555148481653"
"1752","13.2019110630841","9.43726993055897","-19.5690780075102","2.2908305216768","0.984808664215157","-1.75280575872894"
"1756","13.9714239437824","11.4022529771517","-19.1317167661937","2.36089800504063","0.0400525775771753","-1.59439458940762"
"1756","13.8525638223371","12.7572247877863","-19.7443294192226","2.34634653863991","-0.757693207712282","-1.43844319505437"
"1773","13.9407329431894","14.2276030847199","-20.0276103298611","2.73674042396728","-1.02347857025061","-1.2846229440224"
"1773","14.8711716295958","14.5722715698541","-18.5062302249211","2.98076110146234","-1.3526835447226","-1.13264911061594"
"1781","15.6004148507464","15.3270161903247","-17.5340096631021","1.95278497837072","-1.18130255877904","-0.982275009153225"
"1781","14.5412524964458","20.3316628729663","-18.0666788024239","1.33071243071645","-1.12729444549545","-0.833286911732347"
"1785","13.9525659852518","23.8843431254802","-18.1786217116091","1.82838731641311","-1.5920660105306","-0.821531923609335"
"1789","8.15941736109562","23.6926182516012","-22.5228269268884","2.00495728455795","-1.98755605079149","-0.808675382756426"
"1797","3.92709140604323","24.6561064952569","-25.417432328047","2.17803673991614","-1.88565422517013","-0.862880598482908"
"1797","-0.0626220297382571","21.0788440048463","-30.1851543467878","2.31030915917959","-1.86254579165321","-0.915187964406898"
"1805","-3.83778781148969","19.234142714216","-34.1400597491891","0.0629659861123767","-2.27884878841824","-1.23791559489644"
"1809","3.86196783398414","21.5143928203947","-31.172892924037","-1.3945644493876","-2.63057257637534","-1.55493471474828"
"1818","8.34762756367256","22.5371555854869","-30.3731671222547","-1.96196688117354","-5.37979227713624","-2.16174459790123"
"1818","17.4994073984648","25.8889622268579","-25.8286360242715","-2.72356418579671","-7.63525767810402","-2.75962852554687"
"1826","24.7449479818917","28.2764711881271","-22.8100790617017","-1.15988032813683","-10.1999249757525","-3.55382744398614"
"1826","32.5219591174399","23.2121858881521","-18.6411438606313","-0.39857178807606","-12.5621045799167","-4.33811321464809"
"1834","39.8022754400648","20.6658872617719","-15.057570108841","-1.73307407204662","-12.5324361448451","-4.68304137481423"
"1838","35.2501381249699","17.4127706965487","-17.3906847908927","-2.4721455543226","-12.9190338056765","-5.02731112134006"
"1846","33.9622376482613","14.6952880518893","-17.8563355259993","-4.59470911867038","-11.5000170825602","-4.98558563041022"
"1846","28.903843263934","12.6618481825961","-22.2793083586848","-6.17714776018849","-10.5579839443442","-4.94943476194616"
"1855","25.5068875811532","10.448122613435","-25.1470428091037","-4.62775933498584","-8.95713169185148","-4.91811373344339"
"1858","22.9589888020987","8.52080944680573","-29.8978992256804","-4.05426598888533","-7.62328079687519","-4.89097726706924"
"1867","20.4719801061323","6.47199541182433","-33.8183276789191","-4.13091781258193","-6.78143829832528","-4.91281038847902"
"1867","31.0038442011916","10.3961770948815","-25.0355387729938","-4.11788870138609","-5.91840820081167","-4.937070647048"
"1875","37.8560229857126","12.2003306079041","-20.3200141213467","-2.95209801511567","-7.59659305462592","-5.39420265389418"
"1878","43.4421249034935","13.4637276939988","-15.8357682111147","-2.15977909744852","-8.76494021682382","-5.84637373841322"
"1887","48.7191988332677","14.6766764156769","-11.8267372347443","-0.710917567433605","-9.61322968469349","-6.52096715570292"
"1887","46.2501799596849","9.16320830953461","-13.2501703549054","0.469742170544923","-10.3791789139112","-7.18826676568863"
"1895","45.9210157905308","6.01588369420986","-12.9505369673535","-0.498782629707256","-9.02445102067754","-7.73588680578244"
"1895","40.3586668140301","0.873701018632958","-16.3256715465618","-0.78421708266256","-8.06658789569432","-8.27981674439196"
"1907","36.6683148718712","-3.29592722582946","-18.2581114457479","-2.22062100442736","-6.22764213725148","-8.52581298397941"
"1907","39.342307387005","3.25619403766065","-21.3255862737287","-3.18313880745471","-4.67684980070348","-8.77368015847167"
"1916","40.5518747840789","6.13821011861139","-23.8240366273479","-0.852265362062537","-4.68505440029324","-9.56729742107764"
"1916","45.2386002336241","10.0663670249327","-15.8304165822535","0.440068010272402","-4.46659648209319","-10.3537512929118"
"1924","48.6737535461768","13.2081959975631","-11.2119447311041","2.94269118982975","-6.0136545728607","-11.3153751910984"
"1928","47.492511829704","18.200661493713","-11.8728541633841","4.90514361488881","-7.14589600561211","-12.2687659934099"
"1936","47.3927884102916","22.451115612788","-11.2541504630903","6.24744235981406","-7.06717857697676","-12.9202870569071"
"1936","51.4848069981729","18.864196477044","-15.1558139322731","7.72635632584473","-7.10990770506524","-13.5702688795716"
"1945","54.5848239708123","17.9565103153121","-17.3966590537142","6.44216625784332","-6.61564669612572","-14.0148686896314"
"1948","55.314898106031","16.1235351388716","-13.5697394756452","6.09912315441862","-6.26256841888479","-14.4615260008232"
"1956","56.5367588776278","14.9215716246174","-11.5142162579984","3.56812470264958","-7.21649232012645","-15.0459982048326"
"1957","49.6492108590082","14.7463669671929","-14.31997319695","1.89125245878134","-7.95168330321198","-15.6298729120028"
"1965","45.1498812839458","14.2808756497123","-15.7663005397647","2.42828377497411","-7.2209616208948","-15.9638374385066"
"1965","46.5979876899736","14.1870743957083","-17.6630363622723","2.33718832940161","-6.71830010918432","-16.3012803647181"
"1977","46.7935653296236","13.9291900564863","-19.2273016285358","2.3838713069899","-7.00138194803127","-16.4603605968751"
"1977","52.7996681244092","15.2180539400593","-12.7160624162469","2.30240982196224","-7.19390983369887","-16.6249078050227"
"1985","56.9311735039407","15.9428378994094","-8.81689656896454","2.29744774500612","-9.21248570713835","-17.2476325171889"
"1986","49.3485099766653","20.8262997178661","-17.7644918626038","2.25017297857204","-10.8431654948891","-17.8673211550479"
"1993","44.7464286883501","24.1791627543227","-22.8390922012855","4.95242995876695","-9.2219065326511","-18.3256750201264"
"1997","49.2868578893989","16.9477021903032","-22.163204032806","6.73040194668213","-8.13440289028915","-18.7842488126524"
"2006","51.7765102540974","13.2744157617811","-22.8544579844722","4.58020919386504","-7.65754195103168","-19.2203411033727"
"2007","49.2687772498424","16.1461157321541","-23.6255234431305","3.62179151091475","-7.21225401136546","-19.6569554731255"
"2014","47.8054954756426","17.1146154276707","-24.5556429101815","1.48851324875486","-7.74527312960879","-20.3660867281681"
"2018","50.2855839557053","24.482333403817","-26.545266737453","-0.0964027215704907","-8.09337774201597","-21.0713259799006"
"2026","51.8373535242403","29.377078273117","-28.2078341029748","5.62676095275848","-7.95487535620997","-21.7958652554372"
"2026","53.4085694600946","18.7542360204651","-25.3187143188529","8.97961448552163","-7.85996274973811","-22.5171260267872"
"2035","54.80576068967","13.3219591906808","-23.8829356252769","6.54880930380246","-8.09548934678574","-22.8274494738799"
"2039","59.5349384047593","13.5828848653889","-22.8293493573052","5.74077328310992","-8.27797318286382","-23.1417377773435"
"2047","63.2879370525086","12.4266351938622","-21.8470067954044","2.05335879611472","-8.2502351169285","-23.7315257803895"
"2047","67.0118214654162","20.7139068183997","-19.155635642929","-0.459792359016587","-8.24900442065582","-24.3200060835028"
"2055","70.5667599347558","25.5099978328597","-17.036255090114","5.01048720889726","-8.53951047678525","-24.4085683768461"
"2055","65.2337379749203","22.374099097","-19.1395589516183","7.96660351972462","-8.77976151232418","-24.5040028672259"
"2067","62.3897085588409","21.6381081146751","-19.9309763960152","9.20939742541571","-6.82028876647326","-24.2653107166274"
"2067","58.3807612557645","15.4303962771416","-22.7692888164352","10.6960566920564","-5.28252612614374","-24.037132020055"
"2076","55.153869128265","11.4250969475179","-24.7562720503988","7.42798671184548","-4.21225996133786","-23.9087503413835"
"2076","52.7428074863073","14.4780034761011","-26.9627139631728","5.78058309288829","-3.16990493591157","-23.7868325673143"
"2088","50.2424264315103","15.2925337264466","-28.9815489163175","7.0903268962913","-3.16643909557799","-23.8065473837987"
"2088","54.1808271050546","15.3266449452942","-28.4546024379271","7.62378820859032","-2.96500162437772","-23.8289723478987"
"2096","56.2776750331014","15.3813572161195","-28.7398821861751","9.21592051591238","-3.85752249576447","-23.8990894704716"
"2096","63.0222753143054","14.4705710743471","-25.3795188709567","10.3528265162821","-4.47656281135947","-23.9705269684148"
"2104","68.1149924770364","13.9025839096963","-23.3288034455509","8.97892385112771","-5.65829473417206","-24.11112457582"
"2108","73.0386807106959","16.4214762447267","-18.8431808975642","8.38450097479741","-6.65027421884039","-24.2516423414883"
"2116","77.710431352003","17.8908572340073","-15.3362544436944","9.98672277474262","-6.84244172939073","-24.5734673039466"
"2117","70.2186799170194","15.7698637865931","-23.2646083591562","10.9568274129381","-7.13890641107578","-24.8923764007476"
"2125","66.1294439231095","14.7955439015643","-27.5629937743473","10.9671371067964","-5.08664440973361","-24.7326462231641"
"2129","63.7627921511258","13.8040243891746","-29.8323360093915","11.2155340872637","-3.52982599711055","-24.5782240895506"
"2137","61.5254395801877","12.9489918890218","-32.2772693259654","10.6345830944552","-2.22445306785845","-24.4510728793443"
"2137","62.7132759633346","14.5999744729439","-31.4177242957145","10.3618798318719","-1.01090625853794","-24.3275491338608"
"2145","62.953571642086","15.3828053742533","-31.6692760041847","10.8679626680636","-1.3001484817989","-24.411216633312"
"2149","68.8611241507928","21.9861301330245","-29.8259966887946","11.1541074407658","-1.31773067417127","-24.4943941463213"
"2157","72.9900571238244","26.4382785370471","-28.8226024223896","13.3350713632195","-2.48981555753617","-25.0532601113642"
"2157","69.7338454530075","23.4476204974522","-27.5970173311513","14.854133507994","-3.35534595860727","-25.6042614468033"
"2166","68.2483971841535","22.8367848743249","-26.5583869335318","14.9112526226749","-3.18248662226025","-25.8990563746214"
"2166","63.4814833341726","21.0958460909517","-32.7503402056579","15.370358137112","-3.12782103767393","-26.1918746657323"
"2174","59.9662721317363","20.0240861107223","-36.5885057386372","14.0121114484759","-1.38382115257315","-26.3696201712111"
"2178","62.9972077658821","18.8016841594606","-37.6807682492439","13.3136775511546","-0.00851845001355542","-26.5476668823924"
"2186","64.3995807779093","17.708513902018","-39.3574804362763","12.4494154780971","-0.103611801967698","-26.9300229754161"
"2186","62.3900497926993","22.4240607097656","-34.3752499147542","11.7268125274893","-0.0126388946859379","-27.3093922425058"
"2194","61.0521415863378","25.1060257776785","-31.6632793289656","12.770378071536","-0.740970993672736","-27.9128941948977"
"2198","60.2591491158003","28.7733226847661","-35.8338497789321","13.2422967177396","-1.25367511741523","-28.510584185448"
"2206","59.4335931397679","31.8618715504531","-38.0475416232967","15.2093339781069","-0.115215414054564","-28.7631580092177"
"2207","65.1996766696444","29.8400215052614","-36.3419786618983","16.6020553145031","0.757571435218495","-29.0167239873737"
"2215","69.0911761296389","29.5543832162026","-35.6607421770161","15.3503059658749","0.454623265069328","-29.3845097979649"
"2218","69.1227759708551","29.1923820275768","-30.9265707137839","14.907132616048","0.308786858762328","-29.7512554061841"
"2227","69.9083427819698","29.0547838771042","-27.6648112422223","13.7311372802123","0.543876635833357","-30.003739553305"
"2227","64.0530993119934","27.9933134416524","-36.3084531712566","12.9057072997087","0.748376881115795","-30.2572278358208"
"2235","60.2173311864807","27.2831440324584","-41.2343621712159","13.116478426268","2.74338259746021","-30.2168494952475"
"2235","66.0074094184521","19.3180585505481","-33.260898995825","13.0268280176274","4.374685295802","-30.1818657947246"
"2247","69.4352256359185","13.9511716987244","-29.0278705427971","9.36551036347349","2.79591403998943","-30.1288839513805"
"2247","66.8220177415334","18.0578069197372","-28.4353938631319","6.85839301693942","1.74951676292523","-30.0803085588838"
"2256","65.4925817479929","19.1193891263158","-27.1520538112253","8.36797460845164","1.40646387713077","-30.3076154623986"
"2256","70.0759092892319","17.4400381719798","-26.267382654264","8.6862509857363","1.07621149662642","-30.5339461466388"
"2264","73.216054246476","16.3808573764746","-25.1578887562776","12.1251672680856","1.43596937643893","-30.623398758152"
"2268","72.425728958682","10.0251736902411","-23.8538202232926","14.3656019048866","1.66259763264389","-30.7142605252558"
"2276","72.4876863738453","5.60769041314163","-22.5832994070721","10.3504220463257","1.36343866242238","-30.8290152279272"
"2276","71.1865046812278","12.8993187309591","-26.8159263508101","8.26889117832857","1.13044472864288","-30.9444707145001"
"2284","70.426470643698","16.2825084986835","-29.2423616356749","10.0305160724543","1.89114207526796","-31.287253822975"
"2288","70.0696974201457","12.4745304243978","-27.2923632868964","10.7607111014706","2.47376678844499","-31.6269930552602"
"2297","69.6968343218194","10.7577714224262","-26.5375456341361","13.5164839852091","2.82167002023252","-31.4653100586971"
"2297","68.6419354541932","0.740784315909104","-24.7999536425696","15.4605876104025","3.16518484871093","-31.3091960072537"
"2305","67.7774671598997","-6.11150694749058","-23.5477364546447","10.0711086227543","4.1288547840493","-31.4072993877246"
"2305","68.3256962034722","-5.96045329665951","-22.235270248023","7.02604327460827","4.96832819943511","-31.505656160968"
"2317","68.5080053708112","-7.91898115664551","-21.0084203347007","6.64557604451023","5.34819791243309","-31.4908722409431"
"2317","65.8018016904148","1.93864271512397","-23.5006612705558","5.68118644845411","5.78366666322169","-31.4780634869585"
"2326","63.8480434143963","7.38969075992671","-24.7807890653846","10.7725594412144","6.64823154805999","-31.1949014550174"
"2326","60.5681781632076","5.6914876382147","-26.0885670967234","13.7640759913719","7.44362967080393","-30.9175059707565"
"2337","57.8008394465568","6.01306498174649","-27.2229462794297","12.5556257332144","7.80389764391416","-30.5997625171457"
"2338","59.185826756828","6.17253757092195","-24.8638543502047","12.4761076067749","8.23064885288746","-30.2870616765695"
"2346","59.4867010864715","6.61890060449856","-23.63073947874","10.4996824670158","8.00264990257238","-29.8426974656045"
"2346","58.2018396712978","6.72879494669145","-24.1106728386173","9.30467637321052","7.92346190858777","-29.4042604162285"
"2354","57.169728545998","6.98996626537475","-24.1795752382623","9.13936091358698","7.78603371200037","-28.8575984137133"
"2358","57.4001908082722","4.51657735421495","-22.3538614507418","8.73211864233848","7.70270417173486","-28.3171705630732"
"2366","57.3186045429902","3.02466025967185","-21.0958315237123","7.34916924543536","7.55011807634986","-27.5554235027866"
"2366","56.1254972515455","1.94869697427138","-21.2766632534523","6.26062810416386","7.42673130109177","-26.8019259931176"
"2374","55.1908524122672","0.837691380735363","-21.0610053755801","5.87692159652456","7.31633042890364","-26.1916081535641"
"2378","54.911153495299","-0.495961782679125","-21.5256459683862","5.29617882084085","7.21170481716025","-25.5853408477664"
"2387","54.4927000959632","-1.75509024460113","-21.7126993918519","5.51889953056899","7.2340690096634","-24.9825829150102"
"2387","55.3857951996436","1.70587331017235","-22.9959154957792","5.44738779743036","7.23290976674582","-24.3828654949093"
"2395","55.8818903807326","3.51090574546128","-23.8808268577007","6.19224280231258","6.7858141319145","-23.7404382750421"
"2395","55.003379344384","4.86997260162609","-22.7332592681373","6.62584870552495","6.42039583972034","-23.1010073838203"
"2407","54.4424924593651","6.19795192494328","-22.2004625122675","7.76575945898921","6.6823035984326","-22.2374520404233"
"2407","54.3516025896699","4.1076526942865","-21.4621821975521","8.62897387093323","6.84320399310079","-21.3797157920303"
"2415","54.1851289067354","3.21917724859763","-20.8748452291992","7.34103973292079","7.23913112210529","-20.2776286832456"
"2415","54.3339764659718","2.54025674471809","-21.5916530356673","6.73574184607379","7.55958241049686","-19.1838365563473"
"2423","54.3797129200613","1.92413739756221","-21.8998092481629","5.5100069608003","7.59762438716813","-18.051887089625"
"2428","53.1072919097992","1.24901497074763","-21.3354495041761","4.5808217910454","7.67006960569186","-16.9268781922722"
"2436","52.1898400837123","0.60184128884051","-21.0027873864583","5.02910716282241","8.00665779329446","-15.8758987274137"
"2436","51.2460414275157","0.642761877515267","-21.8878733838779","5.05587538063967","8.30071909253664","-14.8290581909879"
"2444","50.3741471694033","0.444224275710385","-22.4036816553205","5.3743194036255","8.70028863345034","-13.6951154268038"
"2448","49.5582015982039","-0.629268124717262","-23.1131314276835","5.54020134107144","9.06678117782688","-12.5657074947224"
"2456","48.7394474043","-1.42146820504315","-23.7088107090829","5.17554800278333","9.16972057826555","-11.508244669953"
"2456","47.3781567424802","3.08738121324901","-25.0522841472389","4.96823041909319","9.3154491818061","-10.4531149191177"
"2464","46.1701606648376","5.75895885751916","-26.1342841748029","6.17694759257282","9.4179968812039","-9.33199039881496"
"2469","43.0795557750443","6.15178037449623","-28.0697171084074","6.93306398509766","9.54134060485044","-8.21368816347124"
"2477","40.5504808589559","7.13917073868293","-29.688896573898","7.61991107768383","9.82945970177998","-7.16584728857027"
"2477","46.048212688843","1.78329297980568","-25.5613095451047","8.27074252193306","10.0908598551337","-6.11905397276089"
"2485","49.3723449092101","-1.26818397005789","-23.281753220914","6.54306618324831","9.71827043597364","-4.98248007397356"
"2485","54.3307064448539","0.496728188119581","-21.4433913294862","5.60545871703815","9.46372489248456","-3.84812048654523"
"2497","58.431218331053","0.82537770546121","-19.710359142276","6.08867593635153","8.98172931465341","-2.87438369838687"
"2497","57.6639139631789","3.15923628354275","-21.3840969065579","6.20039984668026","8.57857918642908","-1.89981013058464"
"2505","58.1208735834903","4.62265460061861","-21.9511587852923","7.39363377496439","9.0503383826121","-0.901839532406123"
"2505","54.6544802322088","6.4829279947377","-23.9448274034289","8.17692197167333","9.37119868225822","0.0964021985675792"
"2514","52.5225565115834","8.10425820480417","-25.3190807042759","7.94565564657582","10.8691628032918","1.29892725628654"
"2518","46.7381248942037","6.80358141081797","-25.383023095257","7.99981573037372","12.0906239119735","2.49844291399595"
"2526","42.2313855911054","6.50609082352197","-25.7941449918699","7.1294455543253","12.8780616016631","3.74069532739558"
"2526","42.0105213619882","0.846667400772413","-23.3644561255636","6.60531615836738","13.6724747269237","4.97997476669974"
"2534","40.8065798258604","-2.80791954162687","-21.9165588885786","4.39244902332275","13.9100939615959","6.19400638171451"
"2538","38.8604580119713","-4.76008133153433","-22.9222428502253","2.78913143206598","14.2600885439922","7.40616334038493"
"2546","36.9462861422121","-7.08452635975181","-23.2536889220317","1.43287434589342","13.6957946578566","8.41264768323013"
"2546","37.0393524338167","-1.65553029989353","-26.5239908589798","0.0737397392447204","13.3448864608835","9.42093774925164"
"2555","36.5691836659072","0.997089817183176","-28.7359082199377","2.39302622352058","12.9644565800154","10.3174320574623"
"2558","36.366059104181","4.80656299568301","-30.8008251206837","3.48279479263961","12.6508974302517","11.2170667806711"
"2567","35.9849893315196","7.8923209821701","-32.7706474829582","5.06655669148678","12.3670779055395","11.8473577949149"
"2567","37.275826414283","6.16130619981418","-29.7510072613252","6.32453402858334","12.0964845753612","12.4842900450693"
"2575","38.0603910417058","6.04647569638112","-28.3601946695489","5.38463737304727","11.3962986287535","12.8775837358046"
"2575","40.4159772697522","9.13495079792523","-26.6185142884727","5.13657365091606","10.7850586421108","13.2797895443353"
"2587","42.2342919864562","11.2776943411895","-25.2130685701163","5.47297752662215","10.6177452683494","13.689716791032"
"2587","42.6010445824789","9.09704436922325","-25.6139318540366","5.70451525700257","10.3878607367663","14.106333873828"
"2596","43.2817750560618","8.33335035245592","-25.4660290312408","5.23966626290265","10.5967288237041","14.5514190615239"
"2596","41.6891602555241","8.29004711750623","-26.7370260035439","4.99380676493346","10.7007247064617","15.0011689492083"
"2604","40.7980136665391","8.15388218666249","-27.4667677210978","4.48019701491645","11.1935551950909","15.5683205543106"
"2608","41.07033607628","5.41286742495637","-27.7150389748917","4.08468114079072","11.5793132888886","16.1371887348024"
"2616","41.1401581099166","3.57981755642018","-28.0483651211062","3.75184540089002","12.1351901198144","16.7528882450975"
"2616","40.2675383907037","6.7448332392264","-26.5702841829321","3.4135018384525","12.6267243777326","17.369162310802"
"2624","39.6253341853066","8.25069331315509","-25.6997522475375","3.67527394358612","12.8408006561308","17.9632621235436"
"2628","35.2283610350627","13.6556492956461","-27.6866091900585","3.73579786953824","13.0914821975157","18.5581502150018"
"2637","31.9376584024968","17.496987427954","-28.8156323228032","5.66008637390682","13.7628127133087","19.1763933157456"
"2637","30.5103366013681","15.9908540175139","-28.3308483500515","6.93529302090438","14.3612197358285","19.7948711423092"
"2645","28.7555766365605","16.1925107760852","-28.2607879266842","6.18550741987065","14.8338792536036","20.3228641490353"
"2645","28.8299163106948","11.1761485785848","-29.7691980201056","6.02752647460457","15.3106146984618","20.8524613179405"
"2657","28.3262842242626","8.19401696902743","-30.8144483914256","3.10555765238853","14.8248973417536","21.111383772005"
"2657","28.7961146093133","10.4759033554131","-28.9663305409228","1.18453144278706","14.5311454028625","21.3757942815797"
"2666","28.8850612302179","11.132954361135","-28.0074568776393","0.874589034947916","14.0117134447253","21.5769434903993"
"2666","28.3830092531548","14.7623200177595","-26.027995572579","0.157142835865419","13.5919141204295","21.7832832551237"
"2678","27.9793608805473","17.1587746988987","-24.5048816136006","1.96328978725538","13.371951416257","22.0394641983041"
"2678","27.1658393389391","16.0351410801964","-25.0281035586553","2.87291283092991","13.1408626641993","22.2988274227782"
"2686","26.4863758909088","16.0125368197059","-24.9398628457431","1.66495709980621","12.96703646828","22.5836198148124"
"2686","26.3559234013145","11.6895202001631","-25.2340217166882","1.0473992359486","12.7786768243323","22.8704439785796"
"2694","26.0941657470535","9.00815338870004","-25.3194737501703","-1.16706935151243","12.6149590142761","23.2043725575303"
"2698","25.0134062974174","9.17614304298553","-26.2709560552251","-2.77075721212015","12.4422002424778","23.5391122924297"
"2706","24.1409918108727","8.52610777072453","-26.9091923570996","-2.53518752394588","12.265420656074","23.8972268573954"
"2706","20.6580828568354","5.91324052500314","-27.9305732784996","-2.83436592578472","12.0868528804759","24.2555933208593"
"2714","17.9530461354643","3.89946897135716","-28.7834252304712","-2.97417596533709","12.0319111930016","24.4328016571117"
"2719","4.82283028506635","-4.09749568672489","-40.269293065366","-3.2371386908748","11.951950114333","24.6130550125581"
"2727","-5.21073487825087","-9.91651496952581","-48.2336616942906","-4.37759529759359","11.6431247139742","24.7959465655644"
"2727","-19.5063979058137","-7.53304441033875","-57.4003803937449","-5.24093591542933","11.3725157828784","24.9811238468111"
"2735","-32.0316775928171","-7.79423252911091","-65.6941452748609","-4.90817838753958","10.1857428168487","25.0095771526486"
"2739","-37.3774709231675","8.93095387139826","-55.6385006263568","-4.93887284638308","9.19152141359105","25.0422451700709"
"2747","-44.437220366592","19.3655715899614","-51.5021618103844","-0.100984175257068","5.51455890825673","25.0105486645175"
"2748","-32.354100288512","63.5684348667346","-28.8414936589021","3.06256211588004","2.42449273605848","24.9830868856985"
"2756","-26.0089423892997","95.1483913732848","-13.0783714036332","15.3904605821741","-3.48398976816915","25.5941113644888"
"2756","-10.4918576196797","80.4415395618978","-32.5316139295552","24.4372348246523","-8.66591519981546","26.1983188544448"
"2768","1.38348909775291","80.6207043705537","-41.3323271998282","19.494824679551","-12.249397790764","27.7715181178364"
"2768","8.21270479058328","29.5367632929526","-56.8893465217715","18.7979967206334","-15.9420000015549","29.3242496039433"
"2776","15.8113936147143","-1.77755949091607","-68.779350199773","-18.5924764574679","-16.3237547306008","32.4236190593937"
"2776","50.2223729717527","-18.3153817014588","-43.3357678461757","-43.1668309300469","-17.3930661188266","35.482992060525"
"2784","77.1719764707246","-37.8151347058772","-29.6792544080497","-51.9011879085302","-19.3591581220554","37.9182390191697"
"2788","36.9973773861061","-41.7940019925855","-44.3046117923533","-64.2532034204733","-21.3440781148","40.3327446236897"
"2797","14.4974954583647","-51.5827609709061","-51.2219154099629","-76.5926322617686","-22.8396861170638","42.7746240600242"
"2797","20.3480898648593","-70.9622979540587","-43.1952245120852","-89.4091509582956","-24.4376808991659","45.2002201206868"
"2805","21.3699474316527","-87.6207312006074","-39.0408400866858","-82.985397446422","-17.8071903612241","46.0246650519768"
"2809","30.0826711843002","-65.7252702806262","-35.106415895724","-83.0531301792519","-12.8372203451915","46.8618763623046"
"2817","35.7385707258043","-57.115257454206","-31.6245044853244","-72.6647186724981","-15.7288612792623","45.6243201617084"
"2817","36.2910838330767","-63.5017138631312","-35.6479269343957","-66.6187581324805","-17.5368205292395","44.4291902068086"
"2825","37.7354771770981","-66.1111676153849","-37.2631548478342","-56.8010718526808","-13.8237658280913","43.9509796457457"
"2829","19.1073095620205","-77.2511723879475","-34.1116516652339","-48.8113306636321","-10.895333683031","43.4939063829714"
"2837","6.33143743452524","-84.9535242891762","-32.2021504954722","-63.0003617598488","-12.6394912160183","42.6470495905162"
"2838","-1.19302900490944","-66.9927886167348","-30.0960084479621","-70.0173126961765","-13.6817038674491","41.8224852529384"
"2846","-9.14389374076555","-57.6904212091056","-28.2229208273616","-72.6874548688356","-14.4428437605761","40.8585307214583"
"2846","-7.50951035585124","-66.3901063211285","-20.7694324140428","-75.8725780704857","-15.0589813050499","39.9138088496153"
"2858","-8.66986362324639","-69.726672849491","-15.1836924552268","-72.9506230320467","-13.3710471212478","38.6683414593283"
"2858","-6.8295334229743","-75.0924423262504","-32.4823371521828","-72.1366598233778","-12.0984160609579","37.4423088501274"
"2866","-6.34718191203939","-79.1326722431622","-42.5043451375222","-79.6635165911434","-15.9251275524957","36.0744101650865"
"2866","-4.86020426635495","-70.36781382857","-42.2646362990267","-84.6788415216111","-18.8596852750662","34.7235990413201"
"2878","-3.90453471248734","-65.9675430175692","-44.4150697162904","-75.9536699984344","-20.1532591697209","33.818361423246"
"2879","4.36974425636751","-58.5080754366019","-37.2730505955334","-71.4915794162876","-21.5170333006805","32.9191676559787"
"2887","10.4728155146276","-52.6237733407847","-33.5125735691381","-66.7769951477565","-23.9073986375836","32.5693393814737"
"2887","15.4686291506629","-45.7682539746346","-29.8901181105134","-62.7040322022066","-26.1143230256875","32.2154800943904"
"2895","20.3842152568418","-39.4343655209254","-26.6806135910425","-57.859645936745","-28.1152438038192","31.9034724402397"
"2899","22.5329279178014","-42.1139495032572","-29.8045648538885","-53.3569000715535","-30.1045479655527","31.5877249436914"
"2907","25.4514621751112","-41.6745162991093","-30.9005502102964","-52.0462174640431","-29.8802067829868","32.01691478875"
"2907","25.1533715330976","-53.2401251722208","-34.5065298977757","-49.7135668945289","-30.0913843266315","32.4315166169935"
"2915","25.9069071630511","-60.217738674697","-37.0117396317997","-58.42951869308","-31.3983062708753","33.6496730930229"
"2915","22.8533163120921","-61.3738180461845","-38.514423974493","-63.320000857874","-32.6125419783773","34.844027450214"
"2927","21.0699080559941","-64.0608612987376","-40.1977678017625","-66.5831096245724","-32.9146075670735","36.085775846214"
"2928","22.5205750280598","-64.9056981879898","-35.3018952543686","-69.8899558899913","-33.3710009450936","37.3085863273993"
"2936","23.2849776982703","-66.5742682968352","-32.5953163170783","-65.2119768857217","-32.9006581536789","38.2882685788022"
"2936","23.6015294995065","-63.095657968579","-29.3546466685536","-63.2078387075534","-32.65816514728","39.2573050964127"
"2948","23.9204699699766","-61.5257468469789","-26.5864694803543","-59.9116202952403","-32.6103204898512","40.1037579428042"
"2948","27.4224759924245","-63.6857824360525","-25.0230766947448","-57.3966619985699","-32.5890423888172","40.9440045810644"
"2956","30.0225439476899","-64.7476518065486","-23.1273112574138","-56.4066192205497","-33.2016860886793","41.0533686890676"
"2956","33.5303836982082","-63.4303205130126","-22.1737281542064","-55.009149815032","-33.6962557725912","41.1694978698072"
"2969","36.6171548820017","-62.827042481027","-20.865079409193","-55.1093923091451","-33.9827873440336","40.3846064364317"
"2969","44.2464777475025","-51.5950957257812","-12.6027398188112","-54.6559184688328","-34.2767974885509","39.6190728349617"
"2977","50.5115924385829","-44.1922657078449","-6.58029269856514","-52.5178841731753","-34.4186069080507","38.6209183033176"
"2977","62.1128068174238","-40.7320484376131","5.21272720561373","-50.8703652446571","-34.5927276329622","37.641221537866"
"2985","71.9536468618673","-36.3171015401921","14.8033998618727","-49.0886268047547","-33.5370047138823","36.9042370025455"
"2989","71.5034536194265","-49.8442493353346","4.95233132719752","-47.4158556779884","-32.7343296643193","36.1775377798852"
"2997","73.6511301151675","-56.936032286567","1.19978797541336","-50.6501433596674","-28.7781328005393","35.5504379139761"
"2998","60.7869610234356","-104.303024129365","-26.0010582537068","-52.2589845638212","-25.5194605219066","34.9296306995082"
"3005","52.6500956266216","-136.736142795808","-44.6598962593994","-66.4041870108219","-20.8913121961213","34.3822915629457"
"3009","39.4318547609059","-127.654039242778","-21.9680590860147","-76.1479022660676","-16.7341125935374","33.8386049985036"
"3018","28.5122574508035","-131.512538748351","-11.724260567746","-74.8625963327384","-15.1192598649067","32.6405936674315"
"3018","23.1063173112199","-76.7071525424061","3.29727747665803","-76.68728736757","-13.1350728480757","31.4556768777518"
"3026","16.554561001982","-44.05979089519","15.0594416345094","-38.4780789956684","-14.0971645365994","28.9217823821915"
"3030","-15.9771963716991","-26.7126718264183","-8.30114595197373","-14.052694294242","-14.3695637774399","26.4191367342904"
"3038","-41.3518399413314","-6.49059516826946","-20.5468553301675","-3.63925048050181","-13.6198111925341","24.6690705013896"
"3038","0.913610983163808","-2.02265857421769","-6.29153248774403","9.65451402402057","-12.8754738955793","22.9310373263187"
"3047","25.3028630819016","8.32752800111506","0.750583437222349","23.6142330469523","-12.1335449562206","21.2034295646134"
"3047","20.5349284774646","23.3629108549784","-5.4832456958163","37.7279263901773","-11.3926870931118","19.4848543568425"
"3059","20.7878524677525","37.4152352081308","-8.32654221631236","28.4937957734497","-18.8019043242686","19.2931320440187"
"3059","7.7890814472426","13.5559778197206","-11.1353465376467","27.0814506763291","-24.5957294136557","19.0842715343551"
"3067","-0.541543647185453","2.95335948858323","-13.4959162738055","16.1573027431357","-21.9570121994965","20.3569175954949"
"3067","-0.599158070446744","3.96531225896124","-6.13298290464647","9.43394550065482","-20.52806462","21.5931375098414"
"3079","-2.15472091634299","2.38951678203795","-1.90868364782407","-2.82730624297863","-24.5206797783342","22.0722924092382"
"3079","18.2411804333219","12.4962934432585","-4.80946424966953","-12.6889660596851","-27.7844431378985","22.5355279374237"
"3087","32.1421177078501","18.1892109260825","-5.79126938471466","2.20124831671298","-27.1158427102685","23.1890193772741"
"3087","38.1905002545892","1.35975165407436","-12.3384602794534","9.13430546917736","-27.0183900917534","23.8273480972579"
"3095","45.2860249040585","-8.02985576499878","-16.7943180665978","14.156848872562","-26.5528390127588","24.4752119183896"
"3098","42.2422366422217","2.81184781627536","-25.1892772108686","18.7776653294457","-26.3235823780453","25.1113369290173"
"3107","42.2629373041797","7.36575417632488","-32.0046479968533","16.0889296436669","-28.2834713911744","26.1000442044501"
"3107","37.6054026470375","20.0451321664687","-13.4329856895201","15.7901636454536","-29.8769458530515","27.0742279354903"
"3115","34.8303845942011","29.1441206706399","-3.0004837883189","24.7110573978854","-26.6105574987915","28.1038446406963"
"3119","32.9723541481649","20.4880922309927","-2.08453386509657","30.8636145059944","-24.2028274698166","29.1214883460162"
"3127","31.1960868818153","17.685638872506","0.859457187893744","22.4380314393633","-23.6700274474626","29.9020382076768"
"3128","26.6350119431816","2.50288005100371","-6.70265938426348","18.5218589968886","-23.0110707893755","30.6771705136715"
"3136","22.8782479431689","-7.64853015821555","-10.532978976359","10.3773016698217","-22.016060055587","31.0395122261737"
"3136","19.3686249141379","-16.7722979810217","-13.4723782781671","4.23510597474951","-21.0515949634657","31.4042131268843"
"3144","15.9349409984583","-25.6861720048223","-16.1990813995863","-1.44412676602945","-20.1007145281164","31.7709580227812"
"3148","14.2850296759748","-20.7657995302604","-13.0980653026151","-7.01631855395398","-19.1558756387795","32.1394738313617"
"3156","12.1432189319177","-20.6998112653123","-11.8857534504079","-8.24791021623366","-19.6756745457293","31.9427227936879"
"3156","10.8997543703051","-10.0606772528998","-8.65857898806123","-10.9159183971558","-19.9068463056257","31.7562258728466"
"3168","9.31232502983162","-3.70200042898487","-6.35038104262967","-0.508598378571115","-18.3610730769273","30.6037150982874"
"3168","12.5619758160061","-5.79567185883872","-6.16374073576754","5.34184816964383","-17.0850336611314","29.474252163742"
"3177","14.3779183107893","-5.39571766654682","-5.4035960280268","7.41476804123154","-17.3597993723516","28.0246771277373"
"3177","12.232447139207","-4.4864456784443","-11.6220343080441","10.1542917778811","-17.4042593974219","26.5977577102594"
"3185","10.9497506720892","-3.47314660029841","-15.4665228084959","6.11427714224681","-18.4038763866615","25.1904670680716"
"3185","11.0155062850412","-2.94141079560648","-18.5681339743729","4.4267758631285","-19.1482832579732","23.8001827512214"
"3197","10.8556013535302","-2.22803327806106","-21.5923923812164","3.00018893416932","-19.6547683969158","22.4246326751587"
"3198","8.45966376384386","1.18015728635509","-20.3007035425412","1.7939276109534","-20.1354418751297","21.0618483111046"
"3205","6.65665944939624","3.65875775551582","-20.4186357755944","1.3107482165415","-20.0447399569994","20.3902855233656"
"3205","8.82756022801258","2.32007215746679","-17.2801222971114","0.614751483146562","-20.0599285088791","19.7175955044791"
"3217","9.9795245482643","2.22171389786687","-15.4041727538779","0.258683718264018","-20.4332634412532","20.0414988983132"
"3217","17.3523359467055","0.00629711953488339","-11.9274813247272","-0.238789592451139","-20.7658779103338","20.3488485110541"
"3226","22.7766297251673","-1.32152441466213","-9.14863260425115","-1.40572201550824","-20.9559612880767","20.9592646163897"
"3226","21.4068114368971","-1.06736984623338","-15.9063011011523","-2.36743905063344","-21.1626563770336","21.5522568272545"
"3234","21.6093633869219","-1.27009998156335","-19.6206949218133","-2.75107109018312","-20.9723698395081","21.9941207377903"
"3238","22.2950582220865","-1.56614785801349","-22.6085446211122","-3.30104498671414","-20.8655324473859","22.4250474398082"
"3246","23.1292085811322","-1.88125568708652","-25.422940913656","-3.88947852824644","-20.7958076492819","22.8464981697601"
"3247","24.2121024813435","-2.05659630342117","-19.6714173846516","-4.48680426516761","-20.7425880487818","23.2597389395151"
"3258","25.2514279173418","-2.28338976011554","-16.714886633988","-5.01543429141266","-19.6080219992809","23.1670815972326"
"3259","23.4674349724719","-5.68121604801826","-16.1516629205476","-5.56818128801226","-18.6925454316333","23.0761153052666"
"3266","22.4759197640924","-7.96671913138333","-15.1798116080556","-4.18083364099247","-17.8745052002643","22.623861392398"
"3267","24.0300217436404","-12.0721899309122","-16.5057223704095","-3.44491969432597","-17.0997981291507","22.1785887236108"
"3275","25.0063166206895","-15.4093853138793","-17.0201953577908","-4.840669253941","-16.3754680858608","21.4446279848232"
"3279","26.0759051893285","-9.93413693293152","-20.9691481548485","-5.60927745540086","-15.6535423724467","20.7205485724585"
"3287","27.0141601510487","-7.47896542251256","-23.6780404516623","-3.50894629991727","-14.9948966215125","19.5289173432152"
"3287","27.1334045779306","-2.58785969903629","-23.8716930569833","-2.28529208672235","-14.3243935621021","18.3522003053823"
"3295","27.4609912825252","1.10078047111703","-24.7248633509513","-1.26433300145912","-13.6486171655771","17.1884048883599"
"3296","27.6833224525368","3.78960369546385","-24.784403630501","-0.29023874508029","-12.9704955416864","16.0358047336065"
"3308","27.9733117087822","6.69421640860565","-25.1944745775539","2.54793899602199","-11.9802775301943","14.8702320816543"
"3308","28.4872178424812","6.87744543704304","-24.1383194746252","4.75710861359018","-11.0512599363744","13.7134200882485"
"3316","28.9499270122399","8.04483756376621","-23.6121210694868","3.42476647801004","-10.0561441755111","13.2670317485726"
"3320","28.2458487636332","10.5625242804477","-26.4531660579925","3.19359685507524","-9.09163237437719","12.8161528130384"
"3328","27.8632512388889","12.7160058310228","-28.258098685017","4.80894001948549","-8.79394327963499","12.5654316535998"
"3328","24.938777112262","8.65362705815008","-31.436033722881","5.95121256643581","-8.37281228941071","12.3081267266473"
"3337","22.7932594596303","6.74167186976033","-34.0217560741936","4.507799030765","-7.08804379956288","12.3171821960351"
"3337","21.4626201531615","10.4407022308747","-31.1470825651768","3.86655299143571","-5.93918715941071","12.3170116943808"
"3348","20.0423688695733","12.4057646053831","-29.9888072013537","3.12776821959854","-5.44177644859525","12.4222080650147"
"3349","16.0554881255344","13.9807526185778","-31.0720135138077","2.52643166738448","-4.85408528114294","12.5186940491601"
"3357","12.7799580339019","15.496068762771","-31.650345803471","4.22092747470815","-4.50619145841188","12.4942731424971"
"3357","0.548410716720398","16.999197053053","-40.0690516807221","5.16623915202763","-4.08494344323551","12.4650987863573"
"3365","-9.01505589804664","18.4998359997726","-45.8395496061301","4.73555487301977","-3.69328307087857","12.6811985634196"
"3369","-6.4851212868861","21.9752938136945","-42.4180854779021","4.66672868454962","-3.27478130153196","12.889803280015"
"3377","-6.8992420354968","24.7541042334111","-41.6621543020587","3.33728558033068","-4.36850387400913","12.9332099685738"
"3377","5.01916125656414","37.8059880681625","-33.0180761215489","2.47637717722582","-5.15476260957494","12.9734894691959"
"3385","12.9069845598603","47.1561255707776","-27.3308005814894","4.37698526824823","-9.00813190202595","12.8070111635293"
"3386","19.5563298017362","55.7501891600555","-22.349425035676","5.41607934203338","-12.1655466662014","12.641398374541"
"3398","25.825127352487","64.1898262405621","-17.5365743670591","6.25598408447491","-15.0134474414895","12.4765354671932"
"3398","38.8156212967641","62.1466448069055","-21.1123406555785","7.049834567871","-17.7236971125388","12.3123222555576"
"3406","49.8314938074298","63.7823697094287","-21.9507853037437","5.28597710283515","-19.8128326889969","12.1940160316501"
"3410","46.8342053690101","58.591429640566","-14.9145525260551","4.37075591553018","-21.9857382918566","12.075483515324"
"3418","47.4510868875271","56.2261575897548","-10.098338083864","0.892431818709916","-17.4771460261588","12.2061474505643"
"3418","33.1991288709856","77.4954792653375","-26.4893459762788","-1.61850336103676","-14.3170707496893","12.3327146128615"
"3426","23.8184160811164","90.7521170683703","-36.2033154337208","12.8269979081621","-10.6369333691683","12.2743559691072"
"3426","25.9215973658223","56.8678227968252","-34.6362815488673","21.7329707781219","-7.44550717629755","12.2157780363476"
"3439","25.6534397639859","38.6950921619969","-35.8760478929252","17.4718786719131","-5.56011386278795","11.884945554875"
"3439","23.5732929115098","24.2342259881221","-37.9620292531205","16.8864497169879","-3.55555655175521","11.5582323645134"
"3447","21.5763753360355","10.2515003341438","-40.1500339634205","17.4338718339225","-1.62242442611656","11.2350881184063"
"3447","16.8966643506098","6.2789854710765","-38.1001404995143","18.0832187054181","0.358942558065041","10.9150359973151"
"3455","12.9926102704411","-1.16896486299804","-37.4585013560481","8.14338221767807","0.775388902611632","10.0308617252667"
"3459","5.02735952572373","32.4424282620255","-37.3644169695161","1.75523692636774","1.51586329814896","9.15793333139829"
"3467","-1.64577687966197","51.1801060491486","-37.2810544967437","18.22741525315","1.96496893878402","8.52146880463138"
"3467","3.0808574290675","19.6156634371819","-42.1317864413357","27.5250938558179","2.56449326066477","7.88987602330326"
"3475","4.81030422979747","4.09711838628553","-45.360472292346","17.1222937255525","1.17796138616542","7.19448797160516"
"3480","5.51724015093321","-1.17656764053233","-42.3897488478835","12.3645761970231","0.228164656677015","6.50382784577733"
"3484","5.96998871057982","-8.2377627295789","-41.2389932476949","4.31319153998838","-0.838454901616736","6.42940923770936"
"3488","6.34463300940735","-15.6640527901724","-40.5227324200775","-1.89971682979961","-1.75702943436299","6.34890084984914"
"3496","6.69527817813513","-23.1649127318732","-39.9102018358189","-7.68755392387911","-2.60976344947414","6.26311629091608"
"3496","5.34581955749956","-8.55733753872587","-40.2735172527477","-13.3771109418511","-3.43321600952508","6.17276046961563"
"3508","4.47396930808275","-1.7541609049686","-40.3298038112737","-2.91256595249007","-3.87038207344312","6.50921299949128"
"3509","6.66036884400036","-3.54844947632243","-43.0955856110222","2.16694412497968","-4.37575376084104","6.83545129386932"
"3516","8.06647811797992","-3.19875225804429","-44.9282258277048","-0.826146774780702","-5.31582814775292","7.53826478773387"
"3517","10.1130466391702","-14.299029349763","-45.5870083626378","-1.82569133482502","-6.18922919760082","8.22734216010744"
"3529","11.8364093510514","-21.1179396452253","-46.5055469206963","-8.23669901526571","-6.47308231263944","8.9271906351492"
"3529","5.94474119957424","-19.8434663215167","-44.6328539382236","-12.5788827636236","-6.85474396899853","9.6163711685345"
"3537","2.15319921167748","-20.9359363926154","-43.7137890101077","-13.9310529282145","-7.24879897875595","10.2282928827303"
"3537","-0.993036099001837","-22.5118496806691","-43.0223909640737","-16.0119066492623","-7.66836572252783","10.8332777353586"
"3545","-3.94098774706944","-24.1865052303809","-42.3853455652381","-18.2612381750442","-8.09927837790375","11.4322525072306"
"3545","-4.695173434648","-20.3863272525391","-38.5557786368191","-20.5495231950232","-8.53523693529692","12.0260201590896"
"3557","-6.03527970399655","-18.5279260258182","-35.7840367500403","-16.9036750264888","-7.72922602234016","12.5699322813876"
"3558","-0.886067553633051","-22.9561955112649","-40.0985355600151","-15.2458050471955","-7.17087022300562","13.1106496886279"
"3566","2.31712028231077","-25.3885042853974","-42.2247865345178","-16.8776389085184","-8.46455381058708","13.2858464591888"
"3569","2.24783966839905","-24.7554291679474","-43.5468184692367","-17.6700801368953","-9.46190054702604","13.4643569987906"
"3578","2.75302625446021","-24.9762558290528","-44.8368530728556","-19.7188557459325","-9.17655895448107","13.8271149516807"
"3578","0.794071502886618","-18.5835471955641","-42.0683452120652","-21.2381064955023","-9.06076345284676","14.1895044356614"
"3586","-0.36204102632844","-14.6200378689625","-40.630910625128","-18.3544510957004","-9.14479205847951","14.5289026325987"
"3590","-0.0865531812713634","-12.8406943729373","-39.5112532897057","-16.8728065345908","-9.23768905134634","14.8683812318225"
"3598","-0.0711768682520442","-10.5674621602717","-38.4674613356744","-15.3615604363962","-9.36563544797456","15.0718972127865"
"3599","4.02838959446398","-14.8376369859104","-33.9192565205115","-14.0434702123247","-9.48916947328476","15.277615496966"
"3607","6.92290693600332","-16.7442889556094","-30.5344165560607","-15.3878507364379","-9.3618984612231","15.7573064087663"
"3610","23.2936761632941","-24.8483941595735","-20.5231669644597","-15.8678170286779","-9.28308615674054","16.234366569032"
"3619","35.625299152872","-30.4983161697506","-12.8499441786776","-17.4214533424106","-9.94124783283582","16.8678517773259"
"3619","32.1583376562678","-31.516746586437","-18.0285078089941","-18.5033312510401","-10.4671662044729","17.4968632840463"
"3627","32.4369382519253","-33.8892045729546","-19.295276206536","-15.514041580146","-9.59674204024744","18.0086385539321"
"3631","18.4964548747865","-41.1712602655943","-28.1526619310712","-13.8234635126293","-8.96531818341434","18.5188406204215"
"3635","9.26686739776923","-46.8760909777845","-33.9822134911427","-13.6005609729074","-4.39649162840646","19.2090560386263"
"3635","1.48479894734321","-52.258776800459","-39.0889071607238","-13.056997435409","-0.676571912200203","19.8952346068053"
"3643","-5.85248970391772","-57.5756652060702","-44.0230274654962","-12.4392943616325","2.66581086560525","20.5779156574946"
"3648","-18.0635901894589","-55.3010407639234","-43.0685568813389","-11.804449599663","5.84029048449836","21.2575664671513"
"3660","-28.8122689513453","-55.6958657675355","-44.0282581848327","-10.2812457655695","7.85141116120246","22.0932962080627"
"3660","-24.7910966254186","-50.4226179463905","-47.4880086819624","-9.05264579626646","10.0451476524814","22.9242523726315"
"3668","-24.6915857492858","-47.451678155785","-50.384614947299","-6.54787916508323","5.19697686162807","23.7284006753048"
"3668","-11.0703382615031","-67.9725218713613","-35.6750545914949","-4.50805200211885","1.79703707766398","24.5293227086738"
"3676","-1.99426089997736","-80.4715130268622","-26.6822401034964","-18.0703366472954","-1.30098522124917","25.8942506707001"
"3680","-0.916425242990436","-53.8726688322307","-27.1208096066258","-26.4799615753129","-4.04473483234095","27.2478320598152"
"3685","1.6037872161888","-40.1481738868818","-25.2310051783975","-24.42978031584","-6.07103156851922","29.113039872525"
"3688","4.56719942101163","-29.0532377349247","-22.7853303236949","-25.201203349758","-8.13825329026588","30.9615196307513"
"3697","7.66679380391717","-18.4953834434967","-20.2069482921649","-26.6250051741212","-10.2236757061869","32.795506241412"
"3697","12.6025262839743","-19.7914457303736","-22.8806712378681","-28.1996424955878","-12.3171925725722","34.6169360226719"
"3709","17.0424497135719","-16.9686455808717","-23.8082691708593","-19.9039216504035","-12.6724103389718","36.9262716176779"
"3709","22.6842093341749","-41.3901392794726","-25.939362791596","-14.9260904692293","-13.3745490226775","39.2183276769019"
"3717","27.8952576824872","-55.7362227737112","-27.4377760959099","-27.4127755700438","-13.2667094073636","41.0419718577302"
"3721","22.8852929765031","-29.7389901160171","-25.1217190417131","-34.4974046286422","-13.4186456623742","42.8597850746675"
"3729","20.6947131559397","-16.8217198697965","-23.9750044524857","-26.3949552998695","-11.8197925111074","44.7178904508992"
"3730","21.1985948835813","-18.2483931258265","-23.4244831183561","-22.6611249273561","-10.642305424975","46.570904860394"
"3737","21.4504049798682","-16.1047867147396","-22.8362955367689","-17.9916855356925","-9.8388457919955","47.7166750286221"
"3737","21.6247609166522","-13.2319581805182","-22.2391156053036","-14.2059254212144","-9.08172853380542","48.8696904282849"
"3746","21.7753174802497","-10.210187559276","-21.6397888617243","-10.6244794337533","-8.34522126189004","50.0289830796409"
"3746","20.2935408165273","-19.6205154060933","-20.6876971152596","-7.09027260146592","-7.61787993229364","51.1937143272893"
"3758","19.2701964140183","-24.6300732531238","-19.8513870952788","-14.8872537016455","-7.36119508147578","51.8643725405536"
"3758","17.6429136821092","-19.0437217289547","-19.8528992275206","-18.9041013419368","-7.01382672796332","52.546967023958"
"3766","16.2700585577658","-16.6931779709471","-19.594431017599","-13.9105090644187","-6.12844300263421","52.8318062282564"
"3770","15.4493457933071","-4.9114143487896","-16.5263263931369","-11.433626827097","-5.32378605319611","53.132031182239"
"3779","14.5182900512631","3.17665612165933","-14.3474558874069","-5.1874020664544","-5.45708579365614","53.5136024533325"
"3779","16.1601327066566","2.78856349240884","-15.9386290382398","-0.529673416376371","-5.42752588553166","53.9056519847025"
"3787","17.0525509686309","4.96923235304253","-16.4098533994808","-0.307439045962516","-4.67232479344611","54.6468605529828"
"3787","17.7146932721749","7.67456535266002","-16.6137038638937","1.18927151164322","-4.01440707516759","55.3905797001705"
"3795","18.3060785820893","10.4870599006811","-16.753722123326","2.98065174897653","-3.3997544896759","56.1364740070945"
"3795","17.4538295242319","6.96447953460981","-19.8374220507122","4.84016210990366","-2.80434333919834","56.8842528673639"
"3807","16.9979943080098","5.68797342327591","-21.9438895027358","1.12604347344188","-3.58612439583528","57.7243526860187"
"3808","14.9373811872795","10.6525450240673","-19.096871603184","-0.716745354025761","-4.10038836072334","58.5644391686696"
"3819","13.4036672637551","13.6718436390474","-17.7472704519338","-1.27784695553189","-3.56251846770648","59.7445947935725"
"3820","12.9459278508738","16.4733995424861","-17.5653396952639","-2.02261162412352","-3.15672986165155","60.9193855337557"
"3828","12.2788035925839","19.1304819544306","-17.2021757773202","-0.581163410817323","-3.5562103007628","61.6814313144318"
"3828","12.9353798063475","16.0475642800376","-18.8035838128165","0.10575572160002","-3.83382050866017","62.4458758204954"
"3836","13.1786900383168","14.9722636440793","-19.7340090602352","0.936603822067838","-3.90170430164697","63.0763662980514"
"3836","13.2950158528052","14.3070145715019","-20.5042454807896","1.62072951794717","-3.9763158237932","63.7107993163206"
"3844","13.3723231102545","13.725517669489","-21.2362388037443","0.219133568742583","-3.74286600208171","64.3259760962744"
"3848","14.3517150845319","16.3216506690385","-22.3465797868994","-0.504698875215146","-3.5724111154047","64.9444693160605"
"3856","15.0682910210302","17.8068079018139","-23.3272465860235","-1.07182666118929","-3.9898682565364","65.1804111022109"
"3860","12.3186522271072","16.084102181077","-27.3767770876534","-1.60272300412518","-4.30878931441692","65.4249112144608"
"3869","10.5039481294899","15.3661971897536","-30.3989607736062","-1.31159822357007","-3.74404397208214","65.3140734976023"
"3869","11.2447794403084","14.7816905529548","-30.0408310815927","-1.29041520291391","-3.32630296513956","65.2153719106215"
"3877","11.4308512245459","14.2644302498831","-30.6556934542465","-5.0107313995369","-2.60067558156944","65.2858893634391"
"3881","10.2276965207242","11.9651527688731","-29.9881599707144","-7.51611387761463","-1.97812094674596","65.363017799448"
"3885","9.31767359133668","10.3019020221476","-29.8744703659998","-6.98127860008648","-1.93019692982611","65.2871696508949"
"3885","8.49772138942606","8.76855840001435","-29.8930041249692","-7.30351924963361","-1.79783014755048","65.2187829446558"
"3897","7.70544525901563","7.26174803522726","-29.9431045737092","-7.57629229127096","-1.7212248918476","65.1341887682781"
"3897","4.65341554832741","5.11388627639395","-25.0339812373928","-7.97762800334015","-1.60941863064045","65.0555524774024"
"3910","2.24703037485442","3.1950911167657","-21.7609046694861","-8.65631930802484","-1.38864130220824","64.7100135274648"
"3910","4.06772904605123","3.26249459729195","-29.5516640823779","-9.25913757284265","-1.17940093729904","64.3732307334061"
"3918","4.80728560370618","2.65557497833667","-33.9237772496055","-9.03076924151585","-1.44187152269027","63.771969695243"
"3918","7.00893249540827","1.26445552650411","-34.2742334336523","-9.07022353524771","-1.6141275637364","63.181565320449"
"3930","8.59983651823774","0.0731649059086729","-35.4845688431673","-9.48998316309168","-1.96399958538874","62.3738466692345"
"3930","7.15929164354125","8.2605998262552","-33.5537912215741","-9.8176726025145","-2.25286330608758","61.5778474334859"
"3934","6.46727215120466","13.1636197396349","-32.7731117836569","-8.7444172359772","-2.14133055330832","60.4972652684235"
"3938","6.00525237778025","17.395804786297","-32.2670040368404","-8.12725157481298","-2.09172825056903","59.4301211141434"
"3947","5.61390471774885","21.4909732204271","-31.826446879203","-7.12027608268675","-1.75861507910076","58.3066034818979"
"3947","3.28070621180631","30.8376674742915","-29.7459524654922","-6.3031732588782","-1.4994152506627","57.1942439992303"
"3959","1.51083435415879","38.3169748467395","-28.21394335148","-3.65505157302637","-1.08645509717654","56.2275841900642"
"3959","-2.89587495989453","19.6997022936821","-35.407838772255","-1.6435828312815","-0.725112643403892","55.2671582397366"
"3967","-6.45280646291142","10.0722581030646","-39.80493578269","-6.3238423266539","-0.573358319787663","54.4935096617185"
"3971","-20.6498047759748","1.67041175947293","-44.09793579124","-8.85128601916699","-0.394814767209761","53.7216845654126"
"3979","-31.6761810329124","-6.14110879806094","-48.0460839304002","-9.74895389586229","-0.0799358038064679","52.9060952365572"
"3980","-38.7152602474789","-6.541303026226","-47.7200984693107","-10.9098038119702","0.21557602441306","52.0925886782319"
"3988","-46.3091609703377","-9.48774941807421","-48.7537165696671","-10.1150812900119","0.315842614814573","51.2128704881512"
"3988","-54.0735419387045","-12.9542624663074","-50.1119231741974","-10.0082138713499","0.44927719261596","50.3357866940466"
"3996","-61.8903064460546","-16.5269980367797","-51.5476212622966","-7.01806292903273","-0.0557494426107743","49.2569369165782"
"3996","-62.6814118705583","-15.0214933692901","-48.4929877623502","-5.081272436273","-0.424720888547935","48.1832775595804"
"4008","-65.4737399812815","-15.3187687993318","-46.9263432330573","-1.23010211775321","-3.78150729048115","46.6606742421138"
"4008","-30.9976969622056","-15.4814476897053","-44.3763782168777","1.8436890169127","-6.50707378869361","45.1491069196478"
"4020","-7.45018538084259","-15.8966355195528","-42.3516576182527","8.45220573446358","-11.160394976772","43.4203806932704"
"4020","1.19489596357031","-45.059516333688","-42.0022435199056","13.7779809193763","-15.251052412285","41.7035084967401"
"4029","12.0809011051154","-64.1140530593466","-41.1727880906723","18.2057862839973","-18.5315785764133","39.362089303948"
"4029","22.3012922208122","-58.8007406496233","-41.3207114237142","22.7659734271013","-21.8118125789976","37.0395640436578"
"4037","33.1171598260752","-60.9303462352648","-41.0819718260714","6.2020215691154","-19.3996396573104","34.7787525354907"
"4037","44.1159997505764","-64.5801521886489","-40.7509212446613","-3.28600998885086","-18.1158651698321","32.5314096788773"
"4045","55.1710616589746","-68.5404558741757","-40.3978325596529","-5.51327180424509","-12.9791793496608","30.273063984263"
"4049","53.7172001305165","-46.7412628661523","-31.8319998109028","-9.24178221092641","-8.92897647203685","28.0251854563509"
"4057","55.8197162718441","-34.0607467626993","-25.9654761766576","9.28776185308674","-4.02443891502242","26.2398165860805"
"4061","10.7045003016374","-55.0275134408765","-21.9058123255109","20.1835564694072","0.400049520562011","24.4551650093436"
"4069","-20.3793286952701","-65.1666669557796","-17.6175138597448","16.437561219818","9.83674114930242","23.124575822772"
"4070","-13.9065186496397","-51.4375328936273","-47.619248326708","16.5862602471517","18.1425252552082","21.7873852368053"
"4078","-15.5336638351381","-44.8933512258689","-66.307303286885","5.89066974111135","27.3762029770881","21.6687657212556"
"4081","-16.8059001065814","-70.488126867832","-51.9654190827555","-0.672212274794904","36.1025456686967","21.5259133518572"
"4086","-19.6490833620605","-85.5672170369108","-46.9580461594747","1.11397151201368","35.1472367199143","21.1580172762266"
"4086","-22.9749721787259","-98.4985005348829","-44.1791721455551","0.650529966340547","35.9661771847231","20.7751438560193"
"4094","-26.4491821425515","-110.99109903145","-41.9323246341062","3.16916325061288","35.0235472481952","19.1550035917185"
"4098","-47.8441910291777","-133.414393757887","-52.4935810694189","4.39727747136303","34.9374887118493","17.542898206361"
"4110","-64.1857315739966","-152.286012331234","-58.9126136236488","-7.33753464491796","35.8233772339205","16.5272274287921"
"4111","-49.9949605353117","-104.528106426884","-55.2546276155502","-14.9094850290246","36.7615227481023","15.5083062106193"
"4119","-43.5425128729097","-79.8612600939829","-54.350878284648","-9.03127829767156","35.6077456397608","14.0331278895405"
"4119","-50.0304556842392","-106.241118368301","-69.7094536136772","-7.10328141933212","34.8836213764904","12.5626494738343"
"4131","-54.2545978893533","-117.247158842164","-80.0904574574899","11.8823155334052","32.6397843079366","10.7788343951314"
"4131","-36.9287128440933","-155.784575195","-67.161672159387","24.6517739732047","30.8200807090047","9.00354515910796"
"4135","-25.3011415782414","-182.865217245303","-61.2279635227936","18.1192140559729","25.9540480575263","6.10204037160342"
"4139","-15.4244936590438","-207.605837207669","-56.9642427668784","17.2238641513546","21.8132121563965","3.22478504512429"
"4147","-6.08585271603929","-231.868512573464","-53.0992109255477","-5.00864677354311","19.4879514869079","0.436555534682601"
"4147","5.42344139145083","-180.288745166061","-49.2589106270141","-19.3744898919557","17.0101371508212","-2.33454221544291"
"4160","16.2197130383178","-155.3983181187","-45.4645146778881","-12.0756517910671","12.9714208955863","-4.88674863028571"
"4160","14.8462232267238","-161.746132943819","-44.1116199222493","-10.9877560550117","9.19851994921242","-7.42930810045784"
"4168","16.7933255331291","-160.114293059823","-41.961603325219","12.4720513410357","10.9250594621925","-8.69387487976791"
"4172","7.81007688223555","-200.202081164344","-43.6017367677196","27.644434035072","11.6373819740149","-9.97119175893744"
"4180","2.52825455163023","-224.671015659263","-43.8867215704344","24.3094293839166","14.0760223647946","-11.2822273414579"
"4180","-5.54336150173389","-195.201877753456","-51.5625106965625","26.0753601598734","15.8824133931451","-12.6024767302741"
"4188","-12.152198682369","-182.976001849195","-56.6227627793984","1.99353568015014","18.4652037434643","-13.7039884751157"
"4188","-18.3115671642972","-174.272025991684","-61.0585878008702","-12.7845085511954","20.7132845421517","-14.8159864330792"
"4196","-24.3328272042158","-166.287390821463","-65.3453385983834","-9.9875778488784","21.8171380969669","-15.9370696217448"
"4197","-23.9469874341611","-151.266671074304","-70.1601037369745","-11.8471642137547","23.0521159651448","-17.0660242331967"
"4209","-25.3524353264029","-138.808845830619","-74.7809257571545","6.15911507373468","24.9364105869631","-17.9750781627183"
"4209","-10.4487064757843","-155.211454549955","-59.6997579832626","16.918550614847","26.729477837316","-18.8936106519773"
"4221","-0.493649813247353","-161.728746288923","-51.0749842628639","13.0195246701313","26.1179675147155","-20.3644844578416"
"4221","15.7273822043012","-141.984329442514","-46.4573619716599","13.0713383827298","25.9570620435007","-21.8339054979957"
"4229","29.273763187064","-130.376013776596","-41.3963974337039","4.76815200153728","25.0945006243167","-23.8235249333321"
"4229","32.2143260933198","-120.501309772062","-43.5212167240806","-0.22678110548922","24.4998896064031","-25.8038430504663"
"4237","37.6760346789116","-110.940692308157","-43.221552868264","3.78575050532107","24.0244449911087","-27.6173982020561"
"4237","43.9124167909452","-101.44422636048","-42.3430737017689","5.22088418452362","23.6019976150269","-29.4264703074857"
"4246","50.3868331734647","-91.960863225251","-41.3264095516406","11.0834696172336","25.4115989143665","-30.9142496620313"
"4246","50.3327451411575","-102.556684793974","-45.2435153899592","15.1297193626444","26.7938660573102","-32.4036617231834"
"4258","52.1726407255541","-106.073637664954","-47.518497681312","7.29424776338925","31.8742509152177","-33.4637194752707"
"4262","22.0263846227648","-100.279352273017","-48.2037848969854","3.19162164023558","36.0993109908726","-34.5317856508521"
"4270","1.29172981699378","-96.9632660228357","-49.1895521104027","-5.10668281691917","40.2550332439313","-35.4934300737765"
"4270","-11.6082478424968","-72.7479817059501","-51.6208398647573","-11.5150636108034","44.1799186747831","-36.4628709372873"
"4279","-25.0208608569422","-56.1840800797891","-53.6172277375882","-12.3923584322559","47.1934045313263","-36.7135611328789"
"4282","-35.4763691573652","-55.9081245205028","-53.6076252706144","-14.8708193700928","50.3215608638078","-36.9815274185689"
"4286","-46.86324660966","-50.7589477348178","-54.1991174651667","-1.41122548810585","48.0572806678475","-37.2644616686087"
"4290","-58.5363062652339","-44.614425749162","-54.9341135623155","6.51338154393937","46.8948056589646","-37.5603641282089"
"4295","-70.2973012505415","-38.2666065969959","-55.7033694381291","8.59477060971554","41.6809603886726","-37.7768140287201"
"4299","-64.0746735778806","-58.9212910569958","-63.6315297168949","11.9051582334854","37.585336813732","-38.0044264165082"
"4311","-62.9662103706719","-70.0311801647899","-69.2087897197063","-4.94752944929569","32.4628617996717","-38.4457583752772"
"4311","-20.3661385316953","-53.655970002281","-74.0486751713362","-14.9020907728826","27.8637120001131","-38.8922564741335"
"4319","9.54307788863635","-45.8869860424282","-78.8125215852856","-11.9768568975818","17.9916572681068","-39.7966714334802"
"4319","3.6955992230103","-56.6481303256575","-48.685219289928","-12.4537053770912","9.31456737595849","-40.6978244975719"
"4332","5.68114534878093","-61.8540143825877","-30.028087557803","-4.59017975361478","0.45349506576645","-42.5937215063576"
"4332","8.58394638149669","-34.5355014920445","-44.4734805385232","0.0417109428490485","-8.02940030869236","-44.4714623592461"
"4336","12.6485927273307","-18.053948837937","-49.5816911387397","-1.76908845427293","-6.51482085277926","-46.1520963893345"
"4340","17.0702397864794","-3.78582255059872","-52.4607651376485","-1.84949232226698","-6.87403379589294","-47.8219575257884"
"4348","21.6015826096581","10.0302160503202","-54.8076603930356","-1.52981410046254","-6.16915850810626","-48.2581945446834"
"4348","43.8725829607843","23.2151910607269","-44.6282173384712","-1.11763351380383","-6.21104800236611","-48.7056224923336"
"4360","61.1344555751363","36.5712726582325","-38.4982662195703","7.87688544393246","-6.61615382403678","-49.8202355813087"
"4360","46.3541845533028","0.0403940267467635","-40.7676084129836","14.0157136610605","-7.16279395543389","-50.9328963276684"
"4369","39.7483101580318","-18.8797914509119","-40.8221778135564","6.65285545040669","-5.87495341042066","-51.8398171509978"
"4373","44.1178339911058","3.61550939288629","-28.4066386445478","3.42829307969087","-4.99125865565088","-52.7484853826974"
"4381","46.8597731984054","13.5098363303924","-19.7940155650035","-10.5842360815527","-2.07882184505958","-53.3412589148525"
"4381","32.6482723878452","49.4547292938712","-31.1461506467559","-20.4510344578852","0.315863633525819","-53.9403420127613"
"4389","22.9474807094073","74.7803956525763","-36.4446243668678","-14.1476975709789","6.15071794842532","-53.2752571033922"
"4389","14.6326965825262","97.93710728146","-40.297861444571","-12.7056885715171","11.1555290862401","-52.6348999676419"
"4397","6.7437915971955","120.650814462364","-43.8060661810542","6.39690640970204","13.4893975125584","-52.038638963978"
"4397","-6.09244201832872","74.4967334714326","-50.3669457762114","18.9627783225305","16.1154094063909","-51.4605827467722"
"4410","-17.4488434479666","52.5765513935822","-55.8766136698139","13.3199124309146","20.6443514677673","-50.898299114286"
"4410","-14.8086996699837","55.8621759608716","-53.6323400112892","12.907032267552","24.8795894907351","-50.3496808125805"
"4421","-15.8678313750243","53.0160335941514","-53.7969088821405","-9.64467923176978","24.2561961278906","-50.8331442113405"
"4422","-8.88904681323843","92.8056720428898","-50.8731332880311","-24.1150758857228","24.5120087481113","-51.3108007991135"
"4430","-4.86044823368178","116.863579172678","-49.2920537189384","-22.0714102287987","22.2971421734003","-51.7154102400226"
"4430","3.37368870953466","85.0927766823154","-42.0784593094156","-24.4895536154242","20.8234828732804","-52.1167318024884"
"4438","9.88006324991387","71.219077512451","-36.9001717712217","-0.593787841134928","18.5596707596867","-52.6285649868832"
"4438","15.8555474873528","61.0008241054302","-32.2077885301577","13.925976412492","16.6644515653246","-53.136145183933"
"4447","21.6679048311324","51.5291878177166","-27.631408919453","11.2432017013831","16.0840553624091","-53.5720244633147"
"4447","23.2321687792459","32.2256648304524","-24.5621841461487","13.083054405221","15.3484044154401","-54.0057822341028"
"4459","25.9711192270536","16.4739996353108","-21.0127739159236","-5.75218324044883","13.6105463882871","-54.709766491999"
"4463","16.8833632281602","40.343784427836","-30.2763913035978","-17.087676737781","12.0269737368645","-55.4078743509184"
"4471","11.3616100095303","50.6461671610156","-35.258960275667","-12.2912028061797","12.6893906052911","-55.6021058898232"
"4471","9.20384163072538","41.2614517346131","-34.4288482806272","-11.9048814883095","12.9506732717612","-55.7997801549591"
"4479","6.73972633278887","37.2756878591183","-34.931030726514","-1.00570395109964","14.0289291358723","-55.478980122088"
"4483","9.69977807010039","35.8292501784405","-31.5594774731152","5.80413490901852","14.8305199923463","-55.1689751612086"
"4487","11.0665159650763","34.1014645395538","-29.6431178189012","3.81504963446289","16.2867022412514","-54.8229789327678"
"4487","11.9436756246146","32.316214171135","-28.0741676059662","4.231578639116","17.5340029249551","-54.4857999536756"
"4495","12.6704023673944","30.5192267524059","-26.5881570925719","-2.33074592714788","17.1953508106472","-54.2016043118187"
"4496","15.3483264107638","38.3091582817278","-26.1434795912514","-6.24664049752378","17.111373051119","-53.9233133103265"
"4512","17.4457956950212","42.7171978702037","-25.3674074439627","-2.33398858442988","15.7409171538589","-53.6954821684085"
"4512","9.68249527473471","35.2649150687118","-29.1971768897217","-0.691310475319447","14.6983218942577","-53.4713693316686"
"4520","4.60927187020362","31.6101863300212","-31.4665339472987","-0.493241118835194","15.6678574249069","-53.0917737008523"
"4520","9.43566007221905","38.5359065003934","-27.4807454972781","-0.109177530952985","16.3322540445368","-52.7174681382455"
"4532","11.9439062265552","42.1626611376852","-25.3416185614842","-4.17484100805803","17.3897360603765","-52.3704179248887"
"4532","16.6513507223484","37.1424696682617","-21.4241685692291","-6.72931903838278","18.2820361483908","-52.0269816828411"
"4536","20.3145438464279","34.7961576182452","-18.3421659814946","-5.11380848400207","17.9188714994163","-51.6640045307093"
"4540","23.6568693985748","32.9959798235321","-15.4596161100071","-4.6941612803284","17.7573601727991","-51.3040971794503"
"4545","26.900601832717","31.3073488033858","-12.6246831032114","-3.24210206557282","17.0323186321961","-51.1055538215897"
"4549","24.7650140873815","28.4203895494113","-14.4508507436952","-2.29134045707325","16.4766565735809","-50.9068158529573"
"4561","24.1365202972066","25.9686742705986","-14.7497984105095","-4.81718701862754","16.525113929424","-50.8666135990537"
"4562","25.5961323039369","24.6114778357453","-15.8465744092841","-6.24685480987881","16.5022431627195","-50.8237663203056"
"4569","26.7373574846026","22.9178345758866","-16.4738220368497","-6.75093600877649","17.5985479551877","-50.6879392124306"
"4573","25.8171855102749","14.942170491433","-18.5388864870741","-7.42101375474978","18.45258712183","-50.5515545964792"
"4582","25.4236071379971","9.14341684806404","-20.0672118884883","-4.83951904739334","18.856724028505","-50.5053751425674"
"4582","7.31661119065418","-5.97959883597091","-27.8431673459315","-3.36623327241025","19.2807745251713","-50.4573492316099"
"4589","-5.67319425821077","-17.5670754575006","-33.490667068206","-3.38732885705809","19.4648385437428","-50.5437558331691"
"4589","-17.0906383630164","-28.43242565142","-38.6300243562667","-3.05393805824792","19.7021726408952","-50.6266344514496"
"4598","-28.0249423156178","-39.1502830392259","-43.6480689342801","-5.85778760600132","20.9274632043487","-50.819816665387"
"4598","-45.64941903173","-28.4326502948744","-50.8915674656869","-7.5669936707621","21.9721306729136","-51.0085656585004"
"4610","-61.2895880347625","-25.2568637132856","-57.3863655540554","-4.35349923982735","22.2832569656379","-51.0347693943352"
"4610","-69.6845380464077","-7.06464900452238","-45.1034898450785","-2.64183479595768","22.688153244585","-51.0601442966588"
"4622","-79.7732464759403","4.97463960930452","-38.8976771811075","5.83313582644191","20.4596930046101","-51.1301451924239"
"4622","-88.0464299877864","18.8458996042233","-31.8882721616948","11.8518400717648","18.7800920546898","-51.1988099452949"
"4630","-97.1417563706872","31.3713359059299","-25.9670194243038","15.3923398840596","13.3631036184618","-51.2889891135003"
"4631","-91.5259735845517","8.13782904189005","-57.9261142218784","19.4398578596449","8.84397539880361","-51.3778083211996"
"4639","-90.229901903072","-2.63936685708329","-77.5686726382809","18.3689797742081","0.182775846372163","-51.5107933551454"
"4639","-90.2611497264037","-10.8723874041848","-94.2708106012997","19.07468520506","-7.40053977596939","-51.6420435584076"
"4647","-90.7002435897063","-18.5857654793517","-110.270959614252","10.781180799683","-11.5183722572643","-51.5450702440367"
"4647","-71.5612843314892","-41.1336651460615","-110.216930701345","5.72698292439834","-16.0149898073691","-51.4503646038741"
"4659","-58.0465681986013","-58.3914846900014","-115.35016572738","-4.41527194227778","-18.0050064691579","-50.0653170245474"
"4663","-61.1221812820172","-35.7087410281404","-92.3087138254446","-12.4339286430223","-20.6002548408201","-48.7023201850234"
"4672","-60.5155120198166","-26.5082212210741","-79.2409045169474","-4.67923259282371","-24.0245658618951","-46.8369709872472"
"4672","-56.7122561932584","-20.7438031169567","-67.4621961174688","-1.9176039046826","-27.4575884542466","-44.9963848726346"
"4680","-53.146783826544","-15.3012015686145","-56.6112445874579","11.2221061800717","-26.4775272685535","-43.9934471074645"
"4683","-68.3082551067267","-28.3128318835497","-89.4145140635757","20.2413165081886","-26.3748218181243","-42.9962459274134"
"4688","-78.2039624841425","-34.8537002960205","-107.979687908781","7.64834726480672","-20.8456071255971","-41.7319503541621"
"4688","-86.4816563031191","-40.0729291808453","-123.14569283874","1.73845921152493","-16.6430443578471","-40.4762448187776"
"4696","-94.2621823941771","-45.0222159680679","-137.500188307471","-2.20173394606104","-13.9014370486584","-40.1121914832478"
"4696","-86.8923595848737","-58.2486573945034","-126.439668515845","-5.92651697522821","-11.2495649350819","-39.7406635434487"
"4712","-83.7272824974607","-68.5256902709898","-123.631628734682","-5.53327482353707","-10.81497474205","-40.0654930633709"
"4713","-90.7918115616192","-33.1987650109373","-113.001147412958","-6.48791040126251","-9.966483128499","-40.3736450696044"
"4721","-95.7195961450841","-13.6173270862468","-106.063155097119","-3.22608038042622","-9.02723188476397","-40.5766595309569"
"4721","-99.7538401858743","3.646004171575","-100.147599771014","-1.54936783138187","-7.98761683272406","-40.7685830675311"
"4729","-103.653525636542","19.9358670115485","-94.3961386077369","11.4702521224156","-6.93447201557371","-40.9735694990637"
"4733","-98.9466536056424","-10.6985686795678","-104.887466884916","20.4924482574933","-5.85531006454766","-41.1698735924592"
"4737","-96.6552409242699","-24.8971937877185","-110.05655988528","14.9353355079667","-6.72421377483749","-41.5173596533008"
"4737","-95.1060274849372","-35.7388391054249","-113.955035158277","13.7273631669858","-7.19948669310214","-41.855829419726"
"4745","-93.7848699286364","-45.8948283518007","-117.550166192411","0.259012361756315","-9.14828193713686","-42.1411433967312"
"4746","-91.1796035494362","-33.1406371531615","-116.211793350408","-8.54404169780327","-10.6924012781265","-42.4204033211994"
"4762","-88.9797684952389","-28.387089718265","-116.455607586387","-3.00250313842713","-11.3100197354529","-42.1956330070208"
"4762","-88.1571303791553","-31.6246194031533","-113.202372124175","-1.64437337450454","-11.9955926171569","-41.9741720643277"
"4770","-87.0176641636079","-32.9543098056152","-111.314259376594","8.08573619185613","-11.1561201408806","-41.0980890067717"
"4770","-89.8095424081836","-37.0189366964188","-114.331334977836","14.4715183363807","-10.638409571733","-40.2348428687892"
"4782","-91.4294065702501","-39.9021686206139","-115.919463519792","9.93120025434495","-12.0679068082377","-39.3147024688137"
"4782","-83.1082961118572","-48.8651504975032","-117.166448656663","8.60467533785589","-13.2033917359405","-38.4052690123436"
"4790","-77.3926180699173","-55.5499085325639","-118.331990032495","4.05911355394061","-14.4258570402833","-37.59580021261"
"4790","-72.4775123766926","-61.7693441330224","-119.478087719505","1.00928320519182","-15.5470053939274","-36.7929405593767"
"4794","-67.8083988963077","-67.8937386035582","-120.619543466726","-0.95182893237419","-16.5297787335441","-36.3132157054255"
"4798","-74.5900142350476","-65.7741765032771","-119.540700396351","-3.08122020624194","-17.5110121293659","-35.8334540913234"
"4811","-78.1700999848175","-66.550803588687","-119.191788493811","-1.81806345772505","-15.9720282229054","-35.4670208604902"
"4811","-76.7377539814444","-61.8852441750219","-117.572903453223","-1.71052089701093","-14.9322203568317","-35.0987750777972"
"4819","-76.1452358991303","-59.4681295994741","-116.470828061484","3.01169852761628","-15.9807329047578","-35.2050718795304"
"4823","-74.5920068186987","-59.4496674279563","-114.047899409714","6.04087029486176","-16.7579905863837","-35.3025112746251"
"4832","-73.4635796531651","-58.8411249719271","-112.129633408099","7.47581687080948","-17.2590855668109","-35.4149486796091"
"4832","-54.3873297887531","-38.3228717111955","-104.554908720475","9.22216509140587","-17.7373618633195","-35.5203803255388"
"4840","-40.4762446587514","-24.7581018361726","-98.9097746077243","3.71771504221081","-17.8944365491892","-35.5517260587829"
"4840","-28.1522619370928","-12.6135663378593","-93.7253063361984","0.676819073193234","-18.1086622590026","-35.5788839292876"
"4848","-16.3159488608548","-0.759110727984736","-88.6508163264008","3.26426145259094","-19.5614131297963","-35.5570693523669"
"4848","0.888816137875356","0.872139785908327","-76.522307454237","4.29302328792942","-20.7849770887128","-35.5328251607001"
"4860","16.4831476874068","6.07532213136291","-66.7297389812616","8.35748474316343","-21.2222965979758","-35.257083445666"
"4864","23.8976484217086","-28.288613081019","-83.8785579443788","11.2038256401112","-21.7499472050823","-34.9834448603094"
"4868","33.3387289933961","-48.2940489493801","-92.4792993415273","1.91762345436264","-19.2072371634726","-33.9181067963738"
"4872","46.144739528072","-69.2815310635348","-97.207580248378","-3.47372536369493","-17.2990362268443","-32.8668421423522"
"4881","58.3646935520207","-88.2895940607419","-102.051359194759","-13.4831807199782","-12.0025924958758","-31.5783781472122"
"4884","47.0449017234938","-55.6425999165186","-67.5056595683816","-21.4403813886045","-7.5592851696752","-30.3044051936529"
"4888","42.2920419764628","-40.9851688453975","-45.9362099867398","-20.9281456567277","0.112823484742553","-29.042987244874"
"4889","39.5570062985336","-30.0020682473907","-27.4646793214981","-22.9777045564884","6.90088684283597","-27.7924469230867"
"4897","37.4419882975528","-19.7694419310989","-9.732738412889","-9.13443492471561","11.9271511239054","-26.6873632306837"
"4897","16.4234938898253","2.84425124993491","-14.7919744883934","-0.936608843464541","17.0498851055181","-25.5883028242602"
"4913","0.8765200871744","21.0067513333891","-12.4523216755593","12.0052099726319","18.9494617842682","-25.9908160435789"
"4913","2.17763970771024","-0.887291212085232","-37.3366547633777","22.6238800550411","21.5155938440246","-26.3742891659119"
"4921","-0.304319697715701","-9.16279845634021","-52.2603771671146","11.939805840282","24.1293224099","-27.376083292622"
"4921","-3.94870743636733","-14.6567484691541","-64.8061271866316","8.07035686964279","26.9242187157173","-28.3535893019171"
"4933","-7.95027503317493","-19.5825712597189","-76.7841657636013","-5.75601390035166","25.1960961710978","-28.5618746102983"
"4934","3.61308234353009","-8.37424652319614","-40.7555584950155","-15.3645092507615","24.4164376002946","-28.7637088893718"
"4938","10.699080968165","-2.79055604179112","-20.4459593554998","0.623782091652221","19.0817381182316","-28.959954011631"
"4942","18.5760134717849","3.51189689114035","-3.88907864096928","8.61026713013549","14.9212613407999","-29.151356701403"
"4946","25.4159765714698","8.92115554513584","11.7718870475248","12.1642311911445","11.2207895456469","-28.0689293185137"
"4946","20.562166947434","15.764158034013","-2.51114502670318","16.1533588919733","7.76489717513804","-27.0028585182283"
"4962","18.8352067063821","21.9999996897859","-7.06293554670523","12.6372964976288","6.09746565347558","-24.9760610264006"
"4963","27.5821749938305","-14.7348150939466","-17.604671203248","11.6859706406438","4.1454218027104","-22.9768921596201"
"4971","33.9274718433195","-36.3862962015805","-24.8564320429304","7.22403720815659","2.25343347160118","-21.0016606694328"
"4971","36.9957117189648","-45.6191271644346","-27.0957224222897","4.27042159571297","0.268153815682964","-19.0471684667485"
"4983","40.5570088768269","-57.515474918859","-30.53834758609","-6.64777839887581","-1.72751023809938","-17.2013329203472"
"4983","35.9754330850456","-25.7085086307348","-30.9218554779125","-14.7074577028749","-3.74779257694855","-15.3696372486724"
"4987","33.7917931900393","-9.61523224213252","-32.4750370249379","-6.85923977970169","-3.01064833279134","-13.3914880065811"
"4991","29.9412921140726","-1.47222955604633","-29.1998027319912","-3.95298139709967","-2.82718531909415","-11.4264517311145"
"4995","26.9986138800278","7.68694642474144","-27.6718439835718","8.31727585119014","-1.30359037879525","-9.63148082453578"
"4999","26.6369949744874","-11.8220201071543","-28.5336394991723","16.8125688800239","-0.203994462303673","-7.84385415870651"
"5011","25.7084592883566","-21.1063945338328","-28.8459592351394","7.38390781415756","-0.101703737643934","-6.49335940828856"
"5012","27.5510762824237","-13.936400695466","-27.935115754891","3.45107688021814","0.0770523945663434","-5.14159473445732"
"5020","28.5051865625285","-11.4056366990681","-27.3522572123331","-5.50796949229926","-1.26545171559021","-4.44621914856371"
"5023","26.1732263713211","-8.78088943562837","-27.3056292312837","-12.0691194085407","-2.28451055255854","-3.73953754446593"
"5032","24.6115538810538","-6.71694628729409","-27.1270196526481","-5.16367714811975","-0.857927515407796","-2.90970020026782"
"5032","13.8749916384298","-2.82813393319002","-30.5451016272615","-2.44464481548053","0.176313322784089","-2.07316100878774"
"5040","5.87925704197161","0.353404123309426","-32.76184914553","3.30392298914141","1.56485737185956","-1.14012716664014"
"5040","-3.84725119550635","-0.488341646724493","-36.3473795944771","7.49294503231565","2.77097177304976","-0.203490583193878"
"5044","-12.5855750003871","0.00816531201838814","-39.3196900082658","7.50079717678437","3.83374300071102","1.16703628922649"
"5048","-6.29351171967985","-1.77196040271103","-36.368661096015","8.70192745754152","4.87276477978594","2.5334847006147"
"5061","-4.08305487972219","-2.59708355924793","-35.2835083126046","6.85362565101051","2.85290119682227","4.05510386788366"
"5061","-6.5122141537148","1.98053164192171","-33.4461519103642","6.18026934009359","1.4326501582299","5.57116261777479"
"5069","-8.36699028348407","4.76164480495491","-32.1092162142813","6.76909363173606","0.838962740366596","7.55851681010892"
"5069","-8.96192853298929","2.25546544501295","-36.0346359415075","7.08974475988775","0.252875493099253","9.53420027952969"
"5081","-9.80975585056846","1.40936769247344","-38.2963778230147","6.67625119897446","-0.112094335805148","11.6811486332006"
"5081","-7.65452069121467","-11.9193318750976","-35.8634569998635","6.47301717325332","-0.518725938015926","13.8164804849458"
"5089","-6.39653322198909","-20.6575766454255","-34.7497436250321","6.81365856189024","-1.87704607062466","16.0324360121362"
"5090","-5.68508017029191","-24.5794061282477","-32.0840365489989","7.00004854886991","-3.05861355813141","18.2382437045418"
"5098","-4.98156098612914","-29.677492904805","-30.1078102067283","4.63909032317807","-3.66388788051131","20.5486195686291"
"5098","-6.98884695088165","-27.0786034794502","-35.5878151431841","3.10916363379415","-4.33286557852844","22.8495930538768"
"5110","-8.22908318955875","-27.3276228312793","-38.7079029112583","2.47889508320699","-4.53248885397625","24.9383719220071"
"5114","-7.2362068380227","-22.4837449320742","-33.8320624080888","1.65663510766247","-4.84337469956442","27.023305866537"
"5122","-6.73716101227462","-19.7596534662653","-31.2672931034346","4.22144067270026","-5.45258539870107","28.7648278816514"
"5122","-6.82996439360988","-17.4685239271621","-31.4734540241643","5.62936445374712","-6.03447102364767","30.5088185984483"
"5130","-6.84462553752147","-15.2658259522123","-31.0811402030887","5.9207874382263","-6.8219416558766","32.0508997747303"
"5130","-3.0435616538502","-19.1867470797283","-36.0763118588498","6.43406599015623","-7.56084273804754","33.5980469939003"
"5139","-0.310038285874853","-20.9584045471155","-39.2176789187521","6.99863942673249","-7.68714189930635","35.0135511422522"
"5139","-1.2561430963762","-20.603072451811","-40.9653914100437","7.57507267472169","-7.92099673203775","36.435000039694"
"5147","-1.35288885332447","-20.7533072057715","-42.9203861411086","6.27932898171826","-8.91810791909796","37.8389274075093"
"5147","1.45200643787054","-23.98775141342","-34.1811663567554","5.61072213666865","-9.79466444227428","39.2476741627372"
"5163","3.58849023252138","-26.1921389240328","-28.9888353631438","2.82306147000268","-9.77776217443335","40.7739566562084"
"5163","0.238274690010713","-25.4206812832113","-26.5454435024209","0.825457627295881","-9.9035092420317","42.3020718404008"
"5167","-1.67784133769685","-25.5814135205568","-23.6783267990393","2.2297222063991","-10.1860132017134","43.8317748635792"
"5171","-4.03352035989612","-29.164897363232","-29.939065965661","2.60052755292052","-10.4782321341168","45.3628535867682"
"5179","-6.00426409407423","-31.6474710322837","-33.1389676228614","3.40452916347685","-10.152664861189","47.0084844454308"
"5184","-12.2916800589051","-29.7390412378447","-46.9858872922976","3.92868941619941","-9.952347637046","48.6533630083025"
"5188","-17.2854817724143","-29.2537582086777","-56.9146505906441","1.91183982632811","-10.647577396828","49.9121649944411"
"5188","-30.4808602703513","-29.9929410093838","-62.4911535656715","0.707487257565114","-11.2010865095981","51.1764711308845"
"5196","-41.1163408242906","-30.4622183840219","-68.9686083150386","1.88429238234038","-11.3494090387719","52.1054653538374"
"5196","-13.996026699762","17.5371084834335","-48.6786143153833","2.37164131639763","-11.537531697642","53.0439461134639"
"5212","2.8855268322739","48.4760459657969","-37.3182235880534","8.43046672615609","-13.8274124860182","53.8772857542603"
"5212","6.19379782788375","71.2255642462781","-52.4303112362839","12.5374646456905","-15.7120146044676","54.7195313738172"
"5216","11.4914004110863","94.9224108555072","-60.0423750903453","22.7023363901711","-19.7181709659227","55.4561328805161"
"5220","29.7233370163701","42.9960936089337","-60.7210150121763","30.5878398277084","-23.187852643638","56.2012045731176"
"5233","44.6496120469131","17.8439039807151","-62.6643858785385","15.8718156354788","-21.8464614966258","57.3617116509612"
"5233","53.0757112169046","-41.5258477347393","-37.5044527916565","8.41012698992433","-21.3054271972093","58.5221509820277"
"5237","62.7444985307597","-85.7844646372973","-21.4339417084943","-21.7128694435218","-20.9959166949278","59.7278757103149"
"5240","49.8078596599516","-33.9367051944796","-26.0266726064383","-43.3153520087404","-20.8693724800434","60.9328356016114"
"5245","43.5052416802314","-14.2594202411513","-25.0524965001814","-27.9257472202239","-16.8116107243991","62.1371328399149"
"5249","36.3634219146146","9.29839009138905","-24.1583002356141","-23.7832587901563","-13.5855065515573","63.3408559572038"
"5261","30.6637402522398","27.8287895821314","-22.4831981672627","4.60905669848849","-8.30305158053944","64.2946891465862"
"5261","20.1258687436852","20.2636516467796","-36.2968997891888","23.4281374171252","-3.66606942098183","65.2520182826209"
"5265","11.2213645425199","21.3285550021828","-44.9083613786784","17.428649394172","-1.18247068649254","64.6026610017855"
"5269","19.576768528227","17.3681832256628","-42.696585214467","18.4708982511403","1.54344724211345","63.9812743397521"
"5278","23.3356319890356","16.1614095583366","-43.3408951415153","5.71739405837166","1.88870542846288","62.6132717780941"
"5278","12.7496605628654","27.4767615096653","-41.391112188349","-1.50580498599232","2.77520551629773","61.2784029344818"
"5286","5.39594549887132","34.6897313176268","-40.6820217020503","3.37465352966492","2.37825217414798","59.9268969743838"
"5286","8.44698363761933","40.238752223121","-33.3649825988334","4.93358010034502","2.39050465719754","58.6009766551902"
"5294","9.13509480605734","45.9079150601787","-28.3903776388877","9.43900260565747","4.23332745367493","57.5692882331"
"5298","4.59448773318425","45.6397196612202","-37.2549182309092","12.5256799057651","5.83026539220322","56.5525216435174"
"5306","1.10725013833604","47.4788313131478","-41.8833833500053","9.65957421903992","5.79368860625932","55.6847155735881"
"5306","-8.35327214654048","39.9794645781537","-55.6101840581609","8.59713473036056","6.01063381387069","54.8259685520323"
"5318","-15.9292082090467","36.0127332468015","-65.7690996555898","5.97067160818103","6.27811795665733","54.1564466404397"
"5319","-13.6837632138484","35.5689085533977","-60.9156772712469","4.10259298639353","6.60807843487206","53.4908689247793"
"5327","-13.8804982010047","34.2846301414211","-60.518245203614","1.8438459869205","6.40592810767673","53.0781009621094"
"5327","-13.1349133243918","46.943302331515","-54.3509275372939","-0.185226847502761","6.32713051227454","52.664366782461"
"5335","-13.0997814145054","54.5897928968597","-50.6861211758566","3.42818418716469","3.90808087169898","52.4765159390224"
"5339","-20.0538689608571","64.9836353034944","-57.3057015287409","5.18618524185949","1.98824377149089","52.2843698936239"
"5347","-25.1555370011157","73.8386185532834","-60.880551781329","9.91127955979517","1.47242586563635","52.4512552381904"
"5348","-23.6280394490786","53.2521939845991","-58.6208495157447","13.4023909492051","0.821021716231825","52.6092045454296"
"5356","-23.6435953100825","42.8724237065602","-57.8682201292694","5.96006998718721","0.0160018652323354","52.6687235049332"
"5356","-17.6332043282221","31.6323076851415","-57.0174574978256","2.00984694139859","-0.797335967222369","52.7229626396927"
"5368","-13.6112180461878","21.8564678526736","-56.403266770062","-7.04073724956088","-2.82748129210859","52.0924659534823"
"5368","-7.69496998069675","31.6660809141625","-50.7026684729065","-13.9305680990664","-4.61878113986835","51.468715741792"
"5376","-2.67667127536305","34.7359815927312","-46.7077533915168","-9.99107191163552","-6.14833181333812","50.2613374526347"
"5376","-2.97861996683104","35.8546695007986","-46.607348576804","-9.38774367013515","-7.66147397485635","49.0683051522179"
"5384","-1.9353233835827","36.8948262987412","-45.4567098334645","-4.88615603102743","-7.95421051753625","47.8423580902663"
"5388","-0.986491571143709","37.4161326942835","-47.5074150378656","-2.12325783019081","-8.48419233156557","46.6278937553419"
"5396","0.233314010194394","38.1114649849084","-48.3624014436475","-2.38017081664066","-7.25336463703012","45.1513134712254"
"5397","1.16398131446304","38.1240408589426","-50.9397639269025","-1.85528970472929","-6.43944673684966","43.6876365373054"
"5405","2.22580497492221","38.3971651689228","-52.7883223576127","-1.82179196559964","-6.12199579385092","41.8723862930662"
"5408","5.29149540268498","40.3755978820309","-54.1458606207156","-1.52190622058664","-5.82534012126861","40.0725337490434"
"5417","7.8129148412185","41.7823362547156","-55.5661739027707","-1.01892599130578","-5.38240609926304","38.1273174116883"
"5418","8.10196582599044","44.2215886033637","-48.3712882295072","-0.548988598576057","-4.97441725890599","36.1961582212934"
"5425","8.92507598768057","46.2317297629507","-44.0196305519883","0.160939825968846","-4.14649495377855","34.1864899246446"
"5429","16.1753861394289","46.8612843512007","-33.6891864935743","0.786356207992408","-3.41181435271694","32.1888015206183"
"5437","21.7005848199339","47.9288570319846","-25.7113812666689","-0.0581763701515287","-2.22091600035623","30.450884978538"
"5437","30.2842944308447","50.5224956684609","-26.220920167591","-0.422573587322454","-1.14712253018412","28.7180341745137"
"5446","37.6877940219769","52.6278300710989","-24.256707316886","-0.109946153891663","-0.0320934566938872","27.1029325463578"
"5446","7.72558165023363","7.51289424613205","-42.0973353680084","0.0392151080761988","1.04127445295394","25.4898485307862"
"5458","-11.8580092437978","-21.0066825932349","-53.0861237932412","-4.02376642064083","3.71359188035966","23.9465287093802"
"5458","-13.6612277535669","-38.6663634785294","-33.5544172016396","-6.70063100780303","6.05701502396385","22.403652423822"
"5466","-18.6210635285502","-58.2679334249006","-23.136320587914","-16.9104480545902","9.46727621647854","20.9291765559995"
"5466","-38.1942347637634","-14.5169305705336","-25.355884033901","-24.4219474576178","12.5719955619323","19.4539626512923"
"5474","-54.1976519244061","6.67370221514566","-24.6525322326514","-10.048698706102","10.8439241954212","17.6607006630423"
"5478","-61.8593066586262","59.3151289744425","-40.124264333066","-2.63551098167596","9.98655101399842","15.8718825536496"
"5487","-71.2377844338226","98.3003143448467","-49.8775972981814","23.5803060766063","9.01872068322849","14.2682909820665"
"5487","-56.4976486849257","52.3585400241119","-47.0641045200106","42.6034501540396","8.32176640612792","12.6651792527858"
"5495","-48.9065760969818","34.8106125636895","-47.610437804453","27.948460541505","3.20390020919813","10.8811068862764"
"5499","-40.160594706254","12.1798109589885","-48.4657344622045","23.6068014187996","-0.960091685939277","9.1002506438235"
"5507","-33.0397439867507","-5.42915701381351","-49.6747922971335","-1.13236342120561","-6.53507912733923","7.14080447230061"
"5507","-22.2879877318536","-0.750721146693182","-36.4555041324108","-17.707604196848","-11.5575829395405","5.18662840087864"
"5515","-12.860561558183","-3.36012985685037","-28.0316271341969","-14.8842404203443","-14.1881106417953","4.59734111808829"
"5519","-19.6501570117575","8.27272288434162","-31.3906199730222","-17.4757551107833","-17.1348474826737","3.9905903127921"
"5528","-22.0827637349025","14.054527613089","-31.5226269901966","-2.78230021311483","-17.8271018988575","3.66344575580707"
"5528","-13.1556376088078","9.19561202670836","-31.3773845956392","5.42758592729907","-19.0567134414141","3.31855140317368"
"5536","-6.6580014428194","7.42335166531105","-30.8859523392801","3.54208923159266","-18.6589851398551","2.86759048305903"
"5536","-8.99812303733423","1.86398398364125","-37.7443988306345","4.18245459204478","-18.7375250053043","2.40473373514223"
"5548","-9.27382629231477","-2.00889241390374","-42.1375378045854","-1.77447300729213","-19.992142572454","1.68217795884482"
"5548","-7.83184790626217","-1.73031205614167","-38.2982363804433","-5.19675056849335","-21.1498007779006","0.954619547323361"
"5556","-6.50207673732133","-2.72380537566374","-36.8335418150265","-3.5402650861516","-20.9890190609022","0.0413504927734628"
"5556","-0.433286151833432","1.05098880905143","-26.2488120670846","-3.24952660913404","-21.0618835191566","-0.872817831716365"
"5569","4.27166498533646","2.99969570138454","-18.9867869207975","-2.88542625912411","-20.9276047690766","-1.85578142090125"
"5569","2.46372214516099","8.23876238442548","-17.5904520128394","-2.72436402325382","-20.9012025855283","-2.83834906769023"
"5577","2.25455954758525","12.1098781437769","-14.7144779706488","-0.735326887826808","-21.3893567589896","-4.04729413526337"
"5577","3.0106191271768","4.31652448386953","-20.8903995836647","0.616353513606832","-21.8063511570559","-5.25237207460457"
"5585","3.78326294381368","0.480727444668794","-23.8873491271589","-0.655636507993697","-19.9832193993572","-6.65814796094526"
"5589","7.37093368613249","-13.71632503129","-22.6380589448771","-1.13424133419851","-18.583829475482","-8.05780808258914"
"5597","10.1635789729293","-23.8096421678356","-22.3550316409537","-6.98341421697386","-18.4615784112563","-9.79225021643423"
"5598","11.3238981988408","-13.2037617506427","-25.7195366642948","-10.9343078828356","-18.2073132236263","-11.5167467083591"
"5606","12.8026518879991","-9.43011370887475","-28.0148448361462","-7.86639881005058","-17.7077049580985","-13.2326263192159"
"5606","7.57447821648425","9.43306950167233","-24.7711083361544","-6.8956831475048","-17.2189845141153","-14.9410402843219"
"5618","4.30546406571165","22.1982585769796","-23.2049935521028","3.35387293812975","-15.8952620982336","-16.4162655669263"
"5618","-2.89807352687735","15.4012737344732","-28.1685832850381","10.2287754517265","-14.7401866979959","-17.8894567164249"
"5626","-8.63057384404103","14.8087559568699","-31.2110590653245","9.81427664346076","-13.5045875078214","-18.8621004761388"
"5626","-9.10371593137522","11.6764930928917","-32.9494867454889","11.3944065630556","-12.3331767259248","-19.8410711395058"
"5634","-10.8008127341721","10.1454926294014","-34.8565890995124","5.26389462079673","-12.1545781525356","-20.5761309067159"
"5638","-10.2333365099353","8.69014135393223","-33.8450396259796","1.9706170288063","-11.7975159933611","-21.3198668398039"
"5646","-10.5300239494187","7.39024126622573","-33.8166981920731","1.0313719046849","-13.4140375342765","-22.0484477364286"
"5647","-11.3292254719608","6.3375820091595","-32.6140755828493","-0.323600991876346","-14.5882769987059","-22.7838983446483"
"5654","-12.142834714771","5.21542117245668","-31.9311078929091","-0.218157114515939","-15.2547656132127","-23.2078922049445"
"5658","-13.9087995811361","5.73115671642307","-31.090399393707","-0.655052520254673","-15.8954406371249","-23.6420406619749"
"5667","-15.4073951730371","5.66142915596836","-30.3720322307756","-1.39422051154006","-16.5246355038315","-23.8129224808111"
"5667","-11.3393922973584","9.53052173293383","-29.2953948201103","-2.10327648258418","-17.1487247650635","-23.9957106955638"
"5675","-8.80093829602279","11.9441100500253","-28.3532248269337","-1.21345791597152","-18.0815967821876","-23.962094119738"
"5679","-9.06843624217366","9.10413888212627","-31.7406374963049","-0.853966025784258","-18.9517947000608","-23.9409849357999"
"5688","-8.81812026031624","7.95113922378649","-33.721684380814","-1.25385510457525","-20.1673834387622","-23.9307121271539"
"5688","-4.71854491377637","7.35819020506921","-29.0264342540379","-1.46931948965195","-21.2965788950526","-23.9298279289012"
"5696","-1.61620597262626","6.7596303531866","-26.3373009382463","-3.72931733910425","-21.6408242723714","-23.9144059544594"
"5696","-0.377599495261702","12.4809718936836","-24.4441303846396","-5.28202862737516","-22.1159763969713","-23.9063884844808"
"5707","1.20833709955762","15.9731400195031","-22.5609860781553","-3.48738450978333","-22.1205563215543","-24.0861626314629"
"5708","-3.36210142489485","6.83480491699853","-27.3730324977111","-2.71880349537645","-22.2558572303838","-24.2686389993682"
"5716","-6.12421200258651","1.89671605871828","-29.9834727465782","-2.93034939923212","-21.3606072268191","-24.4761286116431"
"5716","-2.98165143836757","2.48547413472692","-29.8491161891323","-2.9485089409096","-20.7070371596764","-24.6852896407645"
"5724","-1.18476001121032","1.60307908869334","-30.3194734034898","-6.03502902512845","-19.7876860859189","-24.8052105958184"
"5728","-0.241462610709261","7.6750425928907","-30.2296935819938","-8.07098003276972","-18.9901334110714","-24.9278141578962"
"5736","0.699550582972953","11.1274192243131","-30.4061879835465","-4.91141427445733","-19.428751383526","-25.4381667138776"
"5737","3.56957361295778","6.93357242162037","-27.4759797537522","-3.35060107281992","-19.657135314024","-25.9444640979079"
"5744","5.89232433205535","5.13800054233504","-25.6040847642162","-2.08868133022168","-19.0765984240107","-26.2885437653251"
"5749","1.78381505568881","7.13645514357708","-28.2823291805341","-0.935868284737798","-18.5963076999776","-26.6320783797033"
"5757","-0.60083026905643","8.06983168464365","-29.6068630016537","-2.6737239216992","-17.6940196791907","-26.5443718791163"
"5757","-1.06774492533411","13.2032184358539","-31.4536211386977","-3.45992662031226","-16.9040555081506","-26.4630390777718"
"5765","-1.7653976472921","16.7344484509507","-32.9450538605663","-1.93892509196514","-15.9774134343558","-26.1378359238604"
"5769","-2.26311262417511","14.5152699747144","-33.0835481210739","-1.06447842163976","-15.1099861782602","-25.8213440626992"
"5777","-2.85939264340553","14.1415826420539","-33.619045087469","-2.81582885846297","-14.6421577743419","-25.1269748559446"
"5777","-7.44694597097094","3.22666022908056","-37.7718463117777","-3.77428580725479","-14.1120441918198","-24.4452135943173"
"5786","-10.9208995792116","-3.76128730865338","-40.7882341075791","-8.01625048526537","-13.8652837185058","-23.4796392234116"
"5786","-16.4563529027411","-6.4993144434903","-41.8777306309783","-11.0573899369403","-13.5445397412869","-22.5281698335798"
"5798","-21.2052441379673","-10.2893042624003","-43.4472057381715","-12.4412310350548","-13.5330515799814","-21.3848725486806"
"5798","-11.1549738294155","-15.0842861741899","-31.0059454135528","-14.2218907289466","-13.4390997048571","-20.2553760208778"
"5806","-5.15735873413983","-19.6445356101046","-23.2397956041253","-13.7241175800013","-14.2105283133323","-19.1831805298524"
"5806","4.19921965609915","-23.7617759687654","-29.3060849625653","-14.0395514765648","-14.7868202347138","-18.1206305240503"
"5814","11.8679081549388","-28.0085326538758","-31.4546977819713","-13.0218450015568","-17.2670700992846","-17.7692707837567"
"5818","4.66361127294019","-27.7564474837241","-48.4489248880918","-12.5559051909473","-19.3140730112573","-17.4140846382698"
"5827","1.36928572178291","-29.1054833138248","-60.0273584610915","-11.6161493797179","-15.724962398667","-16.7608467005439"
"5827","16.3052381938655","-23.8499416379044","-48.6493110295347","-10.9068432994795","-13.1292857563499","-16.1093773820338"
