Timer,AX,AY,AZ,GX,GY,GZ
"1006","-0,727","-0,727","-29,727","-0,224","1,008","-0,144"
"1006","-0,727","-0,727","-29,727","-1,224","-0,992","0,856"
"1018","0,273","2,273","-34,727","-1,224","-0,992","0,856"
"1019","0,273","2,273","-34,727","-2,224","-0,992","-0,144"
"1027","2,273","1,273","-32,727","-2,224","-0,992","-0,144"
"1027","2,273","1,273","-32,727","-1,224","1,008","0,856"
"1039","-0,727","-4,727","-26,727","-1,224","1,008","0,856"
"1039","-0,727","-4,727","-26,727","-2,224","0,008","-2,144"
"1047","1,273","2,273","-27,727","-2,224","0,008","-2,144"
"1047","1,273","2,273","-27,727","-1,224","2,008","0,856"
"1055","1,273","2,273","-27,727","-1,224","2,008","0,856"
"1055","1,273","2,273","-27,727","-0,224","3,008","-2,144"
"1067","2,273","0,273","-26,727","-0,224","3,008","-2,144"
"1068","2,273","0,273","-26,727","-1,224","2,008","0,856"
"1076","1,273","1,273","-30,727","-1,224","2,008","0,856"
"1080","1,273","1,273","-30,727","0,776","1,008","-1,144"
"1088","2,273","2,273","-25,727","0,776","1,008","-1,144"
"1088","2,273","2,273","-25,727","2,776","0,008","0,856"
"1096","5,273","0,273","-27,727","2,776","0,008","0,856"
"1100","5,273","0,273","-27,727","0,776","-0,992","-0,144"
"1104","5,273","0,273","-27,727","0,776","-0,992","-0,144"
"1105","5,273","0,273","-27,727","-2,224","2,008","-1,144"
"1117","1,273","1,273","-28,727","-2,224","2,008","-1,144"
"1117","1,273","1,273","-28,727","-1,224","0,008","2,856"
"1129","2,273","2,273","-32,727","-1,224","0,008","2,856"
"1129","2,273","2,273","-32,727","-2,224","3,008","-0,144"
"1137","0,273","-1,727","-26,727","-2,224","3,008","-0,144"
"1137","0,273","-1,727","-26,727","-4,224","2,008","-1,144"
"1149","1,273","-0,727","-26,727","-4,224","2,008","-1,144"
"1150","1,273","-0,727","-26,727","-1,224","-0,992","2,856"
"1154","1,273","-0,727","-26,727","-1,224","-0,992","2,856"
"1154","1,273","-0,727","-26,727","-0,224","0,008","2,856"
"1166","0,273","-0,727","-28,727","-0,224","0,008","2,856"
"1170","0,273","-0,727","-28,727","0,776","0,008","1,856"
"1178","-4,727","5,273","-38,727","0,776","0,008","1,856"
"1178","-4,727","5,273","-38,727","-0,224","2,008","-1,144"
"1186","-2,727","0,273","-32,727","-0,224","2,008","-1,144"
"1190","-2,727","0,273","-32,727","0,776","-0,992","0,856"
"1199","2,273","0,273","-24,727","0,776","-0,992","0,856"
"1199","2,273","0,273","-24,727","1,776","-1,992","0,856"
"1203","2,273","0,273","-24,727","1,776","-1,992","0,856"
"1207","2,273","0,273","-24,727","0,776","1,008","-0,144"
"1219","-0,727","1,273","-29,727","0,776","1,008","-0,144"
"1219","-0,727","1,273","-29,727","3,776","0,008","0,856"
"1227","2,273","-0,727","-30,727","3,776","0,008","0,856"
"1227","2,273","-0,727","-30,727","1,776","0,008","-0,144"
"1239","-0,727","-0,727","-31,727","1,776","0,008","-0,144"
"1240","-0,727","-0,727","-31,727","-3,224","1,008","1,856"
"1248","3,273","0,273","-26,727","-3,224","1,008","1,856"
"1248","3,273","0,273","-26,727","-1,224","-2,992","0,856"
"1256","3,273","0,273","-26,727","-1,224","-2,992","0,856"
"1256","3,273","0,273","-26,727","-0,224","-1,992","-1,144"
"1268","1,273","-0,727","-27,727","-0,224","-1,992","-1,144"
"1268","1,273","-0,727","-27,727","-0,224","-0,992","0,856"
"1276","1,273","-0,727","-33,727","-0,224","-0,992","0,856"
"1280","1,273","-0,727","-33,727","-3,224","0,008","-0,144"
"1289","1,273","4,273","-31,727","-3,224","0,008","-0,144"
"1289","1,273","4,273","-31,727","-0,224","2,008","0,856"
"1297","1,273","-0,727","-32,727","-0,224","2,008","0,856"
"1297","1,273","-0,727","-32,727","3,776","0,008","0,856"
"1305","1,273","-0,727","-32,727","3,776","0,008","0,856"
"1305","1,273","-0,727","-32,727","1,776","0,008","-0,144"
"1317","0,273","4,273","-30,727","1,776","0,008","-0,144"
"1318","0,273","4,273","-30,727","-1,224","0,008","0,856"
"1330","-0,727","0,273","-36,727","-1,224","0,008","0,856"
"1330","-0,727","0,273","-36,727","-2,224","1,008","1,856"
"1338","1,273","3,273","-31,727","-2,224","1,008","1,856"
"1338","1,273","3,273","-31,727","-1,224","2,008","1,856"
"1346","0,273","0,273","-29,727","-1,224","2,008","1,856"
"1350","0,273","0,273","-29,727","2,776","-0,992","-0,144"
"1354","0,273","0,273","-29,727","2,776","-0,992","-0,144"
"1354","0,273","0,273","-29,727","-1,224","0,008","-0,144"
"1366","7,273","1,273","-26,727","-1,224","0,008","-0,144"
"1370","7,273","1,273","-26,727","-4,224","-0,992","-1,144"
"1379","7,273","1,273","-26,727","-4,224","-0,992","-1,144"
"1379","7,273","1,273","-26,727","0,776","1,008","-2,144"
"1387","-15,727","9,273","-40,727","0,776","1,008","-2,144"
"1391","-15,727","9,273","-40,727","0,776","0,008","1,856"
"1399","11,273","27,273","-17,727","0,776","0,008","1,856"
"1399","11,273","27,273","-17,727","0,776","3,008","0,856"
"1407","11,273","27,273","-17,727","0,776","3,008","0,856"
"1407","11,273","27,273","-17,727","-1,224","-5,992","-1,144"
"1419","8,273","-53,727","4,273","-1,224","-5,992","-1,144"
"1420","8,273","-53,727","4,273","3,776","-6,992","-1,144"
"1428","-32,727","39,273","-48,727","3,776","-6,992","-1,144"
"1428","-32,727","39,273","-48,727","-24,224","0,008","-3,144"
"1440","-21,727","-5,727","-61,727","-24,224","0,008","-3,144"
"1440","-21,727","-5,727","-61,727","5,776","-0,992","-2,144"
"1448","43,273","-0,727","-14,727","5,776","-0,992","-2,144"
"1448","43,273","-0,727","-14,727","6,776","4,008","-2,144"
"1456","43,273","-0,727","-14,727","6,776","4,008","-2,144"
"1457","43,273","-0,727","-14,727","-6,224","-12,992","-2,144"
"1469","-24,727","-33,727","-32,727","-6,224","-12,992","-2,144"
"1469","-24,727","-33,727","-32,727","-2,224","-4,992","-3,144"
"1477","-24,727","-33,727","-32,727","-2,224","-4,992","-3,144"
"1481","-24,727","-33,727","-32,727","-13,224","5,008","2,856"
"1490","226,273","-49,727","118,273","-13,224","5,008","2,856"
"1490","226,273","-49,727","118,273","14,776","4,008","1,856"
"1498","77,273","129,273","176,273","14,776","4,008","1,856"
"1502","77,273","129,273","176,273","-4,224","23,008","2,856"
"1506","77,273","129,273","176,273","-4,224","23,008","2,856"
"1506","77,273","129,273","176,273","5,776","-57,992","2,856"
"1514","123,273","84,273","-119,727","5,776","-57,992","2,856"
"1514","123,273","84,273","-119,727","47,776","-12,992","9,856"
"1530","-24,727","225,273","-119,727","47,776","-12,992","9,856"
"1531","-24,727","225,273","-119,727","-74,224","31,008","4,856"
"1539","-20,727","173,273","-41,727","-74,224","31,008","4,856"
"1539","-20,727","173,273","-41,727","-1,224","-9,992","2,856"
"1551","218,273","-110,727","96,273","-1,224","-9,992","2,856"
"1551","218,273","-110,727","96,273","88,776","6,008","4,856"
"1555","218,273","-110,727","96,273","88,776","6,008","4,856"
"1559","218,273","-110,727","96,273","-48,224","-32,992","-14,144"
"1563","84,273","8,273","52,273","-48,224","-32,992","-14,144"
"1563","84,273","8,273","52,273","-46,224","28,008","-24,144"
"1580","-207,727","238,273","-233,727","-46,224","28,008","-24,144"
"1580","-207,727","238,273","-233,727","53,776","11,008","-23,144"
"1588","-63,727","-54,727","-25,727","53,776","11,008","-23,144"
"1592","-63,727","-54,727","-25,727","35,776","24,008","-30,144"
"1600","6,273","28,273","-14,727","35,776","24,008","-30,144"
"1600","6,273","28,273","-14,727","-60,224","-4,992","-36,144"
"1608","6,273","28,273","-14,727","-60,224","-4,992","-36,144"
"1608","6,273","28,273","-14,727","-31,224","-5,992","-35,144"
"1612","-96,727","121,273","-78,727","-31,224","-5,992","-35,144"
"1616","-96,727","121,273","-78,727","39,776","17,008","-30,144"
"1629","54,273","-33,727","-13,727","39,776","17,008","-30,144"
"1629","54,273","-33,727","-13,727","-1,224","-8,992","-37,144"
"1637","-25,727","-57,727","-0,727","-1,224","-8,992","-37,144"
"1641","-25,727","-57,727","-0,727","-41,224","-0,992","-33,144"
"1649","52,273","-43,727","28,273","-41,224","-0,992","-33,144"
"1649","52,273","-43,727","28,273","-2,224","-9,992","-31,144"
"1657","52,273","-43,727","28,273","-2,224","-9,992","-31,144"
"1658","52,273","-43,727","28,273","-12,224","-1,992","-26,144"
"1665","-84,727","3,273","-55,727","-12,224","-1,992","-26,144"
"1666","-84,727","3,273","-55,727","24,776","14,008","-19,144"
"1678","-10,727","-31,727","-18,727","24,776","14,008","-19,144"
"1678","-10,727","-31,727","-18,727","-19,224","-1,992","-20,144"
"1690","-15,727","-14,727","-43,727","-19,224","-1,992","-20,144"
"1690","-15,727","-14,727","-43,727","-7,224","-8,992","-19,144"
"1698","6,273","40,273","0,273","-7,224","-8,992","-19,144"
"1699","6,273","40,273","0,273","-15,224","-1,992","-16,144"
"1707","6,273","40,273","0,273","-15,224","-1,992","-16,144"
"1707","6,273","40,273","0,273","-25,224","-0,992","-20,144"
"1715","-91,727","25,273","-45,727","-25,224","-0,992","-20,144"
"1715","-91,727","25,273","-45,727","16,776","-5,992","-23,144"
"1727","-69,727","-96,727","-34,727","16,776","-5,992","-23,144"
"1731","-69,727","-96,727","-34,727","-30,224","12,008","-25,144"
"1739","-96,727","14,273","-31,727","-30,224","12,008","-25,144"
"1740","-96,727","14,273","-31,727","-0,224","-8,992","-26,144"
"1748","-110,727","15,273","-31,727","-0,224","-8,992","-26,144"
"1751","-110,727","15,273","-31,727","21,776","3,008","-25,144"
"1756","-110,727","15,273","-31,727","21,776","3,008","-25,144"
"1756","-110,727","15,273","-31,727","-8,224","-4,992","-19,144"
"1764","9,273","81,273","-2,727","-8,224","-4,992","-19,144"
"1764","9,273","81,273","-2,727","9,776","-25,992","-21,144"
"1772","8,273","-26,727","3,273","9,776","-25,992","-21,144"
"1776","8,273","-26,727","3,273","-4,224","-7,992","-23,144"
"1789","-75,727","-70,727","-20,727","-4,224","-7,992","-23,144"
"1789","-75,727","-70,727","-20,727","-42,224","-3,992","-22,144"
"1801","-22,727","65,273","4,273","-42,224","-3,992","-22,144"
"1801","-22,727","65,273","4,273","-5,224","10,008","-19,144"
"1805","-22,727","65,273","4,273","-5,224","10,008","-19,144"
"1809","-22,727","65,273","4,273","13,776","0,008","-20,144"
"1813","-32,727","-40,727","-3,727","13,776","0,008","-20,144"
"1817","-32,727","-40,727","-3,727","-19,224","-7,992","-25,144"
"1829","-88,727","-106,727","-35,727","-19,224","-7,992","-25,144"
"1830","-88,727","-106,727","-35,727","-44,224","10,008","-26,144"
"1838","-66,727","111,273","-51,727","-44,224","10,008","-26,144"
"1838","-66,727","111,273","-51,727","1,776","7,008","-24,144"
"1850","-116,727","-112,727","-32,727","1,776","7,008","-24,144"
"1850","-116,727","-112,727","-32,727","27,776","4,008","-27,144"
"1858","-116,727","-112,727","-32,727","27,776","4,008","-27,144"
"1858","-116,727","-112,727","-32,727","-41,224","9,008","-25,144"
"1862","-36,727","-124,727","-11,727","-41,224","9,008","-25,144"
"1866","-36,727","-124,727","-11,727","-51,224","-7,992","-26,144"
"1875","-160,727","115,273","-64,727","-51,224","-7,992","-26,144"
"1875","-160,727","115,273","-64,727","41,776","2,008","-22,144"
"1887","-125,727","-59,727","7,273","41,776","2,008","-22,144"
"1887","-125,727","-59,727","7,273","1,776","13,008","-20,144"
"1899","-111,727","-91,727","3,273","1,776","13,008","-20,144"
"1899","-111,727","-91,727","3,273","-53,224","-5,992","-19,144"
"1903","-17,727","130,273","-48,727","-53,224","-5,992","-19,144"
"1907","-17,727","130,273","-48,727","22,776","-15,992","-15,144"
"1916","9,273","5,273","-13,727","22,776","-15,992","-15,144"
"1919","9,273","5,273","-13,727","1,776","-10,992","-7,144"
"1928","44,273","-11,727","45,273","1,776","-10,992","-7,144"
"1928","44,273","-11,727","45,273","-57,224","-5,992","-3,144"
"1936","16,273","52,273","10,273","-57,224","-5,992","-3,144"
"1936","16,273","52,273","10,273","-25,224","9,008","7,856"
"1944","107,273","-144,727","-11,727","-25,224","9,008","7,856"
"1944","107,273","-144,727","-11,727","-58,224","11,008","7,856"
"1952","178,273","-174,727","19,273","-58,224","11,008","7,856"
"1956","178,273","-174,727","19,273","-69,224","34,008","7,856"
"1965","73,273","-82,727","3,273","-69,224","34,008","7,856"
"1965","73,273","-82,727","3,273","-7,224","62,008","2,856"
"1973","-54,727","-58,727","-28,727","-7,224","62,008","2,856"
"1973","-54,727","-58,727","-28,727","24,776","87,008","-3,144"
"1985","-64,727","-88,727","-41,727","24,776","87,008","-3,144"
"1985","-64,727","-88,727","-41,727","9,776","86,008","-12,144"
"1993","-151,727","-34,727","-88,727","9,776","86,008","-12,144"
"1994","-151,727","-34,727","-88,727","25,776","84,008","-26,144"
"2005","-299,727","91,273","-118,727","25,776","84,008","-26,144"
"2006","-299,727","91,273","-118,727","54,776","86,008","-26,144"
"2014","-293,727","96,273","-77,727","54,776","86,008","-26,144"
"2014","-293,727","96,273","-77,727","38,776","50,008","-26,144"
"2026","-229,727","60,273","-71,727","38,776","50,008","-26,144"
"2026","-229,727","60,273","-71,727","12,776","11,008","-25,144"
"2038","-25,727","73,273","-27,727","12,776","11,008","-25,144"
"2042","-25,727","73,273","-27,727","-12,224","-21,992","-19,144"
"2047","-25,727","73,273","-27,727","-12,224","-21,992","-19,144"
"2047","-25,727","73,273","-27,727","-3,224","-42,992","-8,144"
"2055","-45,727","119,273","-30,727","-3,224","-42,992","-8,144"
"2055","-45,727","119,273","-30,727","20,776","-41,992","4,856"
"2063","61,273","65,273","32,273","20,776","-41,992","4,856"
"2063","61,273","65,273","32,273","-10,224","-43,992","12,856"
"2075","109,273","43,273","-6,727","-10,224","-43,992","12,856"
"2075","109,273","43,273","-6,727","-31,224","-37,992","14,856"
"2084","23,273","6,273","-61,727","-31,224","-37,992","14,856"
"2084","23,273","6,273","-61,727","-25,224","-1,992","17,856"
"2091","4,273","-70,727","-32,727","-25,224","-1,992","17,856"
"2096","4,273","-70,727","-32,727","-47,224","14,008","9,856"
"2104","-14,727","-129,727","26,273","-47,224","14,008","9,856"
"2104","-14,727","-129,727","26,273","-49,224","12,008","0,856"
"2112","-47,727","-37,727","-48,727","-49,224","12,008","0,856"
"2116","-47,727","-37,727","-48,727","-7,224","26,008","-10,144"
"2124","-45,727","29,273","-73,727","-7,224","26,008","-10,144"
"2125","-45,727","29,273","-73,727","34,776","26,008","-19,144"
"2133","-65,727","9,273","-55,727","34,776","26,008","-19,144"
"2137","-65,727","9,273","-55,727","19,776","18,008","-23,144"
"2145","-61,727","-18,727","-16,727","19,776","18,008","-23,144"
"2145","-61,727","-18,727","-16,727","-12,224","20,008","-21,144"
"2153","-22,727","44,273","12,273","-12,224","20,008","-21,144"
"2153","-22,727","44,273","12,273","13,776","-2,992","-15,144"
"2165","-52,727","37,273","-81,727","13,776","-2,992","-15,144"
"2166","-52,727","37,273","-81,727","14,776","-0,992","-4,144"
"2174","1,273","-26,727","-6,727","14,776","-0,992","-4,144"
"2174","1,273","-26,727","-6,727","-24,224","-5,992","4,856"
"2182","9,273","55,273","-25,727","-24,224","-5,992","4,856"
"2186","9,273","55,273","-25,727","1,776","-7,992","15,856"
"2194","15,273","46,273","-16,727","1,776","-7,992","15,856"
"2194","15,273","46,273","-16,727","14,776","-3,992","19,856"
"2202","83,273","-32,727","22,273","14,776","-3,992","19,856"
"2206","83,273","-32,727","22,273","-21,224","-4,992","18,856"
"2215","21,273","-36,727","-38,727","-21,224","-4,992","18,856"
"2215","21,273","-36,727","-38,727","-19,224","14,008","21,856"
"2223","21,273","-17,727","-15,727","-19,224","14,008","21,856"
"2227","21,273","-17,727","-15,727","-6,224","3,008","20,856"
"2235","10,273","-16,727","-41,727","-6,224","3,008","20,856"
"2235","10,273","-16,727","-41,727","-1,224","18,008","25,856"
"2243","-5,727","48,273","-6,727","-1,224","18,008","25,856"
"2243","-5,727","48,273","-6,727","0,776","18,008","29,856"
"2255","-91,727","3,273","-67,727","0,776","18,008","29,856"
"2256","-91,727","3,273","-67,727","8,776","19,008","37,856"
"2264","-55,727","-49,727","-51,727","8,776","19,008","37,856"
"2264","-55,727","-49,727","-51,727","-21,224","23,008","45,856"
"2272","-83,727","25,273","-46,727","-21,224","23,008","45,856"
"2276","-83,727","25,273","-46,727","2,776","12,008","49,856"
"2284","-68,727","-21,727","-29,727","2,776","12,008","49,856"
"2284","-68,727","-21,727","-29,727","-2,224","2,008","53,856"
"2292","-85,727","-25,727","-54,727","-2,224","2,008","53,856"
"2296","-85,727","-25,727","-54,727","-16,224","-4,992","55,856"
"2305","-57,727","-12,727","-62,727","-16,224","-4,992","55,856"
"2305","-57,727","-12,727","-62,727","-4,224","-15,992","57,856"
"2313","26,273","39,273","-6,727","-4,224","-15,992","57,856"
"2313","26,273","39,273","-6,727","4,776","-20,992","53,856"
"2325","0,273","30,273","-24,727","4,776","-20,992","53,856"
"2325","0,273","30,273","-24,727","-1,224","-31,992","53,856"
"2333","60,273","22,273","-8,727","-1,224","-31,992","53,856"
"2334","60,273","22,273","-8,727","-10,224","-19,992","58,856"
"2346","12,273","-34,727","-20,727","-10,224","-19,992","58,856"
"2346","12,273","-34,727","-20,727","-8,224","-11,992","66,856"
"2354","7,273","-68,727","-13,727","-8,224","-11,992","66,856"
"2354","7,273","-68,727","-13,727","-38,224","-4,992","70,856"
"2362","32,273","-24,727","5,273","-38,224","-4,992","70,856"
"2366","32,273","-24,727","5,273","-19,224","-4,992","72,856"
"2374","-1,727","-11,727","-46,727","-19,224","-4,992","72,856"
"2375","-1,727","-11,727","-46,727","-1,224","2,008","72,856"
"2383","-3,727","-49,727","-28,727","-1,224","2,008","72,856"
"2386","-3,727","-49,727","-28,727","-15,224","5,008","66,856"
"2395","-34,727","-48,727","-51,727","-15,224","5,008","66,856"
"2395","-34,727","-48,727","-51,727","-2,224","13,008","62,856"
"2403","-9,727","-92,727","-8,727","-2,224","13,008","62,856"
"2403","-9,727","-92,727","-8,727","-1,224","9,008","51,856"
"2415","-24,727","17,273","-32,727","-1,224","9,008","51,856"
"2416","-24,727","17,273","-32,727","16,776","7,008","51,856"
"2424","-40,727","75,273","-20,727","16,776","7,008","51,856"
"2424","-40,727","75,273","-20,727","43,776","11,008","45,856"
"2436","-48,727","37,273","-63,727","43,776","11,008","45,856"
"2436","-48,727","37,273","-63,727","20,776","10,008","45,856"
"2444","-13,727","61,273","-11,727","20,776","10,008","45,856"
"2444","-13,727","61,273","-11,727","-4,224","1,008","46,856"
"2452","-57,727","41,273","-45,727","-4,224","1,008","46,856"
"2456","-57,727","41,273","-45,727","9,776","7,008","50,856"
"2464","-28,727","12,273","-36,727","9,776","7,008","50,856"
"2465","-28,727","12,273","-36,727","-13,224","1,008","54,856"
"2473","-63,727","63,273","-59,727","-13,224","1,008","54,856"
"2477","-63,727","63,273","-59,727","-1,224","-0,992","57,856"
"2485","-42,727","6,273","-38,727","-1,224","-0,992","57,856"
"2485","-42,727","6,273","-38,727","-10,224","-6,992","60,856"
"2493","-49,727","-12,727","-38,727","-10,224","-6,992","60,856"
"2493","-49,727","-12,727","-38,727","-21,224","-4,992","59,856"
"2505","4,273","1,273","11,273","-21,224","-4,992","59,856"
"2505","4,273","1,273","11,273","-9,224","-14,992","53,856"
"2514","6,273","-57,727","-60,727","-9,224","-14,992","53,856"
"2514","6,273","-57,727","-60,727","-6,224","-11,992","47,856"
"2526","-29,727","-75,727","-53,727","-6,224","-11,992","47,856"
"2526","-29,727","-75,727","-53,727","-16,224","-5,992","44,856"
"2534","-47,727","-66,727","-37,727","-16,224","-5,992","44,856"
"2534","-47,727","-66,727","-37,727","-3,224","-0,992","37,856"
"2542","-36,727","68,273","-19,727","-3,224","-0,992","37,856"
"2546","-36,727","68,273","-19,727","31,776","-6,992","32,856"
"2555","-10,727","15,273","-48,727","31,776","-6,992","32,856"
"2555","-10,727","15,273","-48,727","27,776","-7,992","27,856"
"2563","22,273","22,273","-29,727","27,776","-7,992","27,856"
"2567","22,273","22,273","-29,727","-3,224","-13,992","30,856"
"2575","-3,727","58,273","-41,727","-3,224","-13,992","30,856"
"2575","-3,727","58,273","-41,727","7,776","-7,992","36,856"
"2583","-23,727","-29,727","-12,727","7,776","-7,992","36,856"
"2584","-23,727","-29,727","-12,727","-12,224","-4,992","42,856"
"2595","0,273","-17,727","-33,727","-12,224","-4,992","42,856"
"2596","0,273","-17,727","-33,727","-19,224","5,008","53,856"
"2604","-21,727","65,273","-27,727","-19,224","5,008","53,856"
"2604","-21,727","65,273","-27,727","3,776","-1,992","57,856"
"2612","-5,727","-99,727","-30,727","3,776","-1,992","57,856"
"2616","-5,727","-99,727","-30,727","-11,224","0,008","56,856"
"2624","1,273","-90,727","-31,727","-11,224","0,008","56,856"
"2625","1,273","-90,727","-31,727","-38,224","-10,992","50,856"
"2632","20,273","-60,727","-37,727","-38,224","-10,992","50,856"
"2636","20,273","-60,727","-37,727","-1,224","-5,992","43,856"
"2645","21,273","-33,727","-21,727","-1,224","-5,992","43,856"
"2645","21,273","-33,727","-21,727","21,776","-1,992","27,856"
"2653","-40,727","-0,727","-17,727","21,776","-1,992","27,856"
"2657","-40,727","-0,727","-17,727","27,776","11,008","19,856"
"2665","-63,727","46,273","-37,727","27,776","11,008","19,856"
"2665","-63,727","46,273","-37,727","27,776","-2,992","13,856"
"2673","18,273","108,273","-16,727","27,776","-2,992","13,856"
"2674","18,273","108,273","-16,727","41,776","-9,992","16,856"
"2685","18,273","22,273","-50,727","41,776","-9,992","16,856"
"2686","18,273","22,273","-50,727","16,776","-10,992","22,856"
"2694","45,273","-33,727","-4,727","16,776","-10,992","22,856"
"2694","45,273","-33,727","-4,727","-32,224","-5,992","27,856"
"2702","15,273","3,273","-26,727","-32,224","-5,992","27,856"
"2706","15,273","3,273","-26,727","-17,224","2,008","35,856"
"2714","2,273","-42,727","-30,727","-17,224","2,008","35,856"
"2715","2,273","-42,727","-30,727","-1,224","6,008","36,856"
"2723","22,273","-65,727","-25,727","-1,224","6,008","36,856"
"2726","22,273","-65,727","-25,727","-10,224","16,008","34,856"
"2735","-22,727","-17,727","-41,727","-10,224","16,008","34,856"
"2735","-22,727","-17,727","-41,727","2,776","19,008","26,856"
"2743","-27,727","-33,727","-20,727","2,776","19,008","26,856"
"2747","-27,727","-33,727","-20,727","15,776","24,008","16,856"
"2755","-16,727","-26,727","-30,727","15,776","24,008","16,856"
"2755","-16,727","-26,727","-30,727","11,776","16,008","9,856"
"2764","-12,727","14,273","-25,727","11,776","16,008","9,856"
"2764","-12,727","14,273","-25,727","25,776","11,008","2,856"
"2776","-48,727","35,273","-47,727","25,776","11,008","2,856"
"2776","-48,727","35,273","-47,727","37,776","17,008","0,856"
"2784","-29,727","5,273","-25,727","37,776","17,008","0,856"
"2784","-29,727","5,273","-25,727","7,776","12,008","3,856"
"2796","-184,727","89,273","80,273","7,776","12,008","3,856"
"2796","-184,727","89,273","80,273","20,776","-0,992","9,856"
"2804","-377,727","153,273","16,273","20,776","-0,992","9,856"
"2805","-377,727","153,273","16,273","45,776","10,008","25,856"
"2813","-261,727","69,273","-150,727","45,776","10,008","25,856"
"2817","-261,727","69,273","-150,727","-5,224","-60,992","26,856"
"2825","-46,727","-134,727","-253,727","-5,224","-60,992","26,856"
"2825","-46,727","-134,727","-253,727","-71,224","-111,992","26,856"
"2833","-84,727","-3,727","-193,727","-71,224","-111,992","26,856"
"2837","-84,727","-3,727","-193,727","-20,224","-124,992","15,856"
"2845","92,273","169,273","29,273","-20,224","-124,992","15,856"
"2845","92,273","169,273","29,273","72,776","-134,992","11,856"
"2854","407,273","-45,727","171,273","72,776","-134,992","11,856"
"2854","407,273","-45,727","171,273","40,776","-139,992","-2,144"
"2866","207,273","-264,727","-27,727","40,776","-139,992","-2,144"
"2866","207,273","-264,727","-27,727","-86,224","-76,992","-3,144"
"2874","485,273","-128,727","133,273","-86,224","-76,992","-3,144"
"2874","485,273","-128,727","133,273","-47,224","-29,992","4,856"
"2882","312,273","216,273","15,273","-47,224","-29,992","4,856"
"2886","312,273","216,273","15,273","107,776","28,008","13,856"
"2895","162,273","58,273","67,273","107,776","28,008","13,856"
"2895","162,273","58,273","67,273","24,776","71,008","26,856"
"2903","-84,727","-91,727","-12,727","24,776","71,008","26,856"
"2907","-84,727","-91,727","-12,727","-62,224","134,008","32,856"
"2915","-114,727","-156,727","-6,727","-62,224","134,008","32,856"
"2915","-114,727","-156,727","-6,727","-62,224","125,008","25,856"
"2923","-279,727","-165,727","-103,727","-62,224","125,008","25,856"
"2927","-279,727","-165,727","-103,727","-13,224","114,008","18,856"
"2935","-398,727","-125,727","-181,727","-13,224","114,008","18,856"
"2936","-398,727","-125,727","-181,727","5,776","72,008","6,856"
"2944","-349,727","23,273","-185,727","5,776","72,008","6,856"
"2944","-349,727","23,273","-185,727","68,776","22,008","-2,144"
"2956","-142,727","215,273","-98,727","68,776","22,008","-2,144"
"2956","-142,727","215,273","-98,727","117,776","-36,992","-7,144"
"2964","0,273","102,273","65,273","117,776","-36,992","-7,144"
"2964","0,273","102,273","65,273","31,776","-104,992","-5,144"
"2972","-2,727","-34,727","65,273","31,776","-104,992","-5,144"
"2976","-2,727","-34,727","65,273","-46,224","-104,992","4,856"
"2985","82,273","95,273","-51,727","-46,224","-104,992","4,856"
"2985","82,273","95,273","-51,727","-42,224","-85,992","28,856"
"2993","100,273","255,273","-77,727","-42,224","-85,992","28,856"
"2997","100,273","255,273","-77,727","22,776","-104,992","48,856"
"3005","83,273","146,273","-27,727","22,776","-104,992","48,856"
"3005","83,273","146,273","-27,727","18,776","-85,992","53,856"
"3013","234,273","-206,727","122,273","18,776","-85,992","53,856"
"3017","234,273","-206,727","122,273","-129,224","-82,992","53,856"
"3026","-46,727","-32,727","-160,727","-129,224","-82,992","53,856"
"3026","-46,727","-32,727","-160,727","-77,224","-41,992","55,856"
"3034","-188,727","-89,727","-247,727","-77,224","-41,992","55,856"
"3034","-188,727","-89,727","-247,727","37,776","-4,992","42,856"
"3046","-482,727","-359,727","-119,727","37,776","-4,992","42,856"
"3046","-482,727","-359,727","-119,727","-64,224","-3,992","13,856"
"3054","225,273","534,273","325,273","-64,224","-3,992","13,856"
"3055","225,273","534,273","325,273","39,776","-81,992","-0,144"
"3062","531,273","561,273","-152,727","39,776","-81,992","-0,144"
"3067","531,273","561,273","-152,727","332,776","-196,992","-22,144"
"3075","270,273","-510,727","-315,727","332,776","-196,992","-22,144"
"3075","270,273","-510,727","-315,727","-130,224","-98,992","-11,144"
"3083","380,273","-719,727","1,273","-130,224","-98,992","-11,144"
"3087","380,273","-719,727","1,273","-317,224","-49,992","18,856"
"3095","403,273","1109,273","297,273","-317,224","-49,992","18,856"
"3096","403,273","1109,273","297,273","376,776","6,008","50,856"
"3103","-21,727","311,273","94,273","376,776","6,008","50,856"
"3107","-21,727","311,273","94,273","220,776","63,008","56,856"
"3116","-97,727","-1077,727","-92,727","220,776","63,008","56,856"
"3116","-97,727","-1077,727","-92,727","-574,224","100,008","65,856"
"3124","90,273","571,273","-143,727","-574,224","100,008","65,856"
"3124","90,273","571,273","-143,727","-93,224","50,008","63,856"
"3136","-256,727","574,273","-125,727","-93,224","50,008","63,856"
"3136","-256,727","574,273","-125,727","477,776","85,008","60,856"
"3145","-46,727","-567,727","106,273","477,776","85,008","60,856"
"3145","-46,727","-567,727","106,273","-229,224","69,008","40,856"
"3157","-139,727","483,273","-290,727","-229,224","69,008","40,856"
"3157","-139,727","483,273","-290,727","-241,224","46,008","35,856"
"3165","-203,727","887,273","-341,727","-241,224","46,008","35,856"
"3165","-203,727","887,273","-341,727","-241,224","46,008","35,856"
"3173","18,273","-126,727","84,273","-241,224","46,008","35,856"
"3177","18,273","-126,727","84,273","17,776","-9,992","15,856"
"3185","25,273","-902,727","187,273","17,776","-9,992","15,856"
"3185","25,273","-902,727","187,273","-441,224","-32,992","18,856"
"3194","110,273","643,273","-39,727","-441,224","-32,992","18,856"
"3198","110,273","643,273","-39,727","131,776","-9,992","31,856"
"3206","5,273","602,273","-177,727","131,776","-9,992","31,856"
"3206","5,273","602,273","-177,727","361,776","-20,992","34,856"
"3214","-52,727","-321,727","-23,727","361,776","-20,992","34,856"
"3214","-52,727","-321,727","-23,727","361,776","-20,992","34,856"
"3226","188,273","135,273","58,273","361,776","-20,992","34,856"
"3226","188,273","135,273","58,273","-231,224","-6,992","29,856"
"3235","47,273","601,273","-116,727","-231,224","-6,992","29,856"
"3235","47,273","601,273","-116,727","253,776","-39,992","32,856"
"3247","102,273","62,273","-3,727","253,776","-39,992","32,856"
"3247","102,273","62,273","-3,727","60,776","4,008","29,856"
"3255","53,273","-335,727","64,273","60,776","4,008","29,856"
"3255","53,273","-335,727","64,273","-283,224","13,008","21,856"
"3263","73,273","332,273","-33,727","-283,224","13,008","21,856"
"3267","73,273","332,273","-33,727","-283,224","13,008","21,856"
"3276","157,273","435,273","-52,727","-283,224","13,008","21,856"
"3276","157,273","435,273","-52,727","255,776","3,008","18,856"
"3284","109,273","-95,727","-48,727","255,776","3,008","18,856"
"3288","109,273","-95,727","-48,727","-88,224","9,008","12,856"
"3296","-113,727","1,273","-77,727","-88,224","9,008","12,856"
"3296","-113,727","1,273","-77,727","-162,224","47,008","19,856"
"3304","-126,727","291,273","-24,727","-162,224","47,008","19,856"
"3308","-126,727","291,273","-24,727","140,776","43,008","25,856"
"3316","-126,727","291,273","-24,727","140,776","43,008","25,856"
"3317","-126,727","291,273","-24,727","140,776","43,008","25,856"
"3325","-40,727","-130,727","-84,727","140,776","43,008","25,856"
"3325","-40,727","-130,727","-84,727","-119,224","-5,992","22,856"
"3337","-0,727","112,273","-118,727","-119,224","-5,992","22,856"
"3337","-0,727","112,273","-118,727","21,776","15,008","30,856"
"3345","-64,727","183,273","-91,727","21,776","15,008","30,856"
"3345","-64,727","183,273","-91,727","80,776","5,008","36,856"
"3353","26,273","29,273","8,273","80,776","5,008","36,856"
"3357","26,273","29,273","8,273","-21,224","-2,992","43,856"
"3366","26,273","29,273","8,273","-21,224","-2,992","43,856"
"3366","26,273","29,273","8,273","-21,224","-2,992","43,856"
"3374","-15,727","-12,727","-73,727","-21,224","-2,992","43,856"
"3378","-15,727","-12,727","-73,727","-3,224","1,008","42,856"
"3386","-38,727","21,273","-88,727","-3,224","1,008","42,856"
"3386","-38,727","21,273","-88,727","-0,224","13,008","46,856"
"3394","10,273","80,273","-28,727","-0,224","13,008","46,856"
"3398","10,273","80,273","-28,727","17,776","-2,992","42,856"
"3407","74,273","-15,727","31,273","17,776","-2,992","42,856"
"3407","74,273","-15,727","31,273","-7,224","-0,992","38,856"
"3415","74,273","-15,727","31,273","-7,224","-0,992","38,856"
"3415","74,273","-15,727","31,273","-7,224","-0,992","38,856"
"3423","6,273","33,273","-55,727","-7,224","-0,992","38,856"
"3427","6,273","33,273","-55,727","-47,224","12,008","43,856"
"3435","86,273","-15,727","16,273","-47,224","12,008","43,856"
"3435","86,273","-15,727","16,273","5,776","23,008","40,856"
"3443","30,273","-64,727","5,273","5,776","23,008","40,856"
"3447","30,273","-64,727","5,273","-23,224","19,008","37,856"
"3456","50,273","-50,727","22,273","-23,224","19,008","37,856"
"3456","50,273","-50,727","22,273","-14,224","36,008","39,856"
"3464","50,273","-50,727","22,273","-14,224","36,008","39,856"
"3464","50,273","-50,727","22,273","-14,224","36,008","39,856"
"3476","-17,727","62,273","-75,727","-14,224","36,008","39,856"
"3476","-17,727","62,273","-75,727","31,776","40,008","38,856"
"3484","-0,727","25,273","-36,727","31,776","40,008","38,856"
"3488","-0,727","25,273","-36,727","-30,224","29,008","50,856"
"3497","-4,727","-69,727","38,273","-30,224","29,008","50,856"
"3497","-4,727","-69,727","38,273","-39,224","28,008","53,856"
"3505","-18,727","-48,727","-0,727","-39,224","28,008","53,856"
"3505","-18,727","-48,727","-0,727","-41,224","29,008","56,856"
"3513","-18,727","-48,727","-0,727","-41,224","29,008","56,856"
"3517","-18,727","-48,727","-0,727","-41,224","29,008","56,856"
"3525","-53,727","8,273","-19,727","-41,224","29,008","56,856"
"3526","-53,727","8,273","-19,727","-5,224","28,008","62,856"
"3538","-58,727","-403,727","-55,727","-5,224","28,008","62,856"
"3538","-58,727","-403,727","-55,727","-97,224","-16,992","41,856"
"3546","-11,727","-71,727","-108,727","-97,224","-16,992","41,856"
"3546","-11,727","-71,727","-108,727","45,776","-28,992","21,856"
"3558","-18,727","383,273","-135,727","45,776","-28,992","21,856"
"3558","-18,727","383,273","-135,727","245,776","-31,992","4,856"
"3566","-18,727","383,273","-135,727","245,776","-31,992","4,856"
"3566","-18,727","383,273","-135,727","245,776","-31,992","4,856"
"3575","92,273","236,273","-1,727","245,776","-31,992","4,856"
"3575","92,273","236,273","-1,727","162,776","-42,992","5,856"
"3587","62,273","-190,727","97,273","162,776","-42,992","5,856"
"3587","62,273","-190,727","97,273","-157,224","-18,992","40,856"
"3595","59,273","-3,727","-23,727","-157,224","-18,992","40,856"
"3595","59,273","-3,727","-23,727","25,776","8,008","59,856"
"3607","-31,727","-122,727","-52,727","25,776","8,008","59,856"
"3608","-31,727","-122,727","-52,727","-11,224","-13,992","63,856"
"3616","-31,727","-122,727","-52,727","-11,224","-13,992","63,856"
"3616","-31,727","-122,727","-52,727","-11,224","-13,992","63,856"
"3624","28,273","0,273","-30,727","-11,224","-13,992","63,856"
"3628","28,273","0,273","-30,727","-32,224","-2,992","73,856"
"3636","-73,727","5,273","-72,727","-32,224","-2,992","73,856"
"3636","-73,727","5,273","-72,727","31,776","-17,992","67,856"
"3644","-76,727","-230,727","-66,727","31,776","-17,992","67,856"
"3648","-76,727","-230,727","-66,727","-141,224","6,008","57,856"
"3657","-17,727","-239,727","-10,727","-141,224","6,008","57,856"
"3657","-17,727","-239,727","-10,727","-114,224","-22,992","43,856"
"3665","-17,727","-239,727","-10,727","-114,224","-22,992","43,856"
"3665","-17,727","-239,727","-10,727","-114,224","-22,992","43,856"
"3677","-41,727","57,273","-39,727","-114,224","-22,992","43,856"
"3677","-41,727","57,273","-39,727","24,776","-21,992","41,856"
"3685","30,273","134,273","-29,727","24,776","-21,992","41,856"
"3685","30,273","134,273","-29,727","31,776","-39,992","32,856"
"3697","14,273","177,273","-50,727","31,776","-39,992","32,856"
"3698","14,273","177,273","-50,727","22,776","-36,992","45,856"
"3706","29,273","6,273","-21,727","22,776","-36,992","45,856"
"3706","29,273","6,273","-21,727","-43,224","-34,992","58,856"
"3714","29,273","6,273","-21,727","-43,224","-34,992","58,856"
"3714","29,273","6,273","-21,727","-43,224","-34,992","58,856"
"3726","5,273","-41,727","-11,727","-43,224","-34,992","58,856"
"3726","5,273","-41,727","-11,727","-91,224","-30,992","73,856"
"3734","-49,727","30,273","-64,727","-91,224","-30,992","73,856"
"3738","-49,727","30,273","-64,727","-31,224","-31,992","89,856"
"3747","4,273","23,273","-90,727","-31,224","-31,992","89,856"
"3747","4,273","23,273","-90,727","-19,224","-49,992","84,856"
"3755","-87,727","-85,727","-201,727","-19,224","-49,992","84,856"
"3759","-87,727","-85,727","-201,727","-45,224","-44,992","73,856"
"3763","-87,727","-85,727","-201,727","-45,224","-44,992","73,856"
"3767","-87,727","-85,727","-201,727","-45,224","-44,992","73,856"
"3775","34,273","-694,727","63,273","-45,224","-44,992","73,856"
"3776","34,273","-694,727","63,273","-115,224","-47,992","49,856"
"3788","283,273","272,273","203,273","-115,224","-47,992","49,856"
"3788","283,273","272,273","203,273","204,776","-73,992","-14,144"
"3796","312,273","1344,273","34,273","204,776","-73,992","-14,144"
"3796","312,273","1344,273","34,273","595,776","17,008","-2,144"
"3808","-62,727","-356,727","-406,727","595,776","17,008","-2,144"
"3808","-62,727","-356,727","-406,727","99,776","37,008","-6,144"
"3816","-62,727","-356,727","-406,727","99,776","37,008","-6,144"
"3816","-62,727","-356,727","-406,727","99,776","37,008","-6,144"
"3824","291,273","-1143,727","46,273","99,776","37,008","-6,144"
"3825","291,273","-1143,727","46,273","-679,224","68,008","14,856"
"3837","-210,727","-123,727","209,273","-679,224","68,008","14,856"
"3837","-210,727","-123,727","209,273","281,776","161,008","40,856"
"3845","-111,727","-148,727","57,273","281,776","161,008","40,856"
"3849","-111,727","-148,727","57,273","71,776","133,008","8,856"
"3857","-290,727","417,273","-360,727","71,776","133,008","8,856"
"3858","-290,727","417,273","-360,727","202,776","119,008","-18,144"
"3865","-290,727","417,273","-360,727","202,776","119,008","-18,144"
"3866","-290,727","417,273","-360,727","202,776","119,008","-18,144"
"3874","-150,727","283,273","-174,727","202,776","119,008","-18,144"
"3877","-150,727","283,273","-174,727","269,776","61,008","-22,144"
"3886","-224,727","34,273","34,273","269,776","61,008","-22,144"
"3886","-224,727","34,273","34,273","-119,224","30,008","-0,144"
"3898","-86,727","111,273","79,273","-119,224","30,008","-0,144"
"3898","-86,727","111,273","79,273","-18,224","-49,992","13,856"
"3906","2,273","-148,727","-83,727","-18,224","-49,992","13,856"
"3907","2,273","-148,727","-83,727","-56,224","-57,992","23,856"
"3914","2,273","-148,727","-83,727","-56,224","-57,992","23,856"
"3915","2,273","-148,727","-83,727","-56,224","-57,992","23,856"
"3923","-10,727","136,273","-152,727","-56,224","-57,992","23,856"
"3927","-10,727","136,273","-152,727","-44,224","-27,992","43,856"
"3935","136,273","-206,727","187,273","-44,224","-27,992","43,856"
"3939","136,273","-206,727","187,273","5,776","-41,992","32,856"
"3947","105,273","-514,727","42,273","5,776","-41,992","32,856"
"3947","105,273","-514,727","42,273","-240,224","-64,992","5,856"
"3956","134,273","-279,727","-10,727","-240,224","-64,992","5,856"
"3959","134,273","-279,727","-10,727","-124,224","-31,992","-12,144"
"3964","134,273","-279,727","-10,727","-124,224","-31,992","-12,144"
"3968","134,273","-279,727","-10,727","-124,224","-31,992","-12,144"
"3976","204,273","64,273","-47,727","-124,224","-31,992","-12,144"
"3976","204,273","64,273","-47,727","115,776","-24,992","-30,144"
"3988","136,273","-45,727","112,273","115,776","-24,992","-30,144"
"3988","136,273","-45,727","112,273","-30,224","32,008","-59,144"
"3996","-57,727","276,273","-68,727","-30,224","32,008","-59,144"
"3997","-57,727","276,273","-68,727","82,776","68,008","-55,144"
"4009","-63,727","-104,727","-39,727","82,776","68,008","-55,144"
"4009","-63,727","-104,727","-39,727","35,776","65,008","-51,144"
"4013","-63,727","-104,727","-39,727","35,776","65,008","-51,144"
"4017","-63,727","-104,727","-39,727","35,776","65,008","-51,144"
"4025","-80,727","-245,727","-37,727","35,776","65,008","-51,144"
"4025","-80,727","-245,727","-37,727","-145,224","50,008","-48,144"
"4038","-134,727","150,273","-105,727","-145,224","50,008","-48,144"
"4038","-134,727","150,273","-105,727","81,776","31,008","-34,144"
"4046","-116,727","17,273","-109,727","81,776","31,008","-34,144"
"4050","-116,727","17,273","-109,727","24,776","-4,992","-34,144"
"4058","-3,727","-48,727","-21,727","24,776","-4,992","-34,144"
"4058","-3,727","-48,727","-21,727","-47,224","-29,992","-36,144"
"4066","-3,727","-48,727","-21,727","-47,224","-29,992","-36,144"
"4066","-3,727","-48,727","-21,727","-47,224","-29,992","-36,144"
"4074","22,273","-1,727","-0,727","-47,224","-29,992","-36,144"
"4074","22,273","-1,727","-0,727","-10,224","-38,992","-45,144"
"4087","113,273","-5,727","-1,727","-10,224","-38,992","-45,144"
"4087","113,273","-5,727","-1,727","-14,224","-38,992","-55,144"
"4099","81,273","-42,727","-13,727","-14,224","-38,992","-55,144"
"4099","81,273","-42,727","-13,727","-15,224","-22,992","-61,144"
"4107","23,273","47,273","-43,727","-15,224","-22,992","-61,144"
"4107","23,273","47,273","-43,727","-3,224","-5,992","-66,144"
"4115","23,273","47,273","-43,727","-3,224","-5,992","-66,144"
"4115","23,273","47,273","-43,727","-3,224","-5,992","-66,144"
"4123","41,273","67,273","-36,727","-3,224","-5,992","-66,144"
"4127","41,273","67,273","-36,727","28,776","8,008","-75,144"
"4136","28,273","117,273","-25,727","28,776","8,008","-75,144"
"4140","28,273","117,273","-25,727","-7,224","10,008","-88,144"
"4148","-50,727","141,273","-70,727","-7,224","10,008","-88,144"
"4148","-50,727","141,273","-70,727","27,776","28,008","-90,144"
"4156","-26,727","43,273","-74,727","27,776","28,008","-90,144"
"4160","-26,727","43,273","-74,727","-9,224","32,008","-89,144"
"4164","-26,727","43,273","-74,727","-9,224","32,008","-89,144"
"4165","-26,727","43,273","-74,727","-9,224","32,008","-89,144"
"4176","-32,727","-64,727","-32,727","-9,224","32,008","-89,144"
"4177","-32,727","-64,727","-32,727","-70,224","19,008","-83,144"
"4189","-64,727","69,273","-57,727","-70,224","19,008","-83,144"
"4189","-64,727","69,273","-57,727","16,776","12,008","-80,144"
"4197","-55,727","25,273","-53,727","16,776","12,008","-80,144"
"4197","-55,727","25,273","-53,727","0,776","-8,992","-89,144"
"4209","-34,727","-59,727","-53,727","0,776","-8,992","-89,144"
"4210","-34,727","-59,727","-53,727","-44,224","-15,992","-93,144"
"4214","-34,727","-59,727","-53,727","-44,224","-15,992","-93,144"
"4218","-34,727","-59,727","-53,727","-44,224","-15,992","-93,144"
"4226","18,273","33,273","-0,727","-44,224","-15,992","-93,144"
"4226","18,273","33,273","-0,727","-14,224","-19,992","-96,144"
"4238","103,273","125,273","-61,727","-14,224","-19,992","-96,144"
"4238","103,273","125,273","-61,727","9,776","-21,992","-95,144"
"4246","258,273","-35,727","-53,727","9,776","-21,992","-95,144"
"4250","258,273","-35,727","-53,727","9,776","-21,992","-95,144"
"4259","143,273","-99,727","-4,727","9,776","-21,992","-95,144"
"4259","143,273","-99,727","-4,727","-67,224","30,008","-79,144"
"4267","143,273","-99,727","-4,727","-67,224","30,008","-79,144"
"4267","143,273","-99,727","-4,727","-67,224","30,008","-79,144"
"4275","440,273","-353,727","469,273","-67,224","30,008","-79,144"
"4275","440,273","-353,727","469,273","-67,224","41,008","-88,144"
"4287","-37,727","238,273","-205,727","-67,224","41,008","-88,144"
"4291","-37,727","238,273","-205,727","-18,224","131,008","-104,144"
"4299","-87,727","-38,727","-178,727","-18,224","131,008","-104,144"
"4300","-87,727","-38,727","-178,727","90,776","65,008","-145,144"
"4308","-429,727","15,273","-11,727","90,776","65,008","-145,144"
"4308","-429,727","15,273","-11,727","90,776","65,008","-145,144"
"4316","-429,727","15,273","-11,727","90,776","65,008","-145,144"
"4316","-429,727","15,273","-11,727","-103,224","51,008","-158,144"
"4324","-172,727","518,273","-65,727","-103,224","51,008","-158,144"
"4324","-172,727","518,273","-65,727","141,776","50,008","-152,144"
"4336","11,273","-277,727","-93,727","141,776","50,008","-152,144"
"4340","11,273","-277,727","-93,727","215,776","-38,992","-164,144"
"4349","76,273","255,273","56,273","215,776","-38,992","-164,144"
"4349","76,273","255,273","56,273","-166,224","-68,992","-149,144"
"4357","6,273","657,273","-79,727","-166,224","-68,992","-149,144"
"4361","6,273","657,273","-79,727","-88,224","-79,992","-131,144"
"4365","6,273","657,273","-79,727","-88,224","-79,992","-131,144"
"4365","6,273","657,273","-79,727","247,776","-69,992","-98,144"
"4373","136,273","285,273","-0,727","247,776","-69,992","-98,144"
"4377","136,273","285,273","-0,727","64,776","-57,992","-82,144"
"4390","114,273","69,273","20,273","64,776","-57,992","-82,144"
"4390","114,273","69,273","20,273","-257,224","-59,992","-74,144"
"4398","44,273","184,273","-39,727","-257,224","-59,992","-74,144"
"4398","44,273","184,273","-39,727","-98,224","-18,992","-54,144"
"4410","-17,727","-150,727","-27,727","-98,224","-18,992","-54,144"
"4410","-17,727","-150,727","-27,727","113,776","-15,992","-68,144"
"4414","-17,727","-150,727","-27,727","113,776","-15,992","-68,144"
"4418","-17,727","-150,727","-27,727","-66,224","0,008","-91,144"
"4426","86,273","-79,727","17,273","-66,224","0,008","-91,144"
"4427","86,273","-79,727","17,273","-95,224","-5,992","-105,144"
"4439","-63,727","2,273","-64,727","-95,224","-5,992","-105,144"
"4439","-63,727","2,273","-64,727","113,776","-17,992","-121,144"
"4447","-211,727","-152,727","-242,727","113,776","-17,992","-121,144"
"4451","-211,727","-152,727","-242,727","62,776","11,008","-130,144"
"4459","-291,727","-23,727","-112,727","62,776","11,008","-130,144"
"4460","-291,727","-23,727","-112,727","-47,224","1,008","-134,144"
"4467","-291,727","-23,727","-112,727","-47,224","1,008","-134,144"
"4468","-291,727","-23,727","-112,727","32,776","3,008","-127,144"
"4476","-181,727","318,273","206,273","32,776","3,008","-127,144"
"4476","-181,727","318,273","206,273","122,776","-45,992","-106,144"
"4488","146,273","-395,727","-312,727","122,776","-45,992","-106,144"
"4488","146,273","-395,727","-312,727","251,776","-83,992","-67,144"
"4500","547,273","-1358,727","281,273","251,776","-83,992","-67,144"
"4500","547,273","-1358,727","281,273","-42,224","-103,992","-37,144"
"4509","417,273","-462,727","238,273","-42,224","-103,992","-37,144"
"4509","417,273","-462,727","238,273","-627,224","-141,992","-20,144"
"4517","417,273","-462,727","238,273","-627,224","-141,992","-20,144"
"4517","417,273","-462,727","238,273","-152,224","-90,992","1,856"
"4525","205,273","805,273","26,273","-152,224","-90,992","1,856"
"4525","205,273","805,273","26,273","561,776","43,008","19,856"
"4537","150,273","-1077,727","135,273","561,776","43,008","19,856"
"4541","150,273","-1077,727","135,273","-74,224","-17,992","-5,144"
"4549","28,273","764,273","-140,727","-74,224","-17,992","-5,144"
"4549","28,273","764,273","-140,727","-544,224","29,008","-12,144"
"4558","24,273","115,273","0,273","-544,224","29,008","-12,144"
"4561","24,273","115,273","0,273","204,776","-3,992","-24,144"
"4566","24,273","115,273","0,273","204,776","-3,992","-24,144"
"4566","24,273","115,273","0,273","350,776","54,008","-31,144"
"4574","-127,727","-809,727","25,273","350,776","54,008","-31,144"
"4578","-127,727","-809,727","25,273","-320,224","62,008","-51,144"
"4590","120,273","683,273","-87,727","-320,224","62,008","-51,144"
"4590","120,273","683,273","-87,727","-156,224","14,008","-52,144"
"4599","-151,727","-169,727","-107,727","-156,224","14,008","-52,144"
"4599","-151,727","-169,727","-107,727","418,776","52,008","-42,144"
"4611","43,273","-622,727","131,273","418,776","52,008","-42,144"
"4611","43,273","-622,727","131,273","83,776","62,008","-44,144"
"4615","43,273","-622,727","131,273","83,776","62,008","-44,144"
"4619","43,273","-622,727","131,273","-318,224","56,008","-31,144"
"4623","-107,727","682,273","-205,727","-318,224","56,008","-31,144"
"4627","-107,727","682,273","-205,727","169,776","56,008","-8,144"
"4640","-46,727","-622,727","53,273","169,776","56,008","-8,144"
"4640","-46,727","-622,727","53,273","220,776","29,008","3,856"
"4648","-31,727","366,273","-72,727","220,776","29,008","3,856"
"4652","-31,727","366,273","-72,727","-293,224","13,008","19,856"
"4660","64,273","477,273","-111,727","-293,224","13,008","19,856"
"4660","64,273","477,273","-111,727","-118,224","-1,992","28,856"
"4668","64,273","477,273","-111,727","-118,224","-1,992","28,856"
"4668","64,273","477,273","-111,727","294,776","10,008","41,856"
"4676","55,273","-121,727","-5,727","294,776","10,008","41,856"
"4677","55,273","-121,727","-5,727","-8,224","-5,992","30,856"
"4689","63,273","294,273","7,273","-8,224","-5,992","30,856"
"4689","63,273","294,273","7,273","-214,224","4,008","31,856"
"4697","-12,727","6,273","-44,727","-214,224","4,008","31,856"
"4701","-12,727","6,273","-44,727","83,776","17,008","35,856"
"4709","6,273","-367,727","-38,727","83,776","17,008","35,856"
"4709","6,273","-367,727","-38,727","83,776","38,008","28,856"
"4717","6,273","-367,727","-38,727","83,776","38,008","28,856"
"4717","6,273","-367,727","-38,727","-155,224","42,008","20,856"
"4726","-13,727","158,273","-21,727","-155,224","42,008","20,856"
"4726","-13,727","158,273","-21,727","-38,224","30,008","6,856"
"4738","-40,727","176,273","-94,727","-38,224","30,008","6,856"
"4742","-40,727","176,273","-94,727","185,776","53,008","2,856"
"4750","-0,727","-122,727","-17,727","185,776","53,008","2,856"
"4750","-0,727","-122,727","-17,727","73,776","43,008","1,856"
"4758","-15,727","74,273","-51,727","73,776","43,008","1,856"
"4762","-15,727","74,273","-51,727","-105,224","39,008","8,856"
"4767","-15,727","74,273","-51,727","-105,224","39,008","8,856"
"4767","-15,727","74,273","-51,727","-44,224","40,008","17,856"
"4775","-21,727","124,273","-43,727","-44,224","40,008","17,856"
"4775","-21,727","124,273","-43,727","49,776","38,008","25,856"
"4787","-28,727","30,273","-58,727","49,776","38,008","25,856"
"4791","-28,727","30,273","-58,727","-33,224","40,008","28,856"
"4799","49,273","181,273","-23,727","-33,224","40,008","28,856"
"4799","49,273","181,273","-23,727","-64,224","21,008","33,856"
"4807","-41,727","65,273","-21,727","-64,224","21,008","33,856"
"4811","-41,727","65,273","-21,727","46,776","30,008","38,856"
"4816","-41,727","65,273","-21,727","46,776","30,008","38,856"
"4819","-41,727","65,273","-21,727","21,776","26,008","35,856"
"4824","-41,727","-134,727","-40,727","21,776","26,008","35,856"
"4828","-41,727","-134,727","-40,727","-101,224","28,008","30,856"
"4840","-15,727","64,273","-68,727","-101,224","28,008","30,856"
"4840","-15,727","64,273","-68,727","-25,224","32,008","27,856"
"4848","-15,727","-100,727","-10,727","-25,224","32,008","27,856"
"4852","-15,727","-100,727","-10,727","59,776","22,008","18,856"
"4861","7,273","26,273","-29,727","59,776","22,008","18,856"
"4861","7,273","26,273","-29,727","-33,224","24,008","8,856"
"4865","7,273","26,273","-29,727","-33,224","24,008","8,856"
"4869","7,273","26,273","-29,727","-12,224","18,008","1,856"
"4873","-7,727","57,273","-61,727","-12,224","18,008","1,856"
"4877","-7,727","57,273","-61,727","55,776","10,008","-2,144"
"4889","-5,727","68,273","-3,727","55,776","10,008","-2,144"
"4890","-5,727","68,273","-3,727","2,776","16,008","-2,144"
"4897","-3,727","98,273","-29,727","2,776","16,008","-2,144"
"4902","-3,727","98,273","-29,727","-3,224","10,008","-6,144"
"4910","5,273","28,273","-19,727","-3,224","10,008","-6,144"
"4910","5,273","28,273","-19,727","50,776","20,008","-4,144"
"4918","5,273","28,273","-19,727","50,776","20,008","-4,144"
"4918","5,273","28,273","-19,727","13,776","17,008","-4,144"
"4926","18,273","-18,727","-42,727","13,776","17,008","-4,144"
"4926","18,273","-18,727","-42,727","-25,224","12,008","-0,144"
"4939","-124,727","-15,727","54,273","-25,224","12,008","-0,144"
"4939","-124,727","-15,727","54,273","-8,224","18,008","6,856"
"4951","-259,727","-37,727","55,273","-8,224","18,008","6,856"
"4951","-259,727","-37,727","55,273","2,776","23,008","2,856"
"4959","-98,727","-107,727","-162,727","2,776","23,008","2,856"
"4959","-98,727","-107,727","-162,727","5,776","34,008","2,856"
"4967","-98,727","-107,727","-162,727","5,776","34,008","2,856"
"4968","-98,727","-107,727","-162,727","6,776","-21,992","-11,144"
"4976","31,273","-129,727","-182,727","6,776","-21,992","-11,144"
"4976","31,273","-129,727","-182,727","-7,224","-52,992","-21,144"
"4988","104,273","498,273","93,273","-7,224","-52,992","-21,144"
"4992","104,273","498,273","93,273","43,776","-53,992","-36,144"
"5000","167,273","254,273","111,273","43,776","-53,992","-36,144"
"5000","167,273","254,273","111,273","145,776","-56,992","-29,144"
"5008","77,273","-167,727","-36,727","145,776","-56,992","-29,144"
"5012","77,273","-167,727","-36,727","88,776","-67,992","-18,144"
"5016","77,273","-167,727","-36,727","88,776","-67,992","-18,144"
"5020","77,273","-167,727","-36,727","-151,224","-41,992","4,856"
"5025","79,273","-337,727","-28,727","-151,224","-41,992","4,856"
"5025","79,273","-337,727","-28,727","-216,224","-14,992","24,856"
"5041","20,273","66,273","12,273","-216,224","-14,992","24,856"
"5041","20,273","66,273","12,273","10,776","-9,992","28,856"
"5049","-93,727","-55,727","-31,727","10,776","-9,992","28,856"
"5049","-93,727","-55,727","-31,727","57,776","4,008","30,856"
"5061","-32,727","14,273","-93,727","57,776","4,008","30,856"
"5062","-32,727","14,273","-93,727","-39,224","19,008","27,856"
"5065","-32,727","14,273","-93,727","-39,224","19,008","27,856"
"5069","-32,727","14,273","-93,727","-20,224","3,008","10,856"
"5081","-49,727","-205,727","-13,727","-20,224","3,008","10,856"
"5081","-49,727","-205,727","-13,727","13,776","-6,992","-3,144"
"5089","-49,727","-205,727","-13,727","13,776","-6,992","-3,144"
"5089","-49,727","-205,727","-13,727","-55,224","-9,992","-13,144"
"5097","-17,727","48,273","-28,727","-55,224","-9,992","-13,144"
"5101","-17,727","48,273","-28,727","10,776","-10,992","-18,144"
"5110","-22,727","-10,727","-22,727","10,776","-10,992","-18,144"
"5110","-22,727","-10,727","-22,727","79,776","-23,992","-18,144"
"5118","-22,727","-10,727","-22,727","79,776","-23,992","-18,144"
"5118","-22,727","-10,727","-22,727","14,776","-29,992","-19,144"
"5122","8,273","-10,727","8,273","14,776","-29,992","-19,144"
"5126","8,273","-10,727","8,273","5,776","-32,992","-13,144"
"5138","43,273","-83,727","-38,727","5,776","-32,992","-13,144"
"5138","43,273","-83,727","-38,727","29,776","-35,992","-7,144"
"5151","13,273","-125,727","-24,727","29,776","-35,992","-7,144"
"5151","13,273","-125,727","-24,727","-4,224","-28,992","3,856"
"5159","-68,727","-13,727","88,273","-4,224","-28,992","3,856"
"5159","-68,727","-13,727","88,273","-38,224","-21,992","7,856"
"5167","-68,727","-13,727","88,273","-38,224","-21,992","7,856"
"5167","-68,727","-13,727","88,273","13,776","5,008","12,856"
"5175","-6,727","401,273","71,273","13,776","5,008","12,856"
"5175","-6,727","401,273","71,273","73,776","-40,992","10,856"
"5191","-130,727","-432,727","-137,727","73,776","-40,992","10,856"
"5192","-130,727","-432,727","-137,727","188,776","-44,992","31,856"
"5200","155,273","-831,727","111,273","188,776","-44,992","31,856"
"5200","155,273","-831,727","111,273","-23,224","-31,992","37,856"
"5208","504,273","-558,727","324,273","-23,224","-31,992","37,856"
"5212","504,273","-558,727","324,273","-406,224","-62,992","33,856"
"5216","504,273","-558,727","324,273","-406,224","-62,992","33,856"
"5220","504,273","-558,727","324,273","-240,224","-105,992","29,856"
"5224","-0,727","210,273","-50,727","-240,224","-105,992","29,856"
"5225","-0,727","210,273","-50,727","228,776","-36,992","28,856"
"5241","76,273","-147,727","-62,727","228,776","-36,992","28,856"
"5241","76,273","-147,727","-62,727","285,776","20,008","24,856"
"5249","443,273","-327,727","264,273","285,776","20,008","24,856"
"5249","443,273","-327,727","264,273","-39,224","2,008","6,856"
"5261","79,273","145,273","18,273","-39,224","2,008","6,856"
"5261","79,273","145,273","18,273","-174,224","-35,992","3,856"
"5265","79,273","145,273","18,273","-174,224","-35,992","3,856"
"5269","79,273","145,273","18,273","37,776","58,008","15,856"
"5274","-53,727","-183,727","-75,727","37,776","58,008","15,856"
"5277","-53,727","-183,727","-75,727","47,776","54,008","6,856"
"5290","29,273","-467,727","12,273","47,776","54,008","6,856"
"5290","29,273","-467,727","12,273","-145,224","66,008","5,856"
"5298","109,273","-182,727","20,273","-145,224","66,008","5,856"
"5302","109,273","-182,727","20,273","0,776","41,008","12,856"
"5310","-144,727","-83,727","-103,727","0,776","41,008","12,856"
"5311","-144,727","-83,727","-103,727","253,776","68,008","19,856"
"5318","-144,727","-83,727","-103,727","253,776","68,008","19,856"
"5319","-144,727","-83,727","-103,727","39,776","88,008","18,856"
"5327","-82,727","-266,727","-31,727","39,776","88,008","18,856"
"5327","-82,727","-266,727","-31,727","-174,224","55,008","23,856"
"5339","112,273","169,273","63,273","-174,224","55,008","23,856"
"5339","112,273","169,273","63,273","39,776","36,008","36,856"
"5347","-74,727","-41,727","-18,727","39,776","36,008","36,856"
"5351","-74,727","-41,727","-18,727","65,776","18,008","31,856"
"5360","-140,727","381,273","-185,727","65,776","18,008","31,856"
"5360","-140,727","381,273","-185,727","-89,224","57,008","39,856"
"5368","-140,727","381,273","-185,727","-89,224","57,008","39,856"
"5368","-140,727","381,273","-185,727","27,776","15,008","46,856"
"5376","80,273","248,273","-54,727","27,776","15,008","46,856"
"5376","80,273","248,273","-54,727","138,776","7,008","50,856"
"5384","20,273","-111,727","9,273","138,776","7,008","50,856"
"5388","20,273","-111,727","9,273","-67,224","-28,992","39,856"
"5400","93,273","-157,727","14,273","-67,224","-28,992","39,856"
"5401","93,273","-157,727","14,273","-129,224","-7,992","41,856"
"5409","30,273","-115,727","-20,727","-129,224","-7,992","41,856"
"5413","30,273","-115,727","-20,727","54,776","19,008","48,856"
"5417","30,273","-115,727","-20,727","54,776","19,008","48,856"
"5417","30,273","-115,727","-20,727","2,776","-15,992","38,856"
"5425","108,273","-324,727","14,273","2,776","-15,992","38,856"
"5425","108,273","-324,727","14,273","-147,224","-1,992","29,856"
"5441","12,273","173,273","-80,727","-147,224","-1,992","29,856"
"5441","12,273","173,273","-80,727","7,776","0,008","22,856"
"5450","-0,727","-74,727","28,273","7,776","0,008","22,856"
"5450","-0,727","-74,727","28,273","128,776","25,008","17,856"
"5462","-41,727","50,273","-67,727","128,776","25,008","17,856"
"5462","-41,727","50,273","-67,727","-16,224","22,008","8,856"
"5466","-41,727","50,273","-67,727","-16,224","22,008","8,856"
"5470","-41,727","50,273","-67,727","-49,224","17,008","3,856"
"5474","-11,727","21,273","-77,727","-49,224","17,008","3,856"
"5474","-11,727","21,273","-77,727","36,776","28,008","3,856"
"5487","-89,727","-116,727","-110,727","36,776","28,008","3,856"
"5487","-89,727","-116,727","-110,727","-21,224","20,008","-0,144"
"5499","-57,727","-135,727","-13,727","-21,224","20,008","-0,144"
"5499","-57,727","-135,727","-13,727","-45,224","18,008","6,856"
"5507","13,273","222,273","-42,727","-45,224","18,008","6,856"
"5507","13,273","222,273","-42,727","71,776","-1,992","9,856"
"5515","-13,727","122,273","-55,727","71,776","-1,992","9,856"
"5515","-13,727","122,273","-55,727","79,776","-7,992","12,856"
"5523","-15,727","-52,727","-18,727","79,776","-7,992","12,856"
"5524","-15,727","-52,727","-18,727","-51,224","3,008","19,856"
"5540","-16,727","84,273","-36,727","-51,224","3,008","19,856"
"5540","-16,727","84,273","-36,727","-43,224","-2,992","27,856"
"5548","5,273","28,273","-13,727","-43,224","-2,992","27,856"
"5548","5,273","28,273","-13,727","19,776","-8,992","30,856"
"5560","11,273","-92,727","-27,727","19,776","-8,992","30,856"
"5560","11,273","-92,727","-27,727","-39,224","-15,992","25,856"
"5568","11,273","-92,727","-27,727","-39,224","-15,992","25,856"
"5569","11,273","-92,727","-27,727","-42,224","-9,992","22,856"
"5576","29,273","72,273","-55,727","-42,224","-9,992","22,856"
"5577","29,273","72,273","-55,727","31,776","-4,992","16,856"
"5585","9,273","-4,727","-28,727","31,776","-4,992","16,856"
"5585","9,273","-4,727","-28,727","20,776","-0,992","11,856"
"5601","55,273","-29,727","13,273","20,776","-0,992","11,856"
"5601","55,273","-29,727","13,273","-23,224","-0,992","4,856"
"5605","39,273","42,273","-29,727","-23,224","-0,992","4,856"
"5609","39,273","42,273","-29,727","5,776","5,008","5,856"
"5613","16,273","-0,727","-53,727","5,776","5,008","5,856"
"5614","16,273","-0,727","-53,727","7,776","17,008","8,856"
"5626","2,273","-41,727","-44,727","7,776","17,008","8,856"
"5629","2,273","-41,727","-44,727","-20,224","20,008","12,856"
"5634","-31,727","82,273","-31,727","-20,224","20,008","12,856"
"5638","-31,727","82,273","-31,727","-5,224","15,008","15,856"
"5646","13,273","57,273","-7,727","-5,224","15,008","15,856"
"5646","13,273","57,273","-7,727","28,776","25,008","21,856"
"5654","-32,727","-2,727","-43,727","28,776","25,008","21,856"
"5655","-32,727","-2,727","-43,727","-11,224","16,008","20,856"
"5663","-79,727","104,273","-32,727","-11,224","16,008","20,856"
"5667","-79,727","104,273","-32,727","-14,224","25,008","25,856"
"5675","7,273","437,273","-211,727","-14,224","25,008","25,856"
"5675","7,273","437,273","-211,727","67,776","15,008","41,856"
"5683","49,273","169,273","-187,727","67,776","15,008","41,856"
"5687","49,273","169,273","-187,727","-40,224","-8,992","53,856"
"5695","180,273","40,273","-0,727","-40,224","-8,992","53,856"
"5696","180,273","40,273","-0,727","-206,224","-10,992","81,856"
"5704","-138,727","-393,727","329,273","-206,224","-10,992","81,856"
"5707","-138,727","-393,727","329,273","-121,224","21,008","108,856"
"5716","-289,727","-756,727","-144,727","-121,224","21,008","108,856"
"5716","-289,727","-756,727","-144,727","-250,224","39,008","115,856"
"5724","-41,727","-530,727","-196,727","-250,224","39,008","115,856"
"5724","-41,727","-530,727","-196,727","-207,224","17,008","80,856"
"5736","-197,727","77,273","-345,727","-207,224","17,008","80,856"
"5736","-197,727","77,273","-345,727","191,776","-35,992","31,856"
"5745","14,273","-157,727","134,273","191,776","-35,992","31,856"
"5745","14,273","-157,727","134,273","180,776","-33,992","-6,144"
"5753","108,273","-71,727","277,273","180,776","-33,992","-6,144"
"5756","108,273","-71,727","277,273","-68,224","-71,992","-30,144"
"5765","40,273","509,273","-56,727","-68,224","-71,992","-30,144"
"5765","40,273","509,273","-56,727","163,776","-69,992","-35,144"
"5773","89,273","-524,727","-46,727","163,776","-69,992","-35,144"
"5777","89,273","-524,727","-46,727","91,776","-22,992","-35,144"
"5785","61,273","-917,727","75,273","91,776","-22,992","-35,144"
"5786","61,273","-917,727","75,273","-359,224","-49,992","-41,144"
"5794","48,273","-205,727","83,273","-359,224","-49,992","-41,144"
"5794","48,273","-205,727","83,273","-62,224","-35,992","-16,144"
"5806","112,273","693,273","2,273","-62,224","-35,992","-16,144"
"5806","112,273","693,273","2,273","433,776","-5,992","15,856"
"5814","-94,727","81,273","-118,727","433,776","-5,992","15,856"
"5815","-94,727","81,273","-118,727","157,776","-31,992","28,856"
"5822","108,273","-321,727","4,273","157,776","-31,992","28,856"
"5826","108,273","-321,727","4,273","-239,224","-10,992","44,856"
"5835","34,273","-170,727","-21,727","-239,224","-10,992","44,856"
"5835","34,273","-170,727","-21,727","-103,224","-22,992","54,856"
"5843","-117,727","31,273","-82,727","-103,224","-22,992","54,856"
"5847","-117,727","31,273","-82,727","68,776","-10,992","57,856"
"5855","39,273","-227,727","48,273","68,776","-10,992","57,856"
"5855","39,273","-227,727","48,273","-38,224","8,008","47,856"
"5863","-51,727","-203,727","-44,727","-38,224","8,008","47,856"
"5867","-51,727","-203,727","-44,727","-67,224","-23,992","25,856"
"5876","-63,727","181,273","-196,727","-67,224","-23,992","25,856"
"5876","-63,727","181,273","-196,727","89,776","-8,992","15,856"
"5884","-165,727","187,273","-32,727","89,776","-8,992","15,856"
"5884","-165,727","187,273","-32,727","99,776","-10,992","-0,144"
"5896","-76,727","379,273","170,273","99,776","-10,992","-0,144"
"5896","-76,727","379,273","170,273","46,776","-25,992","2,856"
"5904","-15,727","469,273","-198,727","46,776","-25,992","2,856"
"5904","-15,727","469,273","-198,727","105,776","-44,992","30,856"
"5912","2,273","-484,727","-214,727","105,776","-44,992","30,856"
"5916","2,273","-484,727","-214,727","-108,224","-73,992","44,856"
"5925","196,273","-976,727","70,273","-108,224","-73,992","44,856"
"5925","196,273","-976,727","70,273","-496,224","-80,992","52,856"
"5933","260,273","-392,727","243,273","-496,224","-80,992","52,856"
"5937","260,273","-392,727","243,273","-140,224","-81,992","60,856"
"5945","-66,727","408,273","-54,727","-140,224","-81,992","60,856"
"5945","-66,727","408,273","-54,727","350,776","-23,992","50,856"
"5954","-80,727","-268,727","-62,727","350,776","-23,992","50,856"
"5957","-80,727","-268,727","-62,727","58,776","-1,992","32,856"
"5966","-93,727","-329,727","-149,727","58,776","-1,992","32,856"
"5966","-93,727","-329,727","-149,727","-226,224","-16,992","13,856"
"5974","250,273","384,273","46,273","-226,224","-16,992","13,856"
"5974","250,273","384,273","46,273","132,776","-51,992","15,856"
"5986","175,273","-311,727","54,273","132,776","-51,992","15,856"
"5986","175,273","-311,727","54,273","101,776","-42,992","-1,144"
"5994","-212,727","-717,727","-23,727","101,776","-42,992","-1,144"
"5995","-212,727","-717,727","-23,727","-289,224","23,008","-2,144"
"6003","203,273","-200,727","150,273","-289,224","23,008","-2,144"
"6006","203,273","-200,727","150,273","-13,224","5,008","-0,144"
"6015","209,273","374,273","-46,727","-13,224","5,008","-0,144"
"6015","209,273","374,273","-46,727","355,776","12,008","3,856"
"6023","67,273","-324,727","33,273","355,776","12,008","3,856"
"6027","67,273","-324,727","33,273","-31,224","2,008","4,856"
"6035","21,273","-404,727","27,273","-31,224","2,008","4,856"
"6036","21,273","-404,727","27,273","-217,224","56,008","21,856"
"6044","-135,727","490,273","-127,727","-217,224","56,008","21,856"
"6047","-135,727","490,273","-127,727","153,776","48,008","32,856"
"6056","-55,727","53,273","-56,727","153,776","48,008","32,856"
"6056","-55,727","53,273","-56,727","154,776","50,008","39,856"
"6064","-91,727","-407,727","8,273","154,776","50,008","39,856"
"6064","-91,727","-407,727","8,273","-191,224","21,008","40,856"
"6076","-176,727","266,273","-181,727","-191,224","21,008","40,856"
"6076","-176,727","266,273","-181,727","-78,224","7,008","41,856"
"6084","-57,727","283,273","-92,727","-78,224","7,008","41,856"
"6085","-57,727","283,273","-92,727","181,776","18,008","42,856"
"6093","-73,727","-14,727","-13,727","181,776","18,008","42,856"
"6097","-73,727","-14,727","-13,727","14,776","-21,992","25,856"
"6105","-13,727","-98,727","6,273","14,776","-21,992","25,856"
"6105","-13,727","-98,727","6,273","-93,224","-26,992","20,856"
"6113","81,273","123,273","13,273","-93,224","-26,992","20,856"
"6117","81,273","123,273","13,273","26,776","-33,992","13,856"
"6125","44,273","48,273","-33,727","26,776","-33,992","13,856"
"6126","44,273","48,273","-33,727","20,776","-36,992","8,856"
"6134","-23,727","-23,727","-67,727","20,776","-36,992","8,856"
"6134","-23,727","-23,727","-67,727","-41,224","-9,992","8,856"
"6146","34,273","87,273","-27,727","-41,224","-9,992","8,856"
"6146","34,273","87,273","-27,727","-19,224","-21,992","10,856"
"6154","61,273","24,273","-17,727","-19,224","-21,992","10,856"
"6154","61,273","24,273","-17,727","17,776","-15,992","12,856"
"6162","44,273","-53,727","-21,727","17,776","-15,992","12,856"
"6166","44,273","-53,727","-21,727","-30,224","-11,992","12,856"
"6175","101,273","9,273","0,273","-30,224","-11,992","12,856"
"6175","101,273","9,273","0,273","-29,224","-3,992","16,856"
"6183","6,273","83,273","4,273","-29,224","-3,992","16,856"
"6187","6,273","83,273","4,273","28,776","11,008","19,856"
"6195","10,273","-91,727","3,273","28,776","11,008","19,856"
"6195","10,273","-91,727","3,273","-37,224","17,008","28,856"
"6203","-0,727","-172,727","-21,727","-37,224","17,008","28,856"
"6207","-0,727","-172,727","-21,727","-96,224","13,008","35,856"
"6215","-40,727","-48,727","-84,727","-96,224","13,008","35,856"
"6216","-40,727","-48,727","-84,727","-27,224","12,008","36,856"
"6224","-42,727","-56,727","-52,727","-27,224","12,008","36,856"
"6224","-42,727","-56,727","-52,727","15,776","21,008","31,856"
"6236","-25,727","-31,727","7,273","15,776","21,008","31,856"
"6236","-25,727","-31,727","7,273","9,776","7,008","25,856"
"6244","-63,727","110,273","-72,727","9,776","7,008","25,856"
"6244","-63,727","110,273","-72,727","40,776","-1,992","17,856"
"6252","-11,727","-27,727","-84,727","40,776","-1,992","17,856"
"6256","-11,727","-27,727","-84,727","26,776","6,008","14,856"
"6265","1,273","-101,727","-28,727","26,776","6,008","14,856"
"6265","1,273","-101,727","-28,727","-49,224","-10,992","9,856"
"6273","14,273","-16,727","-32,727","-49,224","-10,992","9,856"
"6277","14,273","-16,727","-32,727","-20,224","-12,992","9,856"
"6286","75,273","-5,727","16,273","-20,224","-12,992","9,856"
"6286","75,273","-5,727","16,273","28,776","-11,992","8,856"
"6293","129,273","22,273","36,273","28,776","-11,992","8,856"
"6297","129,273","22,273","36,273","-9,224","-13,992","16,856"
"6306","2,273","124,273","-69,727","-9,224","-13,992","16,856"
"6306","2,273","124,273","-69,727","22,776","3,008","19,856"
"6314","-33,727","-50,727","-23,727","22,776","3,008","19,856"
"6314","-33,727","-50,727","-23,727","4,776","19,008","33,856"
"6326","-16,727","-117,727","-14,727","4,776","19,008","33,856"
"6326","-16,727","-117,727","-14,727","-54,224","2,008","33,856"
"6334","-48,727","-151,727","-55,727","-54,224","2,008","33,856"
"6335","-48,727","-151,727","-55,727","-42,224","-4,992","29,856"
"6342","-54,727","-1,727","-31,727","-42,224","-4,992","29,856"
"6347","-54,727","-1,727","-31,727","-7,224","-12,992","24,856"
"6355","-18,727","152,273","-72,727","-7,224","-12,992","24,856"
"6355","-18,727","152,273","-72,727","65,776","-12,992","21,856"
"6363","24,273","249,273","-107,727","65,776","-12,992","21,856"
"6367","24,273","249,273","-107,727","96,776","-27,992","11,856"
"6375","132,273","238,273","-64,727","96,776","-27,992","11,856"
"6376","132,273","238,273","-64,727","42,776","-30,992","22,856"
"6384","209,273","171,273","-24,727","42,776","-30,992","22,856"
"6387","209,273","171,273","-24,727","-34,224","-29,992","33,856"
"6396","178,273","174,273","18,273","-34,224","-29,992","33,856"
"6396","178,273","174,273","18,273","-72,224","5,008","61,856"
"6404","-21,727","-14,727","124,273","-72,224","5,008","61,856"
"6404","-21,727","-14,727","124,273","-100,224","42,008","90,856"
"6416","-100,727","-548,727","-11,727","-100,224","42,008","90,856"
"6416","-100,727","-548,727","-11,727","-209,224","56,008","100,856"
"6425","-45,727","-225,727","-132,727","-209,224","56,008","100,856"
"6425","-45,727","-225,727","-132,727","-157,224","51,008","90,856"
"6433","-192,727","164,273","-247,727","-157,224","51,008","90,856"
"6437","-192,727","164,273","-247,727","129,776","33,008","70,856"
"6445","-180,727","111,273","-131,727","129,776","33,008","70,856"
"6445","-180,727","111,273","-131,727","135,776","36,008","43,856"
"6453","-79,727","72,273","25,273","135,776","36,008","43,856"
"6457","-79,727","72,273","25,273","-37,224","-10,992","18,856"
"6465","-23,727","304,273","-70,727","-37,224","-10,992","18,856"
"6466","-23,727","304,273","-70,727","88,776","-28,992","8,856"
"6474","-49,727","115,273","-161,727","88,776","-28,992","8,856"
"6477","-49,727","115,273","-161,727","64,776","-27,992","6,856"
"6486","17,273","-269,727","10,273","64,776","-27,992","6,856"
"6486","17,273","-269,727","10,273","-148,224","-43,992","7,856"
"6494","97,273","36,273","73,273","-148,224","-43,992","7,856"
"6494","97,273","36,273","73,273","-62,224","-29,992","30,856"
"6506","31,273","329,273","26,273","-62,224","-29,992","30,856"
"6506","31,273","329,273","26,273","134,776","-30,992","51,856"
"6515","-85,727","1,273","-116,727","134,776","-30,992","51,856"
"6515","-85,727","1,273","-116,727","91,776","-12,992","65,856"
"6523","-10,727","-148,727","-94,727","91,776","-12,992","65,856"
"6527","-10,727","-148,727","-94,727","-94,224","-7,992","75,856"
"6535","-44,727","-67,727","-88,727","-94,224","-7,992","75,856"
"6535","-44,727","-67,727","-88,727","-102,224","-29,992","79,856"
"6543","16,273","-15,727","4,273","-102,224","-29,992","79,856"
"6547","16,273","-15,727","4,273","-2,224","-28,992","77,856"
"6556","-5,727","-80,727","7,273","-2,224","-28,992","77,856"
"6556","-5,727","-80,727","7,273","-0,224","-28,992","67,856"
"6564","-63,727","-65,727","-74,727","-0,224","-28,992","67,856"
"6568","-63,727","-65,727","-74,727","-19,224","-38,992","47,856"
"6576","68,273","-62,727","-27,727","-19,224","-38,992","47,856"
"6576","68,273","-62,727","-27,727","2,776","-36,992","26,856"
"6584","122,273","6,273","50,273","2,776","-36,992","26,856"
"6584","122,273","6,273","50,273","28,776","-44,992","11,856"
"6596","84,273","42,273","10,273","28,776","-44,992","11,856"
"6597","84,273","42,273","10,273","31,776","-30,992","7,856"
"6605","16,273","103,273","-112,727","31,776","-30,992","7,856"
"6605","16,273","103,273","-112,727","32,776","-7,992","12,856"
"6613","-204,727","1,273","-179,727","32,776","-7,992","12,856"
"6617","-204,727","1,273","-179,727","16,776","13,008","13,856"
"6625","396,273","-189,727","443,273","16,776","13,008","13,856"
"6625","396,273","-189,727","443,273","-51,224","-16,992","2,856"
"6633","253,273","362,273","-43,727","-51,224","-16,992","2,856"
"6637","253,273","362,273","-43,727","51,776","-73,992","-3,144"
"6646","179,273","681,273","-205,727","51,776","-73,992","-3,144"
"6646","179,273","681,273","-205,727","210,776","34,008","28,856"
"6654","-278,727","-245,727","-208,727","210,776","34,008","28,856"
"6658","-278,727","-245,727","-208,727","-6,224","39,008","35,856"
"6666","108,273","-582,727","309,273","-6,224","39,008","35,856"
"6666","108,273","-582,727","309,273","-330,224","67,008","51,856"
"6674","72,273","-371,727","285,273","-330,224","67,008","51,856"
"6675","72,273","-371,727","285,273","-167,224","-5,992","42,856"
"6687","-115,727","94,273","-201,727","-167,224","-5,992","42,856"
"6687","-115,727","94,273","-201,727","105,776","44,008","38,856"
"6695","-150,727","206,273","-344,727","105,776","44,008","38,856"
"6695","-150,727","206,273","-344,727","105,776","22,008","19,856"
"6703","-118,727","85,273","-140,727","105,776","22,008","19,856"
"6707","-118,727","85,273","-140,727","71,776","1,008","-4,144"
"6715","154,273","-39,727","149,273","71,776","1,008","-4,144"
"6716","154,273","-39,727","149,273","-25,224","-60,992","-5,144"
"6724","24,273","110,273","17,273","-25,224","-60,992","-5,144"
"6727","24,273","110,273","17,273","28,776","-17,992","9,856"
"6736","-91,727","-65,727","-115,727","28,776","-17,992","9,856"
"6736","-91,727","-65,727","-115,727","-10,224","-2,992","6,856"
"6744","63,273","-226,727","1,273","-10,224","-2,992","6,856"
"6748","63,273","-226,727","1,273","-100,224","-14,992","9,856"
"6756","243,273","79,273","101,273","-100,224","-14,992","9,856"
"6756","243,273","79,273","101,273","-30,224","-18,992","16,856"
"6764","107,273","312,273","-46,727","-30,224","-18,992","16,856"
"6765","107,273","312,273","-46,727","86,776","-27,992","21,856"
"6777","45,273","211,273","-9,727","86,776","-27,992","21,856"
"6777","45,273","211,273","-9,727","86,776","-27,992","21,856"
"6785","52,273","-276,727","10,273","86,776","-27,992","21,856"
"6785","52,273","-276,727","10,273","-73,224","42,008","23,856"
"6793","69,273","-145,727","-28,727","-73,224","42,008","23,856"
"6797","69,273","-145,727","-28,727","-126,224","12,008","13,856"
"6805","78,273","-41,727","-4,727","-126,224","12,008","13,856"
"6806","78,273","-41,727","-4,727","8,776","18,008","9,856"
"6814","-19,727","-25,727","-53,727","8,776","18,008","9,856"
"6817","-19,727","-25,727","-53,727","39,776","36,008","3,856"
"6826","-75,727","98,273","-66,727","39,776","36,008","3,856"
"6826","-75,727","98,273","-66,727","39,776","36,008","3,856"
"6834","27,273","168,273","-9,727","39,776","36,008","3,856"
"6838","27,273","168,273","-9,727","69,776","39,008","-3,144"
"6846","-17,727","132,273","-62,727","69,776","39,008","-3,144"
"6847","-17,727","132,273","-62,727","45,776","20,008","0,856"
"6855","-77,727","-109,727","-21,727","45,776","20,008","0,856"
"6855","-77,727","-109,727","-21,727","-49,224","25,008","4,856"
"6867","-120,727","-46,727","-80,727","-49,224","25,008","4,856"
"6867","-120,727","-46,727","-80,727","-59,224","35,008","12,856"
"6875","-128,727","32,273","-100,727","-59,224","35,008","12,856"
"6876","-128,727","32,273","-100,727","2,776","16,008","16,856"
"6883","-75,727","62,273","-41,727","2,776","16,008","16,856"
"6887","-75,727","62,273","-41,727","30,776","3,008","16,856"
"6895","-37,727","94,273","-98,727","30,776","3,008","16,856"
"6896","-37,727","94,273","-98,727","16,776","-26,992","9,856"
"6904","34,273","107,273","-2,727","16,776","-26,992","9,856"
"6908","34,273","107,273","-2,727","7,776","-14,992","16,856"
"6916","33,273","79,273","25,273","7,776","-14,992","16,856"
"6916","33,273","79,273","25,273","-5,224","-24,992","17,856"
"6924","51,273","-107,727","-38,727","-5,224","-24,992","17,856"
"6924","51,273","-107,727","-38,727","-5,224","-24,992","17,856"
"6936","107,273","-122,727","-2,727","-5,224","-24,992","17,856"
"6937","107,273","-122,727","-2,727","-72,224","-7,992","8,856"
"6945","64,273","-63,727","-26,727","-72,224","-7,992","8,856"
"6945","64,273","-63,727","-26,727","-20,224","-6,992","2,856"
"6957","61,273","-24,727","1,273","-20,224","-6,992","2,856"
"6957","61,273","-24,727","1,273","26,776","10,008","-5,144"
"6965","21,273","29,273","-46,727","26,776","10,008","-5,144"
"6965","21,273","29,273","-46,727","31,776","16,008","-7,144"
"6973","0,273","26,273","-33,727","31,776","16,008","-7,144"
"6977","0,273","26,273","-33,727","43,776","26,008","-8,144"
"6986","-36,727","14,273","-29,727","43,776","26,008","-8,144"
"6986","-36,727","14,273","-29,727","7,776","25,008","-5,144"
"6994","-86,727","-10,727","-61,727","7,776","25,008","-5,144"
"6998","-86,727","-10,727","-61,727","0,776","24,008","-2,144"
"7006","-17,727","-61,727","-71,727","0,776","24,008","-2,144"
"7006","-17,727","-61,727","-71,727","-11,224","5,008","-0,144"
"7014","139,273","-84,727","1,273","-11,224","5,008","-0,144"
"7018","139,273","-84,727","1,273","-18,224","-16,992","6,856"
"7027","-20,727","128,273","-56,727","-18,224","-16,992","6,856"
"7027","-20,727","128,273","-56,727","-18,224","-16,992","6,856"
"7035","-85,727","146,273","-63,727","-18,224","-16,992","6,856"
"7039","-85,727","146,273","-63,727","61,776","26,008","20,856"
"7047","18,273","54,273","-11,727","61,776","26,008","20,856"
"7047","18,273","54,273","-11,727","14,776","13,008","24,856"
"7055","42,273","-31,727","-33,727","14,776","13,008","24,856"
"7056","42,273","-31,727","-33,727","-45,224","-5,992","23,856"
"7068","-22,727","-191,727","-50,727","-45,224","-5,992","23,856"
"7068","-22,727","-191,727","-50,727","-55,224","4,008","15,856"
"7076","-22,727","-191,727","-50,727","-55,224","4,008","15,856"
"7076","-22,727","-191,727","-50,727","-55,224","4,008","15,856"
"7084","45,273","104,273","35,273","-55,224","4,008","15,856"
"7088","45,273","104,273","35,273","-23,224","15,008","8,856"
"7096","-65,727","46,273","-48,727","-23,224","15,008","8,856"
"7096","-65,727","46,273","-48,727","104,776","1,008","-8,144"
"7104","-119,727","-56,727","34,273","104,776","1,008","-8,144"
"7108","-119,727","-56,727","34,273","-3,224","3,008","-7,144"
"7117","-231,727","123,273","-91,727","-3,224","3,008","-7,144"
"7117","-231,727","123,273","-91,727","-14,224","-2,992","0,856"
"7125","-231,727","123,273","-91,727","-14,224","-2,992","0,856"
"7125","-231,727","123,273","-91,727","-14,224","-2,992","0,856"
"7137","48,273","100,273","-34,727","-14,224","-2,992","0,856"
"7137","48,273","100,273","-34,727","68,776","-39,992","20,856"
"7145","47,273","-164,727","29,273","68,776","-39,992","20,856"
"7148","47,273","-164,727","29,273","-152,224","-104,992","73,856"
"7157","-48,727","-100,727","-11,727","-152,224","-104,992","73,856"
"7157","-48,727","-100,727","-11,727","-149,224","-72,992","93,856"
"7165","238,273","-162,727","8,273","-149,224","-72,992","93,856"
"7165","238,273","-162,727","8,273","-29,224","-99,992","88,856"
"7173","238,273","-162,727","8,273","-29,224","-99,992","88,856"
"7177","238,273","-162,727","8,273","-29,224","-99,992","88,856"
"7185","227,273","-299,727","16,273","-29,224","-99,992","88,856"
"7186","227,273","-299,727","16,273","-60,224","-73,992","60,856"
"7194","97,273","48,273","-2,727","-60,224","-73,992","60,856"
"7197","97,273","48,273","-2,727","66,776","-0,992","13,856"
"7206","67,273","0,273","19,273","66,776","-0,992","13,856"
"7206","67,273","0,273","19,273","99,776","25,008","-7,144"
"7214","27,273","-63,727","-28,727","99,776","25,008","-7,144"
"7218","27,273","-63,727","-28,727","30,776","33,008","-21,144"
"7222","27,273","-63,727","-28,727","30,776","33,008","-21,144"
"7226","27,273","-63,727","-28,727","30,776","33,008","-21,144"
"7234","-177,727","100,273","-148,727","30,776","33,008","-21,144"
"7235","-177,727","100,273","-148,727","51,776","30,008","-19,144"
"7246","-50,727","-6,727","-18,727","51,776","30,008","-19,144"
"7246","-50,727","-6,727","-18,727","49,776","34,008","-4,144"
"7255","-99,727","68,273","-2,727","49,776","34,008","-4,144"
"7255","-99,727","68,273","-2,727","7,776","-9,992","8,856"
"7267","-81,727","79,273","-116,727","7,776","-9,992","8,856"
"7267","-81,727","79,273","-116,727","57,776","-14,992","28,856"
"7275","-81,727","79,273","-116,727","57,776","-14,992","28,856"
"7275","-81,727","79,273","-116,727","57,776","-14,992","28,856"
"7283","-62,727","-83,727","-46,727","57,776","-14,992","28,856"
"7287","-62,727","-83,727","-46,727","-14,224","-37,992","42,856"
"7296","101,273","85,273","-6,727","-14,224","-37,992","42,856"
"7296","101,273","85,273","-6,727","34,776","-68,992","55,856"
"7304","52,273","-78,727","-42,727","34,776","-68,992","55,856"
"7308","52,273","-78,727","-42,727","1,776","-67,992","52,856"
"7316","168,273","-163,727","-14,727","1,776","-67,992","52,856"
"7317","168,273","-163,727","-14,727","-75,224","-54,992","49,856"
"7325","168,273","-163,727","-14,727","-75,224","-54,992","49,856"
"7325","168,273","-163,727","-14,727","-75,224","-54,992","49,856"
"7333","181,273","-52,727","-39,727","-75,224","-54,992","49,856"
"7337","181,273","-52,727","-39,727","50,776","-15,992","25,856"
"7345","167,273","-234,727","-3,727","50,776","-15,992","25,856"
"7345","167,273","-234,727","-3,727","12,776","-21,992","4,856"
"7357","297,273","-379,727","17,273","12,776","-21,992","4,856"
"7357","297,273","-379,727","17,273","-41,224","-45,992","-26,144"
"7366","74,273","-154,727","-73,727","-41,224","-45,992","-26,144"
"7366","74,273","-154,727","-73,727","33,776","-25,992","-44,144"
"7374","74,273","-154,727","-73,727","33,776","-25,992","-44,144"
"7374","74,273","-154,727","-73,727","33,776","-25,992","-44,144"
"7382","131,273","271,273","36,273","33,776","-25,992","-44,144"
"7386","131,273","271,273","36,273","305,776","57,008","-17,144"
"7394","88,273","-40,727","16,273","305,776","57,008","-17,144"
"7398","88,273","-40,727","16,273","261,776","129,008","2,856"
"7407","-220,727","-577,727","-176,727","261,776","129,008","2,856"
"7407","-220,727","-577,727","-176,727","-237,224","-18,992","-17,144"
"7415","113,273","-347,727","-49,727","-237,224","-18,992","-17,144"
"7419","113,273","-347,727","-49,727","-352,224","8,008","17,856"
"7423","113,273","-347,727","-49,727","-352,224","8,008","17,856"
"7427","113,273","-347,727","-49,727","-352,224","8,008","17,856"
"7435","-126,727","113,273","-106,727","-352,224","8,008","17,856"
"7435","-126,727","113,273","-106,727","103,776","-42,992","45,856"
"7447","96,273","154,273","-1,727","103,776","-42,992","45,856"
"7447","96,273","154,273","-1,727","-18,224","-47,992","45,856"
"7455","133,273","227,273","-130,727","-18,224","-47,992","45,856"
"7455","133,273","227,273","-130,727","-55,224","-5,992","27,856"
"7468","194,273","-217,727","20,273","-55,224","-5,992","27,856"
"7468","194,273","-217,727","20,273","-88,224","-25,992","7,856"
"7472","194,273","-217,727","20,273","-88,224","-25,992","7,856"
"7476","194,273","-217,727","20,273","-88,224","-25,992","7,856"
"7484","160,273","-6,727","5,273","-88,224","-25,992","7,856"
"7484","160,273","-6,727","5,273","41,776","-7,992","-6,144"
"7497","104,273","-4,727","-26,727","41,776","-7,992","-6,144"
"7497","104,273","-4,727","-26,727","-4,224","8,008","-18,144"
"7505","167,273","137,273","-17,727","-4,224","8,008","-18,144"
"7509","167,273","137,273","-17,727","37,776","30,008","-17,144"
"7517","149,273","103,273","-11,727","37,776","30,008","-17,144"
"7517","149,273","103,273","-11,727","79,776","25,008","-17,144"
"7525","149,273","103,273","-11,727","79,776","25,008","-17,144"
"7525","149,273","103,273","-11,727","79,776","25,008","-17,144"
"7534","54,273","118,273","-26,727","79,776","25,008","-17,144"
"7534","54,273","118,273","-26,727","11,776","59,008","-4,144"
"7546","-61,727","-70,727","-47,727","11,776","59,008","-4,144"
"7546","-61,727","-70,727","-47,727","-43,224","38,008","0,856"
"7554","34,273","17,273","-68,727","-43,224","38,008","0,856"
"7558","34,273","17,273","-68,727","3,776","-15,992","12,856"
"7566","115,273","-25,727","-47,727","3,776","-15,992","12,856"
"7566","115,273","-25,727","-47,727","3,776","-15,992","12,856"
"7575","115,273","-25,727","-47,727","3,776","-15,992","12,856"
"7575","115,273","-25,727","-47,727","3,776","-15,992","12,856"
"7583","133,273","-6,727","-1,727","3,776","-15,992","12,856"
"7586","133,273","-6,727","-1,727","-1,224","-22,992","4,856"
"7595","199,273","-2,727","59,273","-1,224","-22,992","4,856"
"7599","199,273","-2,727","59,273","4,776","-1,992","-12,144"
"7607","171,273","1,273","-14,727","4,776","-1,992","-12,144"
"7607","171,273","1,273","-14,727","4,776","-1,992","-12,144"
"7615","100,273","-36,727","-48,727","4,776","-1,992","-12,144"
"7619","100,273","-36,727","-48,727","-14,224","34,008","-17,144"
"7623","100,273","-36,727","-48,727","-14,224","34,008","-17,144"
"7624","100,273","-36,727","-48,727","-14,224","34,008","-17,144"
"7636","67,273","-49,727","-65,727","-14,224","34,008","-17,144"
"7636","67,273","-49,727","-65,727","4,776","26,008","-21,144"
"7644","71,273","32,273","-6,727","4,776","26,008","-21,144"
"7648","71,273","32,273","-6,727","-0,224","34,008","-13,144"
"7656","19,273","15,273","-35,727","-0,224","34,008","-13,144"
"7657","19,273","15,273","-35,727","-10,224","38,008","-12,144"
"7664","4,273","4,273","-45,727","-10,224","38,008","-12,144"
"7668","4,273","4,273","-45,727","-10,224","38,008","-12,144"
"7673","4,273","4,273","-45,727","-10,224","38,008","-12,144"
"7677","4,273","4,273","-45,727","-10,224","38,008","-12,144"
"7685","-48,727","-5,727","-70,727","-10,224","38,008","-12,144"
"7685","-48,727","-5,727","-70,727","-15,224","25,008","-12,144"
"7697","18,273","-35,727","-14,727","-15,224","25,008","-12,144"
"7697","18,273","-35,727","-14,727","7,776","16,008","-17,144"
"7706","-3,727","0,273","-36,727","7,776","16,008","-17,144"
"7706","-3,727","0,273","-36,727","10,776","-2,992","-22,144"
"7718","109,273","23,273","20,273","10,776","-2,992","-22,144"
"7718","109,273","23,273","20,273","22,776","-8,992","-26,144"
"7726","7,273","64,273","-68,727","22,776","-8,992","-26,144"
"7726","7,273","64,273","-68,727","3,776","6,008","-20,144"
"7738","115,273","-13,727","-7,727","3,776","6,008","-20,144"
"7739","115,273","-13,727","-7,727","-17,224","-19,992","-20,144"
"7747","126,273","-2,727","18,273","-17,224","-19,992","-20,144"
"7747","126,273","-2,727","18,273","-0,224","-1,992","-19,144"
"7755","28,273","-6,727","-24,727","-0,224","-1,992","-19,144"
"7759","28,273","-6,727","-24,727","-0,224","-1,992","-19,144"
"7767","-16,727","7,273","-54,727","-0,224","-1,992","-19,144"
"7767","-16,727","7,273","-54,727","10,776","-3,992","-12,144"
"7775","138,273","40,273","-3,727","10,776","-3,992","-12,144"
"7779","138,273","40,273","-3,727","-3,224","6,008","-9,144"
"7787","54,273","-43,727","-7,727","-3,224","6,008","-9,144"
"7788","54,273","-43,727","-7,727","-34,224","38,008","-5,144"
"7796","-108,727","-46,727","-83,727","-34,224","38,008","-5,144"
"7799","-108,727","-46,727","-83,727","5,776","20,008","-3,144"
"7808","109,273","38,273","-8,727","5,776","20,008","-3,144"
"7808","109,273","38,273","-8,727","12,776","-3,992","-8,144"
"7816","74,273","-55,727","-8,727","12,776","-3,992","-8,144"
"7816","74,273","-55,727","-8,727","-39,224","21,008","-11,144"
"7824","74,273","-55,727","-8,727","-39,224","21,008","-11,144"
"7824","74,273","-55,727","-8,727","-39,224","21,008","-11,144"
"7832","-67,727","-95,727","-58,727","-39,224","21,008","-11,144"
"7836","-67,727","-95,727","-58,727","-2,224","34,008","-8,144"
"7844","46,273","47,273","-36,727","-2,224","34,008","-8,144"
"7848","46,273","47,273","-36,727","1,776","-9,992","-7,144"
"7857","77,273","-32,727","-21,727","1,776","-9,992","-7,144"
"7857","77,273","-32,727","-21,727","-23,224","-1,992","-9,144"
"7865","-15,727","-30,727","-38,727","-23,224","-1,992","-9,144"
"7869","-15,727","-30,727","-38,727","18,776","10,008","-3,144"
"7877","65,273","36,273","17,273","18,776","10,008","-3,144"
"7877","65,273","36,273","17,273","18,776","10,008","-3,144"
"7886","48,273","4,273","-23,727","18,776","10,008","-3,144"
"7890","48,273","4,273","-23,727","-18,224","0,008","-2,144"
"7898","81,273","-20,727","-38,727","-18,224","0,008","-2,144"
"7898","81,273","-20,727","-38,727","-6,224","-0,992","-0,144"
"7906","11,273","48,273","-49,727","-6,224","-0,992","-0,144"
"7906","11,273","48,273","-49,727","-6,224","-0,992","-0,144"
"7919","75,273","53,273","24,273","-6,224","-0,992","-0,144"
"7919","75,273","53,273","24,273","15,776","10,008","1,856"
"7922","75,273","53,273","24,273","15,776","10,008","1,856"
"7926","75,273","53,273","24,273","4,776","3,008","3,856"
"7935","74,273","15,273","6,273","4,776","3,008","3,856"
"7935","74,273","15,273","6,273","-23,224","16,008","-0,144"
"7947","-81,727","-25,727","-101,727","-23,224","16,008","-0,144"
"7947","-81,727","-25,727","-101,727","-20,224","25,008","1,856"
"7956","44,273","4,273","-22,727","-20,224","25,008","1,856"
"7959","44,273","4,273","-22,727","16,776","-17,992","-3,144"
"7967","71,273","36,273","11,273","16,776","-17,992","-3,144"
"7968","71,273","36,273","11,273","16,776","-17,992","-3,144"
"7975","4,273","26,273","-28,727","16,776","-17,992","-3,144"
"7979","4,273","26,273","-28,727","-7,224","7,008","-3,144"
"7988","33,273","-38,727","-23,727","-7,224","7,008","-3,144"
"7988","33,273","-38,727","-23,727","-28,224","2,008","-3,144"
"7996","29,273","-71,727","-23,727","-28,224","2,008","-3,144"
"8000","29,273","-71,727","-23,727","-28,224","2,008","-3,144"
"8008","-99,727","26,273","-82,727","-28,224","2,008","-3,144"
"8008","-99,727","26,273","-82,727","-11,224","2,008","-1,144"
"8017","-89,727","53,273","-85,727","-11,224","2,008","-1,144"
"8017","-89,727","53,273","-85,727","25,776","17,008","-1,144"
"8025","-89,727","53,273","-85,727","25,776","17,008","-1,144"
"8025","-89,727","53,273","-85,727","19,776","-5,992","-5,144"
"8033","20,273","50,273","-43,727","19,776","-5,992","-5,144"
"8033","20,273","50,273","-43,727","7,776","-26,992","-6,144"
"8045","92,273","-12,727","3,273","7,776","-26,992","-6,144"
"8049","92,273","-12,727","3,273","-7,224","-20,992","-5,144"
"8058","67,273","-13,727","2,273","-7,224","-20,992","-5,144"
"8058","67,273","-13,727","2,273","-15,224","-10,992","-3,144"
"8066","93,273","-22,727","7,273","-15,224","-10,992","-3,144"
"8070","93,273","-22,727","7,273","-10,224","-1,992","-5,144"
"8074","93,273","-22,727","7,273","-10,224","-1,992","-5,144"
"8074","93,273","-22,727","7,273","-7,224","11,008","-2,144"
"8082","39,273","5,273","-41,727","-7,224","11,008","-2,144"
"8086","39,273","5,273","-41,727","5,776","21,008","1,856"
"8099","23,273","41,273","-22,727","5,776","21,008","1,856"
"8099","23,273","41,273","-22,727","6,776","21,008","0,856"
"8107","-52,727","-38,727","-48,727","6,776","21,008","0,856"
"8107","-52,727","-38,727","-48,727","-5,224","26,008","1,856"
"8119","4,273","-42,727","-20,727","-5,224","26,008","1,856"
"8119","4,273","-42,727","-20,727","-26,224","24,008","4,856"
"8127","4,273","-42,727","-20,727","-26,224","24,008","4,856"
"8128","4,273","-42,727","-20,727","-13,224","8,008","-0,144"
"8140","-94,727","-19,727","-60,727","-13,224","8,008","-0,144"
"8140","-94,727","-19,727","-60,727","6,776","11,008","-1,144"
"8148","-8,727","56,273","-20,727","6,776","11,008","-1,144"
"8148","-8,727","56,273","-20,727","-0,224","4,008","-1,144"
"8156","49,273","68,273","-24,727","-0,224","4,008","-1,144"
"8160","49,273","68,273","-24,727","21,776","-28,992","-3,144"
"8168","20,273","-38,727","-37,727","21,776","-28,992","-3,144"
"8169","20,273","-38,727","-37,727","4,776","-27,992","-1,144"
"8177","20,273","-38,727","-37,727","4,776","-27,992","-1,144"
"8177","20,273","-38,727","-37,727","-29,224","-23,992","-4,144"
"8185","87,273","42,273","-7,727","-29,224","-23,992","-4,144"
"8185","87,273","42,273","-7,727","16,776","-23,992","-3,144"
"8197","126,273","-19,727","16,273","16,776","-23,992","-3,144"
"8197","126,273","-19,727","16,273","8,776","-15,992","-1,144"
"8209","48,273","11,273","-43,727","8,776","-15,992","-1,144"
"8209","48,273","11,273","-43,727","-11,224","12,008","0,856"
"8218","24,273","-1,727","-35,727","-11,224","12,008","0,856"
"8218","24,273","-1,727","-35,727","13,776","19,008","4,856"
"8226","24,273","-1,727","-35,727","13,776","19,008","4,856"
"8226","24,273","-1,727","-35,727","-14,224","15,008","1,856"
"8238","-2,727","0,273","-20,727","-14,224","15,008","1,856"
"8238","-2,727","0,273","-20,727","-17,224","13,008","0,856"
"8246","-49,727","13,273","-65,727","-17,224","13,008","0,856"
"8250","-49,727","13,273","-65,727","17,776","18,008","2,856"
"8259","8,273","-39,727","-32,727","17,776","18,008","2,856"
"8259","8,273","-39,727","-32,727","-3,224","15,008","1,856"
"8267","19,273","-15,727","-24,727","-3,224","15,008","1,856"
"8270","19,273","-15,727","-24,727","-20,224","-3,992","-0,144"
"8275","19,273","-15,727","-24,727","-20,224","-3,992","-0,144"
"8275","19,273","-15,727","-24,727","6,776","1,008","2,856"
"8287","-7,727","-21,727","-30,727","6,776","1,008","2,856"
"8287","-7,727","-21,727","-30,727","2,776","7,008","2,856"
"8299","36,273","3,273","-16,727","2,776","7,008","2,856"
"8299","36,273","3,273","-16,727","-1,224","2,008","1,856"
"8307","29,273","41,273","-24,727","-1,224","2,008","1,856"
"8308","29,273","41,273","-24,727","11,776","0,008","4,856"
"8320","-24,727","-20,727","-29,727","11,776","0,008","4,856"
"8320","-24,727","-20,727","-29,727","3,776","8,008","2,856"
"8324","-24,727","-20,727","-29,727","3,776","8,008","2,856"
"8328","-24,727","-20,727","-29,727","-13,224","9,008","4,856"
"8336","-14,727","11,273","-39,727","-13,224","9,008","4,856"
"8340","-14,727","11,273","-39,727","1,776","0,008","1,856"
"8349","4,273","26,273","-30,727","1,776","0,008","1,856"
"8349","4,273","26,273","-30,727","6,776","-5,992","-1,144"
"8357","-16,727","51,273","-42,727","6,776","-5,992","-1,144"
"8361","-16,727","51,273","-42,727","6,776","1,008","-2,144"
"8369","-17,727","32,273","-32,727","6,776","1,008","-2,144"
"8369","-17,727","32,273","-32,727","9,776","5,008","-4,144"
"8377","-17,727","32,273","-32,727","9,776","5,008","-4,144"
"8377","-17,727","32,273","-32,727","-11,224","0,008","0,856"
"8390","-5,727","4,273","-36,727","-11,224","0,008","0,856"
"8390","-5,727","4,273","-36,727","-7,224","1,008","-3,144"
"8398","-10,727","-0,727","-44,727","-7,224","1,008","-3,144"
"8398","-10,727","-0,727","-44,727","-2,224","5,008","0,856"
"8410","-10,727","3,273","-23,727","-2,224","5,008","0,856"
"8410","-10,727","3,273","-23,727","-6,224","3,008","-1,144"
"8418","-2,727","23,273","-22,727","-6,224","3,008","-1,144"
"8418","-2,727","23,273","-22,727","-2,224","3,008","-1,144"
"8426","-2,727","23,273","-22,727","-2,224","3,008","-1,144"
"8427","-2,727","23,273","-22,727","-1,224","0,008","-1,144"
"8439","-13,727","-49,727","-34,727","-1,224","0,008","-1,144"
"8439","-13,727","-49,727","-34,727","-15,224","0,008","-5,144"
"8447","-2,727","18,273","-21,727","-15,224","0,008","-5,144"
"8451","-2,727","18,273","-21,727","-3,224","1,008","-4,144"
"8459","6,273","5,273","-18,727","-3,224","1,008","-4,144"
"8459","6,273","5,273","-18,727","11,776","-2,992","-4,144"
"8467","-7,727","1,273","-34,727","11,776","-2,992","-4,144"
"8471","-7,727","1,273","-34,727","-3,224","0,008","-4,144"
"8476","-7,727","1,273","-34,727","-3,224","0,008","-4,144"
"8476","-7,727","1,273","-34,727","-0,224","1,008","-5,144"
"8488","16,273","-12,727","-13,727","-0,224","1,008","-5,144"
"8488","16,273","-12,727","-13,727","1,776","-7,992","-3,144"
"8500","8,273","-14,727","-22,727","1,776","-7,992","-3,144"
"8501","8,273","-14,727","-22,727","-12,224","-8,992","-2,144"
"8508","-0,727","20,273","-35,727","-12,224","-8,992","-2,144"
"8509","-0,727","20,273","-35,727","-3,224","-1,992","-0,144"
"8520","23,273","4,273","-25,727","-3,224","-1,992","-0,144"
"8521","23,273","4,273","-25,727","8,776","-3,992","-0,144"
"8525","23,273","4,273","-25,727","8,776","-3,992","-0,144"
"8529","23,273","4,273","-25,727","-3,224","-5,992","-0,144"
"8537","12,273","8,273","-26,727","-3,224","-5,992","-0,144"
"8541","12,273","8,273","-26,727","-7,224","-0,992","3,856"
"8549","9,273","-19,727","-30,727","-7,224","-0,992","3,856"
"8550","9,273","-19,727","-30,727","-3,224","-2,992","5,856"
"8558","6,273","-7,727","-32,727","-3,224","-2,992","5,856"
"8561","6,273","-7,727","-32,727","-8,224","2,008","5,856"
"8570","7,273","14,273","-35,727","-8,224","2,008","5,856"
"8570","7,273","14,273","-35,727","0,776","3,008","7,856"
"8578","7,273","14,273","-35,727","0,776","3,008","7,856"
"8578","7,273","14,273","-35,727","0,776","3,008","9,856"
"8590","-12,727","-3,727","-38,727","0,776","3,008","9,856"
"8590","-12,727","-3,727","-38,727","-5,224","3,008","8,856"
"8598","-12,727","-3,727","-38,727","-5,224","3,008","8,856"
"8599","-12,727","-3,727","-38,727","2,776","3,008","11,856"
"8606","5,273","-0,727","-26,727","2,776","3,008","11,856"
"8610","5,273","-0,727","-26,727","1,776","0,008","10,856"
"8619","5,273","7,273","-25,727","1,776","0,008","10,856"
"8619","5,273","7,273","-25,727","-0,224","1,008","7,856"
"8627","5,273","7,273","-25,727","-0,224","1,008","7,856"
"8627","5,273","7,273","-25,727","4,776","0,008","5,856"
"8639","8,273","14,273","-26,727","4,776","0,008","5,856"
"8639","8,273","14,273","-26,727","5,776","2,008","6,856"
"8648","-7,727","-3,727","-41,727","5,776","2,008","6,856"
"8651","-7,727","-3,727","-41,727","-0,224","-1,992","3,856"
"8660","21,273","18,273","-31,727","-0,224","-1,992","3,856"
"8660","21,273","18,273","-31,727","-3,224","-3,992","2,856"
"8668","18,273","30,273","-33,727","-3,224","-3,992","2,856"
"8668","18,273","30,273","-33,727","5,776","-6,992","-0,144"
"8676","18,273","30,273","-33,727","5,776","-6,992","-0,144"
"8676","18,273","30,273","-33,727","9,776","-2,992","-2,144"
"8688","9,273","19,273","-20,727","9,776","-2,992","-2,144"
"8688","9,273","19,273","-20,727","-1,224","-1,992","-3,144"
"8696","9,273","19,273","-20,727","-1,224","-1,992","-3,144"
"8697","9,273","19,273","-20,727","-3,224","3,008","-0,144"
"8709","6,273","0,273","-51,727","-3,224","3,008","-0,144"
"8709","6,273","0,273","-51,727","-4,224","1,008","1,856"
"8717","7,273","-15,727","-1,727","-4,224","1,008","1,856"
"8721","7,273","-15,727","-1,727","-15,224","1,008","1,856"
"8725","7,273","-15,727","-1,727","-15,224","1,008","1,856"
"8725","7,273","-15,727","-1,727","-3,224","2,008","-0,144"
"8738","-7,727","-1,727","-42,727","-3,224","2,008","-0,144"
"8741","-7,727","-1,727","-42,727","5,776","5,008","-1,144"
"8750","-7,727","-1,727","-42,727","5,776","5,008","-1,144"
"8750","-7,727","-1,727","-42,727","2,776","2,008","-3,144"
"8758","9,273","-11,727","-26,727","2,776","2,008","-3,144"
"8758","9,273","-11,727","-26,727","4,776","0,008","-1,144"
"8771","9,273","-9,727","-21,727","4,776","0,008","-1,144"
"8771","9,273","-9,727","-21,727","3,776","0,008","-2,144"
"8774","9,273","-9,727","-21,727","3,776","0,008","-2,144"
"8778","9,273","-9,727","-21,727","1,776","-2,992","-2,144"
"8791","14,273","21,273","-29,727","1,776","-2,992","-2,144"
"8791","14,273","21,273","-29,727","8,776","-1,992","1,856"
"8795","14,273","21,273","-29,727","8,776","-1,992","1,856"
"8799","14,273","21,273","-29,727","8,776","0,008","2,856"
"8807","4,273","-2,727","-21,727","8,776","0,008","2,856"
"8811","4,273","-2,727","-21,727","-5,224","7,008","5,856"
"8820","4,273","12,273","-34,727","-5,224","7,008","5,856"
"8820","4,273","12,273","-34,727","0,776","4,008","5,856"
"8828","-10,727","12,273","-34,727","0,776","4,008","5,856"
"8828","-10,727","12,273","-34,727","1,776","5,008","7,856"
"8840","-10,727","9,273","-44,727","1,776","5,008","7,856"
"8840","-10,727","9,273","-44,727","0,776","3,008","1,856"
"8848","-14,727","9,273","-24,727","0,776","3,008","1,856"
"8848","-14,727","9,273","-24,727","0,776","2,008","2,856"
"8860","-7,727","15,273","-31,727","0,776","2,008","2,856"
"8861","-7,727","15,273","-31,727","-0,224","-1,992","1,856"
"8869","3,273","6,273","-31,727","-0,224","-1,992","1,856"
"8869","3,273","6,273","-31,727","-4,224","-4,992","0,856"
"8877","-3,727","10,273","-24,727","-4,224","-4,992","0,856"
"8877","-3,727","10,273","-24,727","2,776","-3,992","1,856"
"8889","11,273","254,273","-36,727","2,776","-3,992","1,856"
"8889","11,273","254,273","-36,727","-5,224","-4,992","0,856"
"8897","-3,727","8,273","-36,727","-5,224","-4,992","0,856"
"8897","-3,727","8,273","-36,727","1,776","0,008","2,856"
"8909","9,273","13,273","-19,727","1,776","0,008","2,856"
"8909","9,273","13,273","-19,727","4,776","1,008","0,856"
"8918","9,273","-5,727","-33,727","4,776","1,008","0,856"
"8918","9,273","-5,727","-33,727","-9,224","0,008","-2,144"
"8926","8,273","-22,727","-23,727","-9,224","0,008","-2,144"
"8926","8,273","-22,727","-23,727","1,776","2,008","0,856"
"8939","31,273","-63,727","-8,727","1,776","2,008","0,856"
"8942","31,273","-63,727","-8,727","3,776","2,008","-2,144"
"8951","-8,727","-6,727","-25,727","3,776","2,008","-2,144"
"8951","-8,727","-6,727","-25,727","-21,224","-0,992","-5,144"
"8959","11,273","-4,727","-27,727","-21,224","-0,992","-5,144"
"8959","11,273","-4,727","-27,727","22,776","4,008","2,856"
"8971","5,273","-56,727","-3,727","22,776","4,008","2,856"
"8971","5,273","-56,727","-3,727","-11,224","-2,992","3,856"
"8975","5,273","-56,727","-3,727","-11,224","-2,992","3,856"
"8979","5,273","-56,727","-3,727","-22,224","1,008","9,856"
"8991","33,273","-31,727","-9,727","-22,224","1,008","9,856"
"8992","33,273","-31,727","-9,727","5,776","-0,992","13,856"
"8996","33,273","-31,727","-9,727","5,776","-0,992","13,856"
"9000","33,273","-31,727","-9,727","-16,224","-6,992","18,856"
"9004","3,273","-38,727","-18,727","-16,224","-6,992","18,856"
"9008","3,273","-38,727","-18,727","-9,224","-2,992","20,856"
"9016","-2,727","-37,727","-37,727","-9,224","-2,992","20,856"
"9016","-2,727","-37,727","-37,727","-5,224","-4,992","19,856"
"9024","26,273","-5,727","-27,727","-5,224","-4,992","19,856"
"9025","26,273","-5,727","-27,727","16,776","-1,992","18,856"
"9036","19,273","-15,727","-31,727","16,776","-1,992","18,856"
"9037","19,273","-15,727","-31,727","2,776","-0,992","18,856"
"9049","13,273","25,273","-25,727","2,776","-0,992","18,856"
"9053","13,273","25,273","-25,727","9,776","2,008","13,856"
"9061","13,273","25,273","-25,727","9,776","2,008","13,856"
"9061","13,273","25,273","-25,727","16,776","3,008","15,856"
"9070","-5,727","34,273","-40,727","16,776","3,008","15,856"
"9070","-5,727","34,273","-40,727","4,776","5,008","13,856"
"9078","-5,727","34,273","-40,727","4,776","5,008","13,856"
"9078","-5,727","34,273","-40,727","-3,224","5,008","15,856"
"9090","-24,727","30,273","-47,727","-3,224","5,008","15,856"
"9090","-24,727","30,273","-47,727","-6,224","5,008","11,856"
"9098","-24,727","30,273","-47,727","-6,224","5,008","11,856"
"9099","-24,727","30,273","-47,727","-1,224","4,008","16,856"
"9106","2,273","9,273","-29,727","-1,224","4,008","16,856"
"9106","2,273","9,273","-29,727","-10,224","-3,992","12,856"
"9114","3,273","3,273","-26,727","-10,224","-3,992","12,856"
"9114","3,273","3,273","-26,727","-9,224","2,008","9,856"
"9122","-14,727","3,273","-36,727","-9,224","2,008","9,856"
"9127","-14,727","3,273","-36,727","0,776","-3,992","5,856"
"9135","7,273","12,273","-16,727","0,776","-3,992","5,856"
"9135","7,273","12,273","-16,727","-1,224","-6,992","-1,144"
"9143","12,273","-0,727","-22,727","-1,224","-6,992","-1,144"
"9147","12,273","-0,727","-22,727","-3,224","-1,992","-6,144"
"9155","7,273","-0,727","-27,727","-3,224","-1,992","-6,144"
"9156","7,273","-0,727","-27,727","-1,224","-0,992","-7,144"
"9164","-0,727","0,273","-33,727","-1,224","-0,992","-7,144"
"9164","-0,727","0,273","-33,727","0,776","0,008","-9,144"
"9176","0,273","2,273","-27,727","0,776","0,008","-9,144"
"9176","0,273","2,273","-27,727","-3,224","-0,992","-9,144"
"9184","6,273","4,273","-20,727","-3,224","-0,992","-9,144"
"9184","6,273","4,273","-20,727","1,776","0,008","-4,144"
"9192","7,273","10,273","-24,727","1,776","0,008","-4,144"
"9196","7,273","10,273","-24,727","0,776","-2,992","-0,144"
"9205","-0,727","8,273","-38,727","0,776","-2,992","-0,144"
"9205","-0,727","8,273","-38,727","0,776","-2,992","2,856"
"9213","18,273","-6,727","-24,727","0,776","-2,992","2,856"
"9217","18,273","-6,727","-24,727","-10,224","-1,992","2,856"
"9225","16,273","-13,727","-19,727","-10,224","-1,992","2,856"
"9225","16,273","-13,727","-19,727","-9,224","1,008","3,856"
"9233","3,273","-7,727","-25,727","-9,224","1,008","3,856"
"9233","3,273","-7,727","-25,727","-0,224","4,008","2,856"
"9245","2,273","-0,727","-31,727","-0,224","4,008","2,856"
"9246","2,273","-0,727","-31,727","5,776","5,008","3,856"
"9254","3,273","9,273","-32,727","5,776","5,008","3,856"
"9254","3,273","9,273","-32,727","4,776","2,008","0,856"
"9266","-2,727","-0,727","-28,727","4,776","2,008","0,856"
"9266","-2,727","-0,727","-28,727","0,776","4,008","-0,144"
"9274","-2,727","8,273","-28,727","0,776","4,008","-0,144"
"9274","-2,727","8,273","-28,727","3,776","1,008","0,856"
"9282","-3,727","22,273","-34,727","3,776","1,008","0,856"
"9286","-3,727","22,273","-34,727","1,776","2,008","1,856"
"9295","-3,727","11,273","-28,727","1,776","2,008","1,856"
"9295","-3,727","11,273","-28,727","-3,224","0,008","2,856"
"9303","-2,727","25,273","-31,727","-3,224","0,008","2,856"
"9307","-2,727","25,273","-31,727","1,776","2,008","2,856"
"9315","-2,727","5,273","-26,727","1,776","2,008","2,856"
"9315","-2,727","5,273","-26,727","-6,224","-1,992","1,856"
"9323","-4,727","6,273","-31,727","-6,224","-1,992","1,856"
"9323","-4,727","6,273","-31,727","-3,224","-4,992","2,856"
"9336","1,273","5,273","-32,727","-3,224","-4,992","2,856"
"9336","1,273","5,273","-32,727","-8,224","-0,992","-0,144"
"9344","4,273","-11,727","-24,727","-8,224","-0,992","-0,144"
"9344","4,273","-11,727","-24,727","-9,224","-1,992","-0,144"
"9356","-0,727","-8,727","-31,727","-9,224","-1,992","-0,144"
"9356","-0,727","-8,727","-31,727","-0,224","-3,992","-4,144"
"9364","5,273","-0,727","-30,727","-0,224","-3,992","-4,144"
"9365","5,273","-0,727","-30,727","8,776","-3,992","-2,144"
"9373","15,273","1,273","-28,727","8,776","-3,992","-2,144"
"9376","15,273","1,273","-28,727","2,776","-2,992","-2,144"
"9385","5,273","-6,727","-28,727","2,776","-2,992","-2,144"
"9385","5,273","-6,727","-28,727","1,776","0,008","-3,144"
"9393","9,273","12,273","-30,727","1,776","0,008","-3,144"
"9397","9,273","12,273","-30,727","4,776","4,008","2,856"
"9405","6,273","-8,727","-22,727","4,776","4,008","2,856"
"9406","6,273","-8,727","-22,727","1,776","-1,992","1,856"
"9414","11,273","22,273","-28,727","1,776","-1,992","1,856"
"9414","11,273","22,273","-28,727","2,776","-3,992","1,856"
"9426","2,273","-0,727","-27,727","2,776","-3,992","1,856"
"9426","2,273","-0,727","-27,727","-4,224","-2,992","2,856"
"9434","1,273","-6,727","-27,727","-4,224","-2,992","2,856"
"9434","1,273","-6,727","-27,727","-3,224","2,008","0,856"
"9442","3,273","-0,727","-28,727","-3,224","2,008","0,856"
"9446","3,273","-0,727","-28,727","1,776","0,008","1,856"
"9455","4,273","23,273","-30,727","1,776","0,008","1,856"
"9455","4,273","23,273","-30,727","4,776","2,008","1,856"
"9463","-0,727","8,273","-31,727","4,776","2,008","1,856"
"9467","-0,727","8,273","-31,727","-3,224","3,008","4,856"
"9475","2,273","5,273","-28,727","-3,224","3,008","4,856"
"9475","2,273","5,273","-28,727","-0,224","4,008","-0,144"
"9483","-12,727","10,273","-30,727","-0,224","4,008","-0,144"
"9487","-12,727","10,273","-30,727","5,776","1,008","-1,144"
"9495","3,273","16,273","-27,727","5,776","1,008","-1,144"
"9496","3,273","16,273","-27,727","3,776","-0,992","-0,144"
"9504","4,273","-7,727","-23,727","3,776","-0,992","-0,144"
"9504","4,273","-7,727","-23,727","-1,224","-1,992","-0,144"
"9516","-0,727","18,273","-31,727","-1,224","-1,992","-0,144"
"9516","-0,727","18,273","-31,727","1,776","0,008","0,856"
"9524","2,273","10,273","-25,727","1,776","0,008","0,856"
"9524","2,273","10,273","-25,727","-3,224","-0,992","1,856"
"9536","5,273","-10,727","-25,727","-3,224","-0,992","1,856"
"9536","5,273","-10,727","-25,727","-10,224","1,008","-1,144"
"9545","4,273","-5,727","-28,727","-10,224","1,008","-1,144"
"9545","4,273","-5,727","-28,727","-1,224","0,008","-1,144"
"9553","2,273","8,273","-29,727","-1,224","0,008","-1,144"
"9557","2,273","8,273","-29,727","1,776","-0,992","-2,144"
"9565","7,273","1,273","-28,727","1,776","-0,992","-2,144"
"9565","7,273","1,273","-28,727","-3,224","0,008","-1,144"
"9573","5,273","3,273","-24,727","-3,224","0,008","-1,144"
"9574","5,273","3,273","-24,727","-0,224","0,008","-2,144"
"9585","0,273","7,273","-31,727","-0,224","0,008","-2,144"
"9586","0,273","7,273","-31,727","-1,224","1,008","0,856"
"9594","5,273","5,273","-30,727","-1,224","1,008","0,856"
"9594","5,273","5,273","-30,727","-1,224","3,008","-3,144"
"9606","1,273","1,273","-28,727","-1,224","3,008","-3,144"
"9606","1,273","1,273","-28,727","-1,224","0,008","-0,144"
"9614","1,273","9,273","-31,727","-1,224","0,008","-0,144"
"9614","1,273","9,273","-31,727","-1,224","0,008","1,856"
"9622","1,273","8,273","-30,727","-1,224","0,008","1,856"
"9626","1,273","8,273","-30,727","-3,224","3,008","1,856"
"9635","0,273","3,273","-30,727","-3,224","3,008","1,856"
"9635","0,273","3,273","-30,727","-3,224","3,008","1,856"
"9643","-0,727","4,273","-29,727","-3,224","3,008","1,856"
"9647","-0,727","4,273","-29,727","-0,224","1,008","0,856"
"9655","-1,727","5,273","-27,727","-0,224","1,008","0,856"
"9655","-1,727","5,273","-27,727","-2,224","-0,992","-2,144"
"9663","0,273","-0,727","-28,727","-2,224","-0,992","-2,144"
"9663","0,273","-0,727","-28,727","-0,224","2,008","-2,144"
"9676","-0,727","7,273","-32,727","-0,224","2,008","-2,144"
"9676","-0,727","7,273","-32,727","2,776","1,008","-2,144"
"9684","1,273","6,273","-27,727","2,776","1,008","-2,144"
"9684","1,273","6,273","-27,727","1,776","0,008","-2,144"
"9696","0,273","6,273","-29,727","1,776","0,008","-2,144"
"9696","0,273","6,273","-29,727","-0,224","-0,992","-1,144"
"9704","-0,727","-1,727","-33,727","-0,224","-0,992","-1,144"
"9705","-0,727","-1,727","-33,727","-3,224","1,008","-1,144"
"9712","7,273","1,273","-24,727","-3,224","1,008","-1,144"
"9716","7,273","1,273","-24,727","-2,224","-0,992","1,856"
"9725","3,273","5,273","-31,727","-2,224","-0,992","1,856"
"9725","3,273","5,273","-31,727","0,776","0,008","1,856"
"9733","5,273","2,273","-28,727","0,776","0,008","1,856"
"9737","5,273","2,273","-28,727","-2,224","-0,992","0,856"
"9745","3,273","2,273","-28,727","-2,224","-0,992","0,856"
"9745","3,273","2,273","-28,727","-1,224","-0,992","-0,144"
"9754","2,273","2,273","-33,727","-1,224","-0,992","-0,144"
"9754","2,273","2,273","-33,727","1,776","0,008","-1,144"
"9765","6,273","-0,727","-26,727","1,776","0,008","-1,144"
"9766","6,273","-0,727","-26,727","-0,224","-1,992","0,856"
"9774","1,273","11,273","-29,727","-0,224","-1,992","0,856"
"9774","1,273","11,273","-29,727","2,776","0,008","0,856"
"9786","4,273","7,273","-29,727","2,776","0,008","0,856"
"9786","4,273","7,273","-29,727","-4,224","1,008","-2,144"
"9795","3,273","0,273","-21,727","-4,224","1,008","-2,144"
"9795","3,273","0,273","-21,727","0,776","2,008","-2,144"
"9803","4,273","14,273","-32,727","0,776","2,008","-2,144"
"9807","4,273","14,273","-32,727","2,776","2,008","-1,144"
"9815","2,273","4,273","-22,727","2,776","2,008","-1,144"
"9815","2,273","4,273","-22,727","-2,224","-0,992","0,856"
"9823","-0,727","8,273","-35,727","-2,224","-0,992","0,856"
"9827","-0,727","8,273","-35,727","-5,224","1,008","0,856"
"9835","5,273","7,273","-30,727","-5,224","1,008","0,856"
"9836","5,273","7,273","-30,727","0,776","-0,992","-0,144"
"9844","2,273","2,273","-25,727","0,776","-0,992","-0,144"
"9844","2,273","2,273","-25,727","-2,224","-1,992","-1,144"
"9856","0,273","1,273","-29,727","-2,224","-1,992","-1,144"
"9856","0,273","1,273","-29,727","1,776","0,008","-2,144"
"9864","3,273","2,273","-30,727","1,776","0,008","-2,144"
"9864","3,273","2,273","-30,727","-0,224","0,008","-1,144"
"9876","0,273","2,273","-32,727","-0,224","0,008","-1,144"
"9876","0,273","2,273","-32,727","0,776","0,008","0,856"
"9885","3,273","0,273","-28,727","0,776","0,008","0,856"
"9885","3,273","0,273","-28,727","-2,224","0,008","-0,144"
"9893","1,273","1,273","-26,727","-2,224","0,008","-0,144"
"9897","1,273","1,273","-26,727","-0,224","0,008","-2,144"
"9905","1,273","3,273","-27,727","-0,224","0,008","-2,144"
"9905","1,273","3,273","-27,727","-1,224","-2,992","-0,144"
"9913","3,273","4,273","-27,727","-1,224","-2,992","-0,144"
"9917","3,273","4,273","-27,727","-0,224","-5,992","-0,144"
"9925","1,273","3,273","-32,727","-0,224","-5,992","-0,144"
"9926","1,273","3,273","-32,727","-1,224","-1,992","3,856"
"9933","4,273","3,273","-25,727","-1,224","-1,992","3,856"
"9934","4,273","3,273","-25,727","0,776","1,008","1,856"
"9946","4,273","2,273","-24,727","0,776","1,008","1,856"
"9946","4,273","2,273","-24,727","0,776","0,008","-0,144"
"9954","1,273","0,273","-30,727","0,776","0,008","-0,144"
"9954","1,273","0,273","-30,727","-3,224","2,008","-0,144"
"9962","3,273","2,273","-31,727","-3,224","2,008","-0,144"
"9966","3,273","2,273","-31,727","-1,224","0,008","0,856"
"9975","2,273","5,273","-26,727","-1,224","0,008","0,856"
"9975","2,273","5,273","-26,727","-1,224","0,008","0,856"
"9983","-0,727","5,273","-31,727","-1,224","0,008","0,856"
"9987","-0,727","5,273","-31,727","0,776","1,008","-1,144"
"9995","5,273","3,273","-26,727","0,776","1,008","-1,144"
"9995","5,273","3,273","-26,727","-0,224","0,008","1,856"
"10003","-0,727","7,273","-33,727","-0,224","0,008","1,856"
"10004","-0,727","7,273","-33,727","-2,224","1,008","-0,144"
"10016","-3,727","3,273","-28,727","-2,224","1,008","-0,144"
"10016","-3,727","3,273","-28,727","1,776","1,008","0,856"
"10024","8,273","3,273","-26,727","1,776","1,008","0,856"
"10024","8,273","3,273","-26,727","3,776","-2,992","-0,144"
"10036","-2,727","6,273","-32,727","3,776","-2,992","-0,144"
"10036","-2,727","6,273","-32,727","2,776","0,008","1,856"
"10044","2,273","2,273","-33,727","2,776","0,008","1,856"
"10044","2,273","2,273","-33,727","-0,224","0,008","1,856"
"10052","1,273","4,273","-31,727","-0,224","0,008","1,856"
"10057","1,273","4,273","-31,727","-2,224","1,008","-0,144"
"10065","5,273","2,273","-29,727","-2,224","1,008","-0,144"
"10065","5,273","2,273","-29,727","-4,224","-1,992","-0,144"
"10073","0,273","3,273","-31,727","-4,224","-1,992","-0,144"
"10077","0,273","3,273","-31,727","-4,224","-1,992","-0,144"
"10086","-2,727","5,273","-32,727","-4,224","-1,992","-0,144"
"10086","-2,727","5,273","-32,727","-3,224","1,008","0,856"
"10093","10,273","1,273","-26,727","-3,224","1,008","0,856"
"10097","10,273","1,273","-26,727","-2,224","-2,992","-2,144"
"10106","-3,727","7,273","-38,727","-2,224","-2,992","-2,144"
"10106","-3,727","7,273","-38,727","-0,224","0,008","1,856"
"10114","-3,727","4,273","-31,727","-0,224","0,008","1,856"
"10114","-3,727","4,273","-31,727","-3,224","0,008","-0,144"
"10126","9,273","0,273","-20,727","-3,224","0,008","-0,144"
"10126","9,273","0,273","-20,727","-0,224","1,008","0,856"
"10134","-0,727","3,273","-31,727","-0,224","1,008","0,856"
"10134","-0,727","3,273","-31,727","-0,224","-2,992","-0,144"
"10143","2,273","6,273","-29,727","-0,224","-2,992","-0,144"
"10147","2,273","6,273","-29,727","0,776","0,008","-0,144"
"10155","2,273","3,273","-30,727","0,776","0,008","-0,144"
"10155","2,273","3,273","-30,727","-3,224","3,008","-2,144"
"10163","0,273","1,273","-24,727","-3,224","3,008","-2,144"
"10167","0,273","1,273","-24,727","-1,224","-0,992","-4,144"
"10175","1,273","-0,727","-30,727","-1,224","-0,992","-4,144"
"10176","1,273","-0,727","-30,727","1,776","5,008","-0,144"
"10184","2,273","3,273","-26,727","1,776","5,008","-0,144"
"10184","2,273","3,273","-26,727","0,776","2,008","-0,144"
"10196","2,273","-0,727","-26,727","0,776","2,008","-0,144"
"10196","2,273","-0,727","-26,727","0,776","2,008","-3,144"
"10204","-0,727","7,273","-37,727","0,776","2,008","-3,144"
"10204","-0,727","7,273","-37,727","4,776","0,008","-2,144"
"10216","0,273","3,273","-28,727","4,776","0,008","-2,144"
"10216","0,273","3,273","-28,727","1,776","-2,992","-2,144"
"10224","4,273","-0,727","-22,727","1,776","-2,992","-2,144"
"10225","4,273","-0,727","-22,727","1,776","2,008","-0,144"
"10233","-0,727","4,273","-29,727","1,776","2,008","-0,144"
"10237","-0,727","4,273","-29,727","3,776","2,008","-1,144"
"10245","4,273","5,273","-29,727","3,776","2,008","-1,144"
"10245","4,273","5,273","-29,727","1,776","1,008","0,856"
"10253","9,273","1,273","-25,727","1,776","1,008","0,856"
"10257","9,273","1,273","-25,727","-1,224","0,008","-1,144"
"10266","1,273","3,273","-28,727","-1,224","0,008","-1,144"
"10266","1,273","3,273","-28,727","0,776","1,008","2,856"
"10274","1,273","6,273","-33,727","0,776","1,008","2,856"
"10274","1,273","6,273","-33,727","-0,224","-0,992","-0,144"
"10286","1,273","5,273","-33,727","-0,224","-0,992","-0,144"
"10286","1,273","5,273","-33,727","-1,224","3,008","-1,144"
"10294","6,273","2,273","-24,727","-1,224","3,008","-1,144"
"10294","6,273","2,273","-24,727","0,776","1,008","-2,144"
"10306","-1,727","7,273","-29,727","0,776","1,008","-2,144"
"10307","-1,727","7,273","-29,727","3,776","2,008","-2,144"
"10315","-2,727","3,273","-29,727","3,776","2,008","-2,144"
"10315","-2,727","3,273","-29,727","-0,224","3,008","0,856"
"10323","4,273","4,273","-28,727","-0,224","3,008","0,856"
"10327","4,273","4,273","-28,727","2,776","0,008","-0,144"
"10335","-2,727","3,273","-26,727","2,776","0,008","-0,144"
"10335","-2,727","3,273","-26,727","1,776","2,008","-1,144"
"10343","3,273","1,273","-25,727","1,776","2,008","-1,144"
"10347","3,273","1,273","-25,727","0,776","2,008","-2,144"
"10356","1,273","7,273","-30,727","0,776","2,008","-2,144"
"10356","1,273","7,273","-30,727","2,776","3,008","-0,144"
"10364","4,273","1,273","-26,727","2,776","3,008","-0,144"
"10364","4,273","1,273","-26,727","-0,224","0,008","-1,144"
"10376","-0,727","3,273","-28,727","-0,224","0,008","-1,144"
"10377","-0,727","3,273","-28,727","2,776","1,008","-2,144"
"10384","6,273","1,273","-24,727","2,776","1,008","-2,144"
"10384","6,273","1,273","-24,727","3,776","-0,992","0,856"
"10396","1,273","5,273","-24,727","3,776","-0,992","0,856"
"10396","1,273","5,273","-24,727","2,776","-0,992","-1,144"
"10405","3,273","5,273","-25,727","2,776","-0,992","-1,144"
"10405","3,273","5,273","-25,727","6,776","-2,992","0,856"
"10413","5,273","3,273","-31,727","6,776","-2,992","0,856"
"10417","5,273","3,273","-31,727","4,776","1,008","-0,144"
"10425","1,273","6,273","-31,727","4,776","1,008","-0,144"
"10425","1,273","6,273","-31,727","3,776","3,008","-0,144"
"10433","0,273","5,273","-26,727","3,776","3,008","-0,144"
"10437","0,273","5,273","-26,727","1,776","4,008","-0,144"
"10446","4,273","2,273","-22,727","1,776","4,008","-0,144"
"10446","4,273","2,273","-22,727","6,776","1,008","0,856"
"10454","2,273","5,273","-30,727","6,776","1,008","0,856"
"10454","2,273","5,273","-30,727","4,776","0,008","0,856"
"10466","2,273","4,273","-30,727","4,776","0,008","0,856"
"10466","2,273","4,273","-30,727","1,776","3,008","-0,144"
"10475","-1,727","6,273","-31,727","1,776","3,008","-0,144"
"10475","-1,727","6,273","-31,727","1,776","1,008","0,856"
"10487","1,273","1,273","-31,727","1,776","1,008","0,856"
"10487","1,273","1,273","-31,727","0,776","0,008","-1,144"
"10495","1,273","4,273","-26,727","0,776","0,008","-1,144"
"10495","1,273","4,273","-26,727","1,776","-0,992","-2,144"
"10507","-3,727","4,273","-30,727","1,776","-0,992","-2,144"
"10507","-3,727","4,273","-30,727","2,776","1,008","1,856"
"10515","0,273","6,273","-33,727","2,776","1,008","1,856"
"10515","0,273","6,273","-33,727","0,776","2,008","-1,144"
"10523","5,273","4,273","-23,727","0,776","2,008","-1,144"
