Timer,AX,AY,AZ,GX,GY,GZ
"1001","-11,402","88,598","-47,402","28,044","-10,003","35,828"
"1001","-11,402","88,598","-47,402","2,044","-5,003","41,828"
"1001","25,598","-42,402","18,598","2,044","-5,003","41,828"
"1001","25,598","-42,402","18,598","-39,956","-7,003","45,828"
"1001","24,598","-54,402","-16,402","-39,956","-7,003","45,828"
"1001","24,598","-54,402","-16,402","-9,956","-5,003","44,828"
"1001","56,598","-7,402","-42,402","-9,956","-5,003","44,828"
"1001","56,598","-7,402","-42,402","27,044","-10,003","41,828"
"1001","109,598","50,598","-6,402","27,044","-10,003","41,828"
"1001","109,598","50,598","-6,402","26,044","0,997","36,828"
"1001","51,598","53,598","3,598","26,044","0,997","36,828"
"1001","51,598","53,598","3,598","3,044","19,997","40,828"
"1001","-6,402","14,598","-29,402","3,044","19,997","40,828"
"1001","-6,402","14,598","-29,402","-22,956","28,997","38,828"
"1001","13,598","-31,402","-23,402","-22,956","28,997","38,828"
"1001","13,598","-31,402","-23,402","-17,956","18,997","30,828"
"1001","-11,402","-3,402","-30,402","-17,956","18,997","30,828"
"1001","-11,402","-3,402","-30,402","15,044","24,997","25,828"
"1002","-53,402","42,598","-50,402","15,044","24,997","25,828"
"1002","-53,402","42,598","-50,402","26,044","21,997","27,828"
"1002","-19,402","56,598","-27,402","26,044","21,997","27,828"
"1002","-19,402","56,598","-27,402","7,044","10,997","25,828"
"1002","22,598","4,598","-25,402","7,044","10,997","25,828"
"1002","22,598","4,598","-25,402","-7,956","5,997","25,828"
"1002","12,598","5,598","-31,402","-7,956","5,997","25,828"
"1002","12,598","5,598","-31,402","-0,956","-0,003","21,828"
"1002","6,598","27,598","-27,402","-0,956","-0,003","21,828"
"1002","6,598","27,598","-27,402","14,044","-2,003","21,828"
"1002","24,598","36,598","-23,402","14,044","-2,003","21,828"
"1002","24,598","36,598","-23,402","6,044","-3,003","21,828"
"1002","61,598","8,598","-19,402","6,044","-3,003","21,828"
"1002","61,598","8,598","-19,402","-5,956","-0,003","25,828"
"1002","66,598","-3,402","-10,402","-5,956","-0,003","25,828"
"1002","66,598","-3,402","-10,402","-2,956","3,997","26,828"
"1002","83,598","4,598","-2,402","-2,956","3,997","26,828"
"1002","83,598","4,598","-2,402","9,044","9,997","27,828"
"1002","62,598","13,598","-2,402","9,044","9,997","27,828"
"1002","62,598","13,598","-2,402","1,044","17,997","32,828"
"1003","35,598","-9,402","-20,402","1,044","17,997","32,828"
"1003","35,598","-9,402","-20,402","-6,956","20,997","38,828"
"1003","9,598","-8,402","-28,402","-6,956","20,997","38,828"
"1003","9,598","-8,402","-28,402","2,044","17,997","38,828"
"1003","-20,402","4,598","-44,402","2,044","17,997","38,828"
"1003","-20,402","4,598","-44,402","5,044","11,997","43,828"
"1003","-20,402","6,598","-35,402","5,044","11,997","43,828"
"1003","-20,402","6,598","-35,402","1,044","1,997","43,828"
"1003","-23,402","-1,402","-25,402","1,044","1,997","43,828"
"1003","-23,402","-1,402","-25,402","-0,956","-2,003","46,828"
"1003","-22,402","-8,402","-39,402","-0,956","-2,003","46,828"
"1003","-22,402","-8,402","-39,402","6,044","-7,003","44,828"
"1003","24,598","33,598","-19,402","6,044","-7,003","44,828"
"1003","24,598","33,598","-19,402","17,044","-17,003","44,828"
"1003","6,598","36,598","-21,402","17,044","-17,003","44,828"
"1003","6,598","36,598","-21,402","5,044","-13,003","45,828"
"1003","25,598","12,598","-12,402","5,044","-13,003","45,828"
"1003","25,598","12,598","-12,402","-10,956","-18,003","46,828"
"1003","32,598","27,598","-8,402","-10,956","-18,003","46,828"
"1003","32,598","27,598","-8,402","2,044","-5,003","46,828"
"1004","34,598","46,598","-15,402","2,044","-5,003","46,828"
"1004","34,598","46,598","-15,402","11,044","-1,003","41,828"
"1004","18,598","34,598","-23,402","11,044","-1,003","41,828"
"1004","18,598","34,598","-23,402","-5,956","0,997","39,828"
"1004","24,598","15,598","-17,402","-5,956","0,997","39,828"
"1004","24,598","15,598","-17,402","-6,956","7,997","39,828"
"1004","-27,402","5,598","-17,402","-6,956","7,997","39,828"
"1004","-27,402","5,598","-17,402","8,044","13,997","26,828"
"1004","-84,402","48,598","-72,402","8,044","13,997","26,828"
"1004","-84,402","48,598","-72,402","15,044","10,997","24,828"
"1004","-5,402","67,598","-30,402","15,044","10,997","24,828"
"1004","-5,402","67,598","-30,402","10,044","-1,003","21,828"
"1004","-39,402","19,598","-25,402","10,044","-1,003","21,828"
"1004","-39,402","19,598","-25,402","-7,956","-1,003","16,828"
"1004","-30,402","51,598","-31,402","-7,956","-1,003","16,828"
"1004","-30,402","51,598","-31,402","4,044","-10,003","13,828"
"1004","-16,402","82,598","-26,402","4,044","-10,003","13,828"
"1004","-16,402","82,598","-26,402","1,044","-13,003","1,828"
"1004","13,598","-52,402","-16,402","1,044","-13,003","1,828"
"1004","13,598","-52,402","-16,402","1,044","-13,003","1,828"
"1005","18,598","-22,402","-2,402","1,044","-13,003","1,828"
"1005","18,598","-22,402","-2,402","-1,956","-8,003","-4,172"
"1005","12,598","62,598","-24,402","-1,956","-8,003","-4,172"
"1005","12,598","62,598","-24,402","37,044","-7,003","-14,172"
"1005","26,598","69,598","-30,402","37,044","-7,003","-14,172"
"1005","26,598","69,598","-30,402","-13,956","-12,003","-16,172"
"1005","54,598","-47,402","-11,402","-13,956","-12,003","-16,172"
"1005","54,598","-47,402","-11,402","-29,956","-9,003","-5,172"
"1005","58,598","5,598","-12,402","-29,956","-9,003","-5,172"
"1005","58,598","5,598","-12,402","-29,956","-9,003","-5,172"
"1005","60,598","43,598","-16,402","-29,956","-9,003","-5,172"
"1005","60,598","43,598","-16,402","14,044","-4,003","-10,172"
"1005","85,598","-3,402","-30,402","14,044","-4,003","-10,172"
"1005","85,598","-3,402","-30,402","-18,956","0,997","2,828"
"1005","118,598","-21,402","-20,402","-18,956","0,997","2,828"
"1005","118,598","-21,402","-20,402","-10,956","4,997","3,828"
"1005","173,598","-2,402","19,598","-10,956","4,997","3,828"
"1005","173,598","-2,402","19,598","15,044","11,997","1,828"
"1005","173,598","-2,402","19,598","15,044","11,997","1,828"
"1005","173,598","-2,402","19,598","15,044","11,997","1,828"
"1006","62,598","-14,402","-39,402","15,044","11,997","1,828"
"1006","62,598","-14,402","-39,402","4,044","33,997","8,828"
"1006","81,598","-10,402","-21,402","4,044","33,997","8,828"
"1006","81,598","-10,402","-21,402","11,044","28,997","7,828"
"1006","86,598","25,598","-11,402","11,044","28,997","7,828"
"1006","86,598","25,598","-11,402","21,044","35,997","2,828"
"1006","4,598","3,598","-35,402","21,044","35,997","2,828"
"1006","4,598","3,598","-35,402","-8,956","37,997","6,828"
"1006","-5,402","-19,402","-44,402","-8,956","37,997","6,828"
"1006","-5,402","-19,402","-44,402","-8,956","37,997","6,828"
"1006","-13,402","4,598","-54,402","-8,956","37,997","6,828"
"1006","-13,402","4,598","-54,402","19,044","15,997","7,828"
"1006","-15,402","-1,402","-41,402","19,044","15,997","7,828"
"1006","-15,402","-1,402","-41,402","3,044","8,997","12,828"
"1006","-9,402","-7,402","-47,402","3,044","8,997","12,828"
"1006","-9,402","-7,402","-47,402","-7,956","0,997","22,828"
"1006","9,598","28,598","-34,402","-7,956","0,997","22,828"
"1006","9,598","28,598","-34,402","25,044","-6,003","15,828"
"1006","0,598","47,598","-31,402","25,044","-6,003","15,828"
"1006","0,598","47,598","-31,402","-4,956","-14,003","17,828"
"1007","64,598","-65,402","19,598","-4,956","-14,003","17,828"
"1007","64,598","-65,402","19,598","-30,956","-14,003","17,828"
"1007","26,598","-41,402","9,598","-30,956","-14,003","17,828"
"1007","26,598","-41,402","9,598","20,044","4,997","8,828"
"1007","-58,402","31,598","-51,402","20,044","4,997","8,828"
"1007","-58,402","31,598","-51,402","47,044","1,997","4,828"
"1007","-29,402","82,598","-30,402","47,044","1,997","4,828"
"1007","-29,402","82,598","-30,402","15,044","-0,003","4,828"
"1007","-56,402","59,598","-42,402","15,044","-0,003","4,828"
"1007","-56,402","59,598","-42,402","-4,956","3,997","4,828"
"1007","-99,402","52,598","-66,402","-4,956","3,997","4,828"
"1007","-99,402","52,598","-66,402","1,044","-1,003","5,828"
"1007","-67,402","46,598","-50,402","1,044","-1,003","5,828"
"1007","-67,402","46,598","-50,402","-8,956","-23,003","10,828"
"1007","-3,402","47,598","-30,402","-8,956","-23,003","10,828"
"1007","-3,402","47,598","-30,402","-9,956","-35,003","6,828"
"1007","62,598","22,598","-14,402","-9,956","-35,003","6,828"
"1007","62,598","22,598","-14,402","-17,956","-37,003","2,828"
"1007","82,598","-24,402","30,598","-17,956","-37,003","2,828"
"1008","82,598","-24,402","30,598","-18,956","-16,003","0,828"
"1008","-28,402","-8,402","-17,402","-18,956","-16,003","0,828"
"1008","-28,402","-8,402","-17,402","1,044","7,997","-6,172"
"1008","-51,402","-3,402","-48,402","1,044","7,997","-6,172"
"1008","-51,402","-3,402","-48,402","3,044","2,997","-10,172"
"1008","-23,402","-19,402","-40,402","3,044","2,997","-10,172"
"1008","-23,402","-19,402","-40,402","-1,956","-5,003","-11,172"
"1008","-36,402","46,598","-25,402","-1,956","-5,003","-11,172"
"1008","-36,402","46,598","-25,402","20,044","-4,003","-9,172"
"1008","-41,402","52,598","-35,402","20,044","-4,003","-9,172"
"1008","-41,402","52,598","-35,402","6,044","-5,003","-8,172"
"1008","1,598","-3,402","-4,402","6,044","-5,003","-8,172"
"1008","1,598","-3,402","-4,402","-27,956","-13,003","-1,172"
"1008","-4,402","-48,402","-21,402","-27,956","-13,003","-1,172"
"1008","-4,402","-48,402","-21,402","-13,956","-9,003","-0,172"
"1008","2,598","17,598","-34,402","-13,956","-9,003","-0,172"
"1008","2,598","17,598","-34,402","26,044","-8,003","-2,172"
"1008","15,598","66,598","-10,402","26,044","-8,003","-2,172"
"1008","15,598","66,598","-10,402","22,044","-8,003","-3,172"
"1008","-15,402","55,598","-17,402","22,044","-8,003","-3,172"
"1009","-15,402","55,598","-17,402","-12,956","-7,003","-0,172"
"1009","10,598","-30,402","-33,402","-12,956","-7,003","-0,172"
"1009","10,598","-30,402","-33,402","-25,956","-8,003","3,828"
"1009","40,598","-1,402","-13,402","-25,956","-8,003","3,828"
"1009","40,598","-1,402","-13,402","17,044","-13,003","2,828"
"1009","-16,402","43,598","-42,402","17,044","-13,003","2,828"
"1009","-16,402","43,598","-42,402","16,044","-7,003","7,828"
"1009","19,598","11,598","-15,402","16,044","-7,003","7,828"
"1009","19,598","11,598","-15,402","-13,956","-11,003","14,828"
"1009","49,598","2,598","-12,402","-13,956","-11,003","14,828"
"1009","49,598","2,598","-12,402","-6,956","-12,003","16,828"
"1009","29,598","1,598","-39,402","-6,956","-12,003","16,828"
"1009","29,598","1,598","-39,402","0,044","-4,003","16,828"
"1009","33,598","-3,402","-18,402","0,044","-4,003","16,828"
"1009","33,598","-3,402","-18,402","-5,956","-3,003","17,828"
"1009","28,598","-9,402","-15,402","-5,956","-3,003","17,828"
"1009","28,598","-9,402","-15,402","-0,956","-7,003","15,828"
"1010","32,598","-7,402","-23,402","-0,956","-7,003","15,828"
"1010","32,598","-7,402","-23,402","4,044","-7,003","10,828"
"1010","52,598","0,598","-22,402","4,044","-7,003","10,828"
"1010","52,598","0,598","-22,402","10,044","-5,003","14,828"
"1010","36,598","28,598","-27,402","10,044","-5,003","14,828"
"1010","36,598","28,598","-27,402","14,044","-0,003","14,828"
"1010","53,598","14,598","-10,402","14,044","-0,003","14,828"
"1010","53,598","14,598","-10,402","2,044","-2,003","12,828"
"1010","47,598","14,598","-8,402","2,044","-2,003","12,828"
"1010","47,598","14,598","-8,402","0,044","-0,003","13,828"
"1010","44,598","28,598","-32,402","0,044","-0,003","13,828"
"1010","44,598","28,598","-32,402","4,044","4,997","12,828"
"1010","54,598","9,598","-11,402","4,044","4,997","12,828"
"1010","54,598","9,598","-11,402","-5,956","-0,003","11,828"
"1010","40,598","8,598","-8,402","-5,956","-0,003","11,828"
"1010","40,598","8,598","-8,402","0,044","4,997","9,828"
"1010","27,598","24,598","-23,402","0,044","4,997","9,828"
"1010","27,598","24,598","-23,402","8,044","4,997","4,828"
"1010","49,598","21,598","-18,402","8,044","4,997","4,828"
"1011","49,598","21,598","-18,402","0,044","1,997","-0,172"
"1011","47,598","-5,402","-11,402","0,044","1,997","-0,172"
"1011","47,598","-5,402","-11,402","-7,956","4,997","-3,172"
"1011","23,598","0,598","-24,402","-7,956","4,997","-3,172"
"1011","23,598","0,598","-24,402","7,044","6,997","-4,172"
"1011","22,598","53,598","-30,402","7,044","6,997","-4,172"
"1011","22,598","53,598","-30,402","20,044","9,997","-6,172"
"1011","35,598","22,598","-20,402","20,044","9,997","-6,172"
"1011","35,598","22,598","-20,402","-6,956","9,997","-7,172"
"1011","8,598","-19,402","-25,402","-6,956","9,997","-7,172"
"1011","8,598","-19,402","-25,402","-21,956","9,997","-1,172"
"1011","5,598","-29,402","-27,402","-21,956","9,997","-1,172"
"1011","5,598","-29,402","-27,402","7,044","7,997","-1,172"
"1011","20,598","22,598","-30,402","7,044","7,997","-1,172"
"1011","20,598","22,598","-30,402","7,044","7,997","-1,172"
"1011","32,598","2,598","-29,402","7,044","7,997","-1,172"
"1011","32,598","2,598","-29,402","-6,956","1,997","-3,172"
"1011","46,598","-8,402","-16,402","-6,956","1,997","-3,172"
"1011","46,598","-8,402","-16,402","1,044","6,997","-3,172"
"1011","107,598","54,598","-2,402","1,044","6,997","-3,172"
"1011","107,598","54,598","-2,402","18,044","4,997","-3,172"
"1012","120,598","48,598","0,598","18,044","4,997","-3,172"
"1012","120,598","48,598","0,598","0,044","10,997","1,828"
"1012","120,598","48,598","0,598","0,044","10,997","1,828"
"1012","120,598","48,598","0,598","0,044","10,997","1,828"
"1012","96,598","6,598","-15,402","0,044","10,997","1,828"
"1012","96,598","6,598","-15,402","-25,956","22,997","4,828"
"1012","68,598","30,598","-21,402","-25,956","22,997","4,828"
"1012","68,598","30,598","-21,402","28,044","36,997","-7,172"
"1012","24,598","41,598","-35,402","28,044","36,997","-7,172"
"1012","24,598","41,598","-35,402","4,044","37,997","-6,172"
"1012","4,598","3,598","-34,402","4,044","37,997","-6,172"
"1012","4,598","3,598","-34,402","-14,956","35,997","-5,172"
"1012","23,598","-4,402","-44,402","-14,956","35,997","-5,172"
"1012","23,598","-4,402","-44,402","2,044","16,997","-10,172"
"1012","27,598","15,598","-1,402","2,044","16,997","-10,172"
"1012","27,598","15,598","-1,402","18,044","15,997","-5,172"
"1012","-55,402","14,598","-73,402","18,044","15,997","-5,172"
"1012","-55,402","14,598","-73,402","-5,956","13,997","0,828"
"1012","55,598","-25,402","-5,402","-5,956","13,997","0,828"
"1012","55,598","-25,402","-5,402","-9,956","-8,003","2,828"
"1013","33,598","7,598","-36,402","-9,956","-8,003","2,828"
"1013","33,598","7,598","-36,402","24,044","-3,003","-6,172"
"1013","43,598","45,598","-8,402","24,044","-3,003","-6,172"
"1013","43,598","45,598","-8,402","24,044","-3,003","-6,172"
"1013","15,598","55,598","-12,402","24,044","-3,003","-6,172"
"1013","15,598","55,598","-12,402","-1,956","6,997","2,828"
"1013","-33,402","22,598","-70,402","-1,956","6,997","2,828"
"1013","-33,402","22,598","-70,402","-7,956","-5,003","1,828"
"1013","23,598","36,598","-72,402","-7,956","-5,003","1,828"
"1013","23,598","36,598","-72,402","2,044","-22,003","-0,172"
"1013","170,598","44,598","38,598","2,044","-22,003","-0,172"
"1013","170,598","44,598","38,598","4,044","-15,003","-7,172"
"1013","170,598","44,598","38,598","4,044","-15,003","-7,172"
"1013","170,598","44,598","38,598","4,044","-15,003","-7,172"
"1013","-38,402","-38,402","-11,402","4,044","-15,003","-7,172"
"1013","-38,402","-38,402","-11,402","-25,956","18,997","0,828"
"1013","-58,402","-15,402","-79,402","-25,956","18,997","0,828"
"1013","-58,402","-15,402","-79,402","14,044","-10,003","-1,172"
"1013","114,598","-18,402","28,598","14,044","-10,003","-1,172"
"1013","114,598","-18,402","28,598","11,044","-19,003","-1,172"
"1014","37,598","-8,402","30,598","11,044","-19,003","-1,172"
"1014","37,598","-8,402","30,598","4,044","10,997","9,828"
"1014","37,598","-8,402","30,598","4,044","10,997","9,828"
"1014","37,598","-8,402","30,598","4,044","10,997","9,828"
"1014","-67,402","-18,402","-4,402","4,044","10,997","9,828"
"1014","-67,402","-18,402","-4,402","-0,956","22,997","12,828"
"1014","-76,402","-63,402","-84,402","-0,956","22,997","12,828"
"1014","-76,402","-63,402","-84,402","0,044","-5,003","24,828"
"1014","-46,402","-7,402","-38,402","0,044","-5,003","24,828"
"1014","-46,402","-7,402","-38,402","38,044","-17,003","26,828"
"1014","-10,402","92,598","-0,402","38,044","-17,003","26,828"
"1014","-10,402","92,598","-0,402","53,044","-14,003","24,828"
"1014","-10,402","92,598","-0,402","53,044","-14,003","24,828"
"1014","-10,402","92,598","-0,402","53,044","-14,003","24,828"
"1014","-72,402","15,598","-8,402","53,044","-14,003","24,828"
"1014","-72,402","15,598","-8,402","-19,956","-5,003","37,828"
"1014","-72,402","-25,402","-53,402","-19,956","-5,003","37,828"
"1014","-72,402","-25,402","-53,402","23,044","-21,003","39,828"
"1014","-74,402","96,598","-54,402","23,044","-21,003","39,828"
"1015","-74,402","96,598","-54,402","41,044","-19,003","36,828"
"1015","-15,402","112,598","-0,402","41,044","-19,003","36,828"
"1015","-15,402","112,598","-0,402","8,044","-31,003","48,828"
"1015","-15,402","112,598","-0,402","8,044","-31,003","48,828"
"1015","-15,402","112,598","-0,402","8,044","-31,003","48,828"
"1015","9,598","77,598","-18,402","8,044","-31,003","48,828"
"1015","9,598","77,598","-18,402","-26,956","-28,003","43,828"
"1015","36,598","0,598","-23,402","-26,956","-28,003","43,828"
"1015","36,598","0,598","-23,402","-1,956","-4,003","40,828"
"1015","34,598","5,598","-0,402","-1,956","-4,003","40,828"
"1015","34,598","5,598","-0,402","-1,956","-4,003","40,828"
"1015","35,598","-8,402","4,598","-1,956","-4,003","40,828"
"1015","35,598","-8,402","4,598","7,044","2,997","30,828"
"1015","35,598","-8,402","4,598","7,044","2,997","30,828"
"1015","35,598","-8,402","4,598","6,044","6,997","20,828"
"1015","32,598","54,598","-34,402","6,044","6,997","20,828"
"1015","32,598","54,598","-34,402","11,044","13,997","20,828"
"1015","8,598","-19,402","-44,402","11,044","13,997","20,828"
"1015","8,598","-19,402","-44,402","-13,956","14,997","12,828"
"1015","56,598","22,598","-29,402","-13,956","14,997","12,828"
"1016","56,598","22,598","-29,402","-12,956","16,997","13,828"
"1016","83,598","43,598","-18,402","-12,956","16,997","13,828"
"1016","83,598","43,598","-18,402","5,044","7,997","8,828"
"1016","107,598","26,598","-15,402","5,044","7,997","8,828"
"1016","107,598","26,598","-15,402","16,044","5,997","3,828"
"1016","99,598","23,598","-2,402","16,044","5,997","3,828"
"1016","99,598","23,598","-2,402","0,044","7,997","2,828"
"1016","71,598","17,598","-1,402","0,044","7,997","2,828"
"1016","71,598","17,598","-1,402","4,044","17,997","2,828"
"1016","43,598","-0,402","-27,402","4,044","17,997","2,828"
"1016","43,598","-0,402","-27,402","-0,956","13,997","-1,172"
"1016","20,598","10,598","-3,402","-0,956","13,997","-1,172"
"1016","20,598","10,598","-3,402","-8,956","20,997","-3,172"
"1016","20,598","10,598","-3,402","-8,956","20,997","-3,172"
"1016","20,598","10,598","-3,402","-3,956","25,997","-0,172"
"1016","34,598","6,598","21,598","-3,956","25,997","-0,172"
"1016","34,598","6,598","21,598","-16,956","18,997","-2,172"
"1016","-42,402","37,598","-29,402","-16,956","18,997","-2,172"
"1016","-42,402","37,598","-29,402","18,044","6,997","-3,172"
"1016","-111,402","2,598","-75,402","18,044","6,997","-3,172"
"1016","-111,402","2,598","-75,402","12,044","20,997","-4,172"
"1017","-30,402","-33,402","-18,402","12,044","20,997","-4,172"
"1017","-30,402","-33,402","-18,402","-20,956","17,997","4,828"
"1017","-30,402","-33,402","-18,402","-20,956","17,997","4,828"
"1017","-30,402","-33,402","-18,402","-1,956","-6,003","-5,172"
"1017","-30,402","10,598","-5,402","-1,956","-6,003","-5,172"
"1017","-30,402","10,598","-5,402","39,044","-3,003","-14,172"
"1017","-62,402","53,598","-41,402","39,044","-3,003","-14,172"
"1017","-62,402","53,598","-41,402","20,044","-1,003","-6,172"
"1017","-53,402","66,598","-61,402","20,044","-1,003","-6,172"
"1017","-53,402","66,598","-61,402","2,044","-8,003","0,828"
"1017","-9,402","8,598","-15,402","2,044","-8,003","0,828"
"1017","-9,402","8,598","-15,402","9,044","-13,003","1,828"
"1017","-9,402","8,598","-15,402","9,044","-13,003","1,828"
"1017","-9,402","8,598","-15,402","-23,956","-20,003","10,828"
"1017","-27,402","-10,402","-24,402","-23,956","-20,003","10,828"
"1017","-27,402","-10,402","-24,402","-8,956","-13,003","18,828"
"1017","-0,402","-32,402","-22,402","-8,956","-13,003","18,828"
"1017","-0,402","-32,402","-22,402","-0,956","-29,003","11,828"
"1017","-16,402","-21,402","-36,402","-0,956","-29,003","11,828"
"1018","-16,402","-21,402","-36,402","-2,956","-32,003","7,828"
"1018","30,598","8,598","-7,402","-2,956","-32,003","7,828"
"1018","30,598","8,598","-7,402","3,044","-31,003","10,828"
"1018","30,598","8,598","-7,402","3,044","-31,003","10,828"
"1018","30,598","8,598","-7,402","14,044","-34,003","8,828"
"1018","23,598","30,598","-9,402","14,044","-34,003","8,828"
"1018","23,598","30,598","-9,402","14,044","-30,003","7,828"
"1018","62,598","4,598","-20,402","14,044","-30,003","7,828"
"1018","62,598","4,598","-20,402","-8,956","-24,003","15,828"
"1018","55,598","30,598","-11,402","-8,956","-24,003","15,828"
"1018","55,598","30,598","-11,402","-3,956","-21,003","15,828"
"1018","52,598","61,598","-15,402","-3,956","-21,003","15,828"
"1018","52,598","61,598","-15,402","13,044","-14,003","10,828"
"1018","52,598","61,598","-15,402","13,044","-14,003","10,828"
"1018","52,598","61,598","-15,402","11,044","-9,003","15,828"
"1018","52,598","-13,402","-22,402","11,044","-9,003","15,828"
"1018","52,598","-13,402","-22,402","-14,956","-6,003","17,828"
"1018","31,598","-7,402","-30,402","-14,956","-6,003","17,828"
"1018","31,598","-7,402","-30,402","-17,956","-6,003","18,828"
"1019","43,598","16,598","-18,402","-17,956","-6,003","18,828"
"1019","43,598","16,598","-18,402","-5,956","-3,003","16,828"
"1019","55,598","21,598","-14,402","-5,956","-3,003","16,828"
"1019","55,598","21,598","-14,402","10,044","-7,003","11,828"
"1019","55,598","21,598","-14,402","10,044","-7,003","11,828"
"1019","55,598","21,598","-14,402","-0,956","-3,003","3,828"
"1019","57,598","-8,402","-23,402","-0,956","-3,003","3,828"
"1019","57,598","-8,402","-23,402","-11,956","-4,003","4,828"
"1019","67,598","21,598","-12,402","-11,956","-4,003","4,828"
"1019","67,598","21,598","-12,402","2,044","-2,003","0,828"
"1019","63,598","10,598","-6,402","2,044","-2,003","0,828"
"1019","63,598","10,598","-6,402","12,044","-3,003","-8,172"
"1019","43,598","1,598","-21,402","12,044","-3,003","-8,172"
"1019","43,598","1,598","-21,402","2,044","0,997","-8,172"
"1019","43,598","1,598","-21,402","2,044","0,997","-8,172"
"1019","43,598","1,598","-21,402","-0,956","6,997","-3,172"
"1019","14,598","19,598","-19,402","-0,956","6,997","-3,172"
"1019","14,598","19,598","-19,402","8,044","11,997","-0,172"
"1019","-9,402","6,598","-29,402","8,044","11,997","-0,172"
"1019","-9,402","6,598","-29,402","3,044","8,997","-2,172"
"1020","-6,402","-7,402","-22,402","3,044","8,997","-2,172"
"1020","-6,402","-7,402","-22,402","-6,956","14,997","5,828"
"1020","-24,402","7,598","-33,402","-6,956","14,997","5,828"
"1020","-24,402","7,598","-33,402","-5,956","9,997","1,828"
"1020","-24,402","7,598","-33,402","-5,956","9,997","1,828"
"1020","-24,402","7,598","-33,402","6,044","8,997","-3,172"
"1020","-12,402","13,598","-23,402","6,044","8,997","-3,172"
"1020","-12,402","13,598","-23,402","11,044","2,997","-2,172"
"1020","3,598","12,598","-23,402","11,044","2,997","-2,172"
"1020","3,598","12,598","-23,402","3,044","0,997","-2,172"
"1020","-8,402","22,598","-38,402","3,044","0,997","-2,172"
"1020","-8,402","22,598","-38,402","3,044","-1,003","-5,172"
"1020","8,598","22,598","-22,402","3,044","-1,003","-5,172"
"1020","8,598","22,598","-22,402","5,044","1,997","-6,172"
"1020","8,598","22,598","-22,402","5,044","1,997","-6,172"
"1020","8,598","22,598","-22,402","-0,956","-3,003","-5,172"
"1020","97,598","56,598","-11,402","-0,956","-3,003","-5,172"
"1020","97,598","56,598","-11,402","2,044","-2,003","-6,172"
"1020","134,598","54,598","-6,402","2,044","-2,003","-6,172"
"1020","134,598","54,598","-6,402","5,044","-2,003","-3,172"
"1021","163,598","31,598","2,598","5,044","-2,003","-3,172"
"1021","163,598","31,598","2,598","-4,956","4,997","-5,172"
"1021","148,598","-2,402","7,598","-4,956","4,997","-5,172"
"1021","148,598","-2,402","7,598","-16,956","14,997","-5,172"
"1021","148,598","-2,402","7,598","-16,956","14,997","-5,172"
"1021","148,598","-2,402","7,598","-14,956","35,997","-9,172"
"1021","112,598","11,598","-7,402","-14,956","35,997","-9,172"
"1021","112,598","11,598","-7,402","-0,956","48,997","-16,172"
"1021","23,598","-25,402","-19,402","-0,956","48,997","-16,172"
"1021","23,598","-25,402","-19,402","-3,956","52,997","-28,172"
"1021","-57,402","-30,402","-27,402","-3,956","52,997","-28,172"
"1021","-57,402","-30,402","-27,402","-6,956","57,997","-36,172"
"1021","-117,402","-15,402","-71,402","-6,956","57,997","-36,172"
"1021","-117,402","-15,402","-71,402","10,044","47,997","-45,172"
"1021","-117,402","-15,402","-71,402","10,044","47,997","-45,172"
"1021","-117,402","-15,402","-71,402","17,044","38,997","-48,172"
"1021","-112,402","1,598","-71,402","17,044","38,997","-48,172"
"1021","-112,402","1,598","-71,402","16,044","18,997","-43,172"
"1021","-106,402","20,598","-52,402","16,044","18,997","-43,172"
"1022","-106,402","20,598","-52,402","21,044","-0,003","-44,172"
"1022","-112,402","-9,402","-61,402","21,044","-0,003","-44,172"
"1022","-112,402","-9,402","-61,402","8,044","-2,003","-38,172"
"1022","-14,402","67,598","-47,402","8,044","-2,003","-38,172"
"1022","-14,402","67,598","-47,402","-6,956","-19,003","-28,172"
"1022","-14,402","67,598","-47,402","-6,956","-19,003","-28,172"
"1022","-14,402","67,598","-47,402","23,044","-44,003","-30,172"
"1022","-6,402","80,598","-41,402","23,044","-44,003","-30,172"
"1022","-6,402","80,598","-41,402","25,044","-46,003","-36,172"
"1022","104,598","-54,402","17,598","25,044","-46,003","-36,172"
"1022","104,598","-54,402","17,598","-28,956","-52,003","-26,172"
"1022","-17,402","65,598","-13,402","-28,956","-52,003","-26,172"
"1022","-17,402","65,598","-13,402","-4,956","-46,003","-26,172"
"1022","-137,402","-5,402","-94,402","-4,956","-46,003","-26,172"
"1022","-137,402","-5,402","-94,402","36,044","-7,003","-30,172"
"1022","-137,402","-5,402","-94,402","36,044","-7,003","-30,172"
"1022","-137,402","-5,402","-94,402","-26,956","0,997","-17,172"
"1023","-25,402","-89,402","-49,402","-26,956","0,997","-17,172"
"1023","-25,402","-89,402","-49,402","-27,956","-35,003","-13,172"
"1023","-69,402","69,598","-67,402","-27,956","-35,003","-13,172"
"1023","-69,402","69,598","-67,402","66,044","-11,003","-28,172"
"1023","84,598","-18,402","35,598","66,044","-11,003","-28,172"
"1023","84,598","-18,402","35,598","11,044","-15,003","-13,172"
"1023","-8,402","-27,402","-43,402","11,044","-15,003","-13,172"
"1023","-8,402","-27,402","-43,402","-43,956","-31,003","1,828"
"1023","-8,402","-27,402","-43,402","-43,956","-31,003","1,828"
"1023","-8,402","-27,402","-43,402","0,044","-5,003","-4,172"
"1023","4,598","-29,402","14,598","0,044","-5,003","-4,172"
"1023","4,598","-29,402","14,598","8,044","-13,003","2,828"
"1023","-125,402","-40,402","-19,402","8,044","-13,003","2,828"
"1023","-125,402","-40,402","-19,402","-1,956","23,997","10,828"
"1023","46,598","50,598","2,598","-1,956","23,997","10,828"
"1023","46,598","50,598","2,598","8,044","26,997","12,828"
"1023","-53,402","53,598","-60,402","8,044","26,997","12,828"
"1023","-53,402","53,598","-60,402","27,044","-13,003","17,828"
"1023","-53,402","53,598","-60,402","27,044","-13,003","17,828"
"1024","-53,402","53,598","-60,402","11,044","-4,003","16,828"
"1024","-106,402","-26,402","-69,402","11,044","-4,003","16,828"
"1024","-106,402","-26,402","-69,402","-32,956","-13,003","27,828"
"1024","-3,402","60,598","-22,402","-32,956","-13,003","27,828"
"1024","-3,402","60,598","-22,402","8,044","-27,003","30,828"
"1024","2,598","29,598","-52,402","8,044","-27,003","30,828"
"1024","2,598","29,598","-52,402","38,044","-24,003","22,828"
"1024","70,598","-25,402","-8,402","38,044","-24,003","22,828"
"1024","70,598","-25,402","-8,402","-16,956","-26,003","35,828"
"1024","70,598","-25,402","-8,402","-16,956","-26,003","35,828"
"1024","70,598","-25,402","-8,402","-22,956","-23,003","42,828"
"1024","50,598","38,598","-3,402","-22,956","-23,003","42,828"
"1024","50,598","38,598","-3,402","27,044","-20,003","33,828"
"1024","89,598","5,598","-3,402","27,044","-20,003","33,828"
"1024","89,598","5,598","-3,402","8,044","-15,003","38,828"
"1024","93,598","-35,402","-2,402","8,044","-15,003","38,828"
"1024","93,598","-35,402","-2,402","-34,956","-6,003","45,828"
"1024","52,598","22,598","-29,402","-34,956","-6,003","45,828"
"1024","52,598","22,598","-29,402","-9,956","-0,003","40,828"
"1025","52,598","22,598","-29,402","-9,956","-0,003","40,828"
"1025","52,598","22,598","-29,402","27,044","7,997","34,828"
"1025","69,598","60,598","-8,402","27,044","7,997","34,828"
"1025","69,598","60,598","-8,402","13,044","7,997","34,828"
"1025","94,598","-32,402","-15,402","13,044","7,997","34,828"
"1025","94,598","-32,402","-15,402","-21,956","8,997","34,828"
"1025","132,598","25,598","-0,402","-21,956","8,997","34,828"
"1025","132,598","25,598","-0,402","-2,956","12,997","31,828"
"1025","134,598","54,598","4,598","-2,956","12,997","31,828"
"1025","134,598","54,598","4,598","24,044","9,997","30,828"
"1025","134,598","54,598","4,598","24,044","9,997","30,828"
"1025","134,598","54,598","4,598","9,044","21,997","25,828"
"1025","73,598","-0,402","-17,402","9,044","21,997","25,828"
"1025","73,598","-0,402","-17,402","-13,956","34,997","22,828"
"1025","-10,402","10,598","-41,402","-13,956","34,997","22,828"
"1025","-10,402","10,598","-41,402","-3,956","37,997","16,828"
"1025","-89,402","17,598","-42,402","-3,956","37,997","16,828"
"1025","-89,402","17,598","-42,402","18,044","41,997","7,828"
"1025","-95,402","5,598","-34,402","18,044","41,997","7,828"
"1025","-95,402","5,598","-34,402","11,044","31,997","3,828"
"1026","-95,402","5,598","-34,402","11,044","31,997","3,828"
"1026","-95,402","5,598","-34,402","1,044","14,997","-0,172"
"1026","-128,402","18,598","-71,402","1,044","14,997","-0,172"
"1026","-128,402","18,598","-71,402","12,044","2,997","-2,172"
"1026","-74,402","72,598","-77,402","12,044","2,997","-2,172"
"1026","-74,402","72,598","-77,402","19,044","-16,003","-3,172"
"1026","51,598","19,598","49,598","19,044","-16,003","-3,172"
"1026","51,598","19,598","49,598","-5,956","-32,003","-3,172"
"1026","-158,402","-32,402","-55,402","-5,956","-32,003","-3,172"
"1026","-158,402","-32,402","-55,402","-19,956","-4,003","0,828"
"1026","-158,402","-32,402","-55,402","-19,956","-4,003","0,828"
"1026","-158,402","-32,402","-55,402","-0,956","-18,003","5,828"
"1026","-97,402","77,598","-86,402","-0,956","-18,003","5,828"
"1026","-97,402","77,598","-86,402","29,044","-32,003","0,828"
"1026","-0,402","62,598","-30,402","29,044","-32,003","0,828"
"1026","-0,402","62,598","-30,402","8,044","-48,003","-4,172"
"1026","-18,402","5,598","-16,402","8,044","-48,003","-4,172"
"1026","-18,402","5,598","-16,402","-24,956","-32,003","3,828"
"1026","67,598","34,598","-0,402","-24,956","-32,003","3,828"
"1027","67,598","34,598","-0,402","-17,956","-36,003","2,828"
"1027","67,598","34,598","-0,402","-17,956","-36,003","2,828"
"1027","67,598","34,598","-0,402","5,044","-42,003","-3,172"
"1027","83,598","-0,402","-3,402","5,044","-42,003","-3,172"
"1027","83,598","-0,402","-3,402","-20,956","-26,003","-3,172"
"1027","21,598","-75,402","-17,402","-20,956","-26,003","-3,172"
"1027","21,598","-75,402","-17,402","-28,956","-4,003","0,828"
"1027","49,598","77,598","-19,402","-28,956","-4,003","0,828"
"1027","49,598","77,598","-19,402","39,044","-11,003","-8,172"
"1027","49,598","77,598","-19,402","39,044","-11,003","-8,172"
"1027","49,598","77,598","-19,402","19,044","-9,003","-12,172"
"1027","40,598","-32,402","-22,402","19,044","-9,003","-12,172"
"1027","40,598","-32,402","-22,402","-53,956","0,997","1,828"
"1027","10,598","-50,402","-20,402","-53,956","0,997","1,828"
"1027","10,598","-50,402","-20,402","-5,956","1,997","5,828"
"1027","8,598","59,598","-30,402","-5,956","1,997","5,828"
"1027","8,598","59,598","-30,402","58,044","-6,003","-3,172"
"1027","43,598","89,598","-22,402","58,044","-6,003","-3,172"
"1027","43,598","89,598","-22,402","13,044","-9,003","6,828"
"1028","26,598","-83,402","-35,402","13,044","-9,003","6,828"
"1028","26,598","-83,402","-35,402","-51,956","0,997","15,828"
"1028","32,598","-45,402","-21,402","-51,956","0,997","15,828"
"1028","32,598","-45,402","-21,402","0,044","-3,003","13,828"
"1028","36,598","71,598","-26,402","0,044","-3,003","13,828"
"1028","36,598","71,598","-26,402","55,044","-4,003","11,828"
"1028","68,598","104,598","-14,402","55,044","-4,003","11,828"
"1028","68,598","104,598","-14,402","-6,956","-3,003","13,828"
"1028","57,598","-74,402","-5,402","-6,956","-3,003","13,828"
"1028","57,598","-74,402","-5,402","-47,956","4,997","18,828"
"1028","38,598","-6,402","-25,402","-47,956","4,997","18,828"
"1028","38,598","-6,402","-25,402","24,044","5,997","7,828"
"1028","59,598","100,598","-12,402","24,044","5,997","7,828"
"1028","59,598","100,598","-12,402","47,044","6,997","-4,172"
"1028","28,598","-35,402","-6,402","47,044","6,997","-4,172"
"1028","28,598","-35,402","-6,402","-30,956","13,997","-3,172"
"1028","3,598","-65,402","-4,402","-30,956","13,997","-3,172"
"1028","3,598","-65,402","-4,402","-31,956","14,997","-3,172"
"1028","-36,402","24,598","-48,402","-31,956","14,997","-3,172"
"1029","-36,402","24,598","-48,402","43,044","12,997","-12,172"
"1029","-7,402","44,598","-25,402","43,044","12,997","-12,172"
"1029","-7,402","44,598","-25,402","21,044","6,997","-16,172"
"1029","-9,402","-42,402","-10,402","21,044","6,997","-16,172"
"1029","-9,402","-42,402","-10,402","-37,956","4,997","-6,172"
"1029","-47,402","-38,402","-31,402","-37,956","4,997","-6,172"
"1029","-47,402","-38,402","-31,402","-2,956","7,997","-6,172"
"1029","-22,402","27,598","-29,402","-2,956","7,997","-6,172"
"1029","-22,402","27,598","-29,402","32,044","-1,003","-10,172"
"1029","0,598","-4,402","-20,402","32,044","-1,003","-10,172"
"1029","0,598","-4,402","-20,402","-6,956","-3,003","-9,172"
"1029","-20,402","-47,402","-19,402","-6,956","-3,003","-9,172"
"1029","-20,402","-47,402","-19,402","-22,956","-2,003","-1,172"
"1029","-7,402","-31,402","-15,402","-22,956","-2,003","-1,172"
"1029","-7,402","-31,402","-15,402","13,044","-3,003","-6,172"
"1029","2,598","45,598","-35,402","13,044","-3,003","-6,172"
"1029","2,598","45,598","-35,402","25,044","-5,003","-7,172"
"1029","-1,402","-11,402","-25,402","25,044","-5,003","-7,172"
"1029","-1,402","-11,402","-25,402","-16,956","-6,003","-0,172"
"1030","16,598","-52,402","-6,402","-16,956","-6,003","-0,172"
"1030","16,598","-52,402","-6,402","-16,956","-5,003","4,828"
"1030","0,598","-9,402","-26,402","-16,956","-5,003","4,828"
"1030","0,598","-9,402","-26,402","26,044","-4,003","2,828"
"1030","21,598","28,598","-29,402","26,044","-4,003","2,828"
"1030","21,598","28,598","-29,402","7,044","-7,003","5,828"
"1030","34,598","-24,402","-8,402","7,044","-7,003","5,828"
"1030","34,598","-24,402","-8,402","-19,956","-5,003","6,828"
"1030","27,598","-24,402","-15,402","-19,956","-5,003","6,828"
"1030","27,598","-24,402","-15,402","4,044","-1,003","5,828"
"1030","21,598","55,598","-25,402","4,044","-1,003","5,828"
"1030","21,598","55,598","-25,402","25,044","1,997","-0,172"
"1030","18,598","23,598","-28,402","25,044","1,997","-0,172"
"1030","18,598","23,598","-28,402","-5,956","2,997","1,828"
"1030","28,598","-20,402","-13,402","-5,956","2,997","1,828"
"1030","28,598","-20,402","-13,402","-14,956","1,997","1,828"
"1030","9,598","36,598","-19,402","-14,956","1,997","1,828"
"1030","9,598","36,598","-19,402","15,044","3,997","-2,172"
"1030","-0,402","54,598","-33,402","15,044","3,997","-2,172"
"1030","-0,402","54,598","-33,402","17,044","7,997","-3,172"
"1031","1,598","14,598","-27,402","17,044","7,997","-3,172"
"1031","1,598","14,598","-27,402","-16,956","5,997","0,828"
"1031","1,598","-22,402","-20,402","-16,956","5,997","0,828"
"1031","1,598","-22,402","-20,402","-11,956","0,997","-1,172"
"1031","-10,402","29,598","-30,402","-11,956","0,997","-1,172"
"1031","-10,402","29,598","-30,402","14,044","2,997","-1,172"
"1031","-9,402","25,598","-27,402","14,044","2,997","-1,172"
"1031","-9,402","25,598","-27,402","0,044","3,997","-2,172"
"1031","-16,402","-9,402","-28,402","0,044","3,997","-2,172"
"1031","-16,402","-9,402","-28,402","-17,956","-0,003","2,828"
"1031","-1,402","-2,402","-18,402","-17,956","-0,003","2,828"
"1031","-1,402","-2,402","-18,402","5,044","-3,003","-1,172"
"1031","-4,402","28,598","-31,402","5,044","-3,003","-1,172"
"1031","-4,402","28,598","-31,402","19,044","-0,003","-0,172"
"1031","-3,402","18,598","-29,402","19,044","-0,003","-0,172"
"1031","-3,402","18,598","-29,402","-7,956","-1,003","1,828"
"1031","7,598","-22,402","-17,402","-7,956","-1,003","1,828"
"1031","7,598","-22,402","-17,402","-11,956","-6,003","3,828"
"1031","9,598","13,598","-22,402","-11,956","-6,003","3,828"
"1031","9,598","13,598","-22,402","12,044","-4,003","2,828"
"1032","17,598","36,598","-23,402","12,044","-4,003","2,828"
"1032","17,598","36,598","-23,402","15,044","-5,003","2,828"
"1032","23,598","19,598","-22,402","15,044","-5,003","2,828"
"1032","23,598","19,598","-22,402","-6,956","-3,003","5,828"
"1032","26,598","-4,402","-16,402","-6,956","-3,003","5,828"
"1032","26,598","-4,402","-16,402","-3,956","-0,003","2,828"
"1032","17,598","23,598","-21,402","-3,956","-0,003","2,828"
"1032","17,598","23,598","-21,402","16,044","0,997","1,828"
"1032","25,598","34,598","-23,402","16,044","0,997","1,828"
"1032","25,598","34,598","-23,402","8,044","-0,003","1,828"
"1032","9,598","-13,402","-20,402","8,044","-0,003","1,828"
"1032","9,598","-13,402","-20,402","-12,956","3,997","1,828"
"1032","10,598","-1,402","-13,402","-12,956","3,997","1,828"
"1032","10,598","-1,402","-13,402","2,044","-1,003","0,828"
"1032","7,598","25,598","-22,402","2,044","-1,003","0,828"
"1032","7,598","25,598","-22,402","17,044","-2,003","-6,172"
"1032","5,598","30,598","-32,402","17,044","-2,003","-6,172"
"1032","5,598","30,598","-32,402","-0,956","-0,003","-0,172"
"1032","-3,402","-15,402","-19,402","-0,956","-0,003","-0,172"
"1033","-3,402","-15,402","-19,402","-11,956","0,997","1,828"
"1033","-6,402","-3,402","-25,402","-11,956","0,997","1,828"
"1033","-6,402","-3,402","-25,402","6,044","0,997","-1,172"
"1033","1,598","19,598","-23,402","6,044","0,997","-1,172"
"1033","1,598","19,598","-23,402","10,044","-0,003","-1,172"
"1033","-3,402","-4,402","-22,402","10,044","-0,003","-1,172"
"1033","-3,402","-4,402","-22,402","-5,956","-0,003","1,828"
"1033","-5,402","-16,402","-22,402","-5,956","-0,003","1,828"
"1033","-5,402","-16,402","-22,402","-5,956","-0,003","2,828"
"1033","-4,402","1,598","-22,402","-5,956","-0,003","2,828"
"1033","-4,402","1,598","-22,402","8,044","-1,003","2,828"
"1033","1,598","14,598","-29,402","8,044","-1,003","2,828"
"1033","1,598","14,598","-29,402","8,044","-3,003","0,828"
"1033","15,598","-5,402","-17,402","8,044","-3,003","0,828"
"1033","15,598","-5,402","-17,402","-7,956","-4,003","3,828"
"1033","5,598","-6,402","-23,402","-7,956","-4,003","3,828"
"1033","5,598","-6,402","-23,402","0,044","-0,003","0,828"
"1033","14,598","12,598","-19,402","0,044","-0,003","0,828"
"1033","14,598","12,598","-19,402","12,044","-0,003","1,828"
"1033","18,598","16,598","-24,402","12,044","-0,003","1,828"
"1034","18,598","16,598","-24,402","2,044","0,997","0,828"
"1034","16,598","-1,402","-17,402","2,044","0,997","0,828"
"1034","16,598","-1,402","-17,402","-5,956","-1,003","1,828"
"1034","11,598","-0,402","-27,402","-5,956","-1,003","1,828"
"1034","11,598","-0,402","-27,402","3,044","1,997","0,828"
"1034","8,598","23,598","-27,402","3,044","1,997","0,828"
"1034","8,598","23,598","-27,402","7,044","2,997","0,828"
"1034","14,598","7,598","-19,402","7,044","2,997","0,828"
"1034","14,598","7,598","-19,402","-1,956","0,997","1,828"
"1034","4,598","-2,402","-24,402","-1,956","0,997","1,828"
"1034","4,598","-2,402","-24,402","-1,956","1,997","0,828"
"1034","-2,402","11,598","-22,402","-1,956","1,997","0,828"
"1034","-2,402","11,598","-22,402","5,044","4,997","-0,172"
"1034","2,598","13,598","-23,402","5,044","4,997","-0,172"
"1034","2,598","13,598","-23,402","7,044","3,997","-1,172"
"1034","-4,402","1,598","-30,402","7,044","3,997","-1,172"
"1034","-4,402","1,598","-30,402","-3,956","1,997","0,828"
"1034","0,598","-10,402","-21,402","-3,956","1,997","0,828"
"1034","0,598","-10,402","-21,402","-1,956","0,997","1,828"
"1034","-4,402","14,598","-26,402","-1,956","0,997","1,828"
"1034","-4,402","14,598","-26,402","8,044","0,997","3,828"
"1034","2,598","12,598","-23,402","8,044","0,997","3,828"
"1035","2,598","12,598","-23,402","4,044","-2,003","0,828"
"1035","2,598","1,598","-28,402","4,044","-2,003","0,828"
"1035","2,598","1,598","-28,402","-2,956","-3,003","2,828"
"1035","1,598","9,598","-22,402","-2,956","-3,003","2,828"
"1035","1,598","9,598","-22,402","5,044","-1,003","0,828"
"1035","4,598","17,598","-24,402","5,044","-1,003","0,828"
"1035","4,598","17,598","-24,402","9,044","-0,003","0,828"
"1035","9,598","13,598","-22,402","9,044","-0,003","0,828"
"1035","9,598","13,598","-22,402","0,044","-1,003","1,828"
"1035","9,598","4,598","-25,402","0,044","-1,003","1,828"
"1035","9,598","4,598","-25,402","-3,956","-2,003","2,828"
"1035","6,598","15,598","-25,402","-3,956","-2,003","2,828"
"1035","6,598","15,598","-25,402","8,044","-1,003","1,828"
"1035","16,598","17,598","-21,402","8,044","-1,003","1,828"
"1035","16,598","17,598","-21,402","7,044","-1,003","-0,172"
"1035","8,598","9,598","-23,402","7,044","-1,003","-0,172"
"1035","8,598","9,598","-23,402","-1,956","-1,003","1,828"
"1035","5,598","3,598","-23,402","-1,956","-1,003","1,828"
"1035","5,598","3,598","-23,402","0,044","1,997","1,828"
"1035","8,598","13,598","-23,402","0,044","1,997","1,828"
"1035","8,598","13,598","-23,402","5,044","0,997","-1,172"
"1036","7,598","11,598","-23,402","5,044","0,997","-1,172"
"1036","7,598","11,598","-23,402","2,044","1,997","-0,172"
"1036","6,598","-3,402","-16,402","2,044","1,997","-0,172"
"1036","6,598","-3,402","-16,402","-3,956","0,997","0,828"
"1036","2,598","1,598","-20,402","-3,956","0,997","0,828"
"1036","2,598","1,598","-20,402","2,044","1,997","0,828"
"1036","1,598","9,598","-24,402","2,044","1,997","0,828"
"1036","1,598","9,598","-24,402","7,044","-1,003","-1,172"
"1036","-2,402","10,598","-26,402","7,044","-1,003","-1,172"
"1036","-2,402","10,598","-26,402","4,044","1,997","1,828"
"1036","0,598","-2,402","-24,402","4,044","1,997","1,828"
"1036","0,598","-2,402","-24,402","-0,956","-0,003","0,828"
"1036","4,598","4,598","-21,402","-0,956","-0,003","0,828"
"1036","4,598","4,598","-21,402","7,044","-1,003","2,828"
"1036","-4,402","11,598","-26,402","7,044","-1,003","2,828"
"1036","-4,402","11,598","-26,402","3,044","0,997","0,828"
"1036","2,598","2,598","-28,402","3,044","0,997","0,828"
"1036","2,598","2,598","-28,402","-2,956","-1,003","2,828"
"1036","5,598","3,598","-27,402","-2,956","-1,003","2,828"
"1036","5,598","3,598","-27,402","-0,956","-2,003","0,828"
"1036","1,598","12,598","-23,402","-0,956","-2,003","0,828"
"1037","1,598","12,598","-23,402","5,044","-2,003","3,828"
"1037","9,598","8,598","-20,402","5,044","-2,003","3,828"
"1037","9,598","8,598","-20,402","3,044","-0,003","1,828"
"1037","9,598","1,598","-23,402","3,044","-0,003","1,828"
"1037","9,598","1,598","-23,402","-6,956","1,997","0,828"
"1037","13,598","5,598","-18,402","-6,956","1,997","0,828"
"1037","13,598","5,598","-18,402","3,044","-3,003","-1,172"
"1037","8,598","19,598","-25,402","3,044","-3,003","-1,172"
"1037","8,598","19,598","-25,402","8,044","-1,003","-3,172"
"1037","8,598","5,598","-20,402","8,044","-1,003","-3,172"
"1037","8,598","5,598","-20,402","-1,956","-1,003","1,828"
"1037","12,598","-0,402","-19,402","-1,956","-1,003","1,828"
"1037","12,598","-0,402","-19,402","-5,956","1,997","2,828"
"1037","5,598","3,598","-22,402","-5,956","1,997","2,828"
"1037","5,598","3,598","-22,402","2,044","0,997","1,828"
"1037","5,598","11,598","-25,402","2,044","0,997","1,828"
"1037","5,598","11,598","-25,402","4,044","-2,003","0,828"
"1037","4,598","-0,402","-28,402","4,044","-2,003","0,828"
"1037","4,598","-0,402","-28,402","-4,956","1,997","1,828"
"1037","6,598","-4,402","-18,402","-4,956","1,997","1,828"
"1037","6,598","-4,402","-18,402","-0,956","-0,003","-0,172"
"1037","1,598","4,598","-18,402","-0,956","-0,003","-0,172"
"1038","1,598","4,598","-18,402","8,044","-0,003","0,828"
"1038","-0,402","12,598","-30,402","8,044","-0,003","0,828"
"1038","-0,402","12,598","-30,402","5,044","0,997","0,828"
"1038","6,598","0,598","-22,402","5,044","0,997","0,828"
"1038","6,598","0,598","-22,402","-4,956","-0,003","2,828"
"1038","-3,402","0,598","-27,402","-4,956","-0,003","2,828"
"1038","-3,402","0,598","-27,402","3,044","-0,003","1,828"
"1038","4,598","15,598","-23,402","3,044","-0,003","1,828"
"1038","4,598","15,598","-23,402","8,044","-0,003","3,828"
"1038","5,598","11,598","-18,402","8,044","-0,003","3,828"
"1038","5,598","11,598","-18,402","1,044","-1,003","0,828"
"1038","4,598","5,598","-24,402","1,044","-1,003","0,828"
"1038","4,598","5,598","-24,402","-3,956","-2,003","1,828"
"1038","5,598","9,598","-25,402","-3,956","-2,003","1,828"
"1038","5,598","9,598","-25,402","1,044","-0,003","0,828"
"1038","8,598","15,598","-24,402","1,044","-0,003","0,828"
"1038","8,598","15,598","-24,402","4,044","-0,003","1,828"
"1038","8,598","10,598","-25,402","4,044","-0,003","1,828"
"1038","8,598","10,598","-25,402","-0,956","-1,003","0,828"
"1039","12,598","1,598","-24,402","-0,956","-1,003","0,828"
"1039","12,598","1,598","-24,402","-1,956","-0,003","0,828"
"1039","8,598","7,598","-23,402","-1,956","-0,003","0,828"
"1039","8,598","7,598","-23,402","5,044","-0,003","-0,172"
"1039","5,598","11,598","-26,402","5,044","-0,003","-0,172"
"1039","5,598","11,598","-26,402","4,044","-1,003","-1,172"
"1039","10,598","3,598","-17,402","4,044","-1,003","-1,172"
"1039","10,598","3,598","-17,402","-1,956","0,997","-1,172"
"1039","9,598","2,598","-25,402","-1,956","0,997","-1,172"
"1039","9,598","2,598","-25,402","1,044","0,997","1,828"
"1039","0,598","9,598","-25,402","1,044","0,997","1,828"
"1039","0,598","9,598","-25,402","7,044","-1,003","2,828"
"1039","5,598","9,598","-20,402","7,044","-1,003","2,828"
"1039","5,598","9,598","-20,402","1,044","-2,003","0,828"
"1039","3,598","3,598","-22,402","1,044","-2,003","0,828"
"1039","3,598","3,598","-22,402","-0,956","3,997","0,828"
"1039","0,598","6,598","-24,402","-0,956","3,997","0,828"
"1039","0,598","6,598","-24,402","1,044","-0,003","2,828"
"1039","2,598","7,598","-22,402","1,044","-0,003","2,828"
"1039","2,598","7,598","-22,402","3,044","0,997","1,828"
"1039","1,598","9,598","-24,402","3,044","0,997","1,828"
"1040","1,598","9,598","-24,402","0,044","-0,003","-0,172"
"1040","6,598","5,598","-23,402","0,044","-0,003","-0,172"
"1040","6,598","5,598","-23,402","2,044","-2,003","0,828"
"1040","2,598","9,598","-19,402","2,044","-2,003","0,828"
"1040","2,598","9,598","-19,402","1,044","-1,003","1,828"
"1040","4,598","9,598","-22,402","1,044","-1,003","1,828"
"1040","4,598","9,598","-22,402","4,044","-1,003","-0,172"
"1040","5,598","5,598","-27,402","4,044","-1,003","-0,172"
"1040","5,598","5,598","-27,402","0,044","-1,003","-0,172"
"1040","11,598","5,598","-19,402","0,044","-1,003","-0,172"
"1040","11,598","5,598","-19,402","-1,956","-1,003","1,828"
"1040","4,598","7,598","-27,402","-1,956","-1,003","1,828"
"1040","4,598","7,598","-27,402","2,044","1,997","0,828"
"1040","10,598","7,598","-24,402","2,044","1,997","0,828"
"1040","10,598","7,598","-24,402","1,044","0,997","-0,172"
"1040","7,598","-0,402","-22,402","1,044","0,997","-0,172"
"1041","7,598","-0,402","-22,402","-0,956","-0,003","-0,172"
"1041","7,598","5,598","-26,402","-0,956","-0,003","-0,172"
"1041","7,598","5,598","-26,402","3,044","2,997","0,828"
"1041","6,598","5,598","-22,402","3,044","2,997","0,828"
"1041","6,598","5,598","-22,402","2,044","-0,003","-1,172"
"1041","4,598","4,598","-21,402","2,044","-0,003","-1,172"
"1041","4,598","4,598","-21,402","1,044","-0,003","-0,172"
"1041","2,598","2,598","-23,402","1,044","-0,003","-0,172"
"1041","2,598","2,598","-23,402","1,044","-1,003","0,828"
"1041","6,598","5,598","-23,402","1,044","-1,003","0,828"
"1041","6,598","5,598","-23,402","5,044","-1,003","-1,172"
"1041","7,598","7,598","-18,402","5,044","-1,003","-1,172"
"1041","7,598","7,598","-18,402","5,044","0,997","-0,172"
"1041","0,598","4,598","-24,402","5,044","0,997","-0,172"
"1041","0,598","4,598","-24,402","0,044","-0,003","0,828"
"1041","9,598","7,598","-20,402","0,044","-0,003","0,828"
"1041","9,598","7,598","-20,402","1,044","-1,003","1,828"
"1041","2,598","8,598","-25,402","1,044","-1,003","1,828"
"1041","2,598","8,598","-25,402","4,044","-0,003","0,828"
"1041","-0,402","10,598","-26,402","4,044","-0,003","0,828"
"1041","-0,402","10,598","-26,402","3,044","-0,003","-1,172"
"1042","10,598","5,598","-20,402","3,044","-0,003","-1,172"
"1042","10,598","5,598","-20,402","0,044","0,997","-2,172"
"1042","1,598","5,598","-25,402","0,044","0,997","-2,172"
"1042","1,598","5,598","-25,402","3,044","-0,003","0,828"
"1042","5,598","7,598","-21,402","3,044","-0,003","0,828"
"1042","5,598","7,598","-21,402","2,044","-2,003","-0,172"
"1042","6,598","5,598","-20,402","2,044","-2,003","-0,172"
"1042","6,598","5,598","-20,402","-3,956","0,997","-2,172"
"1042","10,598","4,598","-25,402","-3,956","0,997","-2,172"
"1042","10,598","4,598","-25,402","-1,956","-1,003","-0,172"
"1042","9,598","6,598","-24,402","-1,956","-1,003","-0,172"
"1042","9,598","6,598","-24,402","2,044","0,997","2,828"
"1042","7,598","5,598","-24,402","2,044","0,997","2,828"
"1042","7,598","5,598","-24,402","2,044","-0,003","1,828"
"1042","5,598","5,598","-22,402","2,044","-0,003","1,828"
"1042","5,598","5,598","-22,402","1,044","-2,003","0,828"
"1042","9,598","4,598","-24,402","1,044","-2,003","0,828"
"1043","9,598","4,598","-24,402","1,044","-2,003","-0,172"
"1043","2,598","6,598","-25,402","1,044","-2,003","-0,172"
"1043","2,598","6,598","-25,402","6,044","-1,003","-1,172"
"1043","2,598","5,598","-21,402","6,044","-1,003","-1,172"
"1043","2,598","5,598","-21,402","4,044","-0,003","-1,172"
"1043","6,598","5,598","-21,402","4,044","-0,003","-1,172"
"1043","6,598","5,598","-21,402","0,044","-0,003","1,828"
"1043","4,598","10,598","-29,402","0,044","-0,003","1,828"
"1043","4,598","10,598","-29,402","1,044","0,997","0,828"
"1043","1,598","9,598","-20,402","1,044","0,997","0,828"
"1043","1,598","9,598","-20,402","3,044","-0,003","0,828"
"1043","5,598","6,598","-22,402","3,044","-0,003","0,828"
"1043","5,598","6,598","-22,402","1,044","-0,003","-1,172"
"1043","5,598","6,598","-28,402","1,044","-0,003","-1,172"
"1043","5,598","6,598","-28,402","1,044","-1,003","0,828"
"1043","2,598","9,598","-22,402","1,044","-1,003","0,828"
"1043","2,598","9,598","-22,402","0,044","-0,003","-0,172"
"1043","9,598","8,598","-21,402","0,044","-0,003","-0,172"
"1044","9,598","8,598","-21,402","-0,956","0,997","0,828"
"1044","4,598","6,598","-20,402","-0,956","0,997","0,828"
"1044","4,598","6,598","-20,402","2,044","-1,003","-1,172"
"1044","8,598","5,598","-23,402","2,044","-1,003","-1,172"
"1044","8,598","5,598","-23,402","-0,956","-3,003","-2,172"
"1044","8,598","6,598","-24,402","-0,956","-3,003","-2,172"
"1044","8,598","6,598","-24,402","2,044","-0,003","2,828"
"1044","4,598","6,598","-23,402","2,044","-0,003","2,828"
"1044","4,598","6,598","-23,402","0,044","-0,003","-0,172"
"1044","7,598","5,598","-21,402","0,044","-0,003","-0,172"
"1044","7,598","5,598","-21,402","-2,956","-2,003","-0,172"
"1044","5,598","6,598","-22,402","-2,956","-2,003","-0,172"
"1044","5,598","6,598","-22,402","2,044","1,997","0,828"
"1044","6,598","7,598","-22,402","2,044","1,997","0,828"
"1044","6,598","7,598","-22,402","1,044","0,997","0,828"
"1044","10,598","6,598","-29,402","1,044","0,997","0,828"
"1044","10,598","6,598","-29,402","0,044","-1,003","0,828"
"1044","1,598","5,598","-26,402","0,044","-1,003","0,828"
"1044","1,598","5,598","-26,402","1,044","-1,003","-0,172"
"1045","6,598","9,598","-24,402","1,044","-1,003","-0,172"
"1045","6,598","9,598","-24,402","5,044","-1,003","-2,172"
"1045","5,598","9,598","-21,402","5,044","-1,003","-2,172"
"1045","5,598","9,598","-21,402","0,044","1,997","0,828"
"1045","3,598","1,598","-27,402","0,044","1,997","0,828"
"1045","3,598","1,598","-27,402","-2,956","0,997","1,828"
"1045","4,598","7,598","-24,402","-2,956","0,997","1,828"
"1045","4,598","7,598","-24,402","1,044","-1,003","3,828"
"1045","5,598","9,598","-24,402","1,044","-1,003","3,828"
"1045","5,598","9,598","-24,402","2,044","-1,003","-0,172"
"1045","6,598","5,598","-22,402","2,044","-1,003","-0,172"
"1045","6,598","5,598","-22,402","1,044","-0,003","-3,172"
"1045","5,598","5,598","-28,402","1,044","-0,003","-3,172"
"1045","5,598","5,598","-28,402","-0,956","1,997","-3,172"
"1045","8,598","5,598","-27,402","-0,956","1,997","-3,172"
"1045","8,598","5,598","-27,402","0,044","-1,003","0,828"
"1045","2,598","10,598","-21,402","0,044","-1,003","0,828"
"1045","2,598","10,598","-21,402","3,044","2,997","-0,172"
"1046","2,598","5,598","-22,402","3,044","2,997","-0,172"
"1046","2,598","5,598","-22,402","0,044","0,997","2,828"
"1046","4,598","5,598","-21,402","0,044","0,997","2,828"
"1046","4,598","5,598","-21,402","-1,956","-0,003","-0,172"
"1046","5,598","5,598","-28,402","-1,956","-0,003","-0,172"
"1046","5,598","5,598","-28,402","0,044","-0,003","0,828"
"1046","5,598","9,598","-22,402","0,044","-0,003","0,828"
"1046","5,598","9,598","-22,402","1,044","-0,003","-0,172"
"1046","8,598","2,598","-24,402","1,044","-0,003","-0,172"
"1046","8,598","2,598","-24,402","-1,956","-2,003","2,828"
"1046","7,598","4,598","-24,402","-1,956","-2,003","2,828"
"1046","7,598","4,598","-24,402","1,044","-0,003","0,828"
"1046","4,598","5,598","-18,402","1,044","-0,003","0,828"
"1046","4,598","5,598","-18,402","0,044","-0,003","-0,172"
"1046","6,598","11,598","-25,402","0,044","-0,003","-0,172"
"1046","6,598","11,598","-25,402","1,044","2,997","-0,172"
"1046","4,598","5,598","-22,402","1,044","2,997","-0,172"
"1046","4,598","5,598","-22,402","-0,956","-0,003","-1,172"
"1046","7,598","2,598","-20,402","-0,956","-0,003","-1,172"
"1046","7,598","2,598","-20,402","0,044","-0,003","0,828"
"1047","5,598","10,598","-23,402","0,044","-0,003","0,828"
"1047","5,598","10,598","-23,402","2,044","-1,003","-0,172"
"1047","0,598","6,598","-22,402","2,044","-1,003","-0,172"
"1047","0,598","6,598","-22,402","1,044","-2,003","-0,172"
"1047","1,598","5,598","-20,402","1,044","-2,003","-0,172"
"1047","1,598","5,598","-20,402","-1,956","-1,003","1,828"
"1047","5,598","5,598","-26,402","-1,956","-1,003","1,828"
"1047","5,598","5,598","-26,402","0,044","3,997","-0,172"
"1047","2,598","8,598","-24,402","0,044","3,997","-0,172"
"1047","2,598","8,598","-24,402","1,044","-2,003","-0,172"
"1047","9,598","6,598","-20,402","1,044","-2,003","-0,172"
"1047","9,598","6,598","-20,402","2,044","-2,003","-0,172"
"1047","4,598","5,598","-26,402","2,044","-2,003","-0,172"
"1047","4,598","5,598","-26,402","0,044","-0,003","-0,172"
"1047","5,598","5,598","-23,402","0,044","-0,003","-0,172"
"1047","5,598","5,598","-23,402","1,044","-0,003","-0,172"
"1047","3,598","7,598","-26,402","1,044","-0,003","-0,172"
"1047","3,598","7,598","-26,402","0,044","-0,003","-2,172"
"1047","5,598","7,598","-25,402","0,044","-0,003","-2,172"
"1047","5,598","7,598","-25,402","0,044","1,997","-0,172"
"1047","12,598","3,598","-13,402","0,044","1,997","-0,172"
"1047","12,598","3,598","-13,402","0,044","-1,003","0,828"
"1048","-2,402","6,598","-30,402","0,044","-1,003","0,828"
"1048","-2,402","6,598","-30,402","2,044","0,997","0,828"
"1048","15,598","7,598","-11,402","2,044","0,997","0,828"
"1048","15,598","7,598","-11,402","3,044","-2,003","1,828"
"1048","14,598","5,598","-19,402","3,044","-2,003","1,828"
"1048","14,598","5,598","-19,402","-2,956","-0,003","2,828"
"1048","0,598","8,598","-25,402","-2,956","-0,003","2,828"
"1048","0,598","8,598","-25,402","-1,956","0,997","3,828"
"1048","10,598","6,598","-19,402","-1,956","0,997","3,828"
"1048","10,598","6,598","-19,402","3,044","-0,003","-1,172"
"1048","5,598","8,598","-25,402","3,044","-0,003","-1,172"
"1048","5,598","8,598","-25,402","-0,956","-0,003","-0,172"
"1048","2,598","6,598","-27,402","-0,956","-0,003","-0,172"
"1048","2,598","6,598","-27,402","2,044","-0,003","0,828"
"1048","6,598","6,598","-22,402","2,044","-0,003","0,828"
"1048","6,598","6,598","-22,402","5,044","-1,003","-1,172"
"1048","5,598","9,598","-26,402","5,044","-1,003","-1,172"
"1048","5,598","9,598","-26,402","0,044","-1,003","-2,172"
"1048","-1,402","5,598","-25,402","0,044","-1,003","-2,172"
"1048","-1,402","5,598","-25,402","3,044","-0,003","1,828"
"1048","7,598","5,598","-19,402","3,044","-0,003","1,828"
"1048","7,598","5,598","-19,402","3,044","-0,003","1,828"
"1049","3,598","6,598","-18,402","3,044","-0,003","1,828"
"1049","3,598","6,598","-18,402","-2,956","-0,003","-0,172"
"1049","7,598","6,598","-23,402","-2,956","-0,003","-0,172"
"1049","7,598","6,598","-23,402","-0,956","3,997","-0,172"
"1049","8,598","4,598","-19,402","-0,956","3,997","-0,172"
"1049","8,598","4,598","-19,402","1,044","-0,003","-1,172"
"1049","0,598","7,598","-26,402","1,044","-0,003","-1,172"
"1049","0,598","7,598","-26,402","-1,956","-0,003","0,828"
"1049","12,598","8,598","-18,402","-1,956","-0,003","0,828"
"1049","12,598","8,598","-18,402","-1,956","-0,003","0,828"
"1049","10,598","5,598","-17,402","-1,956","-0,003","0,828"
"1049","10,598","5,598","-17,402","-1,956","1,997","-1,172"
"1049","4,598","7,598","-23,402","-1,956","1,997","-1,172"
"1049","4,598","7,598","-23,402","0,044","1,997","-2,172"
"1049","9,598","6,598","-22,402","0,044","1,997","-2,172"
"1049","9,598","6,598","-22,402","0,044","-0,003","-1,172"
"1049","11,598","7,598","-20,402","0,044","-0,003","-1,172"
"1049","11,598","7,598","-20,402","0,044","-0,003","-1,172"
"1049","5,598","6,598","-22,402","0,044","-0,003","-1,172"
"1049","5,598","6,598","-22,402","-0,956","0,997","1,828"
"1049","2,598","7,598","-25,402","-0,956","0,997","1,828"
"1049","2,598","7,598","-25,402","2,044","-0,003","1,828"
"1050","7,598","7,598","-23,402","2,044","-0,003","1,828"
"1050","7,598","7,598","-23,402","-2,956","-0,003","-1,172"
"1050","10,598","7,598","-22,402","-2,956","-0,003","-1,172"
"1050","10,598","7,598","-22,402","-0,956","-0,003","-0,172"
"1050","3,598","5,598","-26,402","-0,956","-0,003","-0,172"
"1050","3,598","5,598","-26,402","-0,956","-0,003","-0,172"
"1050","3,598","5,598","-26,402","-0,956","-0,003","-0,172"
"1050","3,598","5,598","-26,402","-0,956","1,997","-0,172"
"1050","10,598","5,598","-21,402","-0,956","1,997","-0,172"
"1050","10,598","5,598","-21,402","1,044","-0,003","1,828"
"1050","0,598","5,598","-24,402","1,044","-0,003","1,828"
"1050","0,598","5,598","-24,402","1,044","-0,003","1,828"
"1050","5,598","4,598","-19,402","1,044","-0,003","1,828"
"1050","5,598","4,598","-19,402","-4,956","2,997","0,828"
"1050","6,598","5,598","-25,402","-4,956","2,997","0,828"
"1050","6,598","5,598","-25,402","2,044","-0,003","-0,172"
"1050","6,598","5,598","-25,402","2,044","-0,003","-0,172"
"1050","6,598","5,598","-25,402","2,044","-0,003","-0,172"
"1050","5,598","5,598","-20,402","2,044","-0,003","-0,172"
"1050","5,598","5,598","-20,402","1,044","-1,003","-0,172"
"1050","3,598","5,598","-26,402","1,044","-1,003","-0,172"
"1051","3,598","5,598","-26,402","-0,956","-1,003","0,828"
"1051","0,598","5,598","-25,402","-0,956","-1,003","0,828"
"1051","0,598","5,598","-25,402","3,044","-1,003","-0,172"
"1051","8,598","5,598","-24,402","3,044","-1,003","-0,172"
"1051","8,598","5,598","-24,402","4,044","-1,003","-0,172"
"1051","8,598","5,598","-24,402","4,044","-1,003","-0,172"
"1051","8,598","5,598","-24,402","3,044","-0,003","-0,172"
"1051","5,598","8,598","-25,402","3,044","-0,003","-0,172"
"1051","5,598","8,598","-25,402","1,044","-2,003","1,828"
"1051","5,598","7,598","-27,402","1,044","-2,003","1,828"
"1051","5,598","7,598","-27,402","-0,956","-1,003","-2,172"
"1051","9,598","6,598","-22,402","-0,956","-1,003","-2,172"
"1051","9,598","6,598","-22,402","0,044","1,997","0,828"
"1051","5,598","5,598","-20,402","0,044","1,997","0,828"
"1051","5,598","5,598","-20,402","0,044","-0,003","-0,172"
"1051","5,598","5,598","-20,402","0,044","-0,003","-0,172"
"1051","5,598","5,598","-20,402","2,044","-3,003","1,828"
"1051","5,598","6,598","-28,402","2,044","-3,003","1,828"
"1051","5,598","6,598","-28,402","0,044","-2,003","-0,172"
"1051","9,598","6,598","-20,402","0,044","-2,003","-0,172"
"1052","9,598","6,598","-20,402","3,044","-1,003","0,828"
"1052","9,598","5,598","-15,402","3,044","-1,003","0,828"
"1052","9,598","5,598","-15,402","2,044","-0,003","0,828"
"1052","0,598","8,598","-27,402","2,044","-0,003","0,828"
"1052","0,598","8,598","-27,402","-0,956","1,997","-1,172"
"1052","0,598","8,598","-27,402","-0,956","1,997","-1,172"
"1052","0,598","8,598","-27,402","1,044","2,997","-1,172"
"1052","5,598","5,598","-25,402","1,044","2,997","-1,172"
"1052","5,598","5,598","-25,402","-0,956","-2,003","-0,172"
"1052","1,598","5,598","-22,402","-0,956","-2,003","-0,172"
"1052","1,598","5,598","-22,402","0,044","-3,003","-0,172"
"1052","7,598","5,598","-21,402","0,044","-3,003","-0,172"
"1052","7,598","5,598","-21,402","2,044","0,997","-0,172"
"1052","3,598","5,598","-27,402","2,044","0,997","-0,172"
"1052","3,598","5,598","-27,402","1,044","-2,003","2,828"
"1052","3,598","5,598","-27,402","1,044","-2,003","2,828"
"1052","3,598","5,598","-27,402","0,044","-1,003","2,828"
"1052","5,598","6,598","-20,402","0,044","-1,003","2,828"
"1052","5,598","6,598","-20,402","2,044","-0,003","0,828"
"1052","2,598","6,598","-28,402","2,044","-0,003","0,828"
"1053","2,598","6,598","-28,402","5,044","-1,003","0,828"
"1053","4,598","5,598","-23,402","5,044","-1,003","0,828"
"1053","4,598","5,598","-23,402","1,044","-3,003","0,828"
"1053","7,598","5,598","-21,402","1,044","-3,003","0,828"
"1053","7,598","5,598","-21,402","1,044","0,997","1,828"
"1053","7,598","5,598","-21,402","1,044","0,997","1,828"
"1053","7,598","5,598","-21,402","0,044","-1,003","0,828"
"1053","5,598","7,598","-22,402","0,044","-1,003","0,828"
"1054","5,598","7,598","-22,402","2,044","0,997","2,828"
"1054","7,598","4,598","-21,402","2,044","0,997","2,828"
"1054","7,598","4,598","-21,402","1,044","-3,003","-0,172"
"1054","3,598","6,598","-22,402","1,044","-3,003","-0,172"
"1054","3,598","6,598","-22,402","1,044","-0,003","-2,172"
"1054","6,598","8,598","-20,402","1,044","-0,003","-2,172"
"1054","6,598","8,598","-20,402","0,044","1,997","-1,172"
"1054","6,598","8,598","-20,402","0,044","1,997","-1,172"
"1054","6,598","8,598","-20,402","2,044","-0,003","2,828"
"1054","4,598","9,598","-20,402","2,044","-0,003","2,828"
"1054","4,598","9,598","-20,402","1,044","-2,003","1,828"
"1054","5,598","6,598","-20,402","1,044","-2,003","1,828"
"1054","5,598","6,598","-20,402","0,044","-0,003","-1,172"
"1054","7,598","6,598","-26,402","0,044","-0,003","-1,172"
"1054","7,598","6,598","-26,402","0,044","-3,003","-2,172"
"1054","5,598","8,598","-26,402","0,044","-3,003","-2,172"
"1054","5,598","8,598","-26,402","0,044","-2,003","-3,172"
"1054","5,598","8,598","-26,402","0,044","-2,003","-3,172"
"1054","5,598","8,598","-26,402","0,044","0,997","0,828"
"1054","4,598","7,598","-23,402","0,044","0,997","0,828"
"1054","4,598","7,598","-23,402","0,044","-0,003","0,828"
"1054","8,598","6,598","-25,402","0,044","-0,003","0,828"
"1055","8,598","6,598","-25,402","-1,956","1,997","0,828"
"1055","5,598","5,598","-26,402","-1,956","1,997","0,828"
"1055","5,598","5,598","-26,402","-1,956","-2,003","-1,172"
"1055","6,598","4,598","-21,402","-1,956","-2,003","-1,172"
"1055","6,598","4,598","-21,402","-1,956","0,997","0,828"
"1055","6,598","4,598","-21,402","-1,956","0,997","0,828"
"1055","6,598","4,598","-21,402","1,044","0,997","1,828"
"1055","4,598","6,598","-25,402","1,044","0,997","1,828"
"1055","4,598","6,598","-25,402","-0,956","-1,003","0,828"
"1055","9,598","5,598","-20,402","-0,956","-1,003","0,828"
"1055","9,598","5,598","-20,402","0,044","-0,003","1,828"
"1055","4,598","5,598","-22,402","0,044","-0,003","1,828"
"1055","4,598","5,598","-22,402","3,044","0,997","-1,172"
"1055","5,598","5,598","-24,402","3,044","0,997","-1,172"
"1055","5,598","5,598","-24,402","1,044","-1,003","-1,172"
"1055","5,598","5,598","-24,402","1,044","-1,003","-1,172"
"1055","5,598","5,598","-24,402","0,044","-0,003","-1,172"
"1055","0,598","7,598","-24,402","0,044","-0,003","-1,172"
"1055","0,598","7,598","-24,402","2,044","-0,003","-0,172"
"1055","3,598","6,598","-28,402","2,044","-0,003","-0,172"
"1055","3,598","6,598","-28,402","1,044","-0,003","-0,172"
"1056","9,598","5,598","-18,402","1,044","-0,003","-0,172"
"1056","9,598","5,598","-18,402","-1,956","0,997","-0,172"
"1056","0,598","5,598","-22,402","-1,956","0,997","-0,172"
"1056","0,598","5,598","-22,402","-0,956","-1,003","-1,172"
"1056","0,598","5,598","-22,402","-0,956","-1,003","-1,172"
"1056","0,598","5,598","-22,402","3,044","-0,003","0,828"
"1056","9,598","5,598","-17,402","3,044","-0,003","0,828"
"1056","9,598","5,598","-17,402","1,044","0,997","1,828"
"1056","2,598","7,598","-28,402","1,044","0,997","1,828"
"1056","2,598","7,598","-28,402","-0,956","-1,003","-0,172"
"1056","1,598","7,598","-23,402","-0,956","-1,003","-0,172"
"1056","1,598","7,598","-23,402","-0,956","-1,003","-1,172"
"1056","10,598","8,598","-17,402","-0,956","-1,003","-1,172"
"1056","10,598","8,598","-17,402","-0,956","0,997","-0,172"
"1056","10,598","8,598","-17,402","-0,956","0,997","-0,172"
"1056","10,598","8,598","-17,402","2,044","-0,003","-1,172"
"1056","7,598","7,598","-23,402","2,044","-0,003","-1,172"
"1056","7,598","7,598","-23,402","-0,956","-1,003","1,828"
"1056","5,598","8,598","-28,402","-0,956","-1,003","1,828"
"1056","5,598","8,598","-28,402","2,044","-3,003","-0,172"
"1056","5,598","5,598","-18,402","2,044","-3,003","-0,172"
"1056","5,598","5,598","-18,402","-1,956","0,997","-0,172"
"1057","4,598","5,598","-23,402","-1,956","0,997","-0,172"
"1057","4,598","5,598","-23,402","0,044","-2,003","-2,172"
"1057","4,598","5,598","-23,402","0,044","-2,003","-2,172"
"1057","4,598","5,598","-23,402","2,044","-4,003","-1,172"
"1057","5,598","6,598","-20,402","2,044","-4,003","-1,172"
"1057","5,598","6,598","-20,402","2,044","1,997","2,828"
"1057","1,598","7,598","-29,402","2,044","1,997","2,828"
"1057","1,598","7,598","-29,402","-0,956","-1,003","0,828"
"1057","7,598","5,598","-19,402","-0,956","-1,003","0,828"
"1057","7,598","5,598","-19,402","0,044","0,997","-0,172"
"1057","10,598","5,598","-26,402","0,044","0,997","-0,172"
"1057","10,598","5,598","-26,402","4,044","-1,003","-0,172"
"1057","10,598","5,598","-26,402","4,044","-1,003","-0,172"
"1057","10,598","5,598","-26,402","2,044","-1,003","0,828"
"1057","11,598","5,598","-17,402","2,044","-1,003","0,828"
"1057","11,598","5,598","-17,402","4,044","1,997","0,828"
"1057","5,598","8,598","-21,402","4,044","1,997","0,828"
"1057","5,598","8,598","-21,402","0,044","-1,003","1,828"
"1057","5,598","9,598","-25,402","0,044","-1,003","1,828"
"1057","5,598","9,598","-25,402","-0,956","-1,003","-2,172"
"1057","12,598","4,598","-18,402","-0,956","-1,003","-2,172"
"1058","12,598","4,598","-18,402","3,044","-0,003","1,828"
"1058","12,598","4,598","-18,402","3,044","-0,003","1,828"
"1058","12,598","4,598","-18,402","2,044","-1,003","-1,172"
"1058","5,598","5,598","-30,402","2,044","-1,003","-1,172"
"1058","5,598","5,598","-30,402","3,044","-0,003","2,828"
"1058","9,598","6,598","-20,402","3,044","-0,003","2,828"
"1058","9,598","6,598","-20,402","-0,956","-1,003","-2,172"
"1058","0,598","8,598","-25,402","-0,956","-1,003","-2,172"
"1058","0,598","8,598","-25,402","0,044","-0,003","-0,172"
"1058","-2,402","5,598","-29,402","0,044","-0,003","-0,172"
"1058","-2,402","5,598","-29,402","0,044","0,997","0,828"
"1058","-2,402","5,598","-29,402","0,044","0,997","0,828"
"1058","-2,402","5,598","-29,402","-1,956","-0,003","-0,172"
"1058","4,598","8,598","-24,402","-1,956","-0,003","-0,172"
"1058","4,598","8,598","-24,402","0,044","-3,003","-0,172"
"1058","6,598","4,598","-25,402","0,044","-3,003","-0,172"
"1058","6,598","4,598","-25,402","0,044","-1,003","0,828"
"1058","6,598","5,598","-25,402","0,044","-1,003","0,828"
"1058","6,598","5,598","-25,402","-0,956","-2,003","-0,172"
"1058","5,598","7,598","-20,402","-0,956","-2,003","-0,172"
"1058","5,598","7,598","-20,402","0,044","-2,003","0,828"
"1059","5,598","7,598","-20,402","0,044","-2,003","0,828"
"1059","5,598","7,598","-20,402","0,044","0,997","0,828"
"1059","9,598","8,598","-19,402","0,044","0,997","0,828"
"1059","9,598","8,598","-19,402","3,044","-1,003","0,828"
"1059","10,598","5,598","-25,402","3,044","-1,003","0,828"
"1059","10,598","5,598","-25,402","2,044","1,997","-0,172"
"1059","3,598","7,598","-25,402","2,044","1,997","-0,172"
"1059","3,598","7,598","-25,402","-1,956","-1,003","1,828"
"1059","5,598","5,598","-19,402","-1,956","-1,003","1,828"
"1059","5,598","5,598","-19,402","2,044","-0,003","-0,172"
"1059","5,598","5,598","-19,402","2,044","-0,003","-0,172"
"1060","5,598","5,598","-19,402","1,044","-2,003","-0,172"
"1060","5,598","7,598","-22,402","1,044","-2,003","-0,172"
"1060","5,598","7,598","-22,402","2,044","-0,003","-0,172"
"1060","8,598","7,598","-27,402","2,044","-0,003","-0,172"
"1060","8,598","7,598","-27,402","0,044","1,997","3,828"
"1060","8,598","7,598","-27,402","0,044","1,997","3,828"
"1060","8,598","7,598","-27,402","5,044","0,997","-0,172"
"1060","4,598","5,598","-23,402","5,044","0,997","-0,172"
"1061","4,598","5,598","-23,402","2,044","4,997","1,828"
"1061","4,598","5,598","-23,402","2,044","4,997","1,828"
"1061","4,598","5,598","-23,402","-2,956","0,997","-2,172"
"1061","9,598","5,598","-23,402","-2,956","0,997","-2,172"
"1061","9,598","5,598","-23,402","-0,956","-0,003","1,828"
"1061","5,598","7,598","-24,402","-0,956","-0,003","1,828"
"1061","5,598","7,598","-24,402","1,044","0,997","-0,172"
"1061","5,598","7,598","-24,402","1,044","0,997","-0,172"
"1061","5,598","7,598","-24,402","3,044","0,997","-0,172"
"1061","9,598","5,598","-23,402","3,044","0,997","-0,172"
"1061","9,598","5,598","-23,402","-1,956","-0,003","0,828"
"1061","9,598","5,598","-23,402","-1,956","-0,003","0,828"
"1061","9,598","5,598","-23,402","3,044","-1,003","2,828"
"1061","3,598","6,598","-24,402","3,044","-1,003","2,828"
"1062","3,598","6,598","-24,402","2,044","-1,003","-0,172"
"1062","8,598","5,598","-20,402","2,044","-1,003","-0,172"
"1062","8,598","5,598","-20,402","0,044","-1,003","-1,172"
"1062","9,598","6,598","-26,402","0,044","-1,003","-1,172"
"1062","9,598","6,598","-26,402","1,044","-1,003","-1,172"
"1062","6,598","4,598","-23,402","1,044","-1,003","-1,172"
"1062","6,598","4,598","-23,402","0,044","-1,003","-1,172"
"1062","6,598","4,598","-23,402","0,044","-1,003","-1,172"
"1062","6,598","4,598","-23,402","2,044","-0,003","-0,172"
"1062","8,598","9,598","-19,402","2,044","-0,003","-0,172"
"1062","8,598","9,598","-19,402","2,044","-0,003","0,828"
"1062","5,598","5,598","-28,402","2,044","-0,003","0,828"
"1062","5,598","5,598","-28,402","0,044","0,997","0,828"
"1062","4,598","9,598","-27,402","0,044","0,997","0,828"
"1062","4,598","9,598","-27,402","2,044","-2,003","-0,172"
"1062","5,598","6,598","-26,402","2,044","-2,003","-0,172"
"1062","5,598","6,598","-26,402","-1,956","-1,003","-0,172"
"1062","5,598","6,598","-26,402","-1,956","-1,003","-0,172"
"1063","5,598","6,598","-26,402","-1,956","-0,003","-0,172"
"1063","2,598","6,598","-22,402","-1,956","-0,003","-0,172"
"1063","2,598","6,598","-22,402","0,044","-0,003","0,828"
"1063","5,598","4,598","-21,402","0,044","-0,003","0,828"
"1063","5,598","4,598","-21,402","0,044","-3,003","-0,172"
"1063","10,598","5,598","-18,402","0,044","-3,003","-0,172"
"1063","10,598","5,598","-18,402","-0,956","-0,003","-2,172"
"1063","2,598","6,598","-25,402","-0,956","-0,003","-2,172"
"1063","2,598","6,598","-25,402","-1,956","-0,003","0,828"
"1063","7,598","7,598","-22,402","-1,956","-0,003","0,828"
"1063","7,598","7,598","-22,402","0,044","1,997","0,828"
"1063","7,598","8,598","-20,402","0,044","1,997","0,828"
"1063","7,598","8,598","-20,402","3,044","-0,003","-0,172"
"1063","2,598","8,598","-24,402","3,044","-0,003","-0,172"
"1063","2,598","8,598","-24,402","-0,956","0,997","0,828"
"1063","1,598","6,598","-22,402","-0,956","0,997","0,828"
"1063","1,598","6,598","-22,402","0,044","-0,003","0,828"
"1063","7,598","6,598","-24,402","0,044","-0,003","0,828"
"1063","7,598","6,598","-24,402","-0,956","-1,003","-0,172"
"1064","5,598","6,598","-19,402","-0,956","-1,003","-0,172"
"1064","5,598","6,598","-19,402","0,044","-0,003","0,828"
"1064","4,598","8,598","-25,402","0,044","-0,003","0,828"
"1064","4,598","8,598","-25,402","1,044","1,997","3,828"
"1064","6,598","5,598","-20,402","1,044","1,997","3,828"
"1064","6,598","5,598","-20,402","0,044","0,997","1,828"
"1064","5,598","5,598","-28,402","0,044","0,997","1,828"
"1064","5,598","5,598","-28,402","-1,956","-1,003","-1,172"
"1064","4,598","7,598","-20,402","-1,956","-1,003","-1,172"
"1064","4,598","7,598","-20,402","0,044","-0,003","0,828"
"1064","5,598","5,598","-26,402","0,044","-0,003","0,828"
"1064","5,598","5,598","-26,402","2,044","0,997","-0,172"
"1064","3,598","6,598","-24,402","2,044","0,997","-0,172"
"1064","3,598","6,598","-24,402","1,044","0,997","-1,172"
"1064","7,598","6,598","-27,402","1,044","0,997","-1,172"
"1064","7,598","6,598","-27,402","0,044","3,997","-0,172"
"1064","2,598","5,598","-23,402","0,044","3,997","-0,172"
"1064","2,598","5,598","-23,402","1,044","0,997","1,828"
"1064","5,598","7,598","-22,402","1,044","0,997","1,828"
"1064","5,598","7,598","-22,402","-0,956","-3,003","1,828"
"1064","6,598","6,598","-19,402","-0,956","-3,003","1,828"
"1064","6,598","6,598","-19,402","4,044","-3,003","-0,172"
"1064","7,598","5,598","-26,402","4,044","-3,003","-0,172"
"1065","7,598","5,598","-26,402","-1,956","-0,003","-0,172"
"1065","10,598","7,598","-21,402","-1,956","-0,003","-0,172"
"1065","10,598","7,598","-21,402","2,044","2,997","-1,172"
"1065","3,598","7,598","-23,402","2,044","2,997","-1,172"
"1065","3,598","7,598","-23,402","3,044","0,997","-1,172"
"1065","4,598","6,598","-25,402","3,044","0,997","-1,172"
"1065","4,598","6,598","-25,402","-1,956","-0,003","-2,172"
"1065","10,598","4,598","-18,402","-1,956","-0,003","-2,172"
"1065","10,598","4,598","-18,402","-0,956","-1,003","-1,172"
"1065","3,598","5,598","-25,402","-0,956","-1,003","-1,172"
"1065","3,598","5,598","-25,402","0,044","1,997","2,828"
"1065","6,598","9,598","-22,402","0,044","1,997","2,828"
"1065","6,598","9,598","-22,402","0,044","0,997","0,828"
"1065","10,598","5,598","-22,402","0,044","0,997","0,828"
"1065","10,598","5,598","-22,402","-0,956","0,997","-1,172"
"1065","4,598","5,598","-18,402","-0,956","0,997","-1,172"
"1065","4,598","5,598","-18,402","-2,956","1,997","-2,172"
"1065","6,598","5,598","-20,402","-2,956","1,997","-2,172"
"1065","6,598","5,598","-20,402","0,044","-2,003","0,828"
"1065","4,598","10,598","-22,402","0,044","-2,003","0,828"
"1066","4,598","10,598","-22,402","1,044","-1,003","1,828"
"1066","5,598","5,598","-22,402","1,044","-1,003","1,828"
"1066","5,598","5,598","-22,402","-0,956","-0,003","-2,172"
"1066","8,598","5,598","-18,402","-0,956","-0,003","-2,172"
"1066","8,598","5,598","-18,402","-0,956","-2,003","1,828"
"1066","3,598","6,598","-25,402","-0,956","-2,003","1,828"
"1066","3,598","6,598","-25,402","0,044","-3,003","2,828"
"1066","7,598","5,598","-26,402","0,044","-3,003","2,828"
"1066","7,598","5,598","-26,402","-0,956","0,997","2,828"
"1066","5,598","8,598","-23,402","-0,956","0,997","2,828"
"1066","5,598","8,598","-23,402","-2,956","-2,003","0,828"
"1066","3,598","4,598","-23,402","-2,956","-2,003","0,828"
"1066","3,598","4,598","-23,402","-0,956","0,997","-1,172"
"1066","5,598","5,598","-25,402","-0,956","0,997","-1,172"
"1066","5,598","5,598","-25,402","1,044","0,997","-3,172"
"1066","4,598","7,598","-24,402","1,044","0,997","-3,172"
"1066","4,598","7,598","-24,402","2,044","-2,003","-1,172"
"1066","6,598","6,598","-21,402","2,044","-2,003","-1,172"
"1066","6,598","6,598","-21,402","1,044","-0,003","-2,172"
"1066","6,598","6,598","-22,402","1,044","-0,003","-2,172"
"1066","6,598","6,598","-22,402","-2,956","2,997","1,828"
"1066","9,598","8,598","-21,402","-2,956","2,997","1,828"
"1066","9,598","8,598","-21,402","-0,956","0,997","-0,172"
"1067","5,598","6,598","-22,402","-0,956","0,997","-0,172"
"1067","5,598","6,598","-22,402","1,044","-1,003","1,828"
"1067","6,598","6,598","-19,402","1,044","-1,003","1,828"
"1067","6,598","6,598","-19,402","0,044","1,997","2,828"
"1067","6,598","5,598","-20,402","0,044","1,997","2,828"
"1067","6,598","5,598","-20,402","-0,956","1,997","1,828"
"1067","2,598","6,598","-25,402","-0,956","1,997","1,828"
"1067","2,598","6,598","-25,402","-0,956","-0,003","0,828"
"1067","6,598","7,598","-26,402","-0,956","-0,003","0,828"
"1067","6,598","7,598","-26,402","1,044","0,997","-1,172"
"1067","7,598","5,598","-24,402","1,044","0,997","-1,172"
"1067","7,598","5,598","-24,402","0,044","1,997","-0,172"
"1067","2,598","8,598","-20,402","0,044","1,997","-0,172"
"1067","2,598","8,598","-20,402","0,044","1,997","-2,172"
"1067","3,598","5,598","-19,402","0,044","1,997","-2,172"
"1067","3,598","5,598","-19,402","-1,956","0,997","-0,172"
"1067","5,598","5,598","-24,402","-1,956","0,997","-0,172"
"1067","5,598","5,598","-24,402","-1,956","-0,003","-2,172"
"1067","9,598","3,598","-17,402","-1,956","-0,003","-2,172"
"1067","9,598","3,598","-17,402","1,044","1,997","0,828"
"1068","3,598","5,598","-23,402","1,044","1,997","0,828"
"1068","3,598","5,598","-23,402","-0,956","0,997","1,828"
"1068","5,598","5,598","-24,402","-0,956","0,997","1,828"
"1068","5,598","5,598","-24,402","0,044","-1,003","-1,172"
"1068","7,598","5,598","-22,402","0,044","-1,003","-1,172"
"1068","7,598","5,598","-22,402","-0,956","-0,003","0,828"
"1068","5,598","6,598","-20,402","-0,956","-0,003","0,828"
"1068","5,598","6,598","-20,402","1,044","-1,003","-0,172"
"1068","4,598","6,598","-24,402","1,044","-1,003","-0,172"
"1068","4,598","6,598","-24,402","1,044","-0,003","-0,172"
"1068","3,598","8,598","-28,402","1,044","-0,003","-0,172"
"1068","3,598","8,598","-28,402","0,044","2,997","-0,172"
"1068","7,598","6,598","-24,402","0,044","2,997","-0,172"
"1068","7,598","6,598","-24,402","1,044","-2,003","0,828"
"1068","5,598","5,598","-26,402","1,044","-2,003","0,828"
"1068","5,598","5,598","-26,402","1,044","-0,003","-0,172"
"1068","4,598","5,598","-23,402","1,044","-0,003","-0,172"
"1068","4,598","5,598","-23,402","0,044","0,997","0,828"
"1068","7,598","5,598","-24,402","0,044","0,997","0,828"
"1068","7,598","5,598","-24,402","-1,956","-0,003","0,828"
"1068","5,598","6,598","-26,402","-1,956","-0,003","0,828"
"1068","5,598","6,598","-26,402","4,044","1,997","0,828"
"1068","4,598","10,598","-24,402","4,044","1,997","0,828"
"1069","4,598","10,598","-24,402","-0,956","-0,003","2,828"
"1069","7,598","7,598","-20,402","-0,956","-0,003","2,828"
"1069","7,598","7,598","-20,402","0,044","-0,003","0,828"
"1069","5,598","5,598","-23,402","0,044","-0,003","0,828"
"1069","5,598","5,598","-23,402","0,044","-0,003","-1,172"
"1069","5,598","5,598","-24,402","0,044","-0,003","-1,172"
"1069","5,598","5,598","-24,402","1,044","-1,003","-0,172"
"1069","4,598","5,598","-23,402","1,044","-1,003","-0,172"
"1069","4,598","5,598","-23,402","-1,956","0,997","-0,172"
"1069","4,598","5,598","-22,402","-1,956","0,997","-0,172"
"1069","4,598","5,598","-22,402","1,044","-0,003","-0,172"
"1069","8,598","5,598","-22,402","1,044","-0,003","-0,172"
"1069","8,598","5,598","-22,402","-0,956","-0,003","0,828"
"1069","5,598","6,598","-25,402","-0,956","-0,003","0,828"
"1069","5,598","6,598","-25,402","2,044","-0,003","0,828"
"1069","4,598","6,598","-15,402","2,044","-0,003","0,828"
"1069","4,598","6,598","-15,402","3,044","2,997","0,828"
"1069","6,598","5,598","-23,402","3,044","2,997","0,828"
"1069","6,598","5,598","-23,402","1,044","1,997","-0,172"
"1069","3,598","7,598","-30,402","1,044","1,997","-0,172"
"1069","3,598","7,598","-30,402","0,044","-2,003","-0,172"
"1069","8,598","5,598","-25,402","0,044","-2,003","-0,172"
"1069","8,598","5,598","-25,402","3,044","-1,003","-2,172"
"1070","0,598","7,598","-23,402","3,044","-1,003","-2,172"
"1070","0,598","7,598","-23,402","3,044","0,997","1,828"
"1070","8,598","5,598","-22,402","3,044","0,997","1,828"
"1070","8,598","5,598","-22,402","-0,956","-4,003","1,828"
"1070","5,598","5,598","-24,402","-0,956","-4,003","1,828"
"1070","5,598","5,598","-24,402","-1,956","-0,003","-1,172"
"1070","2,598","9,598","-34,402","-1,956","-0,003","-1,172"
"1070","2,598","9,598","-34,402","1,044","-0,003","1,828"
"1070","7,598","8,598","-20,402","1,044","-0,003","1,828"
"1070","7,598","8,598","-20,402","1,044","1,997","0,828"
"1070","9,598","5,598","-18,402","1,044","1,997","0,828"
"1070","9,598","5,598","-18,402","-0,956","-2,003","2,828"
"1070","5,598","5,598","-22,402","-0,956","-2,003","2,828"
"1070","5,598","5,598","-22,402","-1,956","-1,003","-0,172"
"1070","8,598","7,598","-28,402","-1,956","-1,003","-0,172"
"1070","8,598","7,598","-28,402","0,044","-1,003","1,828"
"1070","0,598","6,598","-28,402","0,044","-1,003","1,828"
"1070","0,598","6,598","-28,402","-0,956","-1,003","0,828"
"1070","7,598","6,598","-22,402","-0,956","-1,003","0,828"
"1070","7,598","6,598","-22,402","0,044","1,997","-1,172"
"1070","6,598","6,598","-22,402","0,044","1,997","-1,172"
"1070","6,598","6,598","-22,402","0,044","0,997","1,828"
"1070","4,598","6,598","-18,402","0,044","0,997","1,828"
"1071","4,598","6,598","-18,402","-0,956","-2,003","-0,172"
"1071","7,598","5,598","-25,402","-0,956","-2,003","-0,172"
"1071","7,598","5,598","-25,402","2,044","0,997","0,828"
"1071","5,598","5,598","-23,402","2,044","0,997","0,828"
"1071","5,598","5,598","-23,402","0,044","-1,003","-0,172"
"1071","5,598","8,598","-20,402","0,044","-1,003","-0,172"
"1071","5,598","8,598","-20,402","-1,956","-1,003","-0,172"
"1071","8,598","6,598","-23,402","-1,956","-1,003","-0,172"
"1071","8,598","6,598","-23,402","0,044","0,997","-1,172"
"1071","8,598","5,598","-23,402","0,044","0,997","-1,172"
"1071","8,598","5,598","-23,402","0,044","0,997","-1,172"
"1071","8,598","5,598","-23,402","0,044","0,997","-1,172"
"1071","8,598","5,598","-23,402","0,044","3,997","-1,172"
"1071","4,598","6,598","-26,402","0,044","3,997","-1,172"
"1071","4,598","6,598","-26,402","0,044","-0,003","-1,172"
"1071","4,598","5,598","-26,402","0,044","-0,003","-1,172"
"1071","4,598","5,598","-26,402","0,044","1,997","0,828"
"1071","10,598","4,598","-14,402","0,044","1,997","0,828"
"1071","10,598","4,598","-14,402","0,044","-1,003","-1,172"
"1071","3,598","7,598","-27,402","0,044","-1,003","-1,172"
"1071","3,598","7,598","-27,402","0,044","0,997","0,828"
"1072","1,598","8,598","-26,402","0,044","0,997","0,828"
"1072","1,598","8,598","-26,402","-0,956","-0,003","1,828"
"1072","9,598","5,598","-23,402","-0,956","-0,003","1,828"
"1072","9,598","5,598","-23,402","2,044","-0,003","1,828"
"1072","1,598","6,598","-29,402","2,044","-0,003","1,828"
"1072","1,598","6,598","-29,402","1,044","0,997","0,828"
"1072","1,598","9,598","-22,402","1,044","0,997","0,828"
"1072","1,598","9,598","-22,402","1,044","-1,003","2,828"
"1072","5,598","5,598","-25,402","1,044","-1,003","2,828"
"1072","5,598","5,598","-25,402","-0,956","-1,003","-3,172"
"1072","4,598","6,598","-27,402","-0,956","-1,003","-3,172"
"1072","4,598","6,598","-27,402","-1,956","0,997","-1,172"
"1072","9,598","5,598","-23,402","-1,956","0,997","-1,172"
"1072","9,598","5,598","-23,402","4,044","-1,003","-0,172"
"1072","5,598","7,598","-21,402","4,044","-1,003","-0,172"
"1072","5,598","7,598","-21,402","3,044","-1,003","-2,172"
"1072","7,598","5,598","-15,402","3,044","-1,003","-2,172"
"1072","7,598","5,598","-15,402","2,044","-0,003","-1,172"
"1072","6,598","6,598","-22,402","2,044","-0,003","-1,172"
"1072","6,598","6,598","-22,402","0,044","0,997","-2,172"
"1072","5,598","9,598","-23,402","0,044","0,997","-2,172"
"1072","5,598","9,598","-23,402","0,044","1,997","0,828"
"1072","10,598","8,598","-17,402","0,044","1,997","0,828"
"1073","10,598","8,598","-17,402","1,044","0,997","-0,172"
"1073","5,598","6,598","-23,402","1,044","0,997","-0,172"
"1073","5,598","6,598","-23,402","-0,956","-0,003","-0,172"
"1073","9,598","3,598","-20,402","-0,956","-0,003","-0,172"
"1073","9,598","3,598","-20,402","-1,956","-0,003","-1,172"
"1073","10,598","11,598","-23,402","-1,956","-0,003","-1,172"
"1073","10,598","11,598","-23,402","3,044","-1,003","-2,172"
"1073","0,598","7,598","-29,402","3,044","-1,003","-2,172"
"1073","0,598","7,598","-29,402","2,044","0,997","-2,172"
"1073","9,598","2,598","-21,402","2,044","0,997","-2,172"
"1073","9,598","2,598","-21,402","-4,956","-0,003","-0,172"
"1073","12,598","6,598","-22,402","-4,956","-0,003","-0,172"
"1073","12,598","6,598","-22,402","0,044","-1,003","-1,172"
"1073","-0,402","8,598","-27,402","0,044","-1,003","-1,172"
"1073","-0,402","8,598","-27,402","2,044","-0,003","-1,172"
"1073","5,598","8,598","-20,402","2,044","-0,003","-1,172"
"1073","5,598","8,598","-20,402","1,044","1,997","-1,172"
"1073","6,598","6,598","-22,402","1,044","1,997","-1,172"
"1073","6,598","6,598","-22,402","1,044","0,997","3,828"
"1073","5,598","7,598","-25,402","1,044","0,997","3,828"
"1073","5,598","7,598","-25,402","1,044","-3,003","-2,172"
"1073","4,598","6,598","-26,402","1,044","-3,003","-2,172"
"1074","4,598","6,598","-26,402","0,044","1,997","-1,172"
"1074","6,598","7,598","-18,402","0,044","1,997","-1,172"
"1074","6,598","7,598","-18,402","-2,956","0,997","-0,172"
"1074","5,598","5,598","-21,402","-2,956","0,997","-0,172"
"1074","5,598","5,598","-21,402","-2,956","0,997","-1,172"
"1074","4,598","9,598","-26,402","-2,956","0,997","-1,172"
"1074","4,598","9,598","-26,402","0,044","1,997","1,828"
"1074","8,598","11,598","-24,402","0,044","1,997","1,828"
"1074","8,598","11,598","-24,402","0,044","-1,003","-1,172"
"1074","12,598","5,598","-19,402","0,044","-1,003","-1,172"
"1074","12,598","5,598","-19,402","0,044","1,997","-3,172"
"1074","4,598","6,598","-22,402","0,044","1,997","-3,172"
"1074","4,598","6,598","-22,402","0,044","1,997","-1,172"
"1074","11,598","7,598","-15,402","0,044","1,997","-1,172"
"1074","11,598","7,598","-15,402","3,044","-1,003","-1,172"
"1074","10,598","4,598","-20,402","3,044","-1,003","-1,172"
"1074","10,598","4,598","-20,402","2,044","0,997","0,828"
"1074","0,598","5,598","-29,402","2,044","0,997","0,828"
"1074","0,598","5,598","-29,402","0,044","1,997","-0,172"
"1074","11,598","8,598","-20,402","0,044","1,997","-0,172"
"1074","11,598","8,598","-20,402","3,044","0,997","0,828"
"1074","6,598","6,598","-22,402","3,044","0,997","0,828"
"1075","6,598","6,598","-22,402","-0,956","0,997","-0,172"
"1075","-0,402","6,598","-26,402","-0,956","0,997","-0,172"
"1075","-0,402","6,598","-26,402","-3,956","-1,003","-1,172"
"1075","7,598","8,598","-19,402","-3,956","-1,003","-1,172"
"1075","7,598","8,598","-19,402","-0,956","-0,003","-1,172"
"1075","4,598","6,598","-26,402","-0,956","-0,003","-1,172"
"1075","4,598","6,598","-26,402","0,044","2,997","-1,172"
"1075","1,598","6,598","-26,402","0,044","2,997","-1,172"
"1075","1,598","6,598","-26,402","2,044","-2,003","-0,172"
"1075","13,598","5,598","-14,402","2,044","-2,003","-0,172"
"1075","13,598","5,598","-14,402","0,044","0,997","-2,172"
"1075","-1,402","6,598","-28,402","0,044","0,997","-2,172"
"1075","-1,402","6,598","-28,402","-0,956","-0,003","-2,172"
"1075","11,598","8,598","-22,402","-0,956","-0,003","-2,172"
"1075","11,598","8,598","-22,402","1,044","-3,003","-2,172"
"1075","10,598","3,598","-19,402","1,044","-3,003","-2,172"
"1076","10,598","3,598","-19,402","-0,956","-0,003","-1,172"
"1076","0,598","6,598","-25,402","-0,956","-0,003","-1,172"
"1076","0,598","6,598","-25,402","1,044","-0,003","-0,172"
"1076","11,598","5,598","-18,402","1,044","-0,003","-0,172"
"1076","11,598","5,598","-18,402","1,044","-1,003","-2,172"
"1076","5,598","8,598","-24,402","1,044","-1,003","-2,172"
"1076","5,598","8,598","-24,402","-0,956","1,997","0,828"
"1076","6,598","5,598","-26,402","-0,956","1,997","0,828"
"1076","6,598","5,598","-26,402","-1,956","0,997","0,828"
"1076","4,598","5,598","-21,402","-1,956","0,997","0,828"
"1076","4,598","5,598","-21,402","0,044","0,997","-0,172"
"1076","7,598","7,598","-21,402","0,044","0,997","-0,172"
"1076","7,598","7,598","-21,402","0,044","0,997","-0,172"
"1076","5,598","5,598","-23,402","0,044","0,997","-0,172"
"1076","5,598","5,598","-23,402","2,044","-2,003","-3,172"
"1076","5,598","5,598","-22,402","2,044","-2,003","-3,172"
"1076","5,598","5,598","-22,402","0,044","0,997","-0,172"
"1076","3,598","4,598","-24,402","0,044","0,997","-0,172"
"1077","3,598","4,598","-24,402","2,044","-0,003","0,828"
"1077","1,598","6,598","-22,402","2,044","-0,003","0,828"
"1077","1,598","6,598","-22,402","1,044","2,997","-1,172"
"1077","6,598","6,598","-19,402","1,044","2,997","-1,172"
"1077","6,598","6,598","-19,402","-1,956","4,997","-0,172"
"1077","5,598","5,598","-24,402","-1,956","4,997","-0,172"
"1077","5,598","5,598","-24,402","-0,956","2,997","-3,172"
"1077","5,598","7,598","-27,402","-0,956","2,997","-3,172"
"1077","5,598","7,598","-27,402","2,044","-3,003","0,828"
"1077","7,598","5,598","-22,402","2,044","-3,003","0,828"
"1077","7,598","5,598","-22,402","-0,956","-3,003","-0,172"
"1077","5,598","6,598","-18,402","-0,956","-3,003","-0,172"
"1077","5,598","6,598","-18,402","-1,956","-0,003","-2,172"
"1077","5,598","7,598","-26,402","-1,956","-0,003","-2,172"
"1077","5,598","7,598","-26,402","1,044","-2,003","-0,172"
"1077","5,598","4,598","-22,402","1,044","-2,003","-0,172"
"1077","5,598","4,598","-22,402","0,044","-3,003","1,828"
"1077","7,598","5,598","-25,402","0,044","-3,003","1,828"
"1077","7,598","5,598","-25,402","-0,956","-3,003","-0,172"
"1077","5,598","8,598","-26,402","-0,956","-3,003","-0,172"
"1078","5,598","8,598","-26,402","0,044","-1,003","-0,172"
"1078","1,598","8,598","-25,402","0,044","-1,003","-0,172"
"1078","1,598","8,598","-25,402","2,044","1,997","-3,172"
"1078","9,598","5,598","-23,402","2,044","1,997","-3,172"
"1078","9,598","5,598","-23,402","-0,956","0,997","1,828"
"1078","5,598","3,598","-28,402","-0,956","0,997","1,828"
"1078","5,598","3,598","-28,402","0,044","-0,003","-0,172"
"1078","3,598","11,598","-21,402","0,044","-0,003","-0,172"
"1078","3,598","11,598","-21,402","-1,956","-0,003","0,828"
"1078","5,598","10,598","-25,402","-1,956","-0,003","0,828"
"1078","5,598","10,598","-25,402","-1,956","-1,003","-0,172"
"1078","4,598","5,598","-32,402","-1,956","-1,003","-0,172"
"1078","4,598","5,598","-32,402","-0,956","-1,003","-1,172"
"1078","10,598","5,598","-19,402","-0,956","-1,003","-1,172"
"1078","10,598","5,598","-19,402","-0,956","-5,003","0,828"
"1078","5,598","9,598","-20,402","-0,956","-5,003","0,828"
"1078","5,598","9,598","-20,402","2,044","0,997","-0,172"
"1078","3,598","9,598","-29,402","2,044","0,997","-0,172"
"1078","3,598","9,598","-29,402","0,044","-2,003","1,828"
"1078","13,598","4,598","-19,402","0,044","-2,003","1,828"
"1078","13,598","4,598","-19,402","-4,956","-0,003","-0,172"
"1078","12,598","7,598","-17,402","-4,956","-0,003","-0,172"
"1079","12,598","7,598","-17,402","-1,956","-1,003","1,828"
"1079","0,598","8,598","-26,402","-1,956","-1,003","1,828"
"1079","0,598","8,598","-26,402","2,044","-2,003","-0,172"
"1079","10,598","7,598","-22,402","2,044","-2,003","-0,172"
"1079","10,598","7,598","-22,402","2,044","0,997","0,828"
"1079","14,598","5,598","-24,402","2,044","0,997","0,828"
"1079","14,598","5,598","-24,402","-0,956","-1,003","1,828"
"1079","0,598","6,598","-28,402","-0,956","-1,003","1,828"
"1079","0,598","6,598","-28,402","0,044","-2,003","-1,172"
"1079","8,598","9,598","-19,402","0,044","-2,003","-1,172"
"1079","8,598","9,598","-19,402","3,044","-2,003","0,828"
"1079","7,598","8,598","-26,402","3,044","-2,003","0,828"
"1079","7,598","8,598","-26,402","2,044","-2,003","0,828"
"1079","2,598","5,598","-23,402","2,044","-2,003","0,828"
"1079","2,598","5,598","-23,402","-0,956","-2,003","-0,172"
"1079","8,598","6,598","-20,402","-0,956","-2,003","-0,172"
"1079","8,598","6,598","-20,402","3,044","-0,003","-1,172"
"1079","-0,402","10,598","-30,402","3,044","-0,003","-1,172"
"1079","-0,402","10,598","-30,402","1,044","0,997","-0,172"
"1079","0,598","5,598","-29,402","1,044","0,997","-0,172"
"1080","0,598","5,598","-29,402","0,044","-4,003","-1,172"
"1080","11,598","5,598","-20,402","0,044","-4,003","-1,172"
"1080","11,598","5,598","-20,402","1,044","-2,003","-1,172"
"1080","1,598","7,598","-25,402","1,044","-2,003","-1,172"
"1080","1,598","7,598","-25,402","1,044","-1,003","0,828"
"1080","2,598","6,598","-26,402","1,044","-1,003","0,828"
"1080","2,598","6,598","-26,402","1,044","-3,003","1,828"
"1080","5,598","4,598","-22,402","1,044","-3,003","1,828"
"1080","5,598","4,598","-22,402","0,044","-1,003","-0,172"
"1080","8,598","5,598","-22,402","0,044","-1,003","-0,172"
"1080","8,598","5,598","-22,402","1,044","-2,003","2,828"
"1080","6,598","7,598","-23,402","1,044","-2,003","2,828"
"1080","6,598","7,598","-23,402","2,044","0,997","-0,172"
"1080","7,598","5,598","-23,402","2,044","0,997","-0,172"
"1080","7,598","5,598","-23,402","-0,956","-0,003","-0,172"
"1080","8,598","7,598","-22,402","-0,956","-0,003","-0,172"
"1080","8,598","7,598","-22,402","0,044","-2,003","0,828"
"1080","0,598","6,598","-22,402","0,044","-2,003","0,828"
"1080","0,598","6,598","-22,402","4,044","2,997","0,828"
"1080","5,598","5,598","-25,402","4,044","2,997","0,828"
"1080","5,598","5,598","-25,402","1,044","0,997","-0,172"
"1080","5,598","6,598","-22,402","1,044","0,997","-0,172"
"1081","5,598","6,598","-22,402","2,044","-2,003","-1,172"
"1081","3,598","5,598","-27,402","2,044","-2,003","-1,172"
"1081","3,598","5,598","-27,402","1,044","-0,003","-2,172"
"1081","10,598","6,598","-18,402","1,044","-0,003","-2,172"
"1081","10,598","6,598","-18,402","4,044","-5,003","-1,172"
"1081","9,598","5,598","-18,402","4,044","-5,003","-1,172"
"1081","9,598","5,598","-18,402","1,044","1,997","0,828"
"1081","1,598","5,598","-29,402","1,044","1,997","0,828"
"1081","1,598","5,598","-29,402","-0,956","0,997","1,828"
"1081","10,598","5,598","-22,402","-0,956","0,997","1,828"
"1081","10,598","5,598","-22,402","1,044","-1,003","0,828"
"1081","11,598","5,598","-13,402","1,044","-1,003","0,828"
"1081","11,598","5,598","-13,402","2,044","1,997","-0,172"
"1081","-2,402","4,598","-24,402","2,044","1,997","-0,172"
"1081","-2,402","4,598","-24,402","-0,956","-1,003","1,828"
"1081","11,598","5,598","-21,402","-0,956","-1,003","1,828"
"1081","11,598","5,598","-21,402","-0,956","-1,003","1,828"
"1081","8,598","5,598","-22,402","-0,956","-1,003","1,828"
"1081","8,598","5,598","-22,402","1,044","0,997","-0,172"
"1081","1,598","7,598","-27,402","1,044","0,997","-0,172"
"1081","1,598","7,598","-27,402","1,044","-2,003","0,828"
"1082","9,598","6,598","-17,402","1,044","-2,003","0,828"
"1082","9,598","6,598","-17,402","-2,956","-2,003","-1,172"
"1082","2,598","5,598","-22,402","-2,956","-2,003","-1,172"
"1082","2,598","5,598","-22,402","-1,956","-0,003","-1,172"
"1082","5,598","8,598","-27,402","-1,956","-0,003","-1,172"
"1082","5,598","8,598","-27,402","0,044","0,997","0,828"
"1082","9,598","6,598","-18,402","0,044","0,997","0,828"
"1082","9,598","6,598","-18,402","1,044","2,997","1,828"
"1082","4,598","8,598","-22,402","1,044","2,997","1,828"
"1082","4,598","8,598","-22,402","3,044","-2,003","-1,172"
"1082","5,598","8,598","-23,402","3,044","-2,003","-1,172"
"1082","5,598","8,598","-23,402","-0,956","-1,003","-0,172"
"1082","5,598","5,598","-19,402","-0,956","-1,003","-0,172"
"1082","5,598","5,598","-19,402","1,044","-0,003","-0,172"
"1082","9,598","4,598","-19,402","1,044","-0,003","-0,172"
"1082","9,598","4,598","-19,402","0,044","-2,003","-1,172"
"1082","5,598","6,598","-27,402","0,044","-2,003","-1,172"
"1082","5,598","6,598","-27,402","-0,956","2,997","-0,172"
"1082","2,598","6,598","-25,402","-0,956","2,997","-0,172"
"1082","2,598","6,598","-25,402","0,044","-0,003","0,828"
"1083","7,598","5,598","-22,402","0,044","-0,003","0,828"
"1083","7,598","5,598","-22,402","-3,956","-1,003","-0,172"
"1083","3,598","4,598","-24,402","-3,956","-1,003","-0,172"
"1083","3,598","4,598","-24,402","0,044","-1,003","-0,172"
"1083","5,598","6,598","-25,402","0,044","-1,003","-0,172"
"1083","5,598","6,598","-25,402","1,044","1,997","-1,172"
"1083","8,598","7,598","-21,402","1,044","1,997","-1,172"
"1083","8,598","7,598","-21,402","1,044","0,997","0,828"
"1083","1,598","5,598","-26,402","1,044","0,997","0,828"
"1083","1,598","5,598","-26,402","-1,956","-0,003","-0,172"
"1083","6,598","5,598","-27,402","-1,956","-0,003","-0,172"
"1083","6,598","5,598","-27,402","-0,956","-0,003","0,828"
"1083","5,598","7,598","-25,402","-0,956","-0,003","0,828"
"1083","5,598","7,598","-25,402","2,044","-2,003","0,828"
"1083","7,598","6,598","-21,402","2,044","-2,003","0,828"
"1083","7,598","6,598","-21,402","-1,956","-0,003","-0,172"
"1083","0,598","7,598","-27,402","-1,956","-0,003","-0,172"
"1083","0,598","7,598","-27,402","-2,956","-1,003","-0,172"
"1083","8,598","6,598","-20,402","-2,956","-1,003","-0,172"
"1083","8,598","6,598","-20,402","-0,956","-1,003","1,828"
"1083","5,598","7,598","-24,402","-0,956","-1,003","1,828"
"1084","5,598","7,598","-24,402","0,044","-1,003","0,828"
"1084","10,598","6,598","-20,402","0,044","-1,003","0,828"
"1084","10,598","6,598","-20,402","-0,956","-3,003","-2,172"
"1084","9,598","7,598","-23,402","-0,956","-3,003","-2,172"
"1084","9,598","7,598","-23,402","2,044","1,997","-1,172"
"1084","6,598","8,598","-22,402","2,044","1,997","-1,172"
"1084","6,598","8,598","-22,402","1,044","-1,003","-1,172"
"1084","5,598","8,598","-18,402","1,044","-1,003","-1,172"
"1084","5,598","8,598","-18,402","-1,956","0,997","0,828"
"1084","6,598","6,598","-24,402","-1,956","0,997","0,828"
"1084","6,598","6,598","-24,402","-1,956","0,997","0,828"
"1084","3,598","5,598","-25,402","-1,956","0,997","0,828"
"1084","3,598","5,598","-25,402","2,044","-0,003","1,828"
"1084","5,598","5,598","-22,402","2,044","-0,003","1,828"
"1084","5,598","5,598","-22,402","2,044","-0,003","1,828"
"1084","3,598","7,598","-25,402","2,044","-0,003","1,828"
"1084","3,598","7,598","-25,402","-0,956","1,997","-1,172"
"1084","-5,402","4,598","-30,402","-0,956","1,997","-1,172"
"1084","-5,402","4,598","-30,402","1,044","0,997","1,828"
"1084","-2,402","5,598","-31,402","1,044","0,997","1,828"
"1085","-2,402","5,598","-31,402","1,044","0,997","1,828"
"1085","4,598","7,598","-24,402","1,044","0,997","1,828"
"1085","4,598","7,598","-24,402","0,044","-2,003","-0,172"
"1085","5,598","8,598","-21,402","0,044","-2,003","-0,172"
"1085","5,598","8,598","-21,402","-0,956","-2,003","-0,172"
"1085","4,598","6,598","-30,402","-0,956","-2,003","-0,172"
"1085","4,598","6,598","-30,402","-3,956","0,997","0,828"
"1085","5,598","5,598","-25,402","-3,956","0,997","0,828"
"1085","5,598","5,598","-25,402","-4,956","1,997","-0,172"
"1085","12,598","9,598","-20,402","-4,956","1,997","-0,172"
"1085","12,598","9,598","-20,402","-4,956","1,997","-0,172"
"1085","15,598","12,598","-20,402","-4,956","1,997","-0,172"
"1085","15,598","12,598","-20,402","2,044","-1,003","-0,172"
"1085","13,598","6,598","-24,402","2,044","-1,003","-0,172"
"1085","13,598","6,598","-24,402","-0,956","-0,003","-0,172"
"1085","10,598","4,598","-23,402","-0,956","-0,003","-0,172"
"1085","10,598","4,598","-23,402","-0,956","-0,003","-0,172"
"1085","18,598","6,598","-21,402","-0,956","-0,003","-0,172"
"1085","18,598","6,598","-21,402","-1,956","1,997","2,828"
"1086","18,598","6,598","-21,402","-1,956","1,997","2,828"
"1086","18,598","6,598","-21,402","-0,956","-0,003","-1,172"
"1086","13,598","4,598","-12,402","-0,956","-0,003","-1,172"
"1086","13,598","4,598","-12,402","-1,956","2,997","0,828"
"1086","-15,402","3,598","-30,402","-1,956","2,997","0,828"
"1086","-15,402","3,598","-30,402","-2,956","5,997","-0,172"
"1086","-15,402","9,598","-30,402","-2,956","5,997","-0,172"
"1086","-15,402","9,598","-30,402","-2,956","5,997","-0,172"
"1086","0,598","11,598","-17,402","-2,956","5,997","-0,172"
"1086","0,598","11,598","-17,402","-0,956","1,997","-0,172"
"1086","0,598","11,598","-17,402","-0,956","1,997","-0,172"
"1086","0,598","11,598","-17,402","7,044","-0,003","-0,172"
"1086","-9,402","7,598","-23,402","7,044","-0,003","-0,172"
"1086","-9,402","7,598","-23,402","0,044","-2,003","-1,172"
"1086","-8,402","8,598","-36,402","0,044","-2,003","-1,172"
"1086","-8,402","8,598","-36,402","-3,956","-1,003","1,828"
"1086","-0,402","10,598","-22,402","-3,956","-1,003","1,828"
"1086","-0,402","10,598","-22,402","-1,956","-2,003","-2,172"
"1086","11,598","10,598","-21,402","-1,956","-2,003","-2,172"
"1086","11,598","10,598","-21,402","1,044","-4,003","-1,172"
"1086","11,598","10,598","-21,402","1,044","-4,003","-1,172"
"1087","11,598","10,598","-21,402","2,044","-4,003","-1,172"
"1087","19,598","1,598","-22,402","2,044","-4,003","-1,172"
"1087","19,598","1,598","-22,402","-1,956","-2,003","1,828"
"1087","42,598","7,598","-17,402","-1,956","-2,003","1,828"
"1087","42,598","7,598","-17,402","-0,956","-6,003","1,828"
"1087","32,598","14,598","-22,402","-0,956","-6,003","1,828"
"1087","32,598","14,598","-22,402","1,044","-6,003","-0,172"
"1087","36,598","7,598","-13,402","1,044","-6,003","-0,172"
"1087","36,598","7,598","-13,402","3,044","-1,003","-2,172"
"1087","36,598","7,598","-13,402","3,044","-1,003","-2,172"
"1087","36,598","7,598","-13,402","-0,956","1,997","-2,172"
"1087","16,598","-2,402","-23,402","-0,956","1,997","-2,172"
"1087","16,598","-2,402","-23,402","-4,956","6,997","-2,172"
"1087","5,598","8,598","-26,402","-4,956","6,997","-2,172"
"1087","5,598","8,598","-26,402","-4,956","5,997","-3,172"
"1087","-11,402","15,598","-27,402","-4,956","5,997","-3,172"
"1087","-11,402","15,598","-27,402","4,044","8,997","-4,172"
"1087","0,598","-2,402","-19,402","4,044","8,997","-4,172"
"1087","0,598","-2,402","-19,402","5,044","9,997","-2,172"
"1087","0,598","-2,402","-19,402","5,044","9,997","-2,172"
"1087","0,598","-2,402","-19,402","-2,956","3,997","-2,172"
"1087","-12,402","11,598","-27,402","-2,956","3,997","-2,172"
"1088","-12,402","11,598","-27,402","-1,956","3,997","-3,172"
"1088","-19,402","4,598","-28,402","-1,956","3,997","-3,172"
"1088","-19,402","4,598","-28,402","4,044","4,997","-3,172"
"1088","-9,402","10,598","-27,402","4,044","4,997","-3,172"
"1088","-9,402","10,598","-27,402","2,044","0,997","-3,172"
"1088","-10,402","22,598","-28,402","2,044","0,997","-3,172"
"1088","-10,402","22,598","-28,402","0,044","1,997","-5,172"
"1088","-10,402","22,598","-28,402","0,044","1,997","-5,172"
"1088","-10,402","22,598","-28,402","5,044","-2,003","-5,172"
"1088","-0,402","4,598","-22,402","5,044","-2,003","-5,172"
"1088","-0,402","4,598","-22,402","2,044","-4,003","-6,172"
"1088","0,598","4,598","-25,402","2,044","-4,003","-6,172"
"1088","0,598","4,598","-25,402","-6,956","-1,003","-2,172"
"1088","-2,402","5,598","-28,402","-6,956","-1,003","-2,172"
"1088","-2,402","5,598","-28,402","-4,956","-4,003","-1,172"
"1088","18,598","-4,402","-19,402","-4,956","-4,003","-1,172"
"1088","18,598","-4,402","-19,402","2,044","-1,003","-3,172"
"1088","18,598","-4,402","-19,402","2,044","-1,003","-3,172"
"1088","18,598","-4,402","-19,402","-3,956","-10,003","1,828"
"1088","17,598","-9,402","-19,402","-3,956","-10,003","1,828"
"1089","17,598","-9,402","-19,402","-7,956","-10,003","2,828"
"1089","24,598","3,598","-21,402","-7,956","-10,003","2,828"
"1089","24,598","3,598","-21,402","0,044","-2,003","2,828"
"1089","20,598","-2,402","-22,402","0,044","-2,003","2,828"
"1089","20,598","-2,402","-22,402","5,044","-4,003","4,828"
"1089","23,598","-2,402","-17,402","5,044","-4,003","4,828"
"1089","23,598","-2,402","-17,402","1,044","-0,003","-0,172"
"1089","23,598","-2,402","-17,402","1,044","-0,003","-0,172"
"1089","23,598","-2,402","-17,402","1,044","-0,003","1,828"
"1089","5,598","16,598","-26,402","1,044","-0,003","1,828"
"1089","5,598","16,598","-26,402","5,044","1,997","2,828"
"1089","11,598","12,598","-20,402","5,044","1,997","2,828"
"1089","11,598","12,598","-20,402","7,044","1,997","2,828"
"1089","-1,402","15,598","-24,402","7,044","1,997","2,828"
"1089","-1,402","15,598","-24,402","1,044","3,997","1,828"
"1089","4,598","14,598","-27,402","1,044","3,997","1,828"
"1089","4,598","14,598","-27,402","-0,956","1,997","4,828"
"1089","4,598","14,598","-27,402","-0,956","1,997","4,828"
"1089","4,598","14,598","-27,402","3,044","-3,003","-0,172"
"1089","5,598","11,598","-22,402","3,044","-3,003","-0,172"
"1089","5,598","11,598","-22,402","-1,956","0,997","-1,172"
"1090","-7,402","19,598","-29,402","-1,956","0,997","-1,172"
"1090","-7,402","19,598","-29,402","-1,956","-1,003","1,828"
"1090","-12,402","-3,402","-29,402","-1,956","-1,003","1,828"
"1090","-12,402","-3,402","-29,402","0,044","5,997","-0,172"
"1090","6,598","-6,402","-20,402","0,044","5,997","-0,172"
"1090","6,598","-6,402","-20,402","-3,956","0,997","-1,172"
"1090","6,598","-6,402","-20,402","-3,956","0,997","-1,172"
"1090","6,598","-6,402","-20,402","-3,956","-3,003","-3,172"
"1090","-9,402","6,598","-33,402","-3,956","-3,003","-3,172"
"1090","-9,402","6,598","-33,402","2,044","-2,003","-3,172"
"1090","8,598","-4,402","-21,402","2,044","-2,003","-3,172"
"1090","8,598","-4,402","-21,402","6,044","-2,003","-0,172"
"1090","6,598","-1,402","-26,402","6,044","-2,003","-0,172"
"1090","6,598","-1,402","-26,402","-5,956","-0,003","0,828"
"1090","3,598","10,598","-26,402","-5,956","-0,003","0,828"
"1090","3,598","10,598","-26,402","-0,956","-2,003","-0,172"
"1090","3,598","10,598","-26,402","-0,956","-2,003","-0,172"
"1090","3,598","10,598","-26,402","2,044","-1,003","1,828"
"1090","10,598","-4,402","-22,402","2,044","-1,003","1,828"
"1090","10,598","-4,402","-22,402","0,044","-0,003","-0,172"
"1090","14,598","5,598","-21,402","0,044","-0,003","-0,172"
"1090","14,598","5,598","-21,402","-5,956","-2,003","1,828"
"1091","7,598","22,598","-23,402","-5,956","-2,003","1,828"
"1091","7,598","22,598","-23,402","5,044","-0,003","-0,172"
"1091","9,598","5,598","-20,402","5,044","-0,003","-0,172"
"1091","9,598","5,598","-20,402","5,044","0,997","-0,172"
"1091","9,598","5,598","-20,402","5,044","0,997","-0,172"
"1091","9,598","5,598","-20,402","-1,956","3,997","-0,172"
"1091","10,598","23,598","-22,402","-1,956","3,997","-0,172"
"1091","10,598","23,598","-22,402","-2,956","0,997","2,828"
"1091","5,598","19,598","-23,402","-2,956","0,997","2,828"
"1091","5,598","19,598","-23,402","4,044","1,997","-1,172"
"1091","-0,402","3,598","-32,402","4,044","1,997","-1,172"
"1091","-0,402","3,598","-32,402","6,044","0,997","-0,172"
"1091","2,598","-3,402","-22,402","6,044","0,997","-0,172"
"1091","2,598","-3,402","-22,402","-9,956","2,997","1,828"
"1091","2,598","-3,402","-22,402","-9,956","2,997","1,828"
"1091","2,598","-3,402","-22,402","-6,956","0,997","-0,172"
"1091","-0,402","10,598","-30,402","-6,956","0,997","-0,172"
"1091","-0,402","10,598","-30,402","5,044","-1,003","-3,172"
"1091","1,598","-3,402","-22,402","5,044","-1,003","-3,172"
"1091","1,598","-3,402","-22,402","3,044","-0,003","-0,172"
"1091","5,598","6,598","-24,402","3,044","-0,003","-0,172"
"1092","5,598","6,598","-24,402","-7,956","0,997","-1,172"
"1092","5,598","17,598","-24,402","-7,956","0,997","-1,172"
"1092","5,598","17,598","-24,402","-3,956","0,997","-1,172"
"1092","5,598","17,598","-24,402","-3,956","0,997","-1,172"
"1092","5,598","17,598","-24,402","7,044","-1,003","-2,172"
"1092","8,598","6,598","-23,402","7,044","-1,003","-2,172"
"1092","8,598","6,598","-23,402","1,044","0,997","0,828"
"1092","9,598","10,598","-26,402","1,044","0,997","0,828"
"1092","9,598","10,598","-26,402","-4,956","-2,003","3,828"
"1092","12,598","19,598","-22,402","-4,956","-2,003","3,828"
"1092","12,598","19,598","-22,402","2,044","-3,003","0,828"
"1092","6,598","12,598","-25,402","2,044","-3,003","0,828"
"1092","6,598","12,598","-25,402","4,044","-1,003","-2,172"
"1092","6,598","12,598","-25,402","4,044","-1,003","-2,172"
"1092","6,598","12,598","-25,402","-1,956","1,997","0,828"
"1093","10,598","11,598","-23,402","-1,956","1,997","0,828"
"1093","10,598","11,598","-23,402","-5,956","-1,003","-1,172"
"1093","5,598","17,598","-26,402","-5,956","-1,003","-1,172"
"1093","5,598","17,598","-26,402","2,044","-0,003","-0,172"
"1093","4,598","-0,402","-24,402","2,044","-0,003","-0,172"
"1093","4,598","-0,402","-24,402","3,044","-1,003","1,828"
"1093","4,598","2,598","-23,402","3,044","-1,003","1,828"
"1093","4,598","2,598","-23,402","-2,956","-0,003","0,828"
"1093","4,598","2,598","-23,402","-2,956","-0,003","0,828"
"1093","4,598","2,598","-23,402","-1,956","1,997","-2,172"
"1093","-1,402","15,598","-26,402","-1,956","1,997","-2,172"
"1093","-1,402","15,598","-26,402","1,044","-0,003","-0,172"
"1093","2,598","-2,402","-20,402","1,044","-0,003","-0,172"
"1093","2,598","-2,402","-20,402","2,044","-1,003","-0,172"
"1093","2,598","-2,402","-20,402","2,044","-1,003","-0,172"
"1093","2,598","-2,402","-20,402","-3,956","-1,003","1,828"
"1093","2,598","9,598","-24,402","-3,956","-1,003","1,828"
"1093","2,598","9,598","-24,402","-2,956","-1,003","0,828"
"1093","2,598","9,598","-24,402","-2,956","-1,003","0,828"
"1093","2,598","9,598","-24,402","1,044","-0,003","-1,172"
"1094","7,598","2,598","-21,402","1,044","-0,003","-1,172"
"1094","7,598","2,598","-21,402","-0,956","0,997","-0,172"
"1094","-0,402","4,598","-27,402","-0,956","0,997","-0,172"
"1094","-0,402","4,598","-27,402","-4,956","0,997","0,828"
"1094","-0,402","4,598","-27,402","-4,956","0,997","0,828"
"1094","-0,402","4,598","-27,402","4,044","-0,003","1,828"
"1094","10,598","5,598","-25,402","4,044","-0,003","1,828"
"1094","10,598","5,598","-25,402","4,044","-0,003","0,828"
"1094","10,598","5,598","-25,402","4,044","-0,003","0,828"
"1094","10,598","5,598","-25,402","-2,956","-0,003","-1,172"
"1094","9,598","6,598","-21,402","-2,956","-0,003","-1,172"
"1094","9,598","6,598","-21,402","-1,956","-3,003","-0,172"
"1094","6,598","11,598","-18,402","-1,956","-3,003","-0,172"
"1094","6,598","11,598","-18,402","4,044","-1,003","-0,172"
"1094","9,598","8,598","-26,402","4,044","-1,003","-0,172"
"1094","9,598","8,598","-26,402","0,044","-1,003","0,828"
"1094","4,598","4,598","-23,402","0,044","-1,003","0,828"
"1094","4,598","4,598","-23,402","-0,956","-0,003","0,828"
"1094","4,598","4,598","-23,402","-0,956","-0,003","0,828"
"1094","4,598","4,598","-23,402","-3,956","2,997","0,828"
"1094","3,598","8,598","-23,402","-3,956","2,997","0,828"
"1094","3,598","8,598","-23,402","0,044","-5,003","-1,172"
"1095","5,598","4,598","-23,402","0,044","-5,003","-1,172"
"1095","5,598","4,598","-23,402","-0,956","-0,003","-1,172"
"1095","6,598","3,598","-23,402","-0,956","-0,003","-1,172"
"1095","6,598","3,598","-23,402","-0,956","-1,003","-0,172"
"1095","5,598","6,598","-28,402","-0,956","-1,003","-0,172"
"1095","5,598","6,598","-28,402","2,044","1,997","-2,172"
"1095","5,598","6,598","-28,402","2,044","1,997","-2,172"
"1095","5,598","6,598","-28,402","0,044","-1,003","-2,172"
"1095","5,598","11,598","-25,402","0,044","-1,003","-2,172"
"1095","5,598","11,598","-25,402","-0,956","1,997","1,828"
"1095","2,598","13,598","-24,402","-0,956","1,997","1,828"
"1095","2,598","13,598","-24,402","1,044","-0,003","-0,172"
"1095","1,598","8,598","-26,402","1,044","-0,003","-0,172"
"1095","1,598","8,598","-26,402","-0,956","-0,003","-0,172"
"1095","0,598","3,598","-21,402","-0,956","-0,003","-0,172"
"1095","0,598","3,598","-21,402","-2,956","-1,003","-0,172"
"1095","13,598","-2,402","-18,402","-2,956","-1,003","-0,172"
"1095","13,598","-2,402","-18,402","-2,956","-3,003","-1,172"
"1095","4,598","27,598","-25,402","-2,956","-3,003","-1,172"
"1095","4,598","27,598","-25,402","8,044","1,997","0,828"
"1095","12,598","4,598","-20,402","8,044","1,997","0,828"
"1095","12,598","4,598","-20,402","-0,956","-5,003","-1,172"
"1095","3,598","-16,402","-17,402","-0,956","-5,003","-1,172"
"1095","3,598","-16,402","-17,402","-8,956","0,997","-1,172"
"1095","7,598","18,598","-27,402","-8,956","0,997","-1,172"
"1095","7,598","18,598","-27,402","3,044","-3,003","2,828"
"1095","11,598","13,598","-22,402","3,044","-3,003","2,828"
"1095","11,598","13,598","-22,402","12,044","-1,003","-1,172"
"1095","0,598","-0,402","-28,402","12,044","-1,003","-1,172"
"1095","0,598","-0,402","-28,402","-2,956","-0,003","0,828"
"1095","10,598","-0,402","-19,402","-2,956","-0,003","0,828"
"1095","10,598","-0,402","-19,402","-6,956","-0,003","3,828"
"1095","10,598","9,598","-20,402","-6,956","-0,003","3,828"
"1095","10,598","9,598","-20,402","4,044","-0,003","-1,172"
"1095","-0,402","7,598","-31,402","4,044","-0,003","-1,172"
"1095","-0,402","7,598","-31,402","2,044","0,997","0,828"
"1095","9,598","3,598","-22,402","2,044","0,997","0,828"
"1095","9,598","3,598","-22,402","-2,956","1,997","-0,172"
"1095","4,598","10,598","-22,402","-2,956","1,997","-0,172"
"1095","4,598","10,598","-22,402","-0,956","0,997","-3,172"
"1095","4,598","16,598","-29,402","-0,956","0,997","-3,172"
"1095","4,598","16,598","-29,402","3,044","0,997","0,828"
"1096","7,598","-16,402","-22,402","3,044","0,997","0,828"
"1096","7,598","-16,402","-22,402","-5,956","1,997","-0,172"
"1096","20,598","-15,402","-11,402","-5,956","1,997","-0,172"
"1096","20,598","-15,402","-11,402","-8,956","0,997","2,828"
"1096","-0,402","38,598","-32,402","-8,956","0,997","2,828"
"1096","-0,402","38,598","-32,402","18,044","1,997","1,828"
"1096","11,598","-26,402","-12,402","18,044","1,997","1,828"
"1096","11,598","-26,402","-12,402","-12,956","-2,003","-1,172"
"1096","5,598","-33,402","-17,402","-12,956","-2,003","-1,172"
"1096","5,598","-33,402","-17,402","-13,956","-1,003","4,828"
"1096","0,598","54,598","-31,402","-13,956","-1,003","4,828"
"1096","0,598","54,598","-31,402","24,044","-0,003","-0,172"
"1096","8,598","13,598","-26,402","24,044","-0,003","-0,172"
"1096","8,598","13,598","-26,402","12,044","-2,003","-0,172"
"1096","-8,402","-22,402","-23,402","12,044","-2,003","-0,172"
"1096","-8,402","-22,402","-23,402","-20,956","-2,003","2,828"
"1096","5,598","23,598","-26,402","-20,956","-2,003","2,828"
"1096","5,598","23,598","-26,402","1,044","-2,003","1,828"
"1096","11,598","19,598","-16,402","1,044","-2,003","1,828"
"1096","11,598","19,598","-16,402","16,044","0,997","-3,172"
"1096","-2,402","5,598","-27,402","16,044","0,997","-3,172"
"1097","-2,402","5,598","-27,402","-1,956","-5,003","0,828"
"1097","5,598","-5,402","-21,402","-1,956","-5,003","0,828"
"1097","5,598","-5,402","-21,402","-9,956","-1,003","3,828"
"1097","8,598","20,598","-19,402","-9,956","-1,003","3,828"
"1097","8,598","20,598","-19,402","3,044","-5,003","-1,172"
"1097","3,598","22,598","-30,402","3,044","-5,003","-1,172"
"1097","3,598","22,598","-30,402","5,044","-0,003","-1,172"
"1097","16,598","-8,402","-16,402","5,044","-0,003","-1,172"
"1097","16,598","-8,402","-16,402","-13,956","-3,003","4,828"
"1097","5,598","11,598","-29,402","-13,956","-3,003","4,828"
"1097","5,598","11,598","-29,402","-7,956","-2,003","-0,172"
"1097","0,598","43,598","-36,402","-7,956","-2,003","-0,172"
"1097","0,598","43,598","-36,402","18,044","3,997","-0,172"
"1097","15,598","4,598","-25,402","18,044","3,997","-0,172"
"1097","15,598","4,598","-25,402","-1,956","-1,003","-1,172"
"1097","6,598","-2,402","-21,402","-1,956","-1,003","-1,172"
"1097","6,598","-2,402","-21,402","-15,956","0,997","0,828"
"1097","6,598","37,598","-22,402","-15,956","0,997","0,828"
"1097","6,598","37,598","-22,402","11,044","-1,003","2,828"
"1097","-6,402","24,598","-29,402","11,044","-1,003","2,828"
"1097","-6,402","24,598","-29,402","11,044","1,997","0,828"
"1098","-7,402","-16,402","-30,402","11,044","1,997","0,828"
"1098","-7,402","-16,402","-30,402","-17,956","0,997","0,828"
"1098","-0,402","18,598","-20,402","-17,956","0,997","0,828"
"1098","-0,402","18,598","-20,402","-1,956","-0,003","1,828"
"1098","-1,402","29,598","-25,402","-1,956","-0,003","1,828"
"1098","-1,402","29,598","-25,402","13,044","-1,003","-1,172"
"1098","-11,402","12,598","-28,402","13,044","-1,003","-1,172"
"1098","-11,402","12,598","-28,402","0,044","-0,003","1,828"
"1098","8,598","-10,402","-15,402","0,044","-0,003","1,828"
"1098","8,598","-10,402","-15,402","-14,956","-3,003","0,828"
"1098","2,598","19,598","-26,402","-14,956","-3,003","0,828"
"1098","2,598","19,598","-26,402","5,044","-6,003","-0,172"
"1098","14,598","31,598","-17,402","5,044","-6,003","-0,172"
"1098","14,598","31,598","-17,402","16,044","-4,003","-0,172"
"1098","1,598","8,598","-26,402","16,044","-4,003","-0,172"
"1098","1,598","8,598","-26,402","-8,956","-3,003","1,828"
"1098","6,598","-5,402","-25,402","-8,956","-3,003","1,828"
"1098","6,598","-5,402","-25,402","-13,956","-6,003","1,828"
"1098","25,598","23,598","-13,402","-13,956","-6,003","1,828"
"1098","25,598","23,598","-13,402","8,044","-4,003","-0,172"
"1098","10,598","27,598","-26,402","8,044","-4,003","-0,172"
"1099","10,598","27,598","-26,402","8,044","-2,003","0,828"
"1099","8,598","-17,402","-19,402","8,044","-2,003","0,828"
"1099","8,598","-17,402","-19,402","-10,956","-0,003","2,828"
"1099","19,598","-0,402","-18,402","-10,956","-0,003","2,828"
"1099","19,598","-0,402","-18,402","-6,956","1,997","1,828"
"1099","7,598","25,598","-32,402","-6,956","1,997","1,828"
"1099","7,598","25,598","-32,402","11,044","-2,003","-2,172"
"1099","7,598","-7,402","-20,402","11,044","-2,003","-2,172"
"1099","7,598","-7,402","-20,402","2,044","-1,003","-2,172"
"1099","2,598","-10,402","-30,402","2,044","-1,003","-2,172"
"1099","2,598","-10,402","-30,402","-9,956","3,997","-0,172"
"1099","9,598","8,598","-16,402","-9,956","3,997","-0,172"
"1099","9,598","8,598","-16,402","4,044","1,997","1,828"
"1099","-3,402","25,598","-29,402","4,044","1,997","1,828"
"1099","-3,402","25,598","-29,402","12,044","4,997","-3,172"
"1099","-7,402","-7,402","-22,402","12,044","4,997","-3,172"
"1099","-7,402","-7,402","-22,402","-2,956","1,997","-0,172"
"1099","3,598","-9,402","-25,402","-2,956","1,997","-0,172"
"1099","3,598","-9,402","-25,402","-8,956","-0,003","1,828"
"1099","-12,402","15,598","-27,402","-8,956","-0,003","1,828"
"1100","-12,402","15,598","-27,402","7,044","1,997","-0,172"
"1100","-6,402","7,598","-30,402","7,044","1,997","-0,172"
"1100","-6,402","7,598","-30,402","6,044","-3,003","-0,172"
"1100","-1,402","-7,402","-19,402","6,044","-3,003","-0,172"
"1100","-1,402","-7,402","-19,402","-8,956","-5,003","1,828"
"1100","-0,402","-4,402","-20,402","-8,956","-5,003","1,828"
"1100","-0,402","-4,402","-20,402","-4,956","-6,003","3,828"
"1100","8,598","21,598","-25,402","-4,956","-6,003","3,828"
"1100","8,598","21,598","-25,402","11,044","-8,003","-0,172"
"1100","12,598","3,598","-21,402","11,044","-8,003","-0,172"
"1100","12,598","3,598","-21,402","3,044","-4,003","0,828"
"1100","8,598","-6,402","-24,402","3,044","-4,003","0,828"
"1100","8,598","-6,402","-24,402","-12,956","-5,003","2,828"
"1100","12,598","-1,402","-24,402","-12,956","-5,003","2,828"
"1100","12,598","-1,402","-24,402","-2,956","-4,003","-0,172"
"1100","20,598","15,598","-19,402","-2,956","-4,003","-0,172"
"1100","20,598","15,598","-19,402","10,044","-2,003","-1,172"
"1100","22,598","1,598","-19,402","10,044","-2,003","-1,172"
"1100","22,598","1,598","-19,402","-2,956","-3,003","-0,172"
"1101","17,598","-4,402","-21,402","-2,956","-3,003","-0,172"
"1101","17,598","-4,402","-21,402","-8,956","-0,003","2,828"
