Timer,AX,AY,AZ,GX,GY,GZ
"1007","7,99592725989089","1,08993597475682","-16,4307082656204","-4,01101376983785","-0,00896298769706004","-4,04387912684205"
"1011","8,15798919961377","1,17446310865767","-16,7034467747884","-2,39173649490601","1,69696122759296","4,00328233715631"
"1019","-2,5367350973616","15,3000522826961","-49,4554084583587","-2,87551664348189","1,21810444700463","2,35783871166794"
"1019","1,19345213623225","10,6461365168458","-39,6412171830844","-8,0231508012925","1,06472144720664","3,14615716526568"
"1027","12,7111608055914","-4,56021890656389","-24,8508456144014","-6,7627944427481","1,01496166799688","2,52533463975929"
"1031","9,15807445131809","-0,166308059174769","-27,6890186672912","-6,33659044928977","4,34900244384284","-0,811689342262454"
"1039","-9,47228878122541","14,9785274750865","-38,7992947546314","-6,19243848422597","3,43222816793524","-0,413631759075128"
"1039","-3,43028003739531","10,5700412224269","-35,9256672401691","-2,82014356831212","-0,215830086806572","-3,26202892492728"
"1048","19,3039541203886","-6,34110674448721","-5,90075375123148","-3,67952948251092","0,598911625368376","-2,62994614763773"
"1051","12,1338062966203","-1,35149173649316","-14,4519019128163","-0,646662057036187","0,863622155937716","2,23286128617897"
"1060","8,82296812684913","-3,69394328479916","-18,5767550649805","-1,62085266948603","0,94962691692678","1,56822020415264"
"1060","9,11958578159037","-2,24944268392688","-18,7374669244703","-6,93566139692749","-2,37262769503725","-0,27072365069836"
"1068","3,81994700086847","13,9588125180384","-42,843164441654","-5,73329377884812","-1,45203210641758","-0,153875730872461"
"1069","5,69404710378404","8,80251038752574","-35,626380221113","-6,98838506241632","2,19726813712021","-3,13726026618193"
"1080","-2,8455611754492","-4,76026688340055","-21,5653782880861","-6,41289567970643","1,3829300569443","-2,57002963759199"
"1081","0,340212519598677","-0,976604326944061","-24,6086867167626","-1,23294001612027","-2,23184699774981","-2,29761732781151"
"1089","18,8925408927391","5,20923690402838","-23,7464523223862","-2,48091910332001","-1,40629229311698","-2,16679141173763"
"1089","12,8339537833645","3,67617486028616","-24,5038241244111","-1,24125502665587","3,88722788571094","0,935538390773448"
"1101","20,4845744004459","-1,97594893546612","-12,6867075185597","-1,82196236698489","2,60709878670672","0,425431189115624"
"1101","17,109936679237","-0,316318760663423","-16,3614334097569","-5,34191377533229","0,516084514611094","-2,85904831761643"
"1109","-21,1455829142959","7,12867550930387","-53,4861929138322","-4,53247000399233","0,836711530537494","-2,43641844746572"
"1109","-8,27290769158999","4,89421462855148","-42,9329038748885","-5,92046026224697","2,61598245295616","0,806050101525884"
"1117","30,2129034051147","-2,68709755671534","3,00186807342502","-5,38992141542248","2,19406965789308","0,363244483672098"
"1121","18,3891532488989","-0,484963713887814","-9,0723300623664","-0,225169410714393","-2,96830679214205","-1,36916310994623"
"1130","15,877216183969","1,80011566282107","-19,3443667110524","-1,47829084468994","-1,64556894217832","-1,20115124849239"
"1130","15,3435591179111","1,34200956950143","-18,2348634922752","-1,90213519803783","5,48458545213168","-1,12046361102209"
"1138","-9,79553757324803","17,0990721411798","-59,1691820978009","-2,04549244259071","3,80118095911173","-1,08171340145831"
"1138","-1,13629900029684","11,8357721796141","-46,687882840166","2,89132710056227","-0,0959567901654317","3,49614742644914"
"1150","11,4286520387249","-17,6180789259601","6,66384214302933","1,56111187171935","0,63785859435662","2,6946634816571"
"1150","8,09805606172482","-8,60289643604994","-7,32326463911617","-3,87411537172828","-0,798822758164729","0,790000747467059"
"1158","16,3282340905982","5,87499292011942","-19,8521889522533","-2,71247701317702","-0,265602210916685","0,875287138144175"
"1158","13,0767224270868","2,30834412168695","-18,3777619849332","4,32750145828629","-1,76745706082025","-2,12325480492624"
"1170","-1,91446871808951","12,0396663925623","-50,6163665313849","2,70863950438458","-1,25541145914285","-1,5633035202272"
"1170","2,90067637652996","8,34739552279723","-40,6881393316265","3,8228595462225","-2,76414607364291","6,30436464325504"
"1179","9,2863010879083","-3,10533930703428","-3,52228292514938","3,19972316080598","-2,25433571553416","5,08280951624405"
"1179","7,64291698246958","0,17870811715185","-13,0640075131303","-1,99634818997828","-5,4388953930067","-1,58284330908031"
"1187","-1,64397526686903","9,77177947630732","-50,1211041289752","-0,753819925686867","-4,47356255904029","-0,784020737974865"
"1191","1,38303912781011","7,04672316923205","-40,5487751111718","-0,333558509341686","4,21556935702983","-1,92013682981038"
"1199","12,751433026798","6,40049117255988","-34,4179617777594","-0,191413124689869","2,03867848526813","-1,46575618399731"
"1199","9,16663037335042","6,24724083698384","-34,692783333349","-1,80510429709984","1,33140409346345","1,79196066385772"
"1207","1,25483839451849","-0,840523804838652","-8,9910373262252","-1,35090446692333","1,10160981585787","1,3564780361791"
"1211","3,57399067200506","1,47865210189947","-16,7587019436503","-4,52081832219303","-9,0236435921866","-1,8921630451024"
"1220","13,0044488032542","2,02863181165964","-37,849139863733","-3,59298104459805","-6,31335027382994","-1,45232178371356"
"1220","10,0079347536657","2,15905645097615","-32,7838775411319","-3,27915783459461","2,94272134570889","0,278662178753341"
"1228","5,79622691615118","7,47855256189284","-45,1073818294327","-3,17301313711906","0,950029847081703","0,109966618938891"
"1228","6,90145623139116","5,74004157557749","-40,5751507536486","1,84819566505616","0,302602047173058","0,0289506355709794"
"1240","3,5611572999187","-3,48651438513222","-3,20909382621889","0,546523488745916","0,0922519973116923","-0,00995726199484292"
"1240","4,85151606232028","-0,674540983120697","-13,6944830465211","5,09156516431716","-6,67648629894116","-3,06814346838639"
"1248","5,12565074543769","12,3322917258008","-45,8613060307397","3,62883856631317","-4,87565729270484","-2,53683632020483"
"1249","5,1838902263306","8,41678999838463","-37,9128798790419","-1,85120811286556","7,43512596694161","3,79732515564901"
"1261","19,4966757347207","-8,37744942256351","-6,45994488361088","-0,704729071073088","4,43491385504974","2,83930398035475"
"1261","14,5374044329685","-3,36011020113581","-14,6092553393973","-0,316954466856305","-6,59045154951567","-0,660286054943593"
"1269","25,9966761144974","-9,22169819305963","-10,0280070405042","-0,185797124947649","-4,17260567221068","-0,340962940607255"
"1269","21,4311803025618","-6,61174129119879","-12,7388680007182","-3,46497392220487","-5,06214354684162","2,85189257517795"
"1281","-36,7404025694134","22,2128842167695","-59,904032747073","-2,57409274458231","-4,35115544331655","2,38526031554714"
"1281","-17,0988635662351","13,0484843645456","-46,1760606367537","9,35961467866291","5,9304384019001","2,161160336705"
"1289","56,7884619391712","-13,8047798669155","0,652050336045132","6,3959629276922","3,27094027454259","2,05353640055283"
"1290","33,4857076618408","-6,17288261635466","-11,1707669233798","-6,23881949074493","-10,9939244171596","-4,07715136148902"
"1298","32,1101774388323","-6,12587603494354","-17,9348557445134","-3,51229294562341","-7,62859564936277","-3,02141200658096"
"1302","29,8179482132942","-5,11472868474635","-17,8382345615947","2,39520988969794","0,165198924552113","2,04485750128927"
"1310","29,3309677310554","-4,87494069601703","-17,8110458717783","1,39330971566138","-1,30258809747016","1,47793165355757"
"1310","29,2275094959717","-4,81807630377229","-17,8033951182726","1,05443614772914","-1,77947381864528","1,20566571424542"
"1318","23,8428752237045","-1,27888014123581","-14,3640316581354","0,939818645887147","-1,93441454754433","1,07491009248974"
"1322","25,6989181685489","-2,43957939108539","-15,3962129722224","-5,74602504986986","-5,33495263112983","1,01211475105295"
"1330","18,9430252523952","-0,951977240191475","-24,2796897809257","-4,00738378253717","-4,43979143406449","0,981957310376846"
"1331","21,5077464619462","-1,59920063673928","-21,7794531676645","-0,0957833741775147","5,90164046477727","-2,0720264921659"
"1339","-24,423723587094","12,3501582712904","-52,010795016263","-0,772759363346584","3,26158379106976","-1,53870114101152"
"1342","-8,18179192738691","7,65817140702917","-42,5177347103108","-5,9870409301708","-9,32186551986844","-1,2825718283827"
"1351","22,0820544941723","-4,03164052889772","4,83729976967347","-4,75067192310102","-6,41024292713658","-1,15956581592573"
"1351","13,5115609155083","-0,803814626167681","-7,83724400187745","2,31458276065731","2,91124080925814","1,93900848061346"
"1359","11,6907730774236","-0,0383536070263372","-11,4037935799324","0,704270002040915","0,93980178394785","1,42709769854409"
"1359","11,3039495740993","0,143171230273386","-12,407401766704","0,159612516055451","0,299278937491183","1,1812527251992"
"1371","-19,1666072917963","1,94907438271648","-65,9665757698919","-0,0246074595068702","0,0911723150870863","1,06318576307226"
"1371","-8,64002902087945","1,37733430416097","-50,0378440447156","-1,74868547177503","-8,35193591868064","-0,513266205156628"
"1380","45,4353216805246","-5,80967286028033","0,846759621829374","-1,33182187852598","-6,09511166462258","-0,270356709369192"
"1380","27,9235446158285","-3,51403176762301","-11,8345820495166","-4,51436400170965","1,33852849551921","1,36605084181501"
"1388","-41,9362131704884","14,6589222271828","-48,0565450170107","-3,59079799416302","-0,246273117019024","1,15193499369004"
"1392","-19,7778084860172","8,96853752393949","-39,2492138078203","6,69219531797066","2,58902064384987","2,56885628393265"
"1400","2,80522540541568","2,33052770591147","-17,8662192079065","4,17022109639416","1,51021090484044","2,24933223605728"
"1400","-2,39704467632845","3,7563604758634","-22,8491576282185","-6,65340321724762","-3,86559213103544","0,576130573134022"
"1408","26,886118076007","-8,24549999196824","-38,0001724577894","-4,31428708988394","-2,61219682857999","0,772576062015582"
"1412","16,1072797991594","-4,09167466871534","-34,2635878928128","-5,18489493571256","2,82032926117329","0,86691893907432"
"1420","-2,27063158606894","10,9962263282472","-14,3074745779625","-4,47936138519637","1,58536334530439","0,912227072655776"
"1421","2,82501013718888","6,57423840878433","-19,6919298447112","2,40634836004527","-3,84117501517939","-2,10551441434752"
"1429","11,0577774925688","-1,52583368699513","-43,548955837552","0,735307960595959","-2,60426367906353","-1,55478370388084"
"1429","8,80681592738823","0,553279118838172","-37,2621967653554","3,49364877096555","4,49800558045636","3,26895557981683"
"1441","2,96594796101725","4,57204028217386","-9,71405667563484","2,4266047841551","2,80554117450971","2,58555467708433"
"1441","4,7250647774043","3,52506721375985","-16,9621557643196","0,403928438140181","-7,79493546996465","3,77710198462869"
"1449","-2,05141994180818","-0,248927732589654","-37,9063906927444","0,719796857061908","-5,23904273726775","3,34934216069659"
"1449","0,508926571673211","0,856090287303044","-32,7999876215998","-5,82044321101425","3,96686395129848","0,104409953202695"
"1457","1,05286814869452","1,11813918497166","-31,3630728065949","-4,03255430195564","1,95787380789134","0,546032399925766"
"1457","1,1684276784904","1,18028262836637","-30,9587325779029","-3,42783508004135","1,30515055921973","0,758121424900493"
"1470","8,34318442954624","2,95787514504446","-39,4379798226383","-3,22330037125726","1,09308001185813","0,859977104675162"
"1470","5,86745018082811","2,37942135615937","-36,8239951481615","3,49295609966897","1,02417804283867","-0,610857092000497"
"1478","12,4916906572357","2,24224424682654","-15,4651702154646","1,76460137175346","1,00179171246973","-0,317224698509504"
"1482","9,89900009458453","2,20971345579969","-21,4549098522912","2,84178757733267","-5,70587695135007","2,86329285761034"
"1490","-12,1024318584986","3,9648545026183","-35,170627929648","2,20612520524359","-3,88520635006775","2,39073529718238"
"1490","-4,77660136261561","3,38107647211743","-32,0301584502902","-1,33241369132963","3,40672697786582","0,644039343589413"
"1498","3,92996607867041","3,24263674840074","-29,4278416603496","-0,529256782311107","1,77588464970663","0,805189225182417"
"1502","1,77966259416902","3,20980653537215","-29,6955634800524","-5,24291171065306","-5,45437325013723","-0,637168951889575"
"1506","1,32283401168012","3,20202103234912","-29,7708989840601","-3,83721531989702","-3,80349250321424","-0,329860959982521"
"1507","1,22578150012396","3,20017474346673","-29,792097996417","-3,3617654061139","-3,26711941654817","-0,182276404772221"
"1519","6,56781758063751","1,43688136271951","-31,5166685756505","-3,20095356793681","-3,0928511729843","-0,111398973952884"
"1523","4,70272471716734","2,01872611242228","-31,0019536149035","1,83874534882093","0,313966442734379","-1,59711046381215"
"1531","15,0317981480297","2,15670736931499","-18,8268785224359","0,543327100059988","-0,579154526992095","-1,31062288514881"
"1531","11,2261935009902","2,18942885947782","-22,4008767888435","-1,55659247135458","2,48086708418556","1,86646337615876"
"1539","8,63014722046782","0,43433303590214","-28,5623968649708","-1,26685009579336","1,47507168673568","1,39225793760202"
"1539","9,07862128426648","1,01812179084438","-27,2962160243645","-1,16885027991149","2,82338641476433","1,16452094223983"
"1551","3,81124415804664","1,15656405780289","-30,3771300115754","-1,13570371688536","2,26145544780502","1,05515033018095"
"1552","5,69219819855807","1,18939487394718","-29,244082911748","0,537276603564281","-6,29661072958184","-3,55662592122829"
"1556","6,09180391665644","1,19718051999575","-28,9252494508643","0,10313019353532","-4,07713644593848","-2,77142984666447"
"1560","6,17669952096025","1,19902684279586","-28,8355314013723","-0,0437115246158537","-3,35602665377899","-2,39433970755601"
"1568","7,98228703596528","1,19946468801268","-30,5288905060733","-0,0933779267592007","-3,12173723840685","-2,21324230065438"
"1572","7,36588125463469","1,19956852057862","-30,0053928014792","-1,77194576677255","1,97968015599501","3,95273106991664"
"1580","5,44737524114809","4,72530423104362","-29,8580833163344","-1,33968922834908","0,637136637516949","2,9139376161151"
"1580","6,03979166564143","3,5614129096043","-29,8166312063763","-1,193486723116","0,200942677213171","2,41505742467173"
"1588","4,37809802247739","-0,240308552305189","-24,6491509340346","-1,14403652251432","0,0592227490419167","2,17547038789962"
"1592","5,02507382984187","0,858134278126443","-26,1950493176675","0,534458191463405","-1,66192105119393","-2,4988422557561"
"1601","1,58741966366315","8,17004608035959","-36,9416886818295","0,102176919557256","-1,2211226861087","-1,74367926161066"
"1601","2,85709546006049","5,90402543013653","-33,9657361568788","3,27950430786896","0,597192048285653","0,138737852295722"
"1609","3,12683607968431","5,36665119478883","-33,1283188570152","2,35417451600762","0,187964633425616","0,0427680102883411"
"1609","3,18414204872105","5,23921587384985","-32,8926740581714","-6,26764623284398","-1,62009266229376","3,0361792296086"
"1621","4,98386818924509","-1,8424268803589","-22,514733122466","-4,18381216928085","-1,20753259360416","2,47376391663008"
"1621","4,36621716815421","0,478200798089683","-25,5944354350337","1,50631222859453","5,62690397440809","0,683913808925866"
"1629","2,4474466054453","4,55423587461057","-29,8982579549383","0,430887956451398","3,84742041355169","0,824338923159386"
"1630","3,03980682687377","3,52084499720626","-29,1093308479005","5,05245365757841","-3,43113119674718","-2,14772266728356"
"1642","1,37810124345728","-3,77564009498676","-25,4501203542718","3,61560984734572","-1,79594113286813","-1,57505420253307"
"1642","2,02507451413396","-1,50596108599679","-26,4204378759676","3,12962491476186","2,08553169195683","0,219719977709511"
"1650","-8,56278650224301","2,5579917959997","-30,1306906728557","2,96524980800597","1,34662675514793","0,0816596475835845"
"1650","-4,81216086942568","1,52173569314247","-29,1747361853199","-0,413885186598612","-2,24364198298843","-6,06364518197724"
"1658","-4,01534637154851","1,27599330291205","-28,9057356488419","0,443187042930143","-1,41012449762443","-5,01492566861277"
"1658","-3,84606438870495","1,21771685735998","-28,8300403206972","-2,59046293004091","3,88598279798172","0,0479725628209891"
"1670","-2,02254912072572","2,96675246493088","-23,6529241878799","-1,61653700093007","2,6066942562464","-0,52057233923559"
"1671","-2,63514617922373","2,38152656335836","-25,1961110913417","-1,28712518620823","-6,18444223669357","-3,83311653106581"
"1678","-22,4283588137613","5,768454572191","-44,5350139057446","-1,17570794139023","-4,04069277133067","-3,42396471608011"
"1682","-15,6333956078276","4,5716457738003","-38,9768788687714","-2,7997923192824","-3,34418606124965","1,33178135277451"
"1691","-7,03961008467788","-1,00073742886154","-33,9756384893534","-2,34910779204251","-3,11789021603728","0,615726732487647"
"1691","-9,21387390973769","0,677802785544697","-34,568315899565","-0,534903242526002","-1,36926760137737","-1,24790859860502"
"1699","1,04951663815129","-7,73841842558938","-26,1420657415403","-0,921283258634139","-1,80113806749834","-1,14291881199608"
"1703","-2,77004223374008","-4,73427862986648","-28,770963515901","-1,05196890779294","1,40874437209244","0,427252847282002"
"1707","-3,58150148949423","-4,02186353098143","-29,5107214446195","-1,09617082865853","0,451638933172943","0,181327235326101"
"1707","-3,75389472804196","-3,85291823960652","-29,7188854129713","-2,77289041241294","-9,90991872233927","0,0632215465345466"
"1719","21,2352026899244","15,5785571789941","-10,8728034705049","-2,34000873666626","-7,27640093052673","0,0065013309620874"
"1720","12,5440970080554","9,18662385469731","-16,5696156941715","2,79171259806601","-13,1211632369014","-0,0207385326507845"
"1732","-5,3902788814375","12,9593789317158","-40,5145372825444","1,52741917183419","-11,0201333502441","-0,0338204675863094"
"1732","-0,200408741930183","10,8540668836845","-34,2525115660257","7,74687262416553","-5,31220979211487","-1,55985341336924"
"1740","9,83992886962711","-16,0880293511603","-34,2090159403126","5,85048377884641","-6,45769874821658","-1,29273019975543"
"1740","6,97298275334961","-7,47719811775509","-33,1967765012977","-1,43800998929344","-0,129474131710808","-4,20394507245768"
"1752","51,0526940199918","-10,7237538562528","-15,7258847843422","0,0967964195021876","-2,0734265480208","-3,60205499287693"
"1752","35,4173591287076","-8,49365655211622","-20,8096682636961","-4,36939206169225","-2,70501896304627","-4,83274784461955"
"1756","32,0956569008098","-7,96480133914921","-22,2402180452125","-2,87999487911926","-2,91022407782727","-4,42378765454374"
"1760","31,3899665035436","-7,83938625714198","-22,6427671871474","-2,37623477366556","-13,0274884380939","-2,70763431573186"
"1769","36,6026984255595","20,396043931489","-31,3490688329104","-2,20584755471815","-10,3145994687647","-2,88345227734925"
"1773","34,7101350976353","11,091919675532","-28,7989760659275","9,4841665697564","-4,40788217862968","-2,96788879168218"
"1781","27,1578566934605","-29,8973237722923","-31,5186040280307","6,43809022222845","-5,48878281855861","-3,00843939804292"
"1781","29,553387062635","-17,617695629048","-30,2838929516823","2,08427490868465","0,860426617458037","-1,50816346138588"
"1789","26,4872105542072","-19,9942165186238","-24,7806359176837","2,61168016556328","-1,07670780643478","-1,7876564695885"
"1793","27,8358061928686","-17,5577952731678","-26,2320484966049","1,12829577507214","10,0196067603032","1,11761781360579"
"1801","20,9721068971771","18,277099390187","-21,4846524515288","1,6265693815179","6,62481234881844","0,512874767999727"
"1802","23,5139248114945","6,77514600621866","-23,1487603147695","-8,17551388038615","7,19693850139217","0,222447132686919"
"1809","24,0539300168582","4,04752152313792","-23,6170314655466","-5,49088103392967","6,3828229579105","0,0829693628039162"
"1810","24,1686532707063","3,40068049776292","-23,7488004905563","10,3730668367438","4,44321703536995","0,0159852127915294"
"1822","-18,7082118227239","-7,32984752703656","-46,1277483579201","6,73874373324277","4,81303680125678","-0,0161839017322089"
"1822","-3,81733415981652","-3,87453276264381","-39,425065919189","0,524196077821948","8,28338933542799","-1,55138345881042"
"1830","6,4964156158156","-20,6836794567984","-35,8203612440362","1,42224421510018","7,41091093506032","-1,28866250705256"
"1830","4,68755548240042","-14,669875412572","-35,8060164147543","-1,59754644092677","10,4776393411802","-1,16249086221835"
"1842","50,7796070244524","16,7248091193042","5,4445470871438","-0,61893286298258","9,47402298925588","-1,10189697408856"
"1842","34,5717906495669","7,16988451728827","-6,94776252936088","-5,27324292947388","2,44755154312001","1,96670392165687"
"1851","0,740088810798685","43,6868090749733","-31,0581563804084","-3,8474742744395","4,1646427473397","1,44039842438067"
"1851","10,5525971355129","30,3465952995623","-25,8426936833766","11,5906868650364","-1,97786762981853","-1,85186030813502"
"1859","12,6372490467194","27,183037555183","-24,3750900664945","7,81234954483166","0,0264235601929166","-1,43296640843621"
"1859","13,0801300560482","26,4328173735193","-23,9621141712759","14,8432448722318","14,0784107511766","-1,23179276018936"
"1871","-36,8772247512872","-16,0536262294324","-44,4691684101142","12,2213107186075","10,6439178342702","-1,13517918625561"
"1871","-19,4905859563555","-2,129050803137","-38,2397450052927","3,02564599972882","19,5786400445801","0,430969799826298"
"1879","5,65379695647739","20,5644960466093","-10,7077388691069","4,91538831782789","16,481541746826","0,18311230048039"
"1883","-1,00431856701991","14,946144878675","-17,9603779669793","-7,73959552975208","10,4499943962536","0,0640788234481156"
"1891","-11,3565825937779","20,6652062192388","-49,2175221656791","-4,01990173159315","11,4903376034604","0,0069130378988188"
"1892","-8,55590475224579","18,021449912115","-41,0131172152856","0,561751798603565","1,77775335064655","-1,5402911616625"
"1900","-38,3492819867323","-10,811190937442","-42,141651636239","0,111408460057008","4,6221233604756","-1,28333543524204"
"1903","-27,6788379715907","-1,64869187904218","-40,4592152531565","6,60616495901962","8,89646016481741","-1,15993253785181"
"1908","-25,4119189766216","0,524143979667668","-39,9857865538406","4,8028921027902","8,28519719471392","-1,10066833970981"
"1908","-24,9303156129323","1,03941995828478","-39,8525662219519","-2,45410696331039","6,41149831065802","-1,07220672936117"
"1920","123,538781220921","9,97589251801239","15,1802905318842","-0,908648074030596","6,80273135047812","-1,05853805098478"
"1920","72,0808065856535","7,0951274455567","-1,33375466198602","-7,03300268706488","1,9045469338039","1,98752702925313"
"1932","93,3245694666234","-69,3908183953155","42,1402284678787","-5,10444847855497","3,31312108458492","1,45039871449229"
"1933","79,837773371836","-44,5290364459934","26,3735773743863","7,18023199713232","-7,95492333345002","-7,92605907681433"
"1941","-160,771835028912","100,632385262495","-149,923603777413","4,33529016718092","-4,61592415162339","-6,42909963879448"
"1941","-78,8889666948231","56,0566117076099","-99,532698067699","-6,59757176175699","-0,180881750445519","-2,67068469205608"
"1953","-48,9802194689879","-83,2027405627279","-75,0413319970855","-4,29540316809687","-0,739931284066607","-2,86570723355284"
"1953","-49,6261533115006","-43,2273239591427","-74,1495911266016","3,13033783752071","29,2302118031972","0,0801339616173817"
"1957","-49,7633809371747","-33,7473755182744","-73,8986599623179","1,64195268131908","20,9675463656731","-0,505126838756246"
"1961","-49,7925347297285","-31,4992582983162","-73,8280492599347","16,0944570407006","18,2829966953991","-8,38494988825444"
"1969","53,8792631066453","189,390813184517","36,1825587324015","11,9827401698351","17,4107833658554","-7,16923214098476"
"1973","17,904172981471","116,77366911626","3,13896194411412","-29,2904285163592","-18,0496751897907","-18,7433869287137"
"1982","-66,6033959996707","-90,8354827470004","-93,8082011686232","-19,2502882858313","-8,57081967314402","-16,3018707015626"
"1982","-41,5568956919199","-32,0688422147189","-70,0886200874846","75,5428992106524","-17,2168202309298","-13,6095830396235"
"1990","65,654633715356","-79,8326032147796","10,485972008356","52,604881526898","-13,0259159303858","-13,3166128353028"
"1994","31,431553977358","-56,1595143540102","-9,84076395776215","14,9346915076024","11,7870973974839","-19,2549154020406"
"2002","24,160914684905","162,759948208235","-15,5605999447518","20,1934703487183","5,84887446585297","-18,1067831246387"
"2002","22,6162788389888","93,6754851586762","-17,1701315376546","-72,7486886929433","-7,8061529220587","-12,9961419481822"
"2010","22,2881233906824","77,2924877212922","-17,623045214628","-47,1845960437535","-5,24268730058066","-13,5417583176552"
"2010","22,2184072834601","73,4073506993718","-17,7504927277394","46,2121948732142","-17,8106049579623","-7,72478898302183"
"2023","7,90318358391442","-121,42809780095","-33,2538033873774","26,801872758927","-13,8939361128135","-8,93119150253889"
"2023","12,8619368958027","-57,632244328115","-28,616353005589","-3,02806519900801","-2,57081284310301","-1,91181413332307"
"2031","22,8531741019932","-77,7605222055296","-58,2462942040542","0,882528921086401","-4,89191684156265","-3,54076061642565"
"2031","19,9757966820672","-62,5338317215647","-48,5840029361332","-44,3243230542488","17,8053373690954","-2,80331124185072"
"2043","-36,049596523253","108,548370155936","-20,0860059406837","-31,6146759465396","11,1797018242542","-3,44915143864693"
"2043","-16,9521029116964","54,119565924374","-27,0668203201591","-5,71288225802632","-1,02356789643272","-17,4370691265003"
"2051","81,8453630981562","-46,9307004477378","-58,2474744808601","-9,95209603347871","1,01157549008791","-15,154761684605"
"2052","49,8347288672593","-20,8942109382756","-50,0215456383512","3,56999316765408","3,34789478777485","-11,0191836347596"
"2060","43,0341201319476","-14,7198017863075","-47,7068127713417","-0,856418832032116","3,10696766173835","-11,03307372842"
"2060","41,5893415362721","-13,2555748842111","-47,0554591858444","37,5288910945693","16,4294807943066","-24,717497601135"
"2068","30,557091136298","-132,782518554447","64,83717207137","26,5119878821518","12,757980902133","-22,2894373610833"
"2068","34,2133069457369","-93,1276706394106","31,3231666752641","-42,0232649345072","-10,211178495888","-27,2023636878416"
"2080","-56,1750662432582","32,6247225899349","-39,9772875923312","-26,2040031487238","-4,67388526462596","-25,5617948312233"
"2084","-24,3779335106111","-3,55379447339739","-24,0408582948921","38,9702481994862","20,5765714024845","-21,7344115116276"
"2092","-124,875777500979","-42,1018734774421","6,22264795636687","25,0141919615669","14,7804743237035","-21,8963120162761"
"2093","-86,2263858891513","-34,2433367191307","-0,261361456803324","25,2791303014281","17,9226120889214","-23,4938150279099"
"2100","-210,294200381764","175,637225850432","-290,811616009588","22,3687406267253","15,943496326018","-23,2610152883262"
"2104","-162,65221181395","107,409237775417","-204,570920837976","-41,7628699304641","3,57478749048522","-14,0307111883915"
"2109","-152,530746513235","91,2293486303144","-180,3032453682","-25,4541603902688","6,55617951498254","-15,5978608853747"
"2109","-150,380457179956","87,3923776139627","-173,474449849628","39,8856372979381","17,5754302511287","-8,75173222147019"
"2117","280,876298650925","-84,5145265186912","136,077483871667","25,9855739426898","15,1555977108984","-10,4638813344668"
"2117","131,496115981345","-28,2812958551413","44,1837607127995","-6,96593178772786","-92,8369338154562","-20,4046424515488"
"2133","97,9729802905214","189,545346118216","-21,2025685856494","-1,11114825237629","-63,923833689742","-19,1786894875923"
"2133","91,8510430065044","125,201726724133","-16,6019358033782","-37,3515697016091","-46,1544394739027","-29,2281784649778"
"2142","222,829263848569","-85,7339712582621","101,557817598801","-26,6091989925504","-45,3811424980307","-27,0544420177552"
"2142","176,655380206313","-24,7562026971797","66,8073472257007","33,5243528086103","-1,5773278328463","-9,2932519898679"
"2154","34,5669947218925","-117,82985107568","-68,4294374499087","19,8633763753974","-13,345417185451","-11,7634467153465"
"2154","78,3805414157277","-78,9017508280036","-33,4843533518857","-32,9484923323086","-7,11829020973105","-17,5090079182847"
"2158","87,6886602809107","-69,6701676550634","-23,6509915211706","-21,8110966535016","-11,0950893678448","-17,2683116685942"
"2162","89,6661554472759","-67,4809488815632","-20,8839355134491","-52,9412373402222","29,4903146747495","-14,1132166769473"
"2170","-52,9178550504212","-21,1275436526048","22,859831643475","-42,4704119207995","17,6765599444275","-14,597983415037"
"2174","-3,20960310864918","-36,1350905660798","10,1690963482328","50,8066774724124","27,2390478449282","-11,7912917685445"
"2182","-239,331281153591","289,959939527133","-289,002119195767","28,3558686075554","22,345911354578","-12,4433790908119"
"2183","-151,49495909656","180,291568181875","-201,187316848374","0,821082428665356","37,5071138797409","-24,9145466073558"
"2190","97,7598824733604","-23,7640880288966","-45,8626939596605","3,5079677327182","32,4330063230006","-22,9038204282558"
"2194","21,7136802854336","28,8452442983072","-78,155166634794","19,3726774540851","42,5101146477433","-9,78016707776814"
"2203","136,049049798796","-291,85844191946","15,8742197155075","15,7386120320072","38,7841789354787","-11,4775371642198"
"2203","87,3394186511938","-178,911543261452","-17,6664083136311","26,1418428282592","-46,1813234238783","-3,1741964455105"
"2211","76,9911343689515","-152,126812374173","-27,104563635129","22,6605366355924","-23,786714573762","-5,18651998084858"
"2211","74,7926577009267","-145,774961927387","-29,7604106215161","-101,487864177501","-68,4387436717789","-19,8306908122322"
"2215","228,05503049419","157,179642145235","125,885329408872","-69,4786858450092","-51,9462401810489","-17,8635487120914"
"2219","174,615379773569","58,0236470498534","78,6832173989265","4,49503332789478","-53,2882018149677","-10,8398280047146"
"2232","-210,336069468371","-53,6334246871301","-116,771367919391","-8,48477124849904","-49,7242067202972","-11,4666886011904"
"2232","-83,1183974754434","-30,112280270339","-65,7712544131863","80,1841294086452","18,4376926456761","7,98901638206331"
"2244","-116,867957433131","24,8255839569695","-202,657357683594","54,1746888565565","0,583573518108522","4,33261186891532"
"2244","-90,0379981953866","9,85379390637127","-153,176383114433","-21,0932720437988","50,0610107000629","-8,06162757253901"
"2252","437,62704503546","8,06617243666867","97,9148313315791","-6,55121997340685","33,1362879428771","-7,01395671238849"
"2252","257,728650909009","6,64224791494023","30,5705709839847","1,69088921513852","-2,51435322255842","-9,55031385191012"
"2260","219,50952092426","6,304572108243","11,6202523250795","2,47862498002679","3,90271174160103","-8,76839847759074"
"2260","211,389927061936","6,2244941626155","6,28773288807771","24,3480602180602","-74,4171201684046","-12,9521349469933"
"2268","131,012662733036","22,0712040138921","68,3755858272163","18,744978334081","-51,8633252120065","-11,9613729174156"
"2268","157,936639747276","16,8291634077169","48,8467792440128","11,8645356827041","-29,4596813689535","-14,5250605028378"
"2281","81,429223602988","34,9774535169131","-186,941632399134","12,5373575758958","-31,1807112658355","-13,7562705655658"
"2285","111,175343758121","28,2812199099235","-119,291244283681","14,4266958400496","33,5889784657084","-7,30805806363707"
"2293","383,840045146324","-151,355164669862","54,4196931454489","14,0657283656407","15,6327264580836","-8,21130627370487"
"2293","292,767230740228","-92,9549374454043","13,3010321315522","-2,67405327328052","48,3259922505717","14,1511643574145"
"2301","89,3011425006927","-123,177035894438","164,997960892475","1,6640358124482","35,9480725667879","9,89073302602027"
"2305","149,075093087216","-105,344039003194","112,684674277686","-25,118763743116","-92,0308414234576","-10,3923418384264"
"2309","161,773974576744","-101,115042648969","97,9639921241052","-17,177533348916","-59,6113403499018","-8,13328142021232"
"2310","164,471831912636","-100,112159607318","93,8216700279539","-29,447486246803","-3,85053810877614","-0,969367043080172"
"2318","-410,546620611365","330,262421178459","-278,562699985295","-24,5975630953932","-12,7337882049481","-1,52889967888128"
"2318","-210,708383574053","188,323367198558","-167,349692060393","73,4254401495415","111,687544501735","19,4788898849696"
"2334","316,173412165028","-139,733568379979","104,549800632246","48,5798458576622","76,112181105788","15,5678734466799"
"2334","157,108618344776","-50,5304520445978","41,0608797223625","-17,985620661144","-66,1040048129013","-19,7448985492762"
"2342","-76,8902228425293","161,01197119625","-289,590729460414","-5,50011634130851","-34,3102100504748","-14,7038449011894"
"2342","-14,6029074445495","103,178084166783","-200,634343374235","-52,7919763648223","-29,005665413721","-3,16437854998708"
"2354","-13,8829266112114","-238,428032640561","207,646492665137","-37,7875433440686","-24,2822126534435","-3,62255388660019"
"2354","-6,72996781916938","-133,438029522705","99,5345604133884","47,0523373167401","55,9820876730225","8,31541037785564"
"2358","-5,21033300988673","-108,540232303135","69,1124345124424","27,7478039984586","35,0600527807027","6,04861352416054"
"2362","-4,88748899236594","-102,635857715291","60,551809195175","-96,76719330933","-21,9905057320617","-7,19801767788899"
"2367","-15,544210757158","369,446762121083","-283,859558057011","-67,8820092283302","-10,5262989579196","-5,55970766146953"
"2367","-11,8082144816916","214,39853839044","-181,775095112297","86,4617659994416","38,4261036417893","-1,73340914908622"
"2383","235,66760977156","-287,764151849494","90,99288388495","51,6655954377012","27,3307965343951","-1,89583063201753"
"2383","150,243458161677","-142,849250063965","25,7483504275127","63,1612241957377","-33,2274419399202","5,6249182634523"
"2391","-41,2972711124562","244,087624262781","-97,446038836868","53,0494007165237","-18,9028844902495","4,23675527978987"
"2395","15,0102031701879","135,847558996252","-71,1122883657727","-131,503565265206","-0,848028373355875","-7,06816196356197"
"2404","-55,2547353413183","-48,4779713665578","-84,3253737412933","-84,9250755866763","-2,98198449176127","-5,49734450025937"
"2404","-24,1824106626111","-2,18974906991837","-76,0434660782058","40,5059700725397","14,750777794978","-1,70345926281221"
"2412","-17,5811443111778","8,78724624555358","-73,7129810671734","16,9306218227844","9,51217301421592","-1,88144720965055"
"2412","-16,1787156904307","11,3903798328342","-73,0571949116655","23,9126334302331","37,9619231252991","7,15157624811721"
"2416","254,039516308197","-146,649300389247","68,0529735651299","17,2741652934606","29,2052802305303","5,48968259200319"
"2420","160,446953340376","-94,1275344492836","25,7606286027667","-44,7948582277539","-38,9686176528196","-8,98619441292728"
"2432","-149,019994596809","-27,023766964119","-75,5076886161851","-29,7885180790764","-22,1183968575893","-6,93822926172428"
"2432","-52,7657594026983","-42,1104804996992","-52,0040574447247","36,7725472058232","-3,24294976399295","0,124306687546312"
"2444","83,8741535507104","-1,61682239100734","-81,4809710254128","22,2855542528125","-5,11029491374739","-0,483912902638961"
"2444","47,9030874643746","-17,013975850113","-68,7756185952558","-15,8497765750863","44,5359673534181","-0,776010147265235"
"2453","249,404625835252","-18,9024698941097","72,2880235190821","-8,74832271452925","30,6660960639897","-0,916289746434791"
"2453","175,21330972884","-20,3503157876374","31,9825862844145","-6,34639179406876","6,05857269378368","-4,02315967692754"
"2461","159,45148168263","-20,693664415047","20,6408494334767","-5,5339846081673","10,0635595531401","-3,51523287015158"
"2461","156,102906183551","-20,7750876386587","17,4493446732883","51,2409469873774","-32,1877851020541","-0,231800497295439"
"2473","64,2263761333666","-11,9801189868936","-31,5696759854017","36,4439815186292","-19,9152964263808","-0,654933253121604"
"2473","95,7073522888988","-14,8944409266852","-17,3633691232433","-41,6786506931377","10,8736307821179","-2,37789296165878"
"2481","150,659328602964","2,04299921678986","8,97607924726864","-24,1021365851501","4,87698926378872","-2,20534375671208"
"2485","135,33378926652","-3,94038074713434","3,38786070191216","15,0781656721586","19,6796617139527","-2,12247706162251"
"2494","103,477077370315","68,6806266938288","-3,34045030692864","8,33015340772864","14,4890673162651","-2,08268036040219"
"2494","112,709169192146","43,9022960285394","-2,23376143686976","22,6654586418275","4,42714297340786","0,975932693632348"
"2502","53,8937588872037","22,1605523796064","-56,9177142995095","17,514101408806","6,1580119791565","0,444830538881457"
"2506","75,3985177680923","26,0046184002223","-40,3054893961083","9,12467684972372","-23,4314055902575","-1,32998143557872"
"2510","79,9671698616827","26,9162173471477","-35,6308971750639","10,2871144788334","-15,045041986429","-1,18233426313499"
"2510","80,937772790452","27,132397983895","-34,3154916493071","14,0038250291012","24,5318716167044","11,0465760485769"
"2522","20,3672222053268","-76,8248130473675","-27,070922334777","13,2609312735949","15,3904571623865","8,91950593191846"
"2523","41,4991043029873","-42,4776893489607","-29,0323388482516","-28,534566567607","5,72000558929015","6,37823090413409"
"2535","135,36611820335","62,6245955268604","-29,5842710806547","-17,6710941818199","6,57806455606641","6,15778446434207"
"2535","105,308017201162","32,5490197428892","-29,7395818915267","19,2386501306641","-4,86884288950795","6,05191513903589"
"2543","77,471602135693","-4,55178056886029","-26,3460749536554","11,7226650762308","-1,58795651464849","6,0010714327308"
"2543","83,5577996759069","3,64997030823265","-27,3911600505598","10,8422960388379","12,8787979458646","9,01615446287724"
"2551","68,7628385400101","54,9549252817903","-12,2177938655225","9,54452805303498","9,57906340022175","8,46414702943851"
"2555","74,6196723904852","39,1216109409655","-16,9480888772935","-29,1151071228783","0,131481636127047","6,67929530222883"
"2559","75,8639475009848","35,3668282181854","-18,2791688737329","-19,190989178312","2,06195126466777","6,8221208869398"
"2559","76,1282917849674","34,4764023103932","-18,6537277442711","14,0774982047185","12,7397560844954","12,9697142283419"
"2572","129,810998645634","-60,9289566104829","24,2060056028036","7,32992764963538","10,2089873664663","11,9220937719857"
"2575","111,215805016494","-29,5538085919211","11,2665078693756","-28,1876916041113","11,0618364779948","12,9387247667883"
"2584","19,6752581566498","44,8751444860367","-92,0537051305974","-20,2008468793363","10,3389281524017","12,4269614450792"
"2584","49,2276134108485","24,5255581060805","-63,1274665788571","-25,8082950841452","0,0534614130851034","7,62193623614995"
"2592","55,5059646562842","19,6997665055077","-54,9877760494835","-22,7049071712586","2,7117012326172","8,31432456671905"
"2592","56,8397904722642","18,5553567795637","-52,6973101876513","4,93306049712628","28,7018489066825","2,56784241486697"
"2604","14,2219217946336","-53,9931109293497","-38,303942894785","-1,71892564192412","22,1460783017059","3,80809637916503"
"2605","29,1678228374277","-30,1975778687341","-42,2537254691775","-20,5865239995773","16,6659031006271","-7,75427489895131"
"2608","32,3430559320168","-24,5545991157026","-43,3651733940904","-16,9681282147065","16,8853877644636","-5,30709964544619"
"2612","33,0176291930137","-23,2163979866903","-43,6779289613973","-2,450122022199","27,0072915669294","-7,17134529145818"
"2621","36,7360443735982","35,2751819305734","-35,1729102773653","-5,5396841510325","24,2959099578002","-6,06664860837495"
"2621","35,5260158117209","16,1461358555629","-37,7796430051366","28,3124822822419","3,31379294326762","-11,6151198187033"
"2633","35,2689471529582","2,79551090428375","-62,5736378569559","18,7623300003652","8,49667857031866","-10,2797711692647"
"2633","35,2143333220123","4,6294842072625","-55,5505368657816","10,5468662927224","6,83040651652652","-11,1582208003677"
"2641","45,9280401667231","-30,1927100621783","37,5118069380037","10,7681428520323","8,28903277624654","-10,5800959272606"
"2645","42,2041502815731","-18,4506003937726","10,6990582512379","0,872370637773464","15,4633374739137","-7,26295095769709"
"2654","19,9623968172549","105,97100832743","-34,6552237732242","3,52531498832681","13,7942774661226","-7,66989325079184"
"2654","27,2371713872602","66,4769030952939","-25,4176788432369","-12,1950686306866","-16,8997810186554","-10,9048278464106"
"2662","28,7826857663677","57,1110949779796","-22,8182825599356","-7,5121876653863","-8,87231654096651","-10,4584040500949"
"2662","29,1110278576644","54,8900455030069","-22,0868261947593","-0,94298537168974","-6,26418393779369","-2,64525742304661"
"2670","27,3932320390747","154,846101916275","-121,560105020942","-1,72107836196764","-5,41679860278047","-3,89299649878619"
"2670","28,0282890277892","121,550126580907","-91,5513595402234","39,5599748083197","4,90911086256947","7,66578005718856"
"2682","164,017125797411","-39,7142616820997","-2,33260869038137","28,5225013537093","2,2640109320549","5,21687843963714"
"2682","116,907739603111","9,04278262236506","-24,2269241045327","-18,4167102692522","-15,3463734280855","5,56054464879854"
"2694","-87,9436971461612","-7,60044330628491","-33,8250792353939","-8,29300067302965","-11,068007915755","4,72559022507901"
"2695","-22,4640616647003","4,45270792768685","-34,5259493218514","-91,2808443029577","5,39792751357226","11,9233554118774"
"2703","141,601316115151","148,339489411193","23,7094093785707","-67,3498948876826","1,74772920429631","10,3800796155327"
"2703","92,4567467587262","102,461441993016","6,09653129352795","-14,3879425382984","22,338060288238","2,04017020060104"
"2711","82,0160605402741","91,5817173761365","1,1403605599083","-23,4745752963456","16,0278829538392","3,03493163241843"
"2711","79,7979532266951","89,0016509957998","-0,254279669938507","103,070037104483","0,576908315456683","-8,64533734822355"
"2719","4,24955355923021","-36,772941037248","-120,949094303838","67,8713315030069","3,55686857349772","-6,25478242495972"
"2723","30,1994152517085","4,40031170284702","-84,911976752685","-5,51941512470849","4,52506114871965","-8,14621996468936"
"2731","17,8369066458385","-77,5041679226416","2,56591553343872","6,65756876307187","4,83962804946453","-7,05458217901632"
"2735","25,2105111983438","-44,9273612222994","-17,8182682726479","-72,3122558568519","1,59163354420518","-12,6093249202406"
"2740","3,53885133962786","169,052146492889","-33,8659015136497","-49,0222883744833","2,53635632838721","-11,2769881713128"
"2743","11,9347413966379","102,796200536354","-32,3816206271805","58,5612453741549","29,6448791420958","-6,07788286208438"
"2752","58,4072244375586","27,1468817659787","-37,1197677043625","34,9493176361621","22,4524699288","-6,58101436285559"
"2756","43,280230134355","43,2070651871653","-35,4530572304767","60,1984173569119","11,7401536096701","-6,82264308943967"
"2760","40,0665240623246","47,0156486546877","-34,98405371883","48,7384423326289","13,2597095011878","-6,93868520054014"
"2760","39,3837772779738","47,9188331108471","-34,8520786113454","-29,9172858261297","-9,69796862745038","-2,43516333028047"
"2768","35,663625645249","-124,626824972476","15,0246118750783","-11,5210812243073","-3,15694511832959","-3,27234853338071"
"2768","36,873285300609","-67,5450712673478","0,0596487659850648","-46,8431451691724","-1,03175892539492","2,40459497127989"
"2785","19,2547598075569","21,7943385605825","-26,4932814596662","-33,7901576020602","-0,341283444250039","1,13094509608476"
"2785","25,5117318654327","-0,0193156583348813","-20,9651355791797","-9,43400470070081","3,23325050706511","-2,52022551151631"
"2793","57,2293925297007","109,393307501547","-46,9072291968849","-13,1960019049395","2,39462077104881","-2,27369891380485"
"2793","46,9677594930418","70,3399045469629","-38,2071971258107","40,3699557825167","3,79724781810766","-6,71455565518577"
"2801","39,4250370119588","-95,8155368463632","34,703762742688","25,4876162757003","3,25296298716182","-5,84727554594471"
"2805","40,8225975219166","-46,2183786778399","14,2205212029219","-11,1196638316212","8,10142069778601","-14,5492666847452"
"2809","117,984224893449","-90,8680649580423","8,45664537531009","-4,50137604580678","6,67669028201522","-12,7283948736805"
"2809","91,3770908813153","-69,4564905405615","6,83472120419539","-43,8070950470129","-5,51189810544875","-17,9329232302616"
"2817","74,9991377748008","9,66107846600057","8,09692561054486","-32,1015025970358","-2,47198473658273","-16,4323961460774"
"2818","77,5196674787958","-13,5766286381754","7,45210325433423","11,7401492360964","10,2413784825563","-17,2315188918917"
"2834","-75,6742856551174","-98,4158215188073","-64,9107684959761","2,56874929600079","7,37196507063438","-16,6152973099783"
"2834","-22,2200992858221","-73,5349657981229","-43,2732978587455","21,0696973959671","28,2159740814624","-19,3588578138813"
"2842","24,8871898236259","2,87961295012949","-28,5916016217333","14,3272891753015","21,9882170023829","-18,6764517825521"
"2842","14,8950590680708","-18,9990933095787","-29,4602499562967","-1,24735446254887","16,6146137797353","-24,4277279301092"
"2850","77,1241034563905","139,758058339517","-27,9860777138314","1,48482026343439","16,8687238040831","-23,1897762805651"
"2850","54,3445657504126","84,4064367711146","-28,5712534421171","58,9090765050533","1,87539498088269","-27,1545014889161"
"2858","194,296766710284","140,031472761345","62,3501615351472","44,3317326765281","6,0040448998496","-26,0585593781184"
"2859","143,029390984724","114,222641684936","34,9349668005787","41,0629941146691","-2,7051448881335","-25,5322335642188"
"2867","-26,9543725234877","-69,946189432628","-72,4586307694451","38,957405825736","0,465229157570379","-25,2794657768989"
"2870","25,9328451230988","-12,6208067786524","-44,6786210904299","-31,5490725765786","40,0225604788281","-9,96057062455607"
"2879","-18,245447846875","-138,291998012081","-29,9870521459759","-13,3965401364137","29,8747837182121","-12,6036766064678"
"2879","3,36894351708057","-89,094224345566","-29,8529223528847","-85,3599423795056","36,6283521512867","-4,7545252194831"
"2887","147,389909928735","-151,46717788214","93,9244018898769","-62,7001865581336","32,8225944387508","-6,98497302190536"
"2887","99,9869370036246","-124,258578044268","56,7546862383895","-51,7124193641319","14,8351110069385","-6,53639444473245"
"2899","-6,61153500324119","-101,940509533434","-61,9768083696446","-49,9960173021991","18,9909565895716","-7,32096474055165"
"2899","24,7417878121793","-105,647903307949","-32,38722294777","12,0699806558736","45,4676781286848","-15,2965061052553"
"2907","-90,1507555174172","-71,2699803178884","-106,553924003395","-3,93738283165893","39,0699959418894","-14,1267570452541"
"2908","-46,5594950679531","-83,1174464573485","-79,4240413917141","23,8838152746426","33,6411838528852","-25,7229882789031"
"2915","30,6283593925288","5,74148089081865","-52,8851777403147","13,293803326095","33,8773564519438","-23,2920742571535"
"2920","9,02679728406123","-25,1861170845845","-56,4172818803934","51,256162606696","35,629188035487","-35,802381811871"
"2932","-74,2146899266024","328,864960937598","-95,2205136673547","39,0962044291396","35,1983601671116","-32,8104526223609"
"2932","-47,8992125443636","207,826211382281","-84,1395378508989","116,410018540266","30,0330871993241","-43,5315824886235"
"2940","-188,887760276913","179,122542912477","-81,0214098665745","93,5599371820919","31,3548839672804","-40,6804013424553"
"2940","-136,840554788039","172,315627055768","-80,1439851444495","70,8754121090132","15,0333489868484","-31,7123708425072"
"2948","-18,530113433844","-130,746893256129","88,5262358812241","72,2028054486194","19,7304631709593","-32,4054773437935"
"2949","-53,3952468408124","-31,6164898986501","37,9891439331747","-83,5545273278355","-2,19482254978624","-28,1790904442997"
"2957","60,7512178696172","-258,433751466609","56,4217740604102","-42,2364655661664","4,68162646084586","-29,1493696198017"
"2961","17,0014541946895","-170,222207669223","42,6086186828016","-116,335185440763","-55,0628639079204","-25,0560947997781"
"2969","63,120984843678","-22,3777299275624","-112,515595635736","-88,3976599605053","-37,4739187464448","-26,0903010047068"
"2969","41,9190063617039","-59,3172316179","-68,1667290489725","-15,8010994758356","-4,95766860397246","-2,27097255351342"
"2977","57,0777468421578","365,585234052243","52,5849406596812","-29,2467016340489","-10,3931008796041","-6,83174842835421"
"2977","49,2981973394553","220,348498307744","23,5638218258414","120,750109696245","-27,2349686544187","-9,02205944085082"
"2989","-127,534610304091","416,840487764665","-70,5328319772582","78,4836617518025","-23,7069112041372","-10,0739555355326"
"2989","-67,1024612774926","332,437473796531","-47,0111326535403","143,952762494381","-0,784356423354588","-10,5791282656581"
"2998","-47,1135402566064","-389,194739414046","-74,7643566624669","118,09643342376","-6,33679154929777","-10,8217372919228"
"2998","-46,8669255246531","-162,325818355508","-62,5739671038996","-136,590806442245","-1,4403889007293","-15,4975012449713"
"3006","153,391244101958","-175,513622046886","-26,4901554641564","-74,7338932654424","-3,84954195005305","-14,7430352416521"
"3010","83,9357762676403","-140,641036584733","-35,3363617262543","-166,812276492388","-66,6109352948425","-11,3412025062218"
"3018","97,7808969596482","-137,659762891856","-25,795400353326","-129,956028197544","-50,0021854408944","-11,7074735294949"
"3018","84,7222710055469","-133,9527703625","-30,1106242878368","-24,4310359997669","-56,3316749845266","-8,84387435756835"
"3026","33,684093924609","-83,7137224140843","23,6704637785189","-44,7392260382906","-51,3881335445203","-9,46863186072766"
"3030","49,8411137328577","-99,7998106969871","6,80417749695155","19,8479897406496","-16,2799945509169","-8,24892108112935"
"3039","101,537539699399","397,036437016097","3,77669903717775","-1,30662004882775","-24,8733191055834","-8,6631554074964"
"3039","85,5203638282981","230,858398912853","1,92478261179029","81,2737708664588","-20,9649049910957","-5,82259059503973"
"3047","-64,4616892945851","154,430231981836","-115,461496546303","55,205008364858","-23,6950566713643","-6,45841034124652"
"3051","-14,3251398357489","157,305715879328","-80,4933746120415","74,6378233362911","-4,48090019066826","-11,3230136044816"
"3059","-39,4247405661209","-430,806130608486","-110,181451709591","64,2106012586716","-10,2381982641696","-10,6592376135737"
"3059","-24,757111138618","-236,273594761651","-95,5355195761747","-188,581576578553","9,66753364048103","-14,899710480378"
"3067","142,813748749872","2,00997195850213","226,527746777186","-124,083694922268","3,13492923155862","-13,9361960857311"
"3067","86,4139135364055","-50,4824011363497","132,154646444993","-112,239135047325","-30,8143993505712","-14,993218987138"
"3079","-184,763121249872","430,668875780212","-155,629448793515","-102,232939251153","-22,8445759370856","-14,500853864393"
"3080","-97,3742544214696","264,771233803365","-84,610371021868","220,211137943045","-1,82908385619564","-17,3038963893228"
"3088","142,847768102029","156,678161474999","-7,91200363062002","137,271678832252","-6,00112588512906","-16,6500565777061"
"3088","69,8825577598595","170,04448859425","-19,3294887261578","87,6159947009301","4,36906458526623","-23,9348019933734"
"3096","86,5571423494602","-151,151181044219","111,508903922417","83,8209094361943","0,738351605112004","-22,4332984214021"
"3100","72,0996315360156","-43,3209535270846","70,3261355723298","-145,125076309485","-33,9432478855101","-33,8702046671643"
"3108","128,017358243144","-44,1924459898266","20,928206021722","-85,5616763460194","-25,2113401471548","-31,3627748759248"
"3108","106,896991053925","-29,3991155961831","29,0278899258513","-28,8565748806701","-0,598048317821167","-16,480829438988"
"3116","-126,396599592325","-373,173501385287","-252,262774596887","-31,6771590551354","-5,60116099805636","-18,3337803683001"
"3120","-47,9594548296573","-257,697691236496","-166,41647976742","-37,6164750842988","69,8278680042723","2,05284551424169"
"3129","54,5068685508135","-766,221328254819","-85,5458119214612","-36,6253351145061","48,3348478001245","-2,15648456389143"
"3129","28,2756772795052","-582,814889735407","-95,7892337375248","-170,893400476294","29,6260485749222","-14,8162663137847"
"3137","256,872158776549","91,781215031764","260,516827004122","-135,307005092404","30,5475378121424","-13,8961220540238"
"3141","174,437120586328","-106,242058395989","151,779467892934","107,715321405648","17,4461401059452","-18,0134741497285"
"3149","-152,322496172458","978,551079041624","-107,393153292949","50,9129744271","21,1894806589133","-16,9908310479916"
"3149","-48,7420611847651","593,803757954145","-47,3229580571002","462,098871729787","70,9835624472389","-46,8947140799268"
"3157","-71,4253506485056","1070,20254866418","-243,526578717241","342,174635676403","58,1617178932255","-41,2560434060571"
"3158","-51,2443797049129","861,17788092921","-174,737239794365","434,55408729923","72,4219727194263","-76,541832572889"
"3170","26,332650420749","-878,969626567735","-45,3895451536406","385,799669629979","66,0551462009332","-68,4878204305896"
"3170","1,81376806829942","-332,635961334516","-72,9917880384114","-280,442309162973","28,8094813899679","-58,5408825227093"
"3178","-230,414280184311","-118,458895173905","25,7946147455092","-114,785913556406","37,7083213050723","-57,7638690850536"
"3178","-152,750762621348","-115,667991240287","-8,40741402041921","-357,874250006258","42,2746636373348","-26,9957016319768"
"3186","-66,5367593191968","350,38771965947","26,6520535104663","-260,094229631164","42,7582736049807","-32,2193000160638"
"3190","-87,2207303478964","196,910247885122","10,5176022341825","143,552507667091","26,1644107522156","24,5423323879238"
"3198","-93,4025589351661","312,119493014872","-18,0830210652451","57,078294963219","30,7730452919059","12,8020864195948"
"3199","-93,7158786647142","253,44072682644","-12,1310851848895","79,3448897491983","3,79371594197875","55,7958486515338"
"3207","-224,273708127808","-259,36273611646","-245,905166541521","55,8761394848141","12,0281002628495","44,4435878673015"
"3210","-179,010513000392","-97,9712345895298","-174,687956537807","-143,165166247035","-15,4483175697551","46,5904203673373"
"3219","27,2362549475003","-257,137955568382","-20,5965977666609","-95,487080333041","-6,37543787863835","42,6214359216761"
"3219","-38,9469446223963","-182,883461096053","-55,2361044413937","-127,552184592678","-36,929625243619","36,1560814818805"
"3227","172,224037859616","-43,6373868606183","27,8212072198465","-109,397592716328","-26,8567164754197","36,0510972823067"
"3227","91,0869798979651","-79,615952276573","-2,80690459237662","8,08138237828712","-78,8622780093186","8,64517233710043"
"3239","59,5491273311788","45,8289516964741","-28,6115461483978","-19,1836016201261","-62,75894581269","13,4834865050299"
"3239","60,8489603144426","-0,422484739400085","-25,8728357941887","58,0065338487451","-44,1261636988472","-16,1076721882617"
"3247","207,704337162134","8,00065448739505","72,8583243028481","32,1146205557498","-46,0723509845093","-9,31881576056326"
"3248","156,903530261967","-1,00184473926436","43,6407505370249","11,7247922788757","-9,85249525733688","-37,9732272184821"
"3260","58,5209516773775","-142,402325467178","-40,1995529091259","11,8283229131982","-20,0846217442483","-30,7344982599099"
"3260","86,6197280871535","-96,9346656078028","-19,7917708437108","-4,75435112610115","-11,6833598062386","-51,5741068372199"
"3268","178,391744535974","-117,883661909808","180,153268776019","-0,363123400203691","-15,9537799707602","-45,5823215391963"
"3268","149,888564630735","-104,851600250522","123,416745358944","-35,4367954751814","2,75994147685844","-47,2640198070477"
"3276","-108,211663439948","349,529900082674","-148,620800338336","-25,2997941097135","-3,15994852453825","-45,0716548096996"
"3280","-22,0446496576734","201,283953989314","-76,170726813757","117,717459570747","36,7941430291153","-44,0187722895141"
"3288","-98,4788371602288","271,899582300043","-210,458135368489","82,0903097672969","24,7752741323248","-43,5131258288868"
"3289","-61,717159695701","228,645687090985","-158,245901851571","169,746255654074","61,0727014756379","-20,4740340268621"
"3297","-14,5810646096429","-54,8543436306206","4,2463993731773","139,394202528314","48,865778097591","-24,4095182785067"
"3301","-26,5670755809178","32,9151956870914","-36,0291265300812","-85,2400165358659","19,7732519607421","-17,1810311017769"
"3309","-25,5383815443471","175,366287885961","-92,0461840119497","-32,2182439746945","25,3210561725124","-19,7095526732442"
"3309","-27,3198371193725","140,147774712781","-81,8090876972308","-42,534718893404","3,67216063729804","-5,72637075888283"
"3317","-126,013641325609","-51,5410769814867","-78,9284229411769","-29,0240691847625","10,6384091426628","-9,01095255433481"
"3317","-91,9809843080939","7,00097448051256","-78,1178191154769","13,7663396065288","19,6021467533936","9,16838275629904"
"3329","29,6525009583722","-285,852967129297","18,3521767134563","5,23937681737467","18,5144755931924","4,89900215603876"
"3329","-8,50665701260177","-181,301655924627","-10,5016767174717","-130,586235595674","-8,64049131517425","10,4473853774613"
"3338","15,5624184855485","167,85752795723","0,283659725407992","-96,5266507066438","-1,46317184258542","8,11199447138163"
"3338","2,67585559844424","66,6586928251104","-7,68140364627139","14,6995001114747","-2,48145000591864","8,51017415987106"
"3346","98,2534624259053","-11,988571774049","100,068008164585","-7,68038208452319","-0,812289772854973","7,70139981545785"
"3350","63,5587741920698","0,36066541317541","66,3881227309371","61,1914308415232","-33,7719542541731","-4,84501658845504"
"3358","93,7265255530252","-42,5450255797006","34,5689123516924","38,4860040744845","-24,4805878161509","-2,87042866109234"
"3358","79,1356167303567","-26,719872347797","38,6151548518082","-24,0320534603912","-19,7867131572269","-24,7183887691534"
"3366","-29,429741918604","14,0529414282939","-101,171887631659","-12,1775904769997","-19,2616677874004","-20,2108639397172"
"3370","6,50571893309793","2,72198818819191","-58,5072220131621","1,80256963367887","12,735797832408","-36,2831309365606"
"3379","46,3160792921","-156,85922793679","-51,6574266414949","0,531091356439642","4,13181185824032","-32,0018315184437"
"3379","36,7737275367581","-105,703028690582","-46,7299304544197","-18,1784222734303","-2,01383091327173","-39,0642410828991"
"3387","138,424461476059","43,9311127712463","148,859038598771","-13,5065573534822","-2,01055744185161","-36,4559607964507"
"3387","102,019999514828","1,41601991101366","90,896739964766","19,6472250469836","-7,03479037631986","-36,7230854558359"
"3399","4,90835011984228","158,805077964275","-66,3391780130683","11,8608577258068","-5,66716953648202","-35,8513719797119"
"3399","34,2771334306514","101,129020583748","-28,5845336666313","69,0509565945016","19,9036545206966","-26,3142297821414"
"3407","8,3405567055844","-80,0198133320744","-88,4233933032114","52,3944135139183","13,2116451818679","-27,734020590473"
"3407","20,8303719036124","-27,9782550832832","-64,2617319002319","-6,41595569706886","26,1132929836562","-17,7776221697877"
"3419","32,4215713248477","-121,408220655228","-41,9953205757641","5,69256193533496","21,3050534529825","-19,9960653241793"
"3420","29,8841033530544","-83,5646190547066","-44,7296702024283","-40,0650374940172","13,042455483601","-14,9824704656342"
"3428","-88,6333818500518","18,8411250854702","-40,3432858567689","-25,5416701770585","14,3579277338054","-16,574693295209"
"3428","-47,8122345821065","-9,87392038548647","-42,1089805027321","-4,01172771224165","26,5110180154144","-3,6616045899337"
"3436","-10,5390210083522","201,9105531682","20,982558066656","-6,72963653240504","23,4595712704134","-6,46009827331439"
"3440","-18,6203855950572","128,134067028599","1,73618331102652","78,7630775401216","10,7424608438709","-7,80407388214103"
"3448","10,0511180723943","-256,035570737361","-32,8959346634939","55,6793526349207","13,6106567837221","-8,44951769637857"
"3448","-0,857666211948517","-139,139270660822","-25,6412294824221","-23,5843483043624","-0,533352466321791","-7,23974151041213"
"3456","75,4770492030611","-248,920693519692","-68,2835313380431","-7,39377886528472","3,87124237590438","-7,65874692188262"
"3460","47,6942390504833","-196,954749369255","-54,2828495329769","-124,888544060778","-3,07319375385811","-15,4587258792363"
"3469","75,7553048484559","122,105550790816","-17,6896312302183","-90,6289007619294","-0,329449179344515","-14,2046630347493"
"3469","62,7168340019038","23,7689322394575","-26,3924931517402","78,8268355217884","-2,78820101558121","-13,6023997940154"
"3477","-22,2805411368302","174,97164710011","-33,9972483324011","41,1419967016619","-1,58705236459973","-13,3131630841217"
"3477","5,66190062556636","111,828532725906","-33,1371862165304","111,484277345426","10,5288940458312","-7,09525585125901"
"3489","49,136811424059","-227,510926827","58,1909110458064","85,2762081544669","7,46537921361577","-8,10910808593016"
"3490","37,3729876275832","-123,983398506637","30,8901545551992","-94,7503902472258","31,59652210528","-0,997258510026029"
"3497","-24,1154202448572","-166,42092973376","14,6148396337732","-52,6409433222875","24,4367586709473","-2,58179524833571"
"3498","-4,17853547967245","-138,484755008686","15,0350520996441","-71,6336110279385","18,7603454927708","-0,303267758293789"
"3509","-10,6682852350635","67,342830384958","-148,114204817047","-58,0575175575031","18,916072208195","-1,20900573124574"
"3510","-6,04702233093456","3,15370124065219","-99,0235427706767","46,2404841289877","20,6417668300012","-0,124235723606497"
"3518","53,9239597496073","0,271593906270808","-47,4003737610289","21,517288021842","20,2024470321699","-0,603275308326011"
"3518","33,6647002691597","-7,41188187090305","-54,8738870513075","33,0963694381411","10,0091185374009","-6,91233530517957"
"3526","-52,8667200217355","26,023135313931","-38,0722359795366","25,0127722241695","12,6972941804139","-5,94225915340914"
"3530","-25,2501837314673","13,9520642898293","-44,3443402366417","25,6021883615846","18,5959820819073","-11,555381826632"
"3538","53,9065205201067","92,1808317177312","55,288434868095","23,8015470947785","17,5124726842121","-10,2510820195479"
"3538","29,7232374432646","64,732350246313","24,3245707965408","29,8395911501477","5,43474740484465","-6,58519179291909"
"3546","-2,22773655683613","-24,6311155199195","-94,3792352906943","27,8818440465929","8,51068032727196","-6,82464929876087"
"3550","5,98432942975165","1,17683396658537","-63,7818584655193","10,6019822438464","17,8855486820736","-2,38039762849166"
"3559","54,2053109147733","-218,348463458408","-27,6742338365844","14,7573995456712","15,9314543817587","-3,24604732432616"
"3559","38,4497823472018","-142,407670788059","-33,5137392494774","-75,234412170634","-9,82991558906646","-0,622274584553675"
"3567","88,7290924970429","-154,367277030429","6,08958175694815","-50,6724209775654","-3,19981484057339","-1,36220864754625"
"3571","69,4108526066387","-140,203431351847","-6,76625318504939","-34,0559516693044","5,65470797056323","-0,197811370366671"
"3579","-68,7596453139132","423,743508988971","-48,1931335038119","-33,4357487919651","4,53155279416209","-0,638609986848445"
"3579","-23,1137495888583","239,480399609317","-37,8504385069832","122,980321148162","25,9429231493199","-6,92930477213313"
"3588","-61,6802436642707","67,0949700151892","-124,307533883085","81,8850646307359","19,899502434984","-5,95040873395521"
"3588","-42,8736344795782","99,2147210182918","-96,6361032258024","81,2795332856522","26,3114821210149","-7,00004460645721"
"3600","46,924275703647","-222,822244737832","-30,4169291652436","73,0747238917416","23,3947418248104","-6,50413186567445"
"3600","18,0017000370688","-112,191525931212","-45,7832038366095","-117,480307574368","7,37120002168357","-1,7067188926696"
"3608","149,49861596354","-8,39042033852935","92,537046758015","-68,9319017289024","11,1651325378359","-2,40276299686855"
"3608","100,434928273559","-27,7745635763133","48,4596336602764","-49,1877939034101","-9,37849913408248","1,82221311985792"
"3616","-35,1171852099253","43,4313826859479","8,55879812398006","-44,5097271280475","-3,05314910606598","0,851256416427328"
"3620","6,08498215744339","17,3174781066254","13,3309140509108","65,087532892333","29,1537434554409","3,42445550277756"
"3628","-3,03719817320032","102,793198665833","-23,135554132571","37,156709544007","21,617800539719","2,66023346048654"
"3629","5,02480900871967","71,0632919554852","-11,397025397902","42,6655650178","30,8950556752947","2,29321609301261"
"3637","22,8255339145031","84,6929869990909","-59,6520241788916","35,5288299996855","26,9092467258185","2,11695613115168"
"3640","17,607269834384","75,9251936214617","-43,2307256014769","19,8208128659065","23,9391539039047","3,55205769748051"
"3649","70,1252051986699","-185,293804878481","-54,0773066422561","22,5078765582716","23,9741672702281","3,24126472081202"
"3649","51,2825577029252","-100,240442285948","-48,1294771764856","-56,3481937703339","17,2851478350373","0,0525058006466592"
"3657","-33,1603540291588","73,2979234441993","-27,5511312424538","-35,0197510749994","19,111877592526","0,521105448885498"
"3657","-6,10011739086329","27,4515848543673","-32,7604935413298","8,75310751331071","24,7306807176808","2,26590061653936"
"3669","-105,816755904683","80,0421793790063","-51,4124334312761","1,55843957414028","23,5562364286099","2,10383788316651"
"3669","-68,0013984219644","56,5137473306829","-46,6609906609028","57,2869003102484","43,2758440613175","2,02600731236824"
"3678","38,3477513895244","-74,2286334917171","30,2946729314397","41,1359860918501","37,6827676586236","1,98862920807051"
"3678","5,94146046708182","-34,2334643237132","7,9495896259772","-39,1063625135929","7,38889048466945","-5,62807336901173"
"3690","201,050123385669","149,773867142113","140,868829805299","-21,246801926469","14,5463743385687","-4,28599210725207"
"3690","129,50065097623","94,4101857410129","97,2716009441712","31,3233884245343","-16,6301273754711","-6,68095875477533"
"3698","39,2229121866146","190,578039310971","-61,0778782483583","21,1042496647795","-6,75940926756247","-5,83114064631926"
"3698","62,0435490228487","151,383712671493","-20,6365841377952","57,530280577253","13,1985868944012","-6,94276614924787"
"3706","-119,013606781523","-138,20503604265","-200,021804991072","45,8506887185033","9,68296320384352","-6,47662390671148"
"3710","-53,4789138564281","-47,8794024436107","-139,499857319835","-37,8646280220929","37,0174130577813","-4,73300890728336"
"3719","19,4330303215954","-44,0877345981518","45,9540169869079","-18,1797324702417","28,8984078042536","-4,89563841603224"
"3719","1,92305782023933","-33,1885615879917","0,139756298645305","-74,668920038003","31,285829985046","-3,45399082938233"
"3727","-184,127169147791","101,610282639032","-29,9381872272416","-55,7753071180221","29,0615062455351","-3,76164008209008"
"3731","-121,653246313244","58,5770812801309","-28,4019614446456","23,7329377269543","11,5878325622773","3,6893632279375"
"3739","-415,83963136486","-452,278978239363","-21,0952544778219","6,62508058595368","15,9106155335165","2,26770495135575"
"3739","-306,339064695699","-289,425660786147","-23,0391857846048","-53,9997061021046","32,3909822472241","10,7034561699461"
"3747","-88,2327200966403","-1788,01593333785","455,904677937862","-41,5048804722648","28,7454726791319","8,75472273068351"
"3751","-150,896371319282","-1271,39830892772","311,676947919326","-268,264653736279","-41,118009664372","24,5360980430825"
"3759","-53,3809673246394","28,7021999005109","-772,101383041778","-205,96180922223","-22,8167368375306","21,1150979956501"
"3760","-94,6639736078036","-330,986171633984","-470,070872963023","140,817685505892","-55,3979049620847","13,3931625195701"
"3768","309,48993132111","1073,3286593355","-668,65095768379","62,109215849484","-42,9835646148036","13,6847057185359"
"3768","164,351790740848","561,354136577014","-559,530343177781","821,504379942866","-84,1777993102039","-36,3270423496046"
"3780","237,195413290141","466,385049826994","871,838931340634","605,355267282291","-70,5618543714802","-27,3451667990281"
"3780","194,670925966561","428,863657372367","459,618674271748","399,305434401022","-47,7119307995039","-68,624134753317"
"3788","-27,0819720299835","465,799911287279","776,710607182033","409,613020076948","-51,287963890187","-58,4483446193478"
"3788","44,8069746769705","448,559139144351","613,938599913752","-185,137522899006","-22,2980422913246","-83,9564320029387"
"3796","-7,84729198019546","1265,96126891154","-456,153334397363","-26,3005167289147","-30,8791828375628","-76,2066820124188"
"3800","18,9663921474832","993,803652656799","-161,271544692538","143,746901192962","43,3873407238112","38,4569083314257"
"3809","-7,51301136755137","118,349432643872","-645,43311424675","131,262187368318","21,5166211414418","20,5240573329737"
"3809","4,86148113543137","370,740317512878","-451,673619051341","-178,726048099299","2,6851069462417","55,984572120195"
"3817","-101,550223704105","-2062,08432190128","255,919287975539","-99,5736387995859","3,56672594609882","44,0144718957372"
"3821","-63,157222498671","-1225,01519859543","75,0321893531762","-838,877419245968","-1,17213149827106","86,8978467018777"
"3829","620,693806446387","172,232873272279","525,964261034931","-627,93278040665","0,288208172268624","75,4925723951652"
"3829","387,976878551434","-176,417492232089","360,854160898458","64,9168628623173","-32,7393023541919","94,3311990320029"
"3837","-744,719721753619","1893,34862506118","-192,595508304493","-74,7399992288463","-23,4699791756352","87,3784428596593"
"3838","-379,359327296249","1163,18218587607","-53,3333178658135","868,438139980086","85,0728610452044","153,947900300849"
"3849","-328,552361634297","-390,288628063418","-687,838947472886","591,450102960105","57,338556858343","139,917858862879"
"3850","-302,758501943698","24,3143801909251","-474,385475563945","205,292831297444","-10,3008100690783","105,824430068348"
"3858","451,705473956369","-2280,13692067501","353,895766725107","250,682521186317","2,72308045928347","107,451072860779"
"3858","192,990155227436","-1463,62477177953","139,969727290659","-1081,66004858906","23,7055460307433","79,3570108193443"
"3866","136,238942392047","-462,605603107515","-30,2186672048178","-721,299435653708","20,5227736502458","84,8648473884313"
"3870","125,182236768409","-683,219456480578","-14,1087812411206","-306,942985070539","-116,194318028324","34,3187216774813"
"3878","-374,106081529997","1723,64667446662","-71,4453349549138","-342,794842128171","-79,613861111809","45,043962552731"
"3878","-202,179096965034","899,421634780737","-51,5795379006683","856,508648521523","39,4774972518559","19,7997486947151"
"3886","118,567220509328","-255,032179932583","69,1571466965742","533,150112054421","14,1704189543059","27,6762238532401"
"3890","27,709269576567","15,1954977080664","36,1318111316438","144,60305903892","61,2263809798927","7,14289266452974"
"3899","-147,110346011943","-835,643533681325","-148,459083122905","181,184451100724","43,5149181106019","13,2817675708871"
"3899","-97,2504975097083","-518,415293286362","-98,401984412502","-481,120859433208","-49,3446960484816","-32,4020511467907"
"3907","615,849918718236","-145,263787790885","135,665295426734","-299,132961094861","-27,5148933604083","-22,3416890452923"
"3911","374,346977001243","-225,77297685554","73,5305899252143","-33,1814328959939","-42,1986497064726","-9,91145192285988"
"3919","-415,218743558147","493,771188023828","-272,207397808033","-66,228416025379","-33,969419327398","-8,94183490936029"
"3919","-169,960735097826","245,407097878794","-178,496238849818","289,845051744739","25,6576274637772","0,642325427658663"
"3927","91,2874764314246","-72,6308341797874","160,659748265764","189,280090679928","11,0305247465005","-0,754884935712085"
"3928","29,7892467679695","-1,05176670073429","74,0964491478074","-19,2198422407028","113,484487058024","18,3308598424783"
"3940","-301,46013594294","148,136978116115","-58,5341385910083","15,2590439663083","82,7718993127405","14,4967820707503"
"3940","-193,833544647729","108,516261910615","-32,855684459887","-37,888128394849","17,5150822312081","17,2147186204834"
"3948","275,919449312654","-260,50210218621","-144,213668248607","-16,8641427626019","29,3130659927468","15,5200066941613"
"3948","125,717731693525","-144,012761551239","-106,549215882769","0,2174329748793","-7,05612718950675","19,2653729399689"
"3960","-59,9218219158581","-89,9451270333046","-106,262269940704","-0,00505079539114728","5,12747938348229","18,0640837644318"
"3960","-13,3606521742352","-92,1232872352983","-100,181524870345","-81,5069890243806","17,4614415658691","22,0464161130515"
"3968","-189,374169221162","134,76853926861","-105,344856527468","-60,0734605319933","16,4687603131014","20,9589298251856"
"3969","-122,767963200006","59,5746781324286","-102,797790745456","40,235091722849","41,2727194581809","29,5551670240211"
"3977","-301,673150228103","329,08832440923","-81,4577964351458","18,1625406619644","34,3315548119655","27,6835069204208"
"3980","-231,681274931909","230,001991554986","-87,4528349095115","102,09422463162","38,7767576141967","32,8636442173448"
"3989","344,479583975845","-302,961035081826","237,395197937191","75,4825111559829","36,2210092067684","31,3514033353244"
"3989","152,88404937225","-140,350262328878","138,805716166804","-33,2245396312526","-55,0646932466866","23,0263984270999"
"3997","165,806427683744","-433,204861207208","-79,7020296461369","-9,99262003914945","-30,723524803539","24,0283177430301"
"4001","138,551766566825","-314,653705870125","-30,1889535684101","-186,591241038181","-51,2917307956662","7,79223528034944"
"4009","-226,536310326462","-103,202980047339","-222,488870562911","-135,322346332582","-40,9743649930444","10,9948623785175"
"4010","-103,098696218904","-157,058612611167","-156,601050076321","-8,30486089846566","41,1074042273173","9,49342221564791"
"4017","39,3162826941671","621,691961743628","-40,1000644015998","-31,3436262422973","20,7758671055695","10,7723561046208"
"4018","4,57212025894292","357,368343390591","-64,3173032395138","196,83516850342","-17,656750863556","0,748311197871578"
"4030","204,546760796844","-10,2885464426139","126,507702110988","132,012280860263","-11,143553418604","2,9342671510832"
"4030","131,031057654988","75,5236602665412","65,2048492890032","85,1606422061831","14,4239756696143","-3,61468002554506"
"4038","133,288278295308","-330,737492163541","3,2708132317054","84,3139716838952","8,73089579151447","-1,7598096076314"
"4038","123,767821258855","-185,080072323657","11,8429030718777","-176,870151768827","-21,595472628631","-14,5467619008287"
"4050","-141,024866756613","362,45274050869","-92,298484122912","-108,210685182537","-14,4485452186431","-11,687691249837"
"4050","-50,2796555301063","201,297111783328","-59,6033196461697","-0,237708428011317","51,5272553901643","-2,71587181796756"
"4058","-182,942862699473","124,297125850606","-129,458916603476","-14,717914519146","34,9628702180485","-3,40715868602908"
"4059","-126,126951743846","128,037006041765","-103,115912101182","129,943654433624","27,9059832609576","3,85960279392904"
"4067","30,735176696834","-239,512910710127","2,25737151931431","88,8726628159623","26,6131924300734","2,34946244314807"
"4071","-16,9397116162619","-117,675335927751","-25,091143819084","-101,166342163767","16,1425701978663","10,7427201766724"
"4079","55,1592061638018","-175,162152118814","29,082919032969","-59,4434002306555","18,7406527810747","8,77357925612729"
"4079","24,4765074870091","-139,794831896116","8,32721377754171","-95,1844871519723","-34,0183896982373","7,82790002044719"
"4087","-80,3573202152177","110,103541502957","-135,001755041226","-77,2732260909089","-19,1598643425562","7,37373789956203"
"4091","-47,629101501569","32,3655554244729","-95,3337687592293","88,3147517682493","-4,28171908755073","4,11612599822691"
"4100","-71,0644198980688","-137,675153775123","-82,4528019454302","48,3217176496332","-5,44779228262106","4,55165902643486"
"4100","-59,043216314674","-91,9993653285883","-79,8281660151167","4,88299457665065","27,6753257660933","0,201572556935292"
"4108","29,3131451547091","10,500882960241","8,5592624067048","8,19067746200654","18,4370655834043","1,11244505737579"
"4111","0,0843147383806782","-17,1917513757535","-17,5689827415912","-15,6170990204175","-19,7415313854362","-1,48960944636346"
"4120","122,578409437379","154,289503808581","4,29495719120828","-8,66962398268785","-11,1458022202163","-0,739245208141697"
"4120","76,602086582459","93,9553328565531","-6,55264575628604","-6,31977345349757","-8,35303975503643","-0,378883046206228"
"4128","-60,0816726909453","-154,812368613106","-85,2237365781488","-5,52498146366693","-7,44566796178872","-0,205819244468349"
"4128","-18,119921686111","-80,8062499545249","-63,3613654216919","6,37622562995406","-10,5010594637269","-3,16220611669754"
"4140","-12,7803170488961","-163,738875156729","-21,1186987395907","3,40158126420581","-9,49375973836658","-2,58200987402865"
"4140","-9,64592646865864","-126,405887480303","-30,2318357687016","-87,3400682864414","-0,790992730169612","5,29538092341013"
"4148","112,573477156416","210,338554693714","17,0433290625063","-64,0316953967517","-2,96345354454244","4,07849508794293"
"4149","70,5387966162544","104,195632387618","1,34631039424295","60,1757549246859","-3,66928860551707","3,49408609273705"
"4157","-25,9814322545284","-109,601116388547","3,80367352411613","32,1865489587994","-3,89861524285156","3,21342387798916"
"4161","2,51299741349192","-53,3018301627602","0,49516251117136","54,2933489248987","-24,0743096923517","6,11813665015063"
"4169","8,56659403736097","-39,9507665335627","-0,435834988217472","42,7705511194988","-18,6294164301824","5,51312393906821"
"4169","9,85267108861169","-36,7846358065049","-0,697812760235463","38,8731851881749","-16,8603642372602","5,22256679700507"
"4177","-73,8890280286235","-4,30240567193423","-23,1134006802964","37,5549757169016","-16,2855971094955","5,08302683155069"
"4181","-44,6798198766911","-14,5994248631605","-16,4210285585947","-9,42041904836529","5,6774301893283","6,53576316326051"
"4190","-20,5988539135","5,87581618438522","-95,3122790377439","2,691052292141","-0,186756538418008","6,23343927647426"
"4190","-25,4828906900674","-2,268593907199","-70,5118596443604","36,6993701181831","-0,416938839275181","4,56849798487467"
"4198","-71,2092860426329","101,571337003148","-178,679707185537","30,2020330577986","-1,49172533820115","4,76891051418401"
"4201","-55,9237865872309","66,1964009742168","-142,117567353176","-0,245642114471266","-23,6172095158773","-10,3323449502199"
"4210","40,2762757009694","64,8588531728193","-51,0547259955448","6,45601420993161","-17,80580521819","-7,58471758459395"
"4210","8,71382714764486","60,5416611265128","-72,4301240947223","25,3404125576101","-25,968266139235","-4,74542015588515"
"4218","52,0598789313572","-141,447669002009","153,566665994035","21,7276990479886","-22,6202592448377","-4,38184856269185"
"4218","33,2686792405078","-75,3483188992303","82,160967363842","20,5057678130732","-21,5324878867465","-4,20724343271931"
"4230","216,969434186508","61,9638080576104","223,616678646994","20,0924729479018","-21,1790696995068","-4,12338938035796"
"4230","150,996369727926","25,5266177655165","169,421567602666","-36,5474665400094","-29,4397378654807","6,55513395671008"
"4238","-20,324042570855","159,677039109477","-182,675286691515","-21,7048425731974","-27,1236386198907","4,68349103985631"
"4239","31,2792061491672","110,490067858437","-85,7534791496974","64,7420784000419","-31,3964317536801","12,9031372929563"
"4251","-48,922895549797","-84,5113262338168","-230,340724082764","44,981095725424","-29,7846672432076","10,8506195198964"
"4251","-14,9617055112032","-26,7548258381768","-171,026810043951","-26,5116746987036","10,9413688457669","9,86489858007164"
"4259","56,6051525293727","-127,643802279069","82,8313415596138","-11,6927366675588","0,173305631892515","9,39150644483062"
"4259","35,8094186004207","-86,5690637565412","16,2656826930386","-79,7983560604623","-16,726041345701","3,08515863360615"
"4267","31,391397739155","-76,8284172167676","-2,46554162735207","-58,8337789878032","-14,2166589556692","4,05653731157264"
"4271","30,452796178024","-74,5184768878533","-7,73640907634796","-51,742911836658","-13,4013576804707","4,52304158059214"
"4280","57,0666654246177","172,829088756155","45,7757659597014","-49,3445616681366","-13,1364653420289","4,74708009198814"
"4280","47,7207399541419","91,486192759149","28,8338089737632","127,614162133044","-6,35000619238662","-4,26382759832024"
"4288","49,3103159897757","-181,655022370821","-116,859201832535","81,467065311654","-8,14507767261837","-2,59131285264922"
"4292","47,6480189104801","-102,428947360411","-75,8564444617403","-42,1563008364154","19,7483816079801","-3,3078385844235"
"4300","-76,0461923508399","150,818864428029","-150,248749877012","-18,9695395721757","11,8109991713714","-2,65194981551906"
"4300","-33,3248323660165","77,8751790957249","-121,182351138851","5,49063016816871","5,88193666932426","-5,37646016679771"
"4308","-76,0877426006894","161,059754471578","9,01775526478667","3,76381466991761","5,95557732375283","-4,68490530635962"
"4312","-56,1726554078394","123,786515382129","-25,3446234585481","77,9593631922735","21,0553927260473","10,8447171837798"
"4320","-9,04048868845826","58,5359959646563","52,6348546745557","58,0545881498282","16,9613404212471","8,30281293185354"
"4321","-23,0273342350355","75,0621970058722","23,5778673656177","1,46910487424619","2,23038739846536","14,6808160630059"
"4329","41,9281424545168","-118,458526911683","-113,494011868752","12,3301476131538","5,44428352204115","12,743849827275"
"4329","17,7278309891145","-52,350893792318","-77,0653136732281","-38,8346937240033","-21,9881979715144","7,254371419309"
"4341","-100,029236400663","-311,679299868115","-283,358737132496","-23,1402225440601","-13,9010433124229","7,61805134136832"
"4341","-62,0465395680793","-217,177593762834","-215,408615349463","-92,6114787275553","-19,6490114480641","9,31245884736425"
"4349","-275,633571205654","-533,235302403317","-189,413389330063","-71,1088021752473","-16,5165330220593","9,12619745717248"
"4349","-197,00979907501","-416,186635918176","-186,098470224333","-100,394854019625","7,95259650051926","10,5564958410571"
"4357","1875,37801175377","337,867290423258","1004,10919066289","-88,300300825936","1,90264531810924","10,2433961377064"
"4362","1165,65353230789","104,686998901544","647,027331090407","98,5850546825017","-130,720699619437","-15,742725853991"
"4370","1014,87368646761","49,3895854193224","546,546384514019","51,7954511437354","-95,8101795959384","-11,2225518161651"
"4370","982,840746122411","36,2761103573059","518,27157761967","35,9697628124963","-84,4677107852613","-9,05173982163858"
"4378","-945,582547668976","629,011496169808","-935,031851774628","30,6170264733218","-80,7825293948212","-8,00920812349038"
"4378","-280,273033728704","431,575407042891","-502,983749871843","412,675234736611","64,4732897076434","-37,9035396639825"
"4390","-575,091662219496","619,214320303287","-152,833195746691","310,899115066286","25,6670753238439","-32,2602818897009"
"4391","-393,72541467142","530,711848392828","-187,30268186154","-338,379288424009","116,915018299169","-18,9118568672181"
"4398","760,237743016879","901,077908472628","389,042190710425","-187,985287977491","84,5615817573879","-19,5012804371167"
"4402","381,395395120765","766,908166468968","210,222589400557","82,2361308039281","219,783510548163","54,6834163054524"
"4411","-1025,45233468744","356,0766140643","127,250198923195","41,633356482852","176,717273459647","41,3105908680795"
"4411","-582,334915131675","473,650188886561","122,902207107389","-78,4529795104947","47,1431833793212","54,6450507119004"
"4419","-488,195318506905","501,532110377872","121,678705208184","-55,0698854583427","74,0444098744092","48,0489203698529"
"4419","-468,195509739379","508,144153494047","121,334418245196","-47,1610012041128","82,7846498445991","44,8811310891411"
"4427","-8,12092957854486","-1350,10043560565","413,400436893095","-44,4859723988017","85,6243640394316","43,3598013993646"
"4431","-165,378810938586","-735,772838594641","325,586269720542","-653,450465635691","130,099560077341","106,458698097212"
"4439","-247,051892309941","1121,64427827631","-1000,10837643562","-492,421056234375","118,549603318437","94,7619210808463"
"4439","-237,403209581805","591,120450813399","-616,151837888704","549,134924043803","-171,64489103152","43,5520374920447"
"4451","-11,9094149325124","-141,112640860828","89,9661418740613","307,421309838115","-94,9294218542945","48,9585088795173"
"4452","-89,0036140480542","29,2423406368073","-59,3359934791143","41,2099303303755","125,982086937253","40,9167124071471"
"4460","-253,748935968446","-1077,97787874298","372,986235176213","62,1690237253825","80,756494671688","44,0546424749552"
"4460","-205,748819671849","-689,549015811904","218,639423644845","-528,978850523526","-81,3460501974102","-42,5838880769451"
"4468","-195,551270700216","-597,435264251865","175,207047264014","-368,923310574073","-46,0133567305565","-26,1920119536695"
"4468","-193,384817511096","-575,59099870878","162,985406276614","-314,7875859824","-34,5337232740726","-18,3198192010397"
"4480","309,377435418283","388,582663473608","83,9276684179994","-296,47721273327","-30,803976929689","-14,5392013957012"
"4480","135,188482784424","73,2311024923149","105,6812391434","231,511427438416","-83,1953405286331","-65,9148233114744"
"4488","133,933346192716","-422,875246933886","-190,671952029237","96,0934847723474","-68,2173558744336","-55,5879476973353"
"4492","113,666694404188","-301,524117498152","-98,0641725290734","2,0996513967444","-80,1019794290776","-128,135737216953"
"4501","30,7088067847463","139,761827324859","77,5138269611353","-0,691964679426762","-73,9633075303047","-111,976787660515"
"4501","57,0845344526709","10,4103428384368","39,9205473358051","-46,5039419135558","-28,4162762736852","-99,6572067564519"
"4509","-123,217347913805","607,311928874252","104,960630019252","-34,9989668488379","-39,6179925156832","-96,7407323529702"
"4513","-57,5221983385143","392,863831034656","79,2625652709163","307,893273316952","8,67062048951668","-77,1030923312587"
"4517","-43,5653674664128","342,008653440851","72,031265775093","219,870014166406","-6,64035263395246","-79,672122606069"
"4521","-40,600260769012","329,94862999391","69,9964163453639","190,097830607247","-11,6149057198753","-80,9058984934997"
"4529","199,561582898422","168,431663367456","315,184376846323","180,02795904791","-13,2311438391057","-81,4984189302306"
"4530","116,583587653233","220,128810113216","241,178972062576","95,1953302757209","-58,9839298979646","-63,5459724484405"
"4542","116,830559266","-238,293928257178","-467,087873121514","115,502316406602","-46,8490636320047","-66,9243163290869"
"4542","106,883027995456","-80,0063393614378","-266,39041713194","-148,497602121397","-12,7546524460362","4,40125206237746"
"4550","145,883376962327","-125,323525681711","163,022133212309","-74,7905243543263","-19,6773383517474","-9,3446687617063"
"4550","131,168939564779","-89,0702451983973","66,8565535943185","-14,9633635641958","4,87505417155299","12,9291142603904"
"4558","-102,55127298246","379,632316168245","118,851911443919","-15,7279708957564","-3,14784476448156","4,62609073590329"
"4562","-23,2047633695237","229,782530309108","87,48313012459","67,101871780269","52,8739650224131","15,8360701148904"
"4566","-6,34772259682334","194,24648429596","78,656120979719","45,1174815648291","36,075516583313","11,2196587755615"
"4570","-2,76647088205156","185,819307980635","76,1722472949091","37,6816821267416","30,6176810265809","9,00262885077942"
"4579","-43,1193258956983","-48,8760819176115","5,01048151727924","35,1666652105739","28,8444238670092","7,93790100785417"
"4579","-28,6922262737764","27,4672074192324","25,9859370222318","89,1543901262534","-0,208389564600861","-1,6919362716008"
"4591","-175,781544259417","-234,722436157426","-346,204844386257","74,414705316151","7,35231735157657","-0,316662243796707"
"4591","-123,030437784891","-137,899256663994","-230,937361651921","-110,041777102093","21,5344916848261","-27,0116936950582"
"4599","-190,47581787028","373,372809176374","-54,1388573930697","-64,4306537039062","19,1422967227972","-21,8319731762731"
"4603","-160,804482452702","217,618145315992","-88,3886934321","133,791040518088","-23,5124009629304","-36,061668078207"
"4611","77,8808510574095","-30,8608750098805","204,448114777576","90,8357366897153","-12,3709621589129","-31,8954740584802"
"4612","-1,41082644103487","30,2137027816243","110,850843710783","4,85085431474884","-22,1518862906671","-40,5329133012198"
"4619","-18,2562182175268","44,6972003334508","84,51306669512","18,7681127066254","-17,3297199874824","-37,6810404647374"
"4620","-21,8349951214341","48,131881487529","77,1017555508908","23,4753591262853","-15,7629925122986","-36,3114295363763"
"4628","-113,760431096858","84,2035079542861","-48,7233290330033","25,0674951800597","-15,2539609221034","-35,6536743689335"
"4628","-82,2898449279783","72,7576942051543","-12,1298423103249","-37,5412221809259","-53,6158490463271","-42,93653943634"
"4640","314,082275413576","-224,353492851563","11,9162136143696","-20,7174231494311","-43,0796713919928","-41,4341328277768"
"4640","180,290906975991","-127,811763804273","10,6826465651637","-66,5419379765083","-64,7829373876515","-37,6731018792976"
"4648","-28,6755675096733","-9,72322859392219","30,9587907936095","-51,0412035127662","-56,8343539085137","-37,8668680868768"
"4652","27,929834697483","-35,7191871012967","24,6643905332122","-60,7542987693144","-17,3996755802171","-24,2821710799192"
"4661","61,406182017065","300,10999090251","-32,1021896642769","-55,03956743235","-26,5873024417844","-26,7581251122345"
"4661","56,5181791854354","185,750018772282","-16,0760050772951","101,437860173439","-7,7960883748176","-29,4669515180117"
"4669","55,4797306962479","158,630185344543","-11,5663215015576","61,3633567126757","-14,6908009335001","-29,7678644482535"
"4669","55,2591139532055","152,198867187953","-10,2973203963415","47,8089225257362","-16,9309011125522","-29,9123777773446"
"4677","-41,3155409280796","-247,731637108073","-198,986812018663","43,2243944527194","-17,658712282268","-29,9817802528985"
"4681","-7,83267398011606","-116,572939157613","-142,083036928906","3,45307555166608","-9,51968483444483","-25,4558597140439"
"4689","42,1819461407147","-193,003569184583","42,3527027509501","13,0011877422532","-11,8753052917156","-26,2822879644161"
"4693","28,8074732712807","-150,128669396642","-3,74805563611538","-70,1813406991909","-12,6406491350156","-20,6001784369849"
"4701","-15,1475986771868","127,992918031114","29,6817776044242","-46,3162396971712","-12,8893102453695","-21,8713473315583"
"4702","-1,48578435941493","41,9479107020631","12,0887558584354","116,300203238764","17,1816784038548","-13,3633236400988"
"4710","1,41664653650184","3,91425877508839","-11,7664855885225","78,3021042766002","8,95177780742916","-15,2773482496426"
"4710","2,03326340082372","4,89478906296244","-7,47922435455339","7,28805465504067","-27,2241031220514","-35,9533124609227"
"4718","2,16426268073803","5,12731638508977","-6,27281171985604","18,2689108399233","-18,9776891719072","-32,8829370135727"
"4718","2,19209327106244","5,18245895049989","-5,93333358551106","21,9829753852262","-16,2984196289017","-31,4083902830638"
"4730","20,0735216142725","-47,6901306030138","-88,3308601197268","23,2391866691575","-15,4279218188868","-30,700239733485"
"4730","13,8724028520991","-30,2285721125277","-63,5170882625497","-11,2330756161623","-6,7696019130819","-33,3996513829451"
"4738","-108,998522336481","-64,8704822745704","-17,0067024554943","-1,89265889406298","-8,95650364303742","-32,6960428797714"
"4742","-67,1022565245013","-51,0856192295135","-26,9189258960208","21,2077879389144","-16,3674258932695","-29,3186344409287"
"4751","-45,6885999127979","-130,670825923752","-14,2407255400672","17,0210721781828","-14,7752432052153","-29,696635224062"
"4751","-48,1393023525529","-102,544016504825","-19,6731470185021","-24,2774634478111","-22,6334353351746","-29,8781699674369"
"4759","271,311782210801","133,297321090424","157,533148396605","-14,2459030994112","-20,1865711544743","-29,9653519642015"
"4763","160,178661089742","59,2257868972782","103,398062632021","62,2649219906253","-56,2437563725172","-34,5664721409066"
"4767","136,568604855715","41,6601331843896","88,1647358337018","44,1432449569156","-45,9587780468198","-33,7761584902078"
"4771","131,552685661232","37,4945357828756","83,8781582460439","38,013934360444","-42,6171765525083","-33,3966106369573"
"4779","-116,195056196675","285,069319095308","-297,139830945926","35,9408123023621","-41,531486316401","-33,214332913702"
"4779","-30,8286730528642","202,780306508771","-183,356277792254","105,033921866798","-0,976372374821356","-25,528042345493"
"4791","-12,6927196468107","-456,6506389682","151,136343145636","86,4033444543817","-11,7999683944109","-26,836703998948"
"4791","-8,83976496097787","-250,031032083956","69,2607974511448","-207,384151378526","-13,6414685780796","-18,3466861917768"
"4800","-34,8344844845554","126,858793382331","-98,1413923441269","-133,752151810816","-15,2397741428223","-20,2693581209278"
"4800","-25,3570216323321","30,2361261751008","-61,2474831148196","62,3146838406543","-32,5100537884821","-19,6729702886837"
"4812","142,898747134213","-63,1916254611597","-61,1773639357533","25,630540322354","-28,1211878563995","-20,3865552416542"
"4812","85,6444197312258","-45,3474988380632","-55,1576327696443","59,7523661581804","-1,56875773305147","-32,88725697375"
"4816","73,4808282115258","-41,1158631296286","-53,4637122595679","43,2934210107442","-7,94184211222888","-30,8907145912987"
"4820","70,8966923851325","-40,1123541797582","-52,9870519876588","37,7264976674318","-10,0124646853093","-29,9318758131594"
"4828","11,3584947380341","-25,771533246732","-83,7878175154442","35,8435923394957","-10,6852123825089","-29,4713938266288"
"4828","31,7096985885107","-30,3706870618639","-74,4549900209717","-12,9845691264754","-24,3045795344009","-42,9280006743953"
"4840","-15,8057160208082","47,8671485674468","96,5945366218153","-0,499760679822274","-20,7295278605076","-40,3905313881039"
"4841","3,09970911624829","21,4208175697226","46,7269686895989","61,8849064835531","15,6090860362923","-31,5731608987101"
"4849","41,0796168358381","-402,647547046189","36,131709415762","47,9853267587042","6,41554421767301","-32,3386218171648"
"4853","30,1483883053792","-266,21300886058","31,1502594974379","-147,819390092418","-11,6473377456943","-28,1469831011108"
"4861","52,8517881410924","-112,221281958201","-66,4933903611709","-99,0465899041246","-8,51598923420064","-29,1339500795089"
"4861","43,6750896142948","-144,702997587804","-37,9697969664043","-37,6823567450896","4,22708136978271","-34,1671916777077"
"4869","41,7255144914618","-152,405856384577","-29,9434086544986","-43,9270787514265","1,36731992196263","-33,5844041879532"
"4869","41,311330332696","-154,232546646865","-27,6848254373743","-46,0392365111228","0,438180080847611","-33,304520700629"
"4877","-117,868752864371","370,665215868816","-171,412116366206","-46,7536334686364","0,136301459116657","-33,1701067541153"
"4877","-62,686310381952","197,141810439929","-127,856215819142","165,711184013621","-1,63687808808706","-25,5068027478803"
"4890","-74,2010580562335","-134,879467907405","6,42115975443369","109,57334416298","-1,21298619808803","-26,8265036896523"
"4890","-63,647348031427","-48,6164734830173","-26,7938969903146","-92,208810527329","5,62513209192904","-19,8615378479426"
"4902","8,30928254648919","-140,982437349272","60,101457925471","-50,4577643422283","3,84684472686065","-21,5166154480249"
"4902","-15,403644821896","-98,8865136426174","28,5533511845767","-29,6891951320056","-10,1317135569115","-16,2324644798336"
"4910","56,4232990197304","-23,6780435852134","72,9526447823791","-26,6646238907802","-6,67336350211988","-17,6947528327495"
"4910","28,6828199088429","-42,8427718348037","54,4463711603347","12,5790694532482","-8,89993918152657","-36,6340205142757"
"4918","22,7893988912378","-47,3875808981088","49,2388036480254","2,85249801125586","-7,62335622548019","-33,7295971683063"
"4918","21,5373508948095","-48,4653571729871","47,7734216943642","-0,437328713712376","-7,20859292910271","-32,3347488762159"
"4926","108,861382586691","173,398852648456","-45,4436146579022","-1,55004967040936","-7,07383584872096","-31,6648734737035"
"4930","78,4132353379642","100,012720086992","-17,6743956360662","61,2208206761503","-17,0806460939286","-32,8629163979795"
"4939","-355,280252602465","35,0125058949893","-319,209236353694","44,4518667901064","-14,3318704533547","-32,438276091702"
"4943","-208,417749824832","46,5980654328399","-224,059545628275","-34,3377527804886","35,1390760310156","-30,7145923825899"
"4951","-522,214497351827","290,856726121447","-302,119848578177","-16,9868343874326","22,2122444385888","-30,8867938865147"
"4952","-395,880121248924","211,781313437839","-263,085604945181","-39,3682933598317","38,1134876828661","-15,7719900870754"
"4959","385,306183461489","314,666050186899","825,463941130916","-29,9383937091997","31,2798202218201","-18,5131108695577"
"4963","129,26798132527","270,064595157808","504,77602574921","58,0013150664396","-84,8471667546098","-12,2307814072553"
"4967","74,8730692638133","259,487607349117","414,536142570205","36,7452393095707","-54,5769607242061","-14,2136948888582"
"4968","63,3169560217768","256,979333324598","389,143116747989","29,5557783047407","-44,7421353603467","-15,1659883921505"
"4980","-514,729730061294","-1222,65129101393","-544,33059733145","27,1240806512701","-41,5467890901409","-15,6233270127339"
"4980","-315,534836465598","-734,537491134255","-268,005163065976","-134,890000132497","-104,162372876909","3,91379083991898"
"4992","515,094050203918","-257,398622955032","-264,148674866529","-92,688163695301","-86,5062493269225","0,296484828713968"
"4992","250,559846593379","-349,247785420856","-220,063479485266","-40,1935098436026","-37,2171845501938","-57,6714881046162"
"5000","-735,16684804291","2001,77425652331","-173,286032898413","-45,4381973792653","-47,2031097222856","-48,5105867519294"
"5000","-424,582929018375","1213,30610070619","-180,123106848065","929,908135587114","6,50581171350478","-39,5518160405389"
"5013","272,40584150336","-785,890250308295","1019,25807391513","671,800374741357","-10,0440968575933","-38,2493695520288"
"5013","67,48000607737","-231,98858225888","657,757594314399","-40,3248305944574","-38,8725651364471","-48,262122541106"
"5017","23,9438356773502","-100,633872275732","556,033271433397","94,8124413611187","-34,2389682175927","-46,0707436483972"
"5021","14,6946449681382","-69,4838309777568","527,4085850235","140,520038480016","-32,7335071560566","-45,0183347046185"
"5029","438,166944516865","-502,810657259943","53,6117162759265","155,979758838069","-32,2443810953543","-44,5129156788943"
"5030","290,132966392619","-355,571711933525","191,287783456479","-754,426076890801","-171,118666332676","-26,0331841557726"
"5042","83,5033266847704","-763,131553716346","-405,85485648173","-511,353435139289","-133,239084127917","-29,1582995804617"
"5042","137,605185753367","-608,782110857084","-203,887636903428","127,553894465473","1,35025102972774","5,8148732610973"
"5049","256,3521350187","28,9547442281275","468,20556398757","8,6520766715248","-27,9215164705041","-1,38927276164749"
"5053","221,579737028721","-160,809495929732","299,329035826592","-114,652645134024","121,702440836052","4,26944074721554"
"5062","-182,644054335842","1271,46191200374","19,7963599846656","-106,358108516461","75,3154396667017","0,987035922939612"
"5062","-46,5207610185647","773,11713649292","76,1373435304119","547,860858621121","56,894051041612","0,930412509734147"
"5070","-17,6015821314635","654,937435591567","91,9913982967312","377,137909317361","52,9089203191593","-0,0967808645759653"
"5070","-11,4577482061788","626,911774660704","96,4526454513779","319,394137574719","51,6141466837203","-0,590090121916645"
"5078","-8,36494880479991","-717,74171303924","-400,68751708842","299,863411397222","51,19347321432","-0,827001719542024"
"5079","-8,70788845185997","-277,618833461446","-250,580129311692","210,169060403088","94,609365484557","-3,98027913336342"
"5090","-282,276136845353","-650,979984731732","-132,722071623412","229,83166199513","82,7152396918566","-3,49463950416128"
"5094","-187,395279574896","-468,520512000386","-143,55743757465","-537,902253540905","48,6990453673835","-33,6564182652268"
"5103","-199,413919553545","895,127542617073","51,033156025639","-331,573564038945","55,6471440229302","-28,1416019247187"
"5103","-183,967260653749","469,509119285984","-9,21008018012136","597,34780819867","54,5543917478877","-1,17710769559504"
"5111","28,4578922624794","-209,640548652051","23,6773451843845","394,537692476692","56,1993552549016","-4,22741880992651"
"5111","-43,412719169278","-42,6971274872544","3,93169273102908","65,0432971622843","-27,0211356626623","-23,9293338650304"
"5119","-58,6815171690142","-3,1074206211976","-1,62462942898477","110,598121038584","-4,05957055295735","-21,3911716524384"
"5119","-61,9253492126321","6,28105889362629","-3,18814909584767","126,006168769818","3,40066882261929","-20,1722201410495"
"5127","82,177181591366","-504,483478415136","-89,5583797243955","131,217646165332","5,82450932630433","-19,5868191057075"
"5131","31,7915368927148","-334,608456977005","-63,8625057866039","-342,285642360659","-6,78877269524855","-17,7859301129091"
"5140","-2,15098433566837","373,798713656798","199,440365330012","-216,439071782659","-2,88684278510798","-17,9210538064521"
"5144","3,6379805845753","162,793547065178","124,532400578607","161,803487498933","13,4567882765332","6,33005870514524"
"5152","-14,7952303080958","82,7862972899328","17,5234310428568","87,7367975523347","9,76685313506582","1,97664697370392"
"5152","-7,71133687794153","80,8130215318266","37,4116730163098","62,6851565430188","8,5679888893501","-0,114077481735524"
"5160","18,8193471936711","-169,980417062687","-58,3895929546637","54,2119181991408","8,17847649291162","-1,11814716735779"
"5164","10,4557491640218","-87,4546907334424","-26,347562478808","-78,2719846888479","14,7523187783553","13,5971522299098"
"5168","8,67891595888121","-67,8841722219157","-17,3311045822961","-45,0821304784855","12,8881678301244","10,6641695985598"
"5168","8,30143054797335","-63,2431322475208","-14,7939210208227","-33,8562972000036","12,2825030054678","9,2556057196932"
"5176","31,4594048796998","-113,265346109181","-124,070709500674","-30,0593738391011","12,0857217951402","8,5791434114474"
"5180","23,3792799873431","-96,1278368246393","-90,8206197829526","-80,2899801630166","-4,72920094759588","-0,864229481306925"
"5193","-187,480864402075","325,732992326131","-29,9060617270329","-66,2795218613734","-0,192389024858902","0,600594002738126"
"5193","-115,2777693781","188,7749493426","-42,7650272844845","164,459849268596","34,7836030725967","-4,77492643787729"
"5201","28,7653778392963","-48,1951343684872","13,7677129473016","106,503027604646","26,1473438367231","-3,35651824201119"
"5201","-12,6328828086319","11,6087239405746","-5,32427296918298","-21,1147520562711","11,6157212961082","1,88392284938758"
"5213","134,089109306153","-243,926020755324","-43,3501573195421","0,720975248725035","13,8943801266122","1,40064284348973"
"5213","78,2599650299385","-151,524668884242","-35,0504400460377","-79,9672715668474","-13,8419610579507","-1,87095291189878"
"5221","-35,4912885189437","57,2504870970948","-96,3033392083359","-54,2585275194516","-5,85353076806811","-1,44213562468989"
"5221","-2,65756285631767","0,760357977585199","-76,5395810486371","27,5548050587352","8,4676113898538","-5,79544732644622"
"5230","-15,3451570010539","137,206758217865","-7,38976833512251","11,2265997481189","6,12056723669209","-4,88612374266457"
"5234","-7,04061635835399","84,5642656341592","-24,9313767905262","5,70389665361192","5,35800984463377","-4,44942141083833"
"5242","23,3244954432429","98,5232234990825","11,3790343154813","3,83594797891918","5,11025405554925","-4,23969526931524"
"5242","13,7755155347892","86,8335129742361","-2,40340805535873","74,6602226449908","25,1309438663864","0,420276689882002"
"5250","-0,766011224928384","29,412841075254","-26,9049779106695","55,6151787117307","19,6356894157168","-0,341773412939274"
"5250","3,144664358892","46,7958470501424","-21,7995900721965","34,2176347588381","9,47478066510845","2,33175299500156"
"5262","-94,3398555638106","26,2381529430777","-121,760673006042","35,9803248429311","11,1734895209394","1,61571311367714"
"5262","-60,0502880082922","35,3630097486816","-90,8891930210858","-53,1590119533045","15,0755996756042","11,9100876699542"
"5271","-58,1281782173751","-172,252890729468","-82,2021218413392","-29,3086874260148","14,3433998314117","9,85395743600919"
"5271","-54,7198290250395","-102,487850593796","-79,7576259597437","-21,2417714014951","14,1055072451556","8,8665016131128"
"5283","-84,3841074398442","-158,220535359795","32,6395860551541","-18,5132913729658","14,0282156654804","8,39227630088577"
"5283","-73,686236584156","-130,437232593801","-0,732432984610534","-19,2522043275955","14,0031035407912","9,68428011232392"
"5291","243,195586896261","11,8913004935473","190,95367621789","-18,5021274994","13,9949445820915","9,30476448911416"
"5291","134,516630311965","-31,3562768935141","127,893133465234","-59,7926566005741","-24,5349793567253","9,12250224432454"
"5303","5,96241437011935","296,856064241449","-75,4611409629083","-48,7583881983155","-14,0533967352011","9,03497086526088"
"5303","37,6512740287812","182,689801472273","-24,6839581885105","-0,158491493414591","-39,1245983803536","7,47318360007637"
"5312","-136,15918709597","-145,832392805454","-287,090979105425","-10,7205061288894","-30,2702611351601","7,72313581435175"
"5312","-72,0849453201741","-52,7396099913897","-199,93092684623","121,972163093688","-22,3681801129898","3,28392422412284"
"5320","-58,4724737525733","-30,6631726137456","-175,404549154748","84,8529201023867","-22,8007847412486","4,151994416627"
"5320","-55,5805256460764","-25,4278678719971","-168,502956199339","14,1361267008203","-2,84015253458379","-1,51011658271681"
"5328","213,166600839283","-276,274687105842","134,195041178501","25,2175241157271","-8,35491977113315","-0,229343402051338"
"5328","120,26150382631","-192,761619699295","44,3726565850002","-147,181932927351","25,0304013240412","6,46474887274774"
"5340","-58,5681278725533","132,017050313582","-118,391310486231","-99,4927513419183","14,8773312179978","5,67958433726677"
"5344","-7,56020096587648","36,0365114726119","-84,192229915255","-13,5684945023346","-28,6237850546868","3,78275899366825"
"5353","126,617411493713","-240,575939512951","-91,7548424240648","-26,506258321813","-18,7573486401174","3,87180928842505"
"5353","86,1232335525341","-162,173048842642","-83,8829215832398","107,04462831596","34,701232989093","17,592328821326"
"5361","-24,3701305942976","-118,900260342356","-124,632936927551","69,2156609480043","22,0699887218697","15,1816035094046"
"5365","9,15572853142864","-122,638358435409","-111,099775707043","-15,0353361839204","-2,1351032792829","9,46460247144615"
"5369","16,2782444048936","-123,524827675754","-107,291615720323","-0,53162427709201","2,00063400283591","9,71901473034012"
"5369","17,791411664158","-123,735048941894","-106,220019642499","-77,0527085243306","-0,00585777368025675","3,76219472384975"
"5377","-12,2754951620704","216,44621815996","67,6606560434925","-53,934501454291","1,3422306999748","4,90143400731235"
"5377","-1,66316207711364","104,118319833207","15,589758477283","121,723471933612","25,2316098388011","13,0473050287991"
"5393","109,632057589491","-389,676337604044","-4,218532547943","80,1364211677473","18,9932970782404","11,9593567266613"
"5394","72,2765514037561","-241,777003228166","-6,79248087076802","110,938163288085","13,6162643023266","8,39736923431678"
"5402","39,3147109653986","-220,806340320391","-72,8237773072536","94,3562633357123","13,8692600608045","8,68672599181591"
"5402","46,3120199721447","-207,833263864229","-53,4046348662116","-133,92931048283","-4,47462844812328","5,78618877075787"
"5414","-145,25698317451","486,28260238107","-102,935560153741","-77,1425388184168","0,565420707861722","6,39320678879158"
"5414","-77,9555156314724","258,888332178617","-84,8733005465297","-102,80326610919","-16,2231485500288","3,64522627656693"
"5418","-63,6574250416048","204,963041577022","-79,7906762294782","-84,4825162362024","-10,6777743492246","4,32550960045163"
"5422","-60,6198182556112","192,174957849682","-78,3604526301025","149,376497693267","14,5753078343471","10,7312168323779"
"5426","49,0661627603388","139,782379465362","66,4048490257456","91,4748355287722","8,78006378893697","9,80755548131596"
"5430","11,3687763623626","155,357769943646","23,141039206931","125,067318083217","13,5975775354165","9,36396744178771"
"5443","8,72268083529254","-322,208175943402","-107,616933002098","104,429332696971","11,162793389482","9,15093444155846"
"5443","5,16052201563088","-162,460292588452","-75,41153476569","-57,0956001153137","-19,7800497638895","9,04862541799926"
"5451","172,433595309991","-6,46564620556182","175,974239743564","-18,7283187339628","-11,8334157161741","8,99949154535806"
"5455","113,970495804454","-36,472380583693","105,712867039754","-107,119236661684","-12,6017426737362","8,97589502027418"
"5463","-36,0913689334027","137,98580969118","-36,0792871459076","-76,015773769062","-10,8513730014049","8,96456279738794"
"5463","9,02822467376082","76,3576023930148","-4,97884935480336","-2,34839551773248","-11,957774676165","13,5183715546964"
"5467","18,6138111449725","61,7428146727697","3,77264934057043","-15,4318140506738","-11,317245875093","12,7053366114444"
"5471","20,6502538664444","58,2769987830678","6,23527478428801","93,1432707227933","-14,4593349774698","18,3938782699174"
"5479","46,1086149989698","48,6408220399622","-63,5345723020122","61,8667161509882","-13,4802034039524","17,1257984040183"
"5480","37,5172036528448","51,3556561441916","-42,1674382395725","42,9791742266877","15,3145976954003","11,9575524403024"
"5492","-94,7992933128459","-6,17476893580882","-128,959525352566","41,5908244816521","7,67006227052609","12,4755041309205"
"5492","-49,9097243214949","13,1822096806259","-99,3823595981788","-38,6436764811821","-13,2397433621864","-3,99300361388384"
"5500","-4,62197466056029","185,243886492184","53,3033427029233","-17,781461579068","-9,03336368255751","-0,901998675845758"
"5504","-15,0006637010451","131,047359311443","12,268291732436","-7,40167821479149","40,911160059905","8,1812071159401"
"5513","14,9703285887879","-179,727633530993","-26,7764391931686","-5,89091505278434","28,1381942728498","7,54341350811808"
"5513","3,33761861190989","-84,4262002794708","-21,7634199569695","71,0614516474503","22,3131439109829","17,8753658097705"
"5520","0,866267731653128","-61,8259936944001","-20,3527828591847","51,0891176168818","21,4205782314793","15,8372822748477"
"5521","0,341233136491234","-56,4664799886636","-19,9558370411281","-0,533908805299077","-0,645702188717427","20,9374947773141"
"5529","-21,2209285686892","-252,635321904473","-97,1813766052587","9,0055900345259","5,18493747905988","19,386870040819"
"5529","-13,8017758017291","-187,155675288356","-73,9122349708069","-97,4446195222488","0,378923811710196","18,6421830555781"
"5541","125,415882989715","216,200679501638","51,2193433686179","-67,4493665563809","2,81744434681224","18,2845473923933"
"5545","77,9924549394489","91,8544030043671","17,4307076568972","-42,3481238711749","-4,76577162619001","16,5930426395995"
"5553","60,767216164555","23,5835508971755","52,6065018066835","-42,8581087092867","-2,22956737029554","16,7806980759974"
"5553","61,1077413651676","29,3934967844617","36,5047842256739","131,455157281559","-3,08065046921046","12,3115684800667"
"5561","-155,113655509559","-353,531215255319","-218,942526170508","85,4132849623362","-2,35716836405245","13,1652705608375"
"5565","-80,0495501169915","-226,339687944155","-144,824048182663","94,76703935611","29,7047695832915","9,01600963200223"
"5570","-64,1022993640423","-196,176922337929","-123,967500510551","82,9307678463542","21,1217307437906","10,0233285278322"
"5570","-60,7143311034811","-189,02398968393","-118,09857831182","-113,837843600831","41,7844749963846","-4,69041043737401"
"5578","-294,163819286647","-476,436020503946","-346,740203411526","-64,3910623207512","34,4978247852245","-1,75667840907449"
"5578","-212,759794709719","-380,594190323111","-277,078747364131","-107,490323114322","42,1809765825332","-14,0255077926976"
"5594","934,266959053395","2487,38301572612","589,796025525324","-86,0678236067279","38,6772415929086","-10,9176087963081"
"5594","545,950983087776","1553,50791129741","340,730001469691","47,4723808967095","-16,0642885566448","-18,5435435012896"
"5602","16,5659722316949","1813,30417068335","-287,902579335915","16,63980050116","-1,84987576508841","-16,2058959657119"
"5603","154,098961949966","1601,91341339699","-139,796462558464","501,418470613518","-92,7122297083922","-4,44498909968911"
"5615","-653,256509806893","-3641,58916420161","56,5542913629667","367,385582163723","-65,2335148388607","-5,79681770681267"
"5615","-356,777905919436","-1939,05673273564","21,8063549615881","581,287505854686","69,3267640090962","-12,525034325219"
"5619","-293,791494313634","-1535,31060472765","12,0284694499386","497,635739687892","38,0455560798428","-11,7562579937736"
"5623","-280,410130549247","-1439,56444866701","9,27702418497217","-966,426397956737","155,189766074702","17,4882032408145"
"5627","-533,187156559261","-447,28822956753","123,649336422603","-597,617409112345","117,250056993421","12,5328454803073"
"5631","-443,889236898256","-761,975424964531","88,8331001386494","-1124,28832259677","44,6198432429119","72,4628010518306"
"5643","-301,576975892754","1797,10443323801","-696,05499006571","-910,424684086303","57,0222017977702","60,2441411722378"
"5643","-340,342960585371","909,976035162701","-465,918347153327","775,488425345064","-59,5553731334631","69,5736375665574"
"5652","271,701664636251","-1489,86813169777","272,534160303456","374,716283790273","-25,4315636568886","64,0541249341238"
"5655","54,729579567886","-816,977872155498","88,3307900168825","548,251831617557","-49,5217734477224","90,2786376017751"
"5664","696,841559899148","317,453438274451","333,815650968254","420,946911006935","-36,3487108010268","83,8729506023715"
"5664","448,25723698293","33,4775347392298","229,893792400862","-650,746634312954","-171,101970197816","3,28935376279584"
"5672","395,445889800877","-33,865776542771","200,650731072205","-394,226474963479","-131,88346187472","15,5891096753857"
"5672","384,226202418889","-49,8358694906818","192,421888289173","-119,683526544762","-83,9642471998111","-10,4186942399205"
"5680","4,66921461706616","732,610483932022","-193,142644055583","-139,824626135096","-89,3952382730909","-1,90893293829469"
"5680","135,032931431453","472,163299097116","-78,6384640971482","506,438300146702","-74,4087853313616","-20,618378328019"
"5693","25,0870258858983","-1137,38747423608","12,0149863336975","332,024372219241","-79,5396692322652","-14,6035829071078"
"5693","78,7291917276743","-641,083517468566","3,52438779310725","-193,924927849663","27,6747245156426","-31,4717340827571"
"5701","284,968507205498","611,891184642766","107,688706208569","-90,8172174055605","-2,49119348492707","-26,572657762058"
"5705","219,783724370094","265,027189290745","74,9999944560337","-388,296832672881","11,1592480702491","-37,8976312393349"
"5713","-205,201542792154","799,769755909996","-259,0148358059","-288,913621875145","1,59429250634856","-34,3364457753326"
"5713","-65,4889922502085","576,580991198873","-164,004842342365","407,746730722349","-4,86357040947005","-41,7446898134026"
"5721","-35,8072813289309","523,653012911017","-137,269532716549","244,378768164268","-4,96173762831976","-39,302496411477"
"5721","-29,5014486761243","511,101436270205","-129,746357998486","415,123281614206","70,3858150648457","-3,1753758118728"
"5729","-305,232279040722","-540,774148975979","-96,69448121792","336,87434701678","49,8663231125008","-8,8253388289946"
"5730","-208,810858897861","-195,220612867183","-105,393857912627","-209,725595801512","29,7987255258876","-10,0189812330089"
"5742","-39,9594993651048","-9,26603030965531","-75,1883160046514","-81,6025702291419","31,2787395853124","-11,5922275784209"
"5746","-87,0872944495464","-24,1679319090883","-85,6886362774319","-224,385550283375","45,160388523018","24,1262298435632"
"5754","-41,6854212435813","134,480874745186","-35,366606895219","-160,679161907412","41,6705525082784","17,2800064788807"
"5754","-63,0398649169908","80,1035597618806","-52,206253994561","76,8982921301078","-24,7921536561174","26,1501129208501"
"5762","11,0756866421895","3,74548138959135","-8,82389351869515","27,2543211999412","-7,38596466882751","22,4099784251029"
"5762","-17,1785813701164","21,6375864002452","-24,6163267424046","108,507576347006","-20,1567606236955","37,3310340091282"
"5771","-23,181156029161","25,8805999173173","-29,0602339208946","76,9899355593624","-13,3060071748242","33,4968657142228"
"5771","-24,4563935444883","26,8868070514324","-30,3107258958353","-25,06760564487","-21,1307823403212","40,7740098436023"
"5779","-19,3646610090612","90,5882230639609","19,1769456658547","-4,58661663868206","-17,6730609487599","38,2688557565603"
"5779","-21,2829304657508","69,6946607378316","4,10251468897288","-9,29169780728374","-36,6508291787976","27,9472542791358"
"5791","330,457197045545","-240,234140781072","113,288598637756","-3,88310150630803","-30,8167282860172","28,9903087937597"
"5795","208,183832152454","-140,732037948098","78,0129851447541","-10,3625929196419","-47,3473092053609","20,3727332514258"
"5803","-211,054298414194","-57,1985773769985","-62,5273878950159","-7,55415694021335","-41,7181142914446","22,2341456230533"
"5804","-80,1207777704641","-71,3890802764653","-26,0747055104835","-61,4426384707301","-9,73740334120447","10,9700854519537"
"5811","-25,4908842320161","59,2227419386345","-55,3450351495881","-46,6693864840812","-17,3468329271225","13,5605245098595"
"5815","-28,8848495459515","14,1966115206706","-40,5815510909507","-15,0843105324155","-33,219936142511","-1,91267190450403"
"5820","-29,6058921218282","3,51891429772707","-36,4271847651077","-20,4012628011939","-30,3771259531474","1,65633095050107"
"5820","-29,7590764793973","0,986757593908523","-35,2581680546382","75,8447584505667","32,5251631039408","4,89009366957994"
"5828","216,890497484796","-279,907760759438","25,2219721893611","49,3981339924263","15,9621904318059","5,44310707996743"
"5828","131,290810304677","-187,520338627443","7,24076375739416","-27,6794651305899","-43,0223013237445","-14,0480629884757"
"5844","-51,3494533352853","678,796631746515","-209,207503769558","-12,7494885713828","-30,1864317234247","-10,4086905700374"
"5844","1,84891082799909","405,238898778645","-147,114901395319","52,1239790605961","-41,0919321362249","-13,2201342973221"
