Timer,AX,AY,AZ,GX,GY,GZ
"1005","6,08361140122923","1,12451395994738","-26,4256704946877","0,16418669222421","-1,76727668380978","-1,96942270904655"
"1009","6,17141882306952","1,18334252188628","-26,70382666753","3,59101359442775","-0,147280733192112","-0,424707198015807"
"1014","6,19358022717454","1,19730837379316","-26,7726479613472","2,6111096458581","-0,496489035481482","-0,65829026694967"
"1014","6,19967091319836","1,20081706379076","-26,7911450399348","0,620813867624787","-5,28910500837014","0,607082136442679"
"1022","2,7547960623324","2,94952086874245","-26,7961458873532","0,995231632665123","-4,46191358281116","0,39314566137585"
"1022","3,8015183234843","2,39051246976983","-26,7974984924431","-2,25800262470038","0,547246564837848","0,260723217268671"
"1038","9,26098993937731","-1,24609276527078","-28,5273800201817","-1,28118104524189","-0,170199606076429","0,177062088165671"
"1038","7,77178120861878","-0,16318544894543","-27,995285890737","-2,65944595130291","1,04705274991514","1,48373443627792"
"1046","9,08294619538585","3,60553868678976","-26,1218471154308","-2,09292773519243","0,601856085773776","1,32024276140799"
"1047","8,44578292724807","2,5559496358672","-26,6151112153755","-0,229263257769722","0,398942540128964","-1,5031209343736"
"1055","8,26946168600672","0,543444083525225","-26,7485314429526","-0,643117134660506","0,306457445546713","-1,3119412370485"
"1059","8,22066857179159","1,03592290570174","-26,7846195286858","-2,45876674218958","0,264304029395774","-2,54870702308867"
"1063","4,76062314428634","-7,57896324069466","-25,0648651581849","-2,02981157984724","0,245091087267604","-2,34117390200393"
"1063","5,80312993163323","-4,75149745246298","-25,5996984867587","3,16156219852365","3,32476181186405","1,86949645225081"
"1075","6,09162128064687","4,7006247438033","-34,3919407083584","1,79431511748572","2,72843304849389","1,56756597976884"
"1075","6,17145506155445","2,08429627424981","-31,7701047757088","6,42076050095968","-0,63179305409466","1,3740980708692"
"1083","13,0866333082287","11,9113983320328","-22,4133609768793","4,8758362721858","-0,163337545043717","1,25012934846386"
"1087","11,0002602747541","8,38963368654218","-24,8825080580283","2,70445068849874","0,0501779840463702","1,17069363422904"
"1096","12,1461728666017","-6,48102817123621","-22,0913424750309","3,02152237292869","0,147495403272692","1,11979341113037"
"1096","11,4632795497296","-2,23116730118579","-23,3363758205405","-6,99167843433762","1,73606519247677","1,08717794048613"
"1104","-2,51186842675083","2,33621102846839","-32,3207160438035","-4,14095713091969","1,46011328773973","1,06627883741927"
"1104","1,62080970893737","1,488029579595","-29,7508396174381","3,49758013750751","-3,29830334073703","1,05288726236552"
"1112","9,65752553161966","6,51758078796857","-25,5966969532742","1,89999702253085","-2,46712369709204","1,04430630632092"
"1112","7,88151391947981","4,78595182437547","-26,4730663064419","3,08302417598003","1,00014418218225","2,39803513288973"
"1120","7,39004087386632","-2,6420018829826","-24,9805948822378","2,45510122542181","0,580476831598287","2,265467649972"
"1124","7,25403627067931","-0,515211032637704","-25,5769046945551","-6,16982507170881","-1,15501558914129","2,18052202191604"
"1132","2,04658544697595","8,76021233696742","-32,6562597104059","-3,88247382109102","-0,946028983780663","2,12609117982933"
"1133","3,60553534419855","6,0993232963771","-30,5711145670377","3,57887641796108","2,23765193109504","-0,627241156955969"
"1145","2,3136697341787","8,92392286439644","-26,548084136874","1,92556573418177","1,68872957213207","-0,391501438526846"
"1145","2,95617368992999","7,63624094867373","-27,4599172995945","1,40557854771895","-0,105675490189922","-2,95890039269274"
"1153","8,30378732434048","-1,42757279117096","-22,518007014434","1,24203598022797","0,0764595495583261","-2,60401963287172"
"1153","6,78362447275942","1,28668075736314","-24,1812975416938","-0,494887544676588","-1,38473968154236","0,34183281829371"
"1161","2,91640909146347","5,46680388884717","-29,8197385267763","-0,0411720305129952","-1,05073404154357","0,229454739416575"
"1161","3,84624034453795","4,52096297559864","-28,3448486646268","5,15798919265324","-0,898498899536118","2,87590046828796"
"1173","5,82682265181419","4,28243727624483","-21,027851480585","3,79319136180689","-0,82911223150826","2,57167072619947"
"1173","5,37490624090314","4,22228497319334","-23,0487181326383","5,04943244058327","0,746727108368406","3,73595587212589"
"1182","5,24984808626327","0,711483021272421","-27,0543622357997","4,44453619844368","0,464972841248595","3,48199804508681"
"1182","5,21524092957605","1,82611585313153","-26,1378263434343","2,56880134317805","-4,29608842359216","0,600814257210401"
"1194","10,3754786153305","3,85502438944573","-29,3489489802377","2,9788589327714","-3,46611416855209","0,754630252091334"
"1194","8,80346349683222","3,3666821331218","-28,2175074523805","3,10782724731284","1,54481816946175","2,21241861595345"
"1202","6,6451706058941","-0,252102362829495","-24,4524389404789","3,14838941852434","0,828731686820366","2,14652964751475"
"1202","7,04790943193293","0,835299027174995","-25,4340467692396","6,5321213609615","-1,04186446648687","-0,614144744164839"
"1210","8,8826302377053","8,10078901533799","-23,9700407074368","5,5963479880285","-0,894456270141275","-0,383109614336222"
"1214","8,39034979094457","5,93302745660246","-24,5740499552702","-3,12540117279772","-0,8272696570535","2,48338593424"
"1223","6,53085026596532","3,63853697879133","-28,1964562810422","-0,868501941254329","-0,796646929891007","2,32015811614478"
"1223","7,01627373470195","4,05990378771817","-27,176260561244","6,58327075143824","-2,32690337338623","-0,502888356090293"
"1231","7,15060424749899","-2,82509939259798","-26,9003135682769","4,92694780781354","-2,02437305379088","-0,311819554675732"
"1234","7,18777733003512","-0,561385247475747","-26,8256742206989","1,03503860245349","1,20194378968914","1,16983939177732"
"1243","5,47479269086837","8,74856795075818","-33,7235479780873","1,81098377868747","0,672454296128433","1,11924604174301"
"1243","6,00076100552029","6,09638677150785","-31,5893149914939","3,74051569391275","0,43112032271422","-0,272400066049284"
"1251","13,0393973965861","5,42754980142908","-18,9054288996111","3,34737796222805","0,321123642077128","-0,16412894353475"
"1251","10,9871887513482","5,25887999257741","-22,474636005396","-0,147243467287814","1,81520253755567","-0,0947517606407877"
"1263","1,80292665815866","-0,027104569429222","-28,6285976288068","0,753653755046222","1,49618299292861","-0,0502967536683039"
"1263","4,26137950171079","1,63985607187394","-27,2931480399289","-2,33397726333492","1,35077830551188","2,69664333998012"
"1272","10,1115179644869","2,06023644154571","-26,9319298038998","-1,30507639299958","1,28450486402893","2,45680764648966"
"1272","8,73041805945701","2,16624953557247","-26,8342259181622","0,704013297401293","-0,289915510332168","0,943900205404388"
"1280","8,34822834178747","2,19298431415859","-25,0782829110163","0,335897495400264","-0,00751449839461129","0,974470372184367"
"1284","8,24246555101445","2,19972639062198","-25,603327779133","1,9056077176728","3,20962768561018","-0,365168367257372"
"1292","4,7666549898501","0,453610373111787","-29,204375474682","1,39930149830912","2,67595650940458","-0,22357234127741"
"1292","5,80479911526336","1,01326830459306","-28,1784025793188","-0,445425543930485","2,43271658299125","-1,49206873767525"
"1300","4,3688117004678","2,90222119468576","-24,4418616836621","-0,0256156037281661","2,32185119539017","-1,30488663823236"
"1304","4,9714330440513","2,37858440000353","-25,4311857866303","5,16288188624956","-2,36132128637159","-1,1849454531229"
"1312","5,13819555002717","3,99434797406529","-27,4282981233849","3,79473017601909","-1,49584640339943","-1,1080904123456"
"1312","5,18434348968357","3,40181727582113","-26,9684857886046","3,36442910469788","3,53126662885244","1,65961073945796"
"1321","5,19711394022381","1,50457440844792","-28,5736293740349","3,22909395831342","2,82255508241008","1,43307816590614"
"1321","5,20064788796265","2,02612060565148","-28,0077956198682","-1,86993259972863","0,955320322819301","-0,0713049986813151"
"1333","6,92489732292823","0,409829816897813","-29,5842620688411","-0,473641146240053","1,10426059583812","-0,03527270796752"
"1333","6,4020462984233","1,00222756016896","-29,0106715975869","1,6509975438383","-1,91628220808061","4,06549760748438"
"1341","4,53408702304186","-2,3440118802532","-28,8555243423441","1,31922336826621","-1,29300375893768","3,69315940292801"
"1341","5,01716943766213","-1,18787905870994","-28,8135594352968","1,21487618065692","-2,55313593747276","-0,623106571487303"
"1353","6,87412360492028","2,59931135980156","-25,3431773169825","1,18205766624666","-2,12748672133418","-0,388852108907028"
"1353","6,3879957631363","1,55437920525871","-26,4044932082263","1,17173582707903","5,78758758347232","-1,59797550580701"
"1362","6,253470330236","1,29086430603154","-26,691562564717","1,16848947770226","4,39516876322751","-1,37274880731072"
"1362","6,2162433077503","1,22441013308566","-26,7692103377465","1,16746845963514","-2,4163318713204","-1,22842968055481"
"1370","6,20594152931873","-2,28798104795692","-25,0606972129355","1,16714733649884","-1,52091946567354","-1,13595391952538"
"1374","6,20309073353204","-1,17374899384211","-25,5985711227283","2,85253365167709","3,51983867453444","1,64175656385893"
"1382","7,92557332794067","0,855058472841447","-27,4735732399794","2,38260903117514","2,81734637920236","1,42163769704254"
"1382","7,40223336828255","0,366690728400014","-26,9807319998345","3,92029908832759","-0,591267590080924","-4,15631754527876"
"1391","10,7039532632346","3,73916484304387","-25,1179105157046","3,40392212077713","-0,144866600158396","-3,73051916093959"
"1395","9,6176332873081","2,58964797977478","-25,6140464266827","1,55602770045995","-1,48561707340978","-0,73922462981484"
"1403","5,87047459818588","2,29975851750935","-30,9367903347825","1,97484146007069","-1,09671255878158","-0,822484662999656"
"1403","6,8335289606959","2,2266531086043","-29,3765093487621","0,421076388697827","-4,0078829868379","1,84261911553979"
"1411","8,82330504951468","-1,28741540600094","-22,036415200676","0,932397560323888","-3,3347541244769","1,55034494289787"
"1411","8,3739328200631","-0,173606348137912","-24,0510344850419","4,46418918115619","3,14890411530376","1,36306362300725"
"1423","6,52630722208897","3,60291070533968","-21,1369262388787","3,57498245558877","2,10406568941474","1,2430588601405"
"1423","7,01501654494316","2,5552869016796","-22,3487055160272","3,29531565856869","1,62784281443385","-1,55229145694093"
"1432","10,5967993290043","4,03890947188113","-34,7830823006929","3,20735690262748","1,41078702759094","-1,34347571454221"
"1432","9,58798073884184","3,41305496101945","-31,1463868280116","-3,56225649201008","-0,232357850219183","0,149554987757382"
"1444","7,5855403835336","1,507408369935","-30,1627175569604","-1,69138579423658","0,0187194854415552","0,106248348776476"
"1444","8,0314080494004","2,02683528465952","-29,8966503973428","2,26800140188244","-4,49948451891807","-1,28072863327198"
"1452","1,26170638033613","3,90564256646524","-28,0951677567211","1,51327890987058","-3,55881929010576","-1,16946566230181"
"1452","3,38833693024506","3,37944721433627","-28,6078948659268","-5,4660401393402","4,59099217610251","0,261055884204169"
"1460","3,97683623177786","3,24674930224003","-25,2875482662267","-3,6611245305749","3,3055633009992","0,177695082734471"
"1464","4,13969076611126","3,21328504642048","-26,3894464196741","0,277518953244457","2,71968263340767","1,48350702299931"
"1472","7,63130024035433","1,45702964564624","-26,6874926436477","-0,483727699471935","2,45264634434818","1,32023570651981"
"1472","6,59752812460312","2,01413058953034","-26,7681094877244","-0,723149430084231","-0,757492811895587","-1,50283863829376"
"1481","6,31145390823784","5,65025490849755","-25,0603994502147","-0,798450602030064","-0,2206297526856","-1,31178769686745"
"1485","6,2322890168444","4,56722633991959","-25,5984905825674","-0,822133775992238","-3,0643627265549","-2,5485947320188"
"1493","4,48711034359767","7,7897366636461","-27,473551455125","-0,829582434684112","-2,36049680713457","-2,34110695401702"
"1493","5,00416965119597","6,60240137065455","-26,980726107372","-0,831925132347721","-0,495470617188959","0,510300093614367"
"1501","3,42398321163958","-0,688290322959388","-28,5769401889024","-0,832661940485952","-0,64541752564533","0,337403975557589"
"1501","3,98670057408396","1,47311577543033","-28,0086911435301","-0,832893675993695","3,91888032595228","1,5858441264656"
"1513","7,5889634926041","0,270370990337332","-22,6664417599581","-0,832966559751029","2,99922403393509","1,38581053182068"
"1514","6,58581233951706","0,967058311651093","-24,2214468198022","0,852497829861446","-0,508370275543607","-1,46082007838156"
"1522","9,75475479825075","4,63838404539144","-24,6420513783055","0,382597764759625","-0,107083152996634","-1,28486334946745"
"1522","8,6316915203543","3,56423270125937","-24,7558183358557","-1,45067908006077","-4,55682361812495","0,187112193013967"
"1534","3,15109342118117","1,5455329379383","-28,2456217863131","-1,02726790749549","-3,58495365690978","0,130313981768527"
"1534","4,63445568009188","2,03644968082084","-27,1895590617904","-0,894099721685514","-0,0535610805960944","0,0939192368161428"
"1542","3,32167281561382","-4,83101413700377","-26,9039106047724","-0,852216637674104","-0,444001282919895","0,0705984766882359"
"1542","3,95838837072392","-2,56287684984368","-26,8266471628366","-4,21001850131774","0,922255341805377","-1,30357209918026"
"1550","5,85785720790178","-1,99088950496114","-25,0762329761833","-3,26608978961576","0,544976177550612","-1,18410313234409"
"1554","5,38349438734056","-1,8466435968506","-25,6027733038084","0,401762391287728","0,373017562878766","0,251676592545933"
"1563","5,25222467122304","15,6678954715082","-25,7451942307584","-0,444651561866081","0,29464120934154","0,171685088401016"
"1563","5,21589859838877","10,0847774456569","-25,7837168649596","2,66011513592987","0,258918353551413","-3,95725309230671"
"1571","0,0360316657815467","1,68554082035719","-29,2531679022838","1,63660365417978","0,242636370935368","-3,60296408770504"
"1574","1,60261481206301","3,56738991144076","-28,1916001681882","-0,370791005133045","-1,30899858926388","0,701736451557614"
"1583","3,75940452142798","-8,19275216284378","-31,3634939591601","-0,00214209434908333","-1,0162123013153","0,460071173505959"
"1583","3,35624972219347","-4,15846877911344","-30,2214416417899","0,113802665333317","-2,42697822690911","0,30521865322975"
"1591","32,5403006405557","-3,14108810545372","-21,2649561766839","0,150268763305021","-2,06998578517316","0,205993380864522"
"1595","23,6163595413786","-2,88452124173002","-23,8423668796632","-1,52374949869736","-3,45148743564992","-2,57604200533334"
"1603","14,2537646619913","7,66707830705989","-21,0804849138305","-1,05024948123918","-3,08115674286466","-2,35869441830536"
"1603","15,6628677394911","4,3280201487828","-22,3334390199776","0,784159594271765","1,72027642928803","0,499030526085782"
"1611","-18,4126230842009","1,73814771334749","-36,5084685856888","0,361104522623863","0,908703130120333","0,330182743991789"
"1611","-7,84228285749288","2,08502399534542","-32,3425924777705","-6,51390091484505","8,2598685580793","-1,13723757921908"
"1623","-10,0869828382572","-6,56658074424918","-39,8633662853793","-4,67617735170577","6,61042788650749","-1,07752050768"
"1623","-7,70815531736372","-3,7483747881935","-36,8976180242573","2,64375927497355","-6,49507517866981","-3,75770997405594"
"1631","37,755192838744","3,95359596938789","-11,882210615557","0,945972215914816","-4,46838185760356","-3,47510229881247"
"1631","24,3361973937465","1,89590776370963","-19,1159339900844","-1,27349066734721","-0,456215411781905","-4,65324227556739"
"1639","15,4529643176878","3,12480851493601","-19,3430274409109","-0,971539903615348","-0,627525547025759","-4,40816224631991"
"1643","15,9947204723534","2,43471730299631","-20,4044526690921","0,80891475506389","-0,705606332626438","-0,173439840476833"
"1652","-6,25788953605189","10,9997688177871","-48,3638017356486","0,368890334774611","-0,741194472647114","-0,459945198210643"
"1652","0,584178872215312","8,15973554575421","-39,9263685554349","3,60147169673224","2,33101266264004","-0,643530018816252"
"1660","14,5404746982916","-22,2693510804367","143,954966731508","2,61815954851225","1,73128209976221","-0,761166165739923"
"1664","11,4025796351283","-12,9430719636679","88,6919932162345","9,05084465201889","24,6211410927833","-0,836544200903168"
"1672","310,383474025023","-5,34768723300322","-73,2646060136992","7,0740057318999","20,0540216104466","-0,884844390374335"
"1672","219,120011185951","-6,4322547016268","-32,0713341555486","-12,0880956269307","-40,7077347678501","5,88034250882356"
"1681","121,487406560233","-97,5922104803034","247,145725080517","-7,11481962384876","-30,4021012788631","5,21528979594053"
"1684","136,469681440314","-68,5812691059132","167,669574461643","-10,6071231597717","-45,7797165078085","-2,00699419087574"
"1692","30,3263286150614","202,655073798467","-140,927076952085","-8,70549693049442","-39,7886204236912","-1,63483682729271"
"1693","64,9534368343591","120,056469292379","-58,3976467111688","72,7959796445221","43,2411587702566","-2,75559580566371"
"1701","-416,596630032657","-157,702545903118","-136,386632799023","50,4292280790709","29,0849814867936","-2,47374759735737"
"1701","-264,855262105091","-80,7488532929972","-99,4814342943221","-54,3636631906711","75,1360632370587","1,78453485500598"
"1713","338,922406439603","-220,393662871713","159,551096168674","-29,3223570570272","62,1255081155152","1,5131261326304"
"1713","180,004900498042","-164,60981328277","85,6153460716842","-53,470807502994","-88,9606252736668","-35,3599214307512"
"1721","1,61271971684141","246,212257484713","-96,95758800417","-42,0658015522259","-63,8235910964646","-31,9871648290921"
"1721","30,2465174899689","122,814903941649","-52,3407124161978","104,787639081249","-15,3053466756987","-20,3114034885171"
"1733","-396,094110042606","196,565073340378","-227,060233506851","65,9749093666074","-17,1914032423659","-19,8298940043738"
"1734","-262,074716278475","155,163666916622","-166,31913248278","30,1709910593202","65,3365066525279","-10,0067649761368"
"1742","171,364713653102","-173,379653856262","42,0866210671486","32,9102044887083","48,9515842975417","-10,7123717588548"
"1742","61,3097608934099","-74,2329373817366","-12,5428807106856","-92,6398265698361","-1,75442427547932","-8,44605080682602"
"1750","-182,831246974123","41,6566979277553","-48,0734944929175","-57,1269042564202","3,13447970897826","-8,99385414040452"
"1754","-126,392024097215","18,882179637057","-45,6839700528636","-12,2478933683213","-10,0793641877375","-9,34487157867387"
"1762","244,220245026158","-81,2432615887936","27,6020155588716","-18,1328750406153","-6,10205111628173","-9,56979398132573"
"1763","140,779225723549","-52,4932698692338","5,42472894977746","-16,6128018174233","-36,7177379579431","-20,5877362732461"
"1771","-22,2610296186444","28,1652934818895","-36,8937086728625","-18,1347195027683","-29,6719437432488","-19,6477332488854"
"1771","10,6210835933948","6,50607168540608","-27,3401844641383","-1,75850879938335","26,0427027955376","-9,53081406260229"
"1783","-21,6380140216432","37,7481095689781","-5,73143355218705","-6,60798275964948","17,4366665853635","-10,0481681233217"
"1783","-6,56502601032227","24,6268435410822","-10,8866042510922","27,2620297140998","2,7046575374749","-30,7680835284373"
"1791","-71,3247601449727","-108,02052961325","-126,429029143293","16,9145783635928","2,99001197200343","-29,0448403147648"
"1791","-49,2456248232891","-67,4720403333922","-91,6814487431687","-38,5899330564943","-9,23363829651581","-14,3483603670003"
"1803","-5,22372582370064","203,178252038025","7,65204147091107","-25,046806112773","-6,80500869159102","-14,931256770456"
"1803","-15,041611344759","122,431855116455","-17,4798023571298","71,9144813260744","3,56721017496033","-11,2270790848437"
"1811","111,48686164799","-16,7825789362196","-5,25290124513241","47,4100364239751","2,2947237944534","-11,8535430320336"
"1812","71,5008973409476","16,109804362669","-12,9457156436978","-32,7728768349891","7,89159756918452","-6,8180549717102"
"1819","-268,709213705016","52,3697887677433","-113,608892782808","-14,9914203773395","6,44257507332798","-7,59145153389578"
"1823","-171,855050523508","45,5139672629126","-83,8367084803162","-44,7941602808605","28,9453385729219","6,864476994339"
"1832","-24,4237379825302","-246,352458536673","15,8805305057587","-33,1675001034101","24,2017863291128","5,12744180077444"
"1832","-53,6252906649438","-153,956425500459","-10,1475152787971","-48,0511284013728","-21,1982470752173","-8,21864840290991"
"1840","43,4133681406265","-3,06506133990236","22,5911648168441","-41,7322183374306","-13,8909531399296","-7,77045907482783"
"1844","9,26673151923654","-38,012712727457","8,44646596228611","9,13429111087141","-4,38353439723799","4,74977384341365"
"1852","-43,2644035964952","236,320291876921","-55,9125011193966","-3,86754629772421","-4,05018468966066","3,77239768687887"
"1853","-32,801266299637","143,502615101182","-38,320595558542","93,1724496249179","-8,53089008704449","-3,65001464597345"
"1861","-26,4592749329699","-7,49508075473744","-128,685619970493","63,6927595395875","-7,57313351283436","-3,40609406928939"
"1864","-26,704265117198","27,4257555081547","-98,1279463515615","-80,4179620147494","-13,3134567716992","-4,60902368385409"
"1873","167,957617583415","-101,845261890268","183,400896733034","-45,7426123514131","-11,9298165627647","-4,37982817853378"
"1873","108,82611016633","-55,4453105868663","101,550047503896","-11,2399525633581","-14,3876002465638","-5,59219321729473"
"1881","4,57589024187315","90,8378546755158","-17,4422030731185","-14,3884283067897","-13,507823989277","-5,36904367450758"
"1881","26,7268823063807","50,7280904531784","6,37225341214303","36,8714428123935","31,6753677233879","5,64776261715507"
"1893","-230,803844788105","-1,33453014584006","-104,793371490667","21,9933226400745","23,2692403500664","4,70703167480645"
"1893","-149,069938950455","9,53612345496297","-66,8619351181506","-41,6780908573443","54,9547627244822","21,7741914326356"
"1902","-229,84812649575","-80,3567362163408","-212,258481596565","-26,7035582346866","46,3965847196642","19,7103620060998"
"1902","-192,201753904859","-50,0262538061104","-161,585974360851","-38,8487508599504","3,8905393316485","22,4655981936489"
"1910","142,191110940908","29,2830673395284","52,7439601443134","-32,6685680329839","9,51687289941988","21,2310784109062"
"1914","46,7271498912143","8,2835885969212","-5,28314330086193","33,3236957514943","-74,3946982880546","4,1293045734154"
"1922","151,278183581522","25,7094728749739","170,997667703853","16,0790999899539","-56,6404295752255","5,17095424158514"
"1922","104,210435261962","17,1039975524963","107,678871193096","25,8248416440861","-39,2829967884686","8,55686948192126"
"1930","-120,776945936119","107,568098354767","-158,498124593333","19,8900010436139","-37,3717194663664","8,72647163840319"
"1934","-60,0373685066657","77,3816736696304","-86,4948406732739","-2,20242937339661","36,077465583835","26,5051025686167"
"1943","92,9094519794217","-43,8389086897602","-25,5107028326382","2,84922096227588","22,5545862590704","24,897164468447"
"1943","56,2341975877171","-9,40876856613428","-33,0154469427749","-39,3846410386854","0,948906683472236","34,7406597298925"
"1951","58,1480095543109","-175,507673003362","98,1273408810565","-26,6677264810042","1,10133734790498","33,0481030740536"
"1951","51,6776158865691","-117,395116005503","56,5994147655333","-56,3778417560688","11,9803101394731","38,7596952663484"
"1963","-277,534509773081","-90,5053601988921","-112,019162670796","-45,7220499577919","9,93879517531121","37,4195277954456"
"1963","-178,636890492256","-90,7242010003582","-66,6278517673837","16,6213876951103","61,5115721237705","56,9491940553053"
"1971","167,536126059342","218,584088851835","-4,19425842170666","1,22918982063051","51,0177291530218","54,4632716459061"
"1971","78,3320688284521","119,586610332461","-16,3069474778044","45,2672803621581","-37,1527673883828","43,3557694729108"
"1983","293,181500295013","-22,4826334848511","243,303135789617","30,1178185716728","-23,3396578310009","43,2383849676607"
"1983","213,636463150787","8,68981320937783","161,523604697048","-30,2679606823542","-34,0301863588183","36,3670318340926"
"1991","-44,4641106363882","-55,1094692273581","-40,4661058473781","-16,2600544035958","-27,9027811107299","36,964056119007"
"1991","21,1121023755655","-30,1986109089411","8,89883525818254","-47,2496237153757","90,7060446488691","55,0165674938719"
"2000","-272,653229812317","-16,9252324426216","-180,102049040461","-35,9962364447459","69,7663037298673","53,5841245142696"
"2004","-172,946472220841","-17,5779022128552","-114,223833496339","-15,6020302457554","57,1338322889691","63,5400722634499"
"2012","149,324655096868","31,19636035121","12,5546788117389","-19,1877936442508","53,3761268690332","61,9195720953178"
"2012","67,5062636930488","15,4964363212827","-16,1537156018577","15,0796718345298","-16,2819929455789","45,9296998207603"
"2020","342,99075014262","-67,1145609257302","256,262645150542","4,85722449679862","-4,03119862362587","46,6838256903415"
"2024","246,225161364464","-42,9477112120527","167,947011910614","-10,1562760757865","3,09675751299898","30,8563217590672"
"2033","-152,779277781896","-145,217832750273","71,4193571950527","-7,87821248997029","5,34558113970743","32,7144888354497"
"2033","-47,1951813605283","-109,008694533911","87,3101356603901","-5,47624527677234","146,89402487687","48,8566515839452"
"2041","-328,16592012846","228,712118178548","-434,164409779895","-5,72079611321181","120,409843931118","48,2001092972993"
"2041","-225,918533775039","125,879815949102","-271,215121844827","59,93629473266","54,2912362424508","38,2648240221366"
"2053","291,785336421242","44,0170610296816","241,558849753318","41,5862828294141","59,15529114028","38,8985641401803"
"2053","151,048756588128","55,3726052922788","109,256192614446","15,5891235199331","-62,1648486970422","10,7608748837351"
"2061","-163,62050586847","-79,8411955870803","130,544408118853","19,4126870775933","-37,4608871608392","13,7310108865661"
"2062","-90,6984617350776","-34,9399176504606","103,3025376033","-28,2638857338664","95,7917309506157","16,9934203141217"
"2073","-241,122730776578","76,0089813651852","-179,058948212975","-14,2587727805954","77,5264276495548","18,0838833136176"
"2073","-183,749414484426","46,9884897154313","-96,4333158256293","23,8557591829522","38,3170783652248","11,9864859246528"
"2082","-45,5203063511962","-2,27759664759622","161,12975216377","15,8432630644176","40,4460003309101","13,0794399459378"
"2082","-78,2683713400157","9,2982974170768","94,7965354405264","-0,160667123406329","-46,6038564552627","8,34286600451393"
"2090","-285,506915991848","204,477338233925","-293,261908233002","2,80589378232064","-29,2799748274526","9,30779858308932"
"2094","-227,855729486275","143,698318800464","-184,225650531768","27,3357372001801","12,5887152209055","18,081464679211"
"2102","-103,335898670167","-130,30596807638","54,5383442116804","21,0506841780036","9,67188392189121","17,703390667089"
"2103","-131,877711532115","-51,4053940345662","-1,87972792912404","-53,4019991758054","-31,8071276744723","13,3834493435938"
"2110","-50,1659273275058","34,9090657129921","-20,598965697826","-33,8183127105715","-24,7126863372658","13,6153487427056"
"2114","-79,5539471067428","18,6761690252407","-23,6622268668998","-24,2880202238619","-15,3022828590339","13,7639435540601"
"2123","-11,8625044077773","219,076998790332","49,8783811172442","-23,2906223210044","-15,0131513645441","13,8591590571878"
"2123","-37,1303523892734","152,61482962557","26,7699658792456","69,7248741602891","-30,3235078177986","12,5609432864831"
"2131","-164,751690651307","95,6543772384416","-161,079640695408","43,9794279397329","-27,3017561158042","12,7290820212791"
"2135","-130,068153320906","104,289877298927","-106,890022525457","-98,9568265408346","-15,1149865588289","8,75913893149423"
"2143","57,0267338159443","-283,295415879675","96,2846260680769","-63,9120920817219","-16,5604258809767","9,21530765476897"
"2143","5,80122299795538","-158,03812484873","42,240192180061","-95,0272612754939","-21,851878667364","-5,44389182224736"
"2151","-29,0535941303146","1,14031426814101","-5,23877931919721","-79,8133767613017","-21,2636495175937","-3,83710710972638"
"2152","-26,6989157099932","-31,7174715597148","0,918901153151186","51,3831313808083","2,1676650495152","-10,9628868931149"
"2164","-122,550512550356","57,8740396439765","-75,2437460531038","17,646097749971","-2,15266648573093","-9,52889226752004"
"2164","-93,075382041097","24,4675620500111","-50,8445514330141","8,72085994622451","12,8645387121279","-14,0469366894379"
"2172","-2,20174155697723","-85,3303514793105","-40,7859194662762","4,91375941780303","8,70917273046159","-12,9419763537801"
"2172","-25,0544145071813","-55,0196000044359","-40,0652167709805","-24,9369063131947","-16,3479933706683","-23,1077660511724"
"2180","47,8920879581404","-50,8713538414298","51,7940506169284","-17,3253194165457","-12,7687024333163","-21,6217268813362"
"2184","22,078464831143","-47,8252336078227","23,6405463627333","13,7219055467608","-25,0352359499128","-30,184104384608"
"2192","-50,5492172651739","-10,3529101625243","-42,7780679392666","6,48665171004341","-21,6261519351787","-28,6706424037542"
"2192","-32,6473674527835","-21,9029994735233","-26,7432647519958","17,6949710807908","15,4445800528089","-19,5454936243392"
"2200","-213,806736258309","29,3665598484405","-126,17703918057","13,2201297286797","9,34090596075398","-19,6983471174846"
"2204","-155,938698301618","11,2959090884004","-93,0723206647559","10,1272480363177","14,2800051861008","-15,7186096616589"
"2213","-7,23305763446992","3,24315226860519","-84,1180118491218","10,154497503068","11,5311781661807","-16,1685024222543"
"2213","-43,0819673943944","3,212377933024","-81,6960113017545","6,79209318113146","-11,3406931100678","-15,0975541665452"
"2221","164,129825104477","-77,1949307942976","152,443712505571","7,73457436130653","-7,76537507570274","-15,4113197276593"
"2221","95,4712355154988","-51,4723466669838","80,7748473701234","8,03099665022148","-6,13579466297282","-15,6123721432406"
"2233","-145,83057594305","-46,7333454478289","-6,06156992003902","8,12422522094928","-5,39305449383857","-15,741201048706"
"2234","-83,6056664767749","-44,5382463944848","9,45053676082751","25,0084199140713","30,4623949199474","-9,02761475480334"
"2242","-76,7258889950865","85,3537251036529","-161,034759874992","20,3187133636352","23,8048118721532","-9,72573172847785"
"2242","-68,8220584294775","44,1103683277518","-106,148367331671","34,0131269650819","-19,3791825313635","-7,45461151105139"
"2254","179,792980014647","-83,3942250430994","180,231498245233","29,3201937908988","-13,0618487297307","-7,99933960623282"
"2254","105,591848948973","-48,5488103212408","100,692774761763","-26,0913872333945","-59,5973389907351","-9,70761378430057"
"2262","-56,2499816779819","23,1600220446733","-14,215050680668","-11,5190325011398","-48,8075705553753","-9,80222929518095"
"2262","-19,0362301811978","5,24382361250641","8,70417894960369","45,3142646360579","13,2461691230757","-0,34826545357227"
"2270","58,4694639335831","35,681974869034","-49,088606183185","32,1890576593649","4,52940371778626","-1,290423221225"
"2274","40,9174991145489","23,3579817046491","-27,720651057615","16,2626023515019","-8,70886030457175","0,824322310096764"
"2282","36,0603700579893","-63,6451094479745","93,9365941928066","18,2535300899408","-8,74267758796572","0,1793935801947"
"2283","34,7162639755472","-37,5858744037293","59,8429771034853","-40,1123538131429","-5,66966332076893","6,56227717997242"
"2290","-122,473394166512","49,3853889027127","-136,166501735231","-23,4691648190479","-6,26902600410771","5,65225493773702"
"2295","-74,9722539137974","25,3181273931676","-81,1840014452782","17,1605628424632","16,6210006633091","9,1468193061575"
"2303","72,5878420983694","-17,4553860871834","-61,1235477856987","8,93912768253666","12,0539576046383","8,38604086119482"
"2303","35,4219274739376","-7,24217070794905","-58,6975086860524","-25,6708769219911","-14,7350590612641","3,82087297298965"
"2311","-54,1334292506116","-44,8663378219394","16,3278692037588","-17,5561624852798","-10,9451216110711","3,89563787644637"
"2315","-32,9159496010198","-31,3545410152716","-6,37893898691959","11,9638151603387","26,2991980948703","8,02122699395573"
"2323","-70,1262553621423","36,7221160474772","-180,283792065733","5,24822266522588","20,2746428790522","7,66479200098117"
"2323","-55,4234077994476","16,8899420614642","-130,322336080578","28,4183933084743","20,617161817262","8,79562544570939"
"2332","122,695709864973","-44,0415300614391","123,594129748228","20,7057059478055","18,7732772026154","8,52023268072709"
"2332","70,9863477426425","-27,4074566112389","53,2745641497297","1,4250947932026","-3,6861338661471","6,98454123782515"
"2344","-93,2477266514526","64,178199228553","-104,107029683816","5,36109796191859","0,0771778148499827","7,00051203753125"
"2344","-51,6959772058094","37,2746124878758","-66,6762903893279","35,2523052087439","38,8535757223373","13,8068820340073"
"2352","89,047938285494","-4,46635983876431","55,8666555940988","27,653469133194","32,5273205189971","13,1682183268503"
"2352","52,995792187607","5,00724563075975","24,0126067064456","-8,4462074725371","-4,32880381196733","15,4774345762476"
"2364","-206,855230629856","16,135416191268","-114,317088040252","0,199986219550767","0,872685476091226","14,9571173795236"
"2364","-133,76341676835","13,941759867349","-76,7331078907947","-8,87908735287454","35,6719432318965","29,5752122639995"
"2372","110,488465724621","-7,58523970448453","11,2609746780418","-4,73457118234008","30,5329626632689","27,9420888494476"
"2372","48,0799250175109","-1,01399897672323","-9,93800164331319","-3,43106826307051","28,1906865369096","26,8956278985642"
"2381","-63,9702294071486","-25,5740828043018","55,2381476499764","-3,0211000567394","27,1231095381551","26,2250842568735"
"2385","-39,9777015881431","-16,7677366091906","31,8672771019366","-16,376058354199","-4,24775442644698","47,5430544754228"
"2393","-214,281791676717","6,42687582865722","-214,85685107027","-12,5763621800656","1,45384052097715","45,203028478018"
"2393","-157,516702661058","0,27617995103494","-142,591870577132","-9,69582221209624","17,950473207842","54,5774217780045"
"2401","263,160616148485","-34,4834344734739","89,6850998126134","-9,78985584525819","16,46940977352","52,584277377066"
"2405","144,574023404723","-24,2492440549168","29,5123889990816","3,66446788388964","-35,1646957343478","51,3071247954122"
"2413","-162,242434656657","-4,19018503919241","-123,395123612562","-0,103976601276774","-25,6988054710764","50,4887602473861"
"2414","-88,147295670537","-9,13161650712076","-85,7542152931347","-6,34566214151725","29,5746734504091","60,8381927103966"
"2422","161,552049960965","-137,968352126459","36,8455781258588","-5,30875143544006","21,7675591540413","59,469826817068"
"2422","97,6509776066849","-97,458882019607","5,0069055808014","-4,98262986255229","18,2091846500053","58,5930152661896"
"2430","40,3324848325325","-13,8347694232824","32,7148707111922","-4,88006049020474","16,5873268635931","58,0311783339026"
"2434","47,4708237819349","-34,7461279186845","19,2094421062585","-55,4124204956165","-27,3898814680005","59,0303958169645"
"2442","114,930522330328","7,17140648690977","12,0974035388382","-41,3054888477037","-19,4340835822987","58,6706671327432"
"2442","95,598544135546","-9,25767289712571","12,1737082924654","40,6637365115862","16,6205498626598","67,9547536821681"
"2454","-7,97764034866434","-58,8440423368426","-32,7730589358068","20,4440978733616","12,0537521359496","66,9037431780179"
"2455","20,359876538319","-45,3489184564453","-18,9304567953933","-33,1088797648609","16,149124452179","74,3856479188872"
"2463","-107,936772440527","-43,6934838983048","-87,8259059321987","-21,9519706866172","14,0157383995866","73,1798484549794"
"2463","-64,4401128379848","-42,2760102193975","-64,4610478461247","-1,58810810320114","37,750792332202","81,9217959200361"
"2471","32,0369559786275","45,4722665734585","40,4411721014306","-5,18341495378","32,5689009904846","80,5233974740537"
"2471","9,73491139685452","17,6009552312811","11,815582607512","-6,31418457381868","30,2070667284154","79,6273418823836"
"2483","-141,191505384291","22,8069775033462","-168,878755183036","-6,66982596598429","29,1305754024441","79,0531738935174"
"2483","-98,9571476874902","17,1198516726723","-117,753748668939","20,1861173036339","0,844076127355201","84,1221717778916"
"2491","78,1643662758778","-139,869996093415","36,1655326440841","12,6326521972765","5,95148175663637","83,3702473971882"
"2495","31,1789387686587","-90,4602831124485","-3,20170805911386","-35,2511658503506","5,19093874688981","97,8399347137982"
"2504","-2,50252642646246","-48,2870804666776","27,6584439829582","-23,3112341532825","6,84429378277495","96,1117157766401"
"2504","0,176851924996416","-54,6516844775964","12,0056326578939","14,1537721031585","21,4957948191216","104,518911088941"
"2512","25,0441131738444","50,3600577104109","-26,8185207673465","5,93699190886768","19,1737459486252","102,90601259173"
"2516","17,9255933052228","15,8423116443496","-17,319847311147","42,1189184742049","10,3943189619745","108,668647559899"
"2520","15,9556959148131","7,13749733023145","-14,7506046388359","30,4985934379613","11,3927778081736","107,361186907906"
"2524","15,4105691468387","4,94228469675714","-14,0556646622525","26,8438537809432","11,8478615134674","106,523401774868"
"2532","-24,3755272611055","-28,8198211680382","22,4521340407389","25,6943917892244","12,055282359717","105,986571906934"
"2532","-12,38547440392","-18,3340753097826","11,3269228449219","-25,2317479653606","16,7824634814497","111,079495041039"
"2544","-21,1303853885745","19,2665844933601","-55,6743512972736","-11,2486650446517","15,9370471266974","110,342901307952"
"2545","-16,5503515677757","8,74885952511543","-36,7971484877583","23,4879635691909","6,28643491915028","132,977775697741"
"2553","-37,6854550182052","28,8180716762427","-57,6338947473176","16,4130739899539","7,88781961468993","130,481585982995"
"2553","-30,5341406862137","20,8792006639774","-48,2699088590816","27,6718299543038","25,6040610064428","134,319004756469"
"2565","19,6964336116938","-14,3313624545279","18,2549813715438","23,212851550796","22,6788783182748","132,777918065069"
"2565","5,59666554957117","-4,2108939643644","-0,751075838499411","3,27008583224255","12,0803374376938","137,227340811481"
"2573","1,69485775475277","-1,65867636562101","-5,89191718246187","7,99783298949605","13,249669380613","136,078409577384"
"2573","0,615116300806196","-1,01504858518115","-7,28243439661759","9,48476945384423","13,782634675405","135,342205772441"
"2582","2,03959254889321","20,1210589907861","-16,306125731926","9,95242983741954","14,0255528708522","134,870466449559"
"2582","1,43378573730818","13,4512416574034","-13,746893166173","5,04305302406836","20,3131270505823","135,927416023882"
"2594","-100,406876240192","-112,325732255247","-85,6943173742716","6,49899172844737","19,1789162274868","135,604680489462"
"2594","-69,5890907973762","-73,0446399963819","-63,1549708319046","-36,865767201223","10,9408893615903","135,397880359585"
"2602","38,8888154935389","-113,825258749963","53,6305705832781","-24,5045340758995","12,1861108800189","135,265368475532"
"2606","10,9077447742631","-95,1094677242503","21,2192337683472","28,2623626373084","-7,32111456445742","131,102776667542"
"2614","-150,206577897569","369,286026728872","-165,687636388548","15,8582211347293","-3,21223758777499","131,435501345472"
"2614","-105,791504208989","223,39901955844","-113,243022755871","131,626560440361","23,3679533272966","135,726384052235"
"2622","-93,5005870845376","186,608688410207","-99,0575746615373","97,0371719652327","19,4828359938158","135,475864683912"
"2622","-90,0993399129275","177,330765089623","-95,2206327203414","86,1583704362078","17,7120533537975","135,315338704029"
"2631","-40,9065161094255","-34,7469274652938","14,7766850009147","82,7368493303052","16,9049551662685","135,212478033456"
"2635","-55,2934593187071","31,7705267646534","-18,4707601994714","-56,5492220913899","-0,449261442483682","131,068885914514"
"2643","35,5051953343511","-0,393708091810641","22,6922790197789","-18,3564587484871","2,64092712477834","131,413785075089"
"2643","5,63177166691189","19,4949948540491","4,82623760586845","-13,0862993555678","-23,7464571974965","134,353241589642"
"2655","-66,3961014894237","155,596821823042","-119,342825999763","-7,42876736123604","-17,7734612909638","134,236765168994"
"2655","-49,3282674433134","114,919489627304","-83,928616506993","36,4877810430098","3,47951376642803","139,599039329626"
"2663","31,2188344247999","81,9397164690869","-41,4888294508799","25,3000927082809","1,16632527043294","139,035038389485"
"2664","9,50851383898198","86,6227539155473","-49,009530534967","-25,4122219664318","-12,2417048547921","140,032869235323"
"2672","3,50064919067525","87,8037398153649","-51,0437626032693","-13,3618883451929","-10,3528991752269","139,67225203178"
"2672","1,83810176353351","88,1015652569748","-51,593990575561","-9,57190553245088","-9,49200772185466","139,441178361315"
"2680","20,3340138923149","-187,978297021381","-17,1525059699051","-8,37990785235649","-9,09962532778012","139,29311265436"
"2684","14,4523600805919","-99,6011493478635","-27,8366228253127","-83,8519385200202","-8,92078287025941","141,916690724315"
"2692","35,2272681714877","-134,991806244951","17,6999283337638","-62,5888497179842","-8,83926895654908","141,597808009964"
"2696","27,9762775146591","-110,916754477499","2,01685352624082","-3,65123182701048","11,2726641117827","137,31579485601"
"2704","24,24645018965","55,9536780087706","-86,9714390696226","-16,1146032280269","7,43940448991787","137,571997591912"
"2705","24,2143006347121","6,03568784016473","-62,0413810175876","62,5543866485301","19,5901825996524","125,503119900412"
"2713","-89,5305144615435","-43,2569590862437","-46,6506118912413","38,2967820791785","16,1283388746277","126,76971217837"
"2716","-55,0069475636591","-34,6877631637919","-47,4876494542824","-6,41326320128822","25,3599754866782","115,348264553405"
"2721","-45,4532923663819","-32,526751283599","-47,7140550292512","1,52486029836081","22,5676275209425","117,029712363418"
"2724","-42,8095236069594","-31,9817792245404","-47,7752941977669","4,02150085411005","21,2949140149684","118,107138269169"
"2733","-4,16594462041422","-66,8006713236775","26,5773138053921","4,80672598507299","20,7148288364144","118,797523409565"
"2733","-15,4721646202712","-55,5814297708321","3,68853187812796","-15,1721584984252","8,09672318565375","101,569948888451"
"2745","-85,8085061688372","230,394114579241","-28,4452603038588","-9,45577115100437","10,3455654937792","103,530988908976"
"2745","-66,2725771027736","140,512497024665","-22,1369487251776","68,1890342580939","-8,70422350309204","83,0399335798185"
"2753","-60,8664285779792","184,26283237764","-80,9636962369786","47,6093106793645","-4,38685333281922","85,9098240894469"
"2754","-59,3703931566127","157,295955591977","-61,8754117704719","36,0802645707398","-10,1401251308266","89,1079989385233"
"2766","-105,484727758527","122,530287583344","-129,351985846488","35,4542332945612","-7,76238668659042","90,1573021717233"
"2766","-91,2458788221376","129,762951386414","-105,603344238465","-33,8476412962157","-8,2228603129514","90,8296670704171"
"2770","-87,3055833843357","131,586911597538","-99,1797079580821","-14,6439601240132","-7,43273781052899","91,2605001629797"
"2774","-86,2151913023266","132,046884705973","-97,44221476821","-8,6041587482449","-7,07261092356987","91,5365662604331"
"2782","-3,19641716504039","37,780804428121","-39,898234117688","-6,70456458545819","-6,90847007919035","91,7134618877162"
"2783","-28,2227555687682","68,008431708071","-57,3334869660243","-68,4701486818389","-34,629506403914","95,9044935880808"
"2794","25,1662452966252","-128,863154549983","65,9347065922904","-50,8962085323039","-29,2643705981331","95,5899924176654"
"2795","4,9405039096991","-61,5109675567317","25,2768258354802","-75,7077530101579","-22,1863744742914","92,670014106292"
"2803","42,4252519216898","-65,4996362295512","-20,3108079540854","-65,5112985454378","-21,9603219290556","92,7989716283925"
"2807","27,7983503539183","-54,5055136147949","-12,6415501995091","-18,4817141241012","-15,6804348789649","84,726240479817"
"2815","34,0902986352316","145,770262680451","-55,5345423455187","-29,6903131347448","-16,8181493892207","85,5534544927379"
"2815","29,8314601026016","83,2765570639103","-41,1364261530631","30,8329581412681","-8,07142074739695","73,850465256813"
"2823","28,6529180648692","67,5166606282615","-37,2419608160737","11,8682948478573","-10,0847830460292","75,351508879799"
"2823","28,3267818838281","63,5422709963458","-36,1885688265745","5,90366762751336","-11,0024456802465","76,313336701892"
"2831","31,6830736864304","-10,8682883489345","-1,31333009146022","4,0277166903813","-11,420703591806","76,9296497424896"
"2832","30,6118553131479","12,3665784679578","-11,8801232359481","-48,8124003673589","-10,0671258934481","63,732293645791"
"2844","-79,9739567663319","-30,7128211777761","-106,402604161426","-34,4312875921198","-10,4501839366345","65,2757877338429"
"2844","-46,5762036732985","-13,5767453158735","-78,9694575337723","-19,7953212887617","10,9942175300181","39,0802712822715"
"2852","26,4269519106419","6,4750407273953","-23,122782509085","-21,1921241922239","6,76827853854596","42,2948986579273"
"2856","9,62900631669705","2,53177513406906","-36,0171299943679","-11,5185125524558","-13,6884121879577","28,0440169970548"
"2864","-38,1012513957654","13,7720614842359","-42,9638806722644","-14,4760389575967","-11,0122883289803","30,9124406318625"
"2864","-26,3095744526159","9,60667893951419","-42,8428681285507","-3,60780734834017","-3,61569272756948","20,5174028604986"
"2872","-29,9395672355781","20,7909510060655","-54,9167455618852","-7,18961061631081","-4,24442695566058","22,8565461158321"
"2876","-26,9440897265363","16,6114425697841","-51,1825406505384","-8,31613318829222","-1,44256758740183","14,840814447503"
"2885","4,90373113443075","300,451488809239","50,1394101427419","-8,67043882995931","-2,16551891596827","16,7045521730637"
"2885","-4,28306887988137","209,031333353448","19,5454138147597","41,7827469248422","-2,4950301127528","11,1026481423605"
"2893","27,6401114660721","144,029066370302","0,893122298487682","27,6509139705876","-2,64521674982791","12,513100796157"
"2897","16,4741655696886","151,636551546127","1,8479690440914","-25,672858853342","-8,89052517034091","17,4945622016082"
"2905","51,2962028081116","-241,451439050019","-30,7545568754862","-13,4438619529622","-7,73705019991991","17,6865468322175"
"2905","38,9324532577436","-114,581838836279","-20,5730304448705","-206,799702832164","-7,2113122934441","11,0134290048122"
"2913","-26,52672239406","-105,308999882068","80,763304391609","-150,61256799499","-6,97168824143308","11,7374770682955"
"2913","-8,64114248063727","-89,9705406701988","51,173198722439","-20,0133512771536","5,49123994601439","5,4052909799948"
"2921","-3,69169261638648","-86,1024306537319","43,1695377360928","-45,9382406390725","3,17166990058512","6,34779880512918"
"2922","-2,32203873447082","-85,1269562013884","41,0046725645871","-54,0919472659776","2,11444201885406","6,95173211850701"
"2933","-334,534414196877","168,55240023249","-115,23729663562","-56,6563914504643","1,63257220159545","7,33871611723987"
"2934","-233,467049570966","87,5262092076097","-67,4983066941442","136,368099252145","36,9298613544262","-6,00558777597955"
"2946","-21,1087789132115","-401,322036282785","-168,733688054425","82,0767505804198","30,0178765947634","-4,55625382886192"
"2946","-69,3431912740452","-256,601615332712","-130,1162760482","-103,547298647358","-96,6696189241877","-90,6181053541599"
"2954","-3,42053971478831","735,950015724269","-251,114057972785","-61,9284172385411","-74,4120237259909","-81,7641930162889"
"2955","-31,1778626313268","439,255398613134","-207,84206636355","429,839645748968","-87,4305281564129","-95,1200291867857"
"2966","97,2793425599628","652,823523134108","-87,1781842152683","300,50694087623","-78,3641820632663","-89,6780848084772"
"2967","53,8271134387206","541,681931612216","-117,540490493968","192,410671783173","-91,2182195966689","-95,7056261265738"
"2971","41,8026428559063","513,653829344992","-125,753019672987","198,413023679709","-86,0769117710696","-92,5679102399613"
"2975","38,4751290385247","506,585597678117","-127,974380425268","200,300839506136","-83,7335749132341","-90,5573474612703"
"2983","134,057514589836","-38,7677521484321","213,868871653556","200,89458153525","-82,6655144477726","-89,2690336581294"
"2983","104,507885641919","134,703000236818","108,33212713154","-260,742202682689","-74,4576379981633","-72,1327900792606"
"2995","111,840104295898","356,726761904606","-231,526726383592","-131,932828345685","-75,7166016585064","-73,1523524771006"
"2995","104,869138232581","310,717544586108","-143,453233073209","73,7571107778905","-48,4945704010678","11,8256576689552"
"3004","161,531303876529","-345,829431713177","-95,4175111613268","40,4492063277037","-54,0871458012246","3,27724933021722"
"3007","143,211340498888","-142,399903963688","-96,4245993510227","-337,462786337015","-33,4729562933867","26,3434350135982"
"3016","-15,2294783418117","6,77942579386072","166,189375331257","-238,320902796461","-39,0772943904754","20,1236178144849"
"3016","29,925430076094","-11,5999728331877","85,2223499050451","-47,0182278727223","0,0621001410447271","35,167310321533"
"3024","42,4210805621895","-16,2349583257927","63,3220353259236","-81,8511094524761","-9,09870623152704","30,8068982580292"
"3024","45,8789832917351","-17,403826304152","57,3983426110222","-92,8064926522297","-13,2740748242138","28,0128651105283"
"3032","-56,5604058938133","567,819851153279","126,706217313584","-96,2520996652081","-15,1771499658295","26,2225248592767"
"3032","-24,9083053386527","380,403747122115","104,452913895388","270,100447333392","10,2070903464846","25,0753236465357"
"3045","-202,262587756057","-612,428143437002","-276,871149253343","167,322971470133","4,77687530194321","24,3402283921033"
"3045","-143,341573916095","-321,804203215406","-163,013346902146","-446,494971485469","0,757644679275469","-31,8591186187655"
"3052","83,2026722868159","-419,799564350064","16,5217531186669","-294,548502373127","-0,0742649393906223","-26,8701276998887"
"3056","23,8939237890557","-346,512401065694","-20,9168090891899","22,9185599833615","-42,1472119851934","-57,6540000800333"
"3065","-118,317316594695","339,635241052908","-36,2319017708651","-37,2340210354614","-34,323478194988","-52,3794660648807"
"3065","-84,6712211266942","130,670519928924","-37,3743949126288","329,823823604638","-7,59432088355848","-76,184233871795"
"3073","-75,3603872900073","77,9730149381723","-37,6834214462998","216,268172798108","-10,4115413979796","-71,4376799572634"
"3074","-72,7838141236842","64,6835610183281","-37,7670082924889","180,553479879736","-11,6955914669568","-68,3962176412123"
"3081","-70,3475313818435","267,574495449939","-32,6010703271023","169,320755825987","-12,2808436938237","-66,4473315258268"
"3082","-70,6733424908906","200,74029019404","-34,2037648691996","47,8038097221378","-40,3434429952115","-97,8199928956207"
"3094","106,733459846926","-71,2953835733568","-102,088378393924","79,5851884236561","-35,1339868607593","-93,9227388095218"
"3097","52,8269797662382","6,10164268585481","-81,4501050776895","30,5887793154369","-49,7459413879321","-95,5031664703399"
"3106","-5,17226737049881","327,992127171766","-53,3840715586577","50,1787870079261","-45,4058677665961","-93,5158614191757"
"3106","3,77768743906623","236,16767355793","-58,7926482623292","130,501534724921","-35,7066530646251","-80,0094051152765"
"3114","73,4619832344232","-264,142799480138","91,9417920430923","111,764057978475","-36,2858854167475","-80,3548362193169"
"3118","53,7456145191937","-117,312965946685","44,7131016375765","-104,815030250274","-44,2709607865556","-57,4693154833339"
"3122","48,2895331992989","-80,2848693196502","31,9384792330106","-47,9319013499733","-42,9104474816525","-59,8048978542405"
"3123","46,7796799499878","-70,9469854112776","28,4831435847417","-30,0414356049289","-42,2903443714903","-61,3014753492097"
"3130","-20,8457276328726","-112,287529408847","22,3599824103786","-24,4146571424503","-42,0077099673673","-62,2604413982551"
"3134","-0,559605852146985","-97,7129424255243","23,7037630392048","-86,6934818003273","-26,4367505411491","-37,0496025873165"
"3147","148,08567612688","404,09016541287","-67,5970938846464","-68,2809623191333","-29,3397230195447","-39,8951845442054"
"3147","106,220063397179","245,636750106459","-39,2925483298383","67,2925317278052","-21,3975744963696","-2,30096507438477"
"3155","36,0434241131464","-386,832336843829","20,2488577486385","32,9321156971376","-23,7776532630809","-7,21161438382198"
"3155","50,623547348778","-207,330756896674","6,35387725179691","-159,90730084073","-0,155038450853489","1,87482086408964"
"3163","16,7463103153284","-46,707503920998","-52,7489980175725","-112,557743996061","-5,38817798544425","-1,30283920437519"
"3167","29,3715130178383","-72,2009311857167","-36,7354017926424","11,890967691217","7,66876811799252","2,09791194925096"
"3171","32,8652665390859","-78,6299590296885","-32,4039743624892","-13,9683335374751","3,61994320667513","0,277020554412993"
"3175","33,8320877422657","-80,2512553187035","-31,2323909580397","-22,1014118643295","1,77454492136495","-0,889756998048029"
"3184","-141,674057336992","246,181520658564","-236,72785635059","-24,6593681867283","0,933437956747483","-1,63739623715162"
"3184","-88,2416112067883","141,502559103137","-173,311167124199","90,8347466567945","19,0806393564051","-0,757235805709512"
"3196","-919,581632070714","-402,249385799148","184,556635687345","58,1591111091048","15,3518822675268","-1,19325300207699"
"3196","-658,637116619092","-243,374785130156","84,354281618582","-152,690781028446","-60,4698987316047","-25,9387317685833"
"3204","1042,06522898408","-2,31032422362046","838,992177703099","-100,005747268167","-47,0284157605454","-23,7949597849882"
"3208","567,698053545692","-56,5177867877072","591,109930956105","140,73417685161","-320,404682423751","-48,2466072611914"
"3217","-109,849930298349","616,703762555115","-951,215176902409","83,4499373801532","-264,005796276469","-44,9145561991689"
"3217","19,6532262728519","393,479291005801","-515,390006625674","137,909271707973","-42,1848055689214","-27,8279687835838"
"3225","55,4904417175884","337,185708815206","-397,506111542259","112,037423308027","-68,0818720354676","-27,8793494967966"
"3225","65,4076209187482","322,989382696234","-365,620360861054","103,900398736621","-79,8853960451978","-27,9122728567378"
"3233","595,473063342003","-121,040397336688","409,179661856265","101,341201270243","-85,2652787136943","-27,9333692480108"
"3233","436,157282961682","18,982511872739","175,750955158669","-145,54484642472","-18,2277310614598","-12,995387284507"
"3245","321,415933451251","-314,495217906555","207,735499149566","-77,1936407967329","-32,6729458587131","-14,4235357817243"
"3246","330,663730866411","-187,592879152072","161,386818268468","-156,825558168097","-50,0663715863143","-19,4163362010968"
"3257","-781,733794539308","-41,9821158236627","-593,111982092465","-121,870806513026","-50,9940539920574","-19,6155865626266"
"3257","-442,565903297509","-70,261448880781","-368,192112126796","55,9861503070526","240,439540415844","-21,102488029701"
"3266","773,141262148995","-49,4279767148271","251,27874603545","12,9244197908649","184,270934013235","-21,055253943924"
"3266","458,562093573769","-60,1741137778931","95,8359286654993","87,0262994458093","58,29616082805","-29,1803512420034"
"3274","371,509069252635","-62,8841148176199","53,7910766835121","58,3322807664532","65,8786049889564","-28,3866920297275"
"3274","347,419015617555","-63,5675330163847","42,4186015309294","49,3076478358274","69,334577958764","-27,8781368485604"
"3282","326,966439063402","-142,391611654721","258,991010249403","46,4692862789246","70,9097625449719","-27,5522685561099"
"3282","329,306628045837","-117,269762641607","190,570461021188","42,2056109325487","114,865697878717","-53,1687791457182"
"3294","-388,649986641485","506,044698837572","-270,692230069956","42,8646309406425","106,900204055401","-50,5831406024566"
"3298","-170,329050239266","310,234471196886","-139,456576855974","58,2412869068281","231,43939258521","-48,9263339309505"
"3307","-297,750015503771","176,959135116794","-7,1065088588049","54,0774402998409","205,202628832947","-47,8646973948225"
"3307","-224,011029252495","191,349262357183","-27,3078845614649","165,695507649136","75,8840222877156","-66,2136114138024"
"3315","-53,6807298166457","-385,296779707655","43,3266470037092","133,800805987077","92,9423935424947","-63,9710951660325"
"3319","-93,5454799952029","-198,71753549915","18,4321835265492","-4,32751809873574","72,9215133158628","-67,9710609797986"
"3323","-104,577192878696","-151,665283808232","11,6986203437803","28,2293714702457","81,7962735611495","-66,5341299993702"
"3323","-107,629982338024","-139,799470981209","9,87729677205755","-259,862328002845","24,0727119666451","-66,9726110790649"
"3331","-372,135314317875","83,4177427866853","-390,133454120847","-173,470822656657","37,7631125342916","-66,2535777981218"
"3335","-292,331480491877","13,7094946828149","-267,33010866596","94,7250875532475","54,8125043963753","-52,2005681917455"
"3347","86,4697140765656","328,215297255715","153,297778338331","36,0761040555399","55,5833809338923","-53,1957828433595"
"3348","-15,7051960963064","217,528546935177","43,0710458834051","243,485554507462","-44,4391650037167","-49,7558074477822"
"3356","-64,6591645487913","18,3291547854552","-81,866921858069","174,718458186377","-25,0280553135138","-50,5515650179721"
"3356","-66,2061232543265","66,0943069819528","-60,6606889133748","-60,9665547754087","-31,6228791006184","-26,5953739329724"
"3364","110,862752729694","335,068891881962","-68,7608594977219","-8,09248161047201","-24,6287083906496","-29,2448999400237"
"3368","56,8627587929269","255,899908782387","-62,9518290067033","-72,3663057581648","-18,3524345910686","0,319583224028182"
"3372","41,919420978127","235,934778498375","-61,3805770744095","-44,5812389281161","-17,4917959708336","-3,73630214963132"
"3376","37,7841733833085","230,8998972652","-60,9555779909042","102,367476736824","-3,20160409114839","5,89784252002064"
"3380","53,8725473903028","14,6487821559707","-164,611560393544","66,5847122283828","-5,68833266817052","3,07113971368012"
"3384","48,3246591434797","83,1137670757806","-132,648883126791","-126,702050951821","-19,1754599573813","-0,0993616328020681"
"3397","-8,35528740789532","-14,9763500704112","19,5463189662771","-79,4931903018868","-17,3227056690195","-1,13093244016043"
"3397","7,95975548574271","26,2869172885423","-22,2872582125119","-231,508648599474","-5,66874893302341","-9,947298496148"
"3405","86,5752670896745","445,681847133057","-54,3567744358961","-180,319438933404","-7,35703695516744","-9,59658545393549"
"3405","65,3304204098121","317,446429258209","-51,0310772152717","188,047065278838","65,9957299526444","-21,6049035183256"
"3417","18,0928498805005","-129,124911595271","-107,205544015184","94,9030045113939","51,4289045747569","-20,2995062826983"
"3418","29,0208674133077","-4,74294270010099","-89,3998590805639","203,817975256061","13,905270273706","-54,8029523169434"
"3425","32,0449614128369","26,624167457808","-84,5836996710734","156,073115416251","16,8025177678599","-50,9118196713799"
"3425","32,881814436776","34,5344426238783","-83,2810038442746","-202,782660512976","28,9325400323009","-75,6030333523624"
"3434","50,3461104352111","-274,582008800555","62,3506682258704","-111,647355032958","27,4612360806292","-71,4244897817022"
"3434","45,1789790297496","-174,536151748912","17,7417587868822","-72,871221303505","43,7769885687977","-79,620811154741"
"3446","-47,5843025569832","612,741675869749","-9,88989452418082","-66,6756352725761","40,2134824465769","-76,8727903875107"
"3446","-20,2545471718836","375,280343195449","-8,36382476514039","314,507600448526","55,5756381794841","-76,471160883544"
"3454","-36,8174255817259","-395,964761531006","-52,9184532243616","209,39456435317","51,5774958713127","-75,2138076493187"
"3458","-27,4008462308754","-183,460236828488","-38,9697836774245","2,7299876919899","51,29941187231","-71,6896754458113"
"3466","26,9031344602234","184,73687579186","-24,8197928305698","40,7313562708658","50,1726650392974","-71,4315076283268"
"3467","11,9305940763429","97,5902008676215","-26,9924415204958","-205,196289977178","38,8496124403211","-54,9553535063192"
"3474","7,7872652981201","75,6132264192759","-27,5801090249993","-129,543654934396","40,6887219823959","-56,3978832283309"
"3475","6,64068810251401","70,0709907995793","-27,7390638976627","67,8552518162882","24,5406101852239","-35,5745806389902"
"3483","-116,028878347652","343,080481843311","-133,282512349706","26,9397124921787","28,1805246112093","-38,2315761642461"
"3483","-78,9750445862335","254,929036467339","-100,8303651416","86,5472106945681","43,7374718875033","-23,6233792195359"
"3495","58,8008979127348","-434,967135907915","68,7923872535555","62,2945251506124","41,828112865355","-26,2628449639856"
"3499","22,92742907356","-226,947733165164","21,6726899777278","-174,559526656548","16,2504317526858","-22,5172335633931"
"3507","25,0631179607421","36,9971453084016","-27,3922797928779","-113,053131040687","20,5924791611591","-24,1171479158675"
"3507","18,6541239624437","-17,4402479710539","-19,6635870582118","-83,5956653809318","0,952530182891515","-23,7831021366344"
"3515","-81,3459023716471","57,9701558106483","-117,885003243552","-80,3309186887207","6,00091361217603","-24,5690547102978"
"3515","-52,0187605713914","25,98743350358","-86,4523607763555","87,5591295029305","17,5671799668998","-25,072671687592"
"3523","-43,9031043441529","17,9219109630812","-77,9503223914576","41,3626797677387","16,8389238841992","-25,3953757136591"
"3523","-41,6572708958304","15,8879173203037","-75,6506539250308","21,7768482701521","33,4933472937677","-41,9128828783076"
"3531","155,417165205984","-138,432853646788","92,7343868935621","18,6168557685102","30,0842026841647","-40,4968510583763"
"3531","95,9532800947947","-89,3500428951577","41,2799079860486","-36,3125959650517","2,27872622684284","-54,5409964372792"
"3543","79,4979278212838","-22,7898520423416","-24,5231931496585","-21,5886054538364","6,60537539037049","-52,5401018304161"
"3547","74,9442627195331","-37,0044541494096","-12,3219032735357","16,7520226224589","0,856332828898841","-62,1318012777878"
"3556","32,325617983842","170,89662173061","-86,8498486188879","8,81063659998264","3,23599890053862","-60,2779007304364"
"3556","44,5318239652699","102,325892685248","-62,0084927015492","45,0791781264249","18,2185424416468","-64,5268808879835"
"3564","139,243018165019","-2,35734322790447","62,3177687951139","33,486094594378","16,0473781571803","-63,2495115087512"
"3568","112,452305733222","21,2432467793041","27,9460788743131","78,7190547979442","41,3094271534056","-66,5086898488649"
"3572","105,038551823615","27,1949318436535","18,6490741008381","63,9453946761041","35,8235190003378","-65,5970824556356"
"3576","102,9869547572","28,6958500450366","16,1343796544149","-6,43511406001555","59,5747536775094","-59,5760402215858"
"3580","76,5701469965421","102,482640113121","58,6920849578631","10,4293229882832","53,4002372949254","-59,7179205440341"
"3584","84,2598631691328","79,0904688267406","45,2032789162042","17,4188897203533","64,4839030186378","-44,857333630006"
"3596","-35,9644489910743","-372,501802615617","-34,5439201150702","18,617197137865","60,5356842562796","-46,3350747644645"
"3597","1,7660563444326","-231,386030776784","-12,1142907245274","37,5344404614907","80,3551348737056","-35,0489255689885"
"3605","-32,597895928385","-225,511804013647","-35,4491923978262","32,4841534996954","75,3885658039868","-36,8170689232058"
"3608","-16,1073812084331","-207,030419536391","-24,7609184940732","-162,935266760482","60,7711615842342","-36,5908197009024"
"3618","-101,154103180879","225,845268724282","-103,15714227322","-109,397153820331","62,1087513112149","-37,4458453687738"
"3618","-72,6889557581556","90,0094789306415","-77,3620951974598","-40,3086313478698","67,3510477467223","-32,5568134264808"
"3621","-64,8118379498844","55,7539013763523","-70,3849382305507","-49,579414468192","66,7404138134375","-33,4240550754315"
"3625","-62,6320148826114","47,1152016981556","-68,4977263484435","200,327903489041","72,6389507615545","-38,0574416816385"
"3633","1,73224946737844","196,996676683541","-26,4788898338757","128,926925690967","71,3274221596304","-38,0263894724412"
"3633","-17,4563236182177","147,794347666373","-39,1134514585169","37,3654324604249","39,8453684350242","-44,8026284070685"
"3646","-141,67208171088","-72,6038145919432","-61,5555748240495","49,5681811510393","45,4962846307241","-44,1446575371139"
"3646","-107,046123257509","-9,18464753392544","-56,6258183453029","-108,400681561102","41,8950384887717","-36,9269114021335"
"3654","9,37869903660783","-166,22517446787","-95,0712558578833","-62,0838931173541","44,2536404039194","-37,3019764974316"
"3658","-20,4032334649722","-106,828241949015","-82,4701456679676","-32,3472896942535","37,6075891801522","-30,7461716394317"
"3666","136,789319879192","-0,962855838709295","-84,250289261682","-31,9947506339041","39,5784111344083","-31,5453906547371"
"3666","84,2889808114398","-26,2653267874509","-81,7317902738919","-58,8516696262394","14,2250488804495","-29,3390538686659"
"3674","69,7606402527422","-32,6461985534009","-81,0505756706697","-51,298511397056","19,6693377160761","-29,9252934200995"
"3674","65,7402342298953","-34,2553506625361","-80,8663177702723","-11,842226428588","3,62020282158805","-24,8640306638426"
"3682","133,558532900181","119,14667818191","-49,6851974856618","-21,4327242035556","8,30522954817886","-25,6209115037166"
"3683","112,325789582502","69,8321756053015","-59,2511919189792","61,5107955029963","19,7058829532705","-26,1059001067472"
"3695","-596,644684098011","-143,603009962528","-11,6826904913953","36,5975847983657","18,9021427832187","-26,4166675785578"
"3699","-384,837026292205","-82,4278933981827","-27,8161545177985","-89,2220479286488","49,4200863152939","-33,4119352437947"
"3707","245,902326044334","436,370559074639","-289,877833707041","-58,7939187605436","43,3297420546328","-32,8943120117849"
"3707","88,4458866619495","279,203093348018","-211,761420984279","29,9940176068642","68,3496969884976","-52,9510421902106"
"3715","34,5335719945078","-164,177541993568","-337,640981424574","10,9189500932326","61,7534457167845","-50,8028479674777"
"3715","25,6144975331893","-44,9909290478006","-286,689434584513","245,944285029352","-55,5248597048776","-80,688570868252"
"3723","23,1463353547471","-14,9340031860722","-272,90783771571","176,862734755664","-34,9786860544096","-76,8385271580925"
"3724","22,4633245148318","-7,35413519646406","-269,180131217409","-178,590777149856","-24,0698109785515","-90,682251358796"
"3732","-551,575090518486","-272,858503449248","43,1409691447552","-92,3854164680843","-20,0976968959247","-87,5529323261688"
"3732","-377,427885290276","-186,814388135476","-52,3810558818122","-122,579305425614","18,7738702526082","-74,6739318728966"
"3744","434,172881638839","652,862548185478","245,201153158941","-98,0756665883609","12,4909918704658","-74,4214195761099"
"3748","215,765951874626","396,615418738869","138,692488450512","445,616004084672","-45,9643559207764","-67,4634802384851"
"3756","-42,8496936320632","-592,600742152227","-261,962301453315","298,6139326109","-36,607493360392","-68,0050224449336"
"3756","0,583984350857653","-313,06497369857","-155,333158482293","31,5810781057785","-91,022891684404","-73,7889369984928"
"3764","224,565714682631","407,617050534179","32,6237959865391","78,5958573789341","-77,824676143127","-73,4951117245511"
"3768","163,547844988245","217,361339065145","-8,53678625626028","-312,819840346061","-6,95213035964111","-50,199972933251"
"3773","146,662460877826","169,381942108902","-19,670080268631","-194,925043375507","-16,6494061546923","-52,2730832240646"
"3776","141,989793706971","157,282318320948","-22,6814622465323","197,792188997502","-21,0692900756654","-35,9315212742129"
"3781","102,784760687868","446,116305284673","92,3815534519707","110,306741186996","-23,0838119153811","-38,4602939899877"
"3781","113,935610350353","351,955540480209","56,5043003597982","190,662645875773","-20,9135753360328","-34,6437535150759"
"3797","-132,852997824178","-203,126416299417","-155,553264834776","151,935597417631","-21,9244115786542","-36,1982184508705"
"3797","-56,1464414329815","-39,1090604047584","-95,9115210161909","-193,971038543516","20,8528512988042","-18,1650954316046"
"3805","101,218897336396","163,052545780564","-103,992580592081","-104,76306425105","12,3501349041451","-20,6099619407794"
"3806","65,7663729217607","122,034415799515","-92,1783808720469","-71,6495625705735","-10,0558516944605","-9,94352031316457"
"3818","-71,5664416290265","-92,8041920143146","-88,9828245451677","-64,2349461638115","-8,26818988033079","-12,1087553782442"
"3818","-35,5703466534007","-29,9829957213676","-88,1184765165034","67,8795678300905","-8,99761225731726","-10,777724427379"
"3822","-25,6092009565277","-14,1405114619871","-87,8846838875419","32,4312586868605","-8,33007286829482","-11,9248360895555"
"3826","-22,85266795867","-10,1452945237688","-87,8214466364068","-110,185694663209","-0,304748374840853","-20,8152375746611"
"3830","17,5453875983363","-21,3724795894605","102,442377737324","-77,0405359474143","-1,64691668696504","-20,511964416577"
"3834","5,72468128411519","-17,2037931138153","43,9057677393303","-37,9626786892547","-16,1565831270972","-35,2691352025034"
"3846","47,2586136117828","188,341984204094","-124,124845881281","-42,6721967804238","-13,769888013213","-33,7251278331813"
"3846","32,7522367828549","123,177287157513","-81,574499957654","139,56471708799","8,93692855874661","-42,2503608949402"
"3854","187,278885910839","-249,810706840098","68,2959540841672","87,8805386343016","5,28638087752143","-40,7130977688458"
"3858","138,040815143878","-139,87221430153","28,8335689014839","-26,1330553572642","5,16672569245842","-54,6795614325802"
"3867","107,182522319654","160,511822457048","-37,1848896271708","-3,99177721749441","4,11218851730754","-52,628890500917"
"3867","108,64315295231","80,2637924119914","-23,0418505590487","-125,125100072997","0,543117370497539","-62,1886946366927"
"3875","109,047351089665","60,0265440331694","-19,2163795964411","-87,2230669926454","0,916384202544821","-60,3143564434144"
"3875","109,159204237605","54,9230390410072","-18,1816495065881","64,5930502297169","36,6034327895076","-57,7541043712323"
"3883","9,24041072163902","151,513728598761","-190,85333454458","29,3411452663448","29,8690949785732","-57,1135646581377"
"3883","39,5900319585463","119,872329982053","-137,558325883126","53,6492074581316","48,4186711441451","-58,062351545381"
"3896","-362,149977432707","333,865548692001","482,18761249976","40,2944014265011","42,873310897396","-57,6703083105363"
"3899","-235,322891286812","260,83115901272","299,819200029023","-142,567509632591","69,6858758504868","-56,0598704274538"
"3908","-107,169560313849","1324,31133811789","-67,739481051749","-94,0799007250353","62,9066713832583","-56,0279457465309"
"3908","-125,70588009449","973,503747556747","16,8416419476149","64,4364890246574","18,1230297640515","-34,2598529822526"
"3916","489,542328483515","254,074107493022","-318,290222716981","29,29190478098","24,7112665329417","-36,3114527266134"
"3920","299,799047984214","433,645649886255","-201,938152821946","394,102157821477","-37,1428884914157","-5,00460744939927"
"3924","247,291672855439","478,930673121587","-170,466736906397","285,839610940506","-23,3351551666666","-8,94403469290363"
"3925","232,761385218065","490,350819666488","-161,954210909884","-354,985766129303","-92,708260716939","-14,1867667848709"
"3932","214,954268456026","-2640,60375847235","77,2919360821709","-196,53347770327","-75,3275608430735","-15,5461665468863"
"3933","218,026531582679","-1637,17959510074","5,00427858688332","-977,643467678609","11,3492280611149","1,25272164785718"
"3945","-354,97269208452","2314,24686890737","139,378488726349","-730,312469875355","-0,144692737268856","-0,983008880885693"
"3949","-180,53791297887","1194,73237463112","86,7246118287378","375,62352756314","27,0450284688202","15,2543504549444"
"3957","-733,688586933572","-983,971619634482","-480,962441429916","113,454430343882","18,4377265950162","12,6588075455748"
"3957","-537,761148257719","-448,405342196007","-314,51291439609","1020,37997541756","94,8137583066955","-5,31507279811971"
"3965","512,508481470051","-1279,88662664669","111,002519848326","718,61956598025","77,6248951295198","-4,83224519790984"
"3969","225,148030282313","-936,57268705618","6,09779251234336","-340,386654117269","40,450386194337","-39,8627714241213"
"3973","145,627201044072","-849,994493628826","-22,2772962031084","-101,457546501732","42,506760192018","-36,3093773927754"
"3977","123,621520524709","-828,160880970729","-29,9523140984516","-767,925728229248","-29,1340243709776","-55,7800956932317"
"3982","117,531921362337","-822,654798863532","-32,0282864516855","-537,538427211689","-14,7869011652502","-52,2564010388815"
"3982","115,846755664975","-821,26625448263","-32,5898045185041","-465,078697997918","-8,24768123282574","-49,9985135909655"
"3998","-5,24858208743726","-368,231674938016","416,932378335092","-442,289193825841","-5,26719540919061","-48,5517208840088"
"3998","31,2408856345305","-512,983720124771","278,521101188187","712,695254176704","-0,820303558508318","-78,8868827497811"
"4006","-8,63631159947749","369,863520219624","-85,7954401592724","394,952516963092","-0,79347187871143","-75,3248272727735"
"4006","9,32853106193152","66,5032395171037","4,66263095193389","-463,450895873772","-8,50231166170375","-81,1977228679816"
"4018","131,482376567863","1071,89897390639","-289,100751555033","-283,429660222404","-7,01589400444728","-78,9609142191306"
"4018","97,2858281184227","706,443430816052","-184,559153970872","172,649795470674","-109,800733932086","-78,8868555005287"
"4022","87,8226682488393","614,281484999015","-156,282286176296","79,0925708038784","-89,6486395622226","-77,8394006931339"
"4027","85,2039421265321","591,039740777659","-148,633835504513","504,749211006201","-32,5929646164142","-59,4982657221208"
"4031","115,49815278668","-690,727318700999","201,067593165267","368,623624877448","-37,5877786628554","-60,7457665717033"
"4034","105,881424537736","-283,968130119022","94,656362560235","-279,279544236209","-27,5106348209955","-42,5159493365058"
"4047","179,044147265326","439,084695659152","19,1768661577111","-124,053311207602","-30,9176123085596","-44,8347795557083"
"4047","155,290358449148","266,426861791658","25,7608423901662","-294,346042106247","-15,4841129931749","-17,77685008586"
"4055","-66,691928475549","338,241236564268","-109,090030016762","-217,905266566493","-19,4497378851439","-21,4388667162906"
"4059","-3,12075578804669","290,351654210995","-66,5650828105958","294,927647803587","-21,2572147546344","3,39915825949182"
"4067","-121,667247726244","-904,996927523996","69,4623762071565","166,220105951415","-22,0810376634423","-0,685312636814425"
"4068","-75,4724417021234","-529,444403982439","34,2556772850411","-47,8652421260743","19,2372494417461","-1,9433029402281"
"4076","-62,6890219018189","-434,736163868175","24,7328156308307","-12,1978003088217","11,0695521088078","-3,7493888228885"
"4076","-59,1514851989808","-410,852285626711","22,157030429104","-361,674222196353","-11,1837374442136","-7,62513394428425"
"4080","119,324415619044","248,854121203722","5,89468009902123","-257,588990869468","-9,32647843280693","-8,10860573152243"
"4084","65,7137855668909","41,2213504632038","10,4959685723236","211,688348898437","-19,2894625207309","-12,4960830752513"
"4096","-47,3482791405734","-409,642365479965","-57,4400801702642","100,282026221606","-16,8304525993672","-12,3074589162853"
"4100","-21,6357757454953","-295,342863790236","-35,8157192763484","262,445339829698","-18,7980976708879","-39,371139072866"
"4108","-14,5203930151423","-266,518387924949","-29,9666677191709","196,447759409911","-17,6949230265444","-36,7128073256797"
"4109","-12,5513637603286","-259,249323785335","-28,3845907141508","-254,10858165992","-3,29418658817391","-56,7570571306358"
"4117","115,515613094637","322,85881417638","75,8142743927945","-140,814267369479","-5,73053048729158","-53,6008658249072"
"4117","76,9553966676663","137,657021741732","43,9984384103947","-100,125306163693","0,880087017543061","-55,6561463075639"
"4125","66,284685464351","90,9521409914052","35,3927521702933","-90,3281116224178","-1,10688513475631","-53,9731139960122"
"4125","63,3317954617701","79,1739294674968","33,0650485794136","243,108743608785","-35,9852243855404","-62,4092636658206"
"4133","62,5146466137501","27,2648007618459","-52,3108248936553","151,978865066144","-29,8822880664","-60,8149183313531"
"4133","62,2885182313056","42,1741625224439","-26,403663943689","47,4704329906745","-10,114301827838","-54,3563962419378"
"4145","-60,1263337910699","-83,4043420696125","-41,879885162149","59,6012051499993","-12,1043276482413","-54,2179514025771"
"4149","-23,0020132857964","-41,073199075119","-33,0659610541086","-157,382351031197","17,8729233241415","-41,8961943063771"
"4158","-12,7286554201489","-30,3979730981323","-30,6819323754399","-94,626432433637","11,5361388877773","-43,0007483574973"
"4158","-9,88572441429603","-27,7058546813308","-30,0370898885923","27,9258262435499","-2,16157664926572","-21,9608801744084"
"4166","-86,6462214449476","-84,7048827551466","-67,9120140142343","5,47006648189657","-1,40480556589995","-24,4791063726538"
"4170","-62,8880393478191","-66,0791108556197","-56,1565888722776","131,560942814761","-7,23673522620229","-11,1412170959607"
"4174","-56,313473036596","-61,3819940296194","-52,9769301499155","92,2181232021045","-5,89484794554677","-13,5946613544301"
"4174","-54,4941031031576","-60,1974575392067","-52,1168821747378","-112,301246351522","-19,181159042565","-15,1667615330084"
"4182","-24,6950162290326","-311,584278074602","-36,3186119414442","-62,6251829199606","-16,236875516745","-16,1741204583046"
"4182","-33,4487593451142","-230,979946771775","-41,045426825728","-146,445182140883","-19,5275534625156","-14,1011540508496"
"4198","0,317531681528763","-32,3755865328075","-28,4878312871599","-113,807635363875","-18,0273988674524","-14,7728537040629"
"4199","-11,3383729440379","-84,2907961022341","-33,0911980132521","90,2883281221289","-31,2415739158575","-19,2809423315784"
"4207","152,593440561463","365,788340949704","-36,0658523793962","39,4790981103262","-28,2644117787527","-19,1696025943493"
"4207","100,958046910753","214,290981220523","-35,8704498811543","139,797575189477","-45,4380288325875","-27,2536227390562"
"4219","47,0338171176274","-225,911929322428","-20,2519558586312","102,349009023668","-41,2655254909719","-26,43364240702"
"4219","55,1114454013424","-106,923945850887","-25,0273973973955","-29,0986393509538","-6,93526526970225","-38,1412667884027"
"4223","57,3467554335487","-76,9171111129287","-26,3190796767261","0,559407490411581","-12,2880084151277","-36,6431932402316"
"4227","57,9653294461899","-69,3498752902751","-26,6684595397593","-91,2419992396153","2,25863787813795","-38,4017230985009"
"4231","137,406995090809","-6,26797237082534","102,95071118245","-60,1147063884963","-2,1112023311608","-37,5285410788471"
"4235","113,390768786933","-25,3597421392187","63,0106704604189","10,3527653906057","9,79500978284165","-38,3282571199018"
"4248","-3,54458112900709","-14,4440297146828","3,78107610983589","-3,48432067732961","6,22169626619722","-37,8406933517884"
"4248","28,0960738249194","-20,6912645260159","15,7603968043615","27,5589737580392","13,8583126338326","-40,2467303218251"
"4256","0,663243789604337","-44,9883269424991","-50,1800095669138","16,3224837204167","11,3389765447402","-39,7884532027111"
"4256","14,0717976328931","-38,1156510241249","-28,0158586104497","4,36102847798534","24,0886227921483","-36,7763471839957"
"4268","-92,507048668647","152,381682129394","-110,226099589092","5,59899904302455","20,899734865064","-36,8462717834348"
"4268","-58,0004539097755","92,4220121457997","-81,4626845393248","54,8674885543943","25,6231393726667","-32,8133957538856"
"4276","-48,451495387224","77,3011582944478","-73,6826304414525","41,3630536007218","23,7760016895309","-33,2292387654591"
"4276","-45,8090263315961","73,4879248117335","-71,5782474375188","30,3737882200725","15,2130326406834","-29,4180178216584"
"4280","-77,8199381360806","-79,5337252537426","13,7372213080655","30,9175248313216","16,3101500152241","-29,9758913679323"
"4283","-67,6782700354196","-31,1232973338736","-12,1862781763476","-76,7826511044186","19,8986286268328","-26,2556797177788"
"4296","-120,016469049946","-11,9237095069881","1,55600809046481","-46,6557228844666","19,5342074482889","-26,8718695377162"
"4296","-102,499940833445","-11,0818856341087","-6,72691831450965","-16,954573973507","0,837543027381686","-23,189025365517"
"4304","-73,5268172228024","-56,3128140899093","-140,410508562491","-19,6131858070558","4,31586248572159","-23,8291592463648"
"4304","-79,5091279213781","-41,7193188109701","-100,569829781045","6,51844403976123","-20,3504032970192","-25,5985668502952"
"4316","8,44551368346917","30,1257575376745","22,624967157795","-1,26282682780899","-14,5929454117051","-25,732354993439"
"4317","-19,2149294747292","9,24391762268354","-9,05276623713645","-49,2182926776279","-35,1319837677763","-29,8957645934526"
"4325","-26,8693626715929","3,9778571258813","-17,6210978863556","-37,3008951233822","-29,4933928171692","-29,5635639343511"
"4325","-28,9875625583465","2,64984229247226","-19,9386976443849","47,3506686086472","-31,5560427768684","-33,4283806167972"
"4333","-96,7813169992166","124,662076714407","-48,2378222828504","25,9746594208739","-29,4961700439637","-32,9048497583608"
"4333","-76,5417815935237","85,4315783690321","-39,8922930829538","54,6468668848073","-31,6457363146765","-39,365521803811"
"4345","108,279309915802","-60,7913836891359","14,2505111009685","42,6646399114523","-30,6254788318315","-38,5053442763723"
"4345","55,4245750237561","-19,6664371975741","-1,10470680926223","-28,5234149955805","-61,0447367732674","-44,7503023162445"
"4353","-52,2584974703684","-47,7473520769508","-72,7091629048781","-10,9129614637932","-54,9094129879938","-43,7519011362732"
"4353","-28,0574735795059","-32,8289022259007","-53,0770488498793","-25,6000981447912","-42,8477342820049","-45,8306074226663"
"4361","59,6333997522701","35,6024898630663","17,9547251564963","-18,219388974322","-43,350188280503","-45,1625857273574"
"4362","36,8999643931106","15,8597742828263","-0,83229045061173","27,9246078271447","-51,3002691407359","-35,2199447601521"
"4370","-53,8313283340334","182,166975859532","-95,8486974078035","16,4374802741404","-49,923805823328","-35,8489715513151"
"4373","-29,9392637012643","126,106948013427","-69,5491500499316","44,8488918526455","-36,9427220532144","-24,0189893479967"
"4382","-111,214494310257","-96,0206143863056","100,138935905965","34,7846412644701","-39,026123964748","-25,4386593404108"
"4382","-82,7056677053525","-33,0375739246488","52,0369103369249","-71,1954192971142","-55,4178482655175","-23,6298906215759"
"4390","-142,0240507663","105,192862972533","-9,40037331431563","-43,5274929679901","-52,8889690426505","-24,470880949328"
"4394","-119,439138474373","70,0523315904004","1,98180193831123","-9,54326941289757","-61,0016240874509","-7,33981012546276"
"4407","350,370781678634","-104,852083713453","-214,587983054747","-13,8547999292666","-58,6992598303895","-9,3626870836547"
"4407","211,380580454009","-53,9601333823275","-146,166724149825","102,773280894222","-96,255220562586","12,447972090765"
"4415","172,918029286342","-41,126010990097","-127,659843280367","69,4542920344486","-88,3727070077633","9,42364774129185"
"4415","162,274344844627","-37,8894540001005","-122,654021332655","-217,44487194386","-101,766319006392","18,3595613172032"
"4423","245,492508461315","-363,914887492026","75,8647574655946","-143,678299054243","-96,8709417445326","16,0854510658518"
"4423","218,521346810957","-259,13320078501","15,5609835855336","-268,800659463647","-46,7690670265072","30,9389904532941"
"4431","302,391046474579","45,1938221690132","312,292085175543","-220,153229304996","-54,9333268498874","28,4567334559764"
"4431","272,600183423129","-37,0598508688156","211,553209207484","106,962157503789","-12,3280675909195","26,8661708600301"
"4439","124,771211544403","-372,409816522298","-4,21228589222797","24,8440969385336","-22,9091808512326","25,8469817211307"
"4443","164,862720551142","-276,979625213534","46,426520854971","-31,3218466084874","27,8597932532931","11,6016404258377"
"4452","186,296813012348","-397,982432163826","-220,058006210474","-30,9867484606209","14,9995880855088","12,4736141758301"
"4452","186,228237463552","-345,49737262296","-130,137904693596","-169,09131546482","58,5529282499874","-19,5891032717015"
"4460","286,159007125009","-103,297563987505","60,2175778168633","-130,526953992252","46,403937127748","-16,134018303281"
"4464","255,812700028988","-173,218710314626","15,7057599119158","152,96548428612","67,118230925649","-41,104639445321"
"4472","-417,767783769425","50,3469572903134","-53,4080068612711","81,1274529409684","59,5595189767097","-37,1051325566268"
"4472","-218,166706825649","-31,2734164215641","-39,1022002827677","112,469074635702","137,957697302775","-53,5715393656036"
"4480","-287,00694572666","82,725104427527","-133,815094363206","90,3264123061826","120,690500529203","-50,1227638311984"
"4480","-234,057002405442","34,4736778186255","-102,433451517143","39,5395939436021","125,174062396695","-72,3789733490944"
"4492","137,312955079447","66,0008590646315","35,7684647806682","49,5664952097395","119,217607761975","-68,6401455101399"
"4492","33,0816097474998","48,9515015564326","-1,85007744158737","84,7443418115599","14,5846236463383","-93,4289519580425"
"4501","-192,215125010068","-453,475703169628","-50,0746489400971","76,8082208875044","32,894359507192","-89,3129431711963"
"4501","-140,561154529923","-295,179674950739","-41,1186416112025","-90,8655464557422","55,1376080967488","-94,8308805910495"
"4509","-302,040720358046","150,233381761027","-83,6635881137692","-45,6010736496593","56,2757725533442","-92,3666244226811"
"4513","-244,726719863573","30,5593124385187","-69,1713310159368","63,0224668406257","25,9102549765699","-83,9914599235389"
"4521","-201,29395810081","437,333522897155","-134,43202737613","41,1859484882854","32,0700728753137","-83,6248828923826"
"4522","-205,274874691084","289,915364800672","-112,08402548792","241,633025850088","-3,72771394421829","-58,9238994902003"
"4529","-9,92355784413493","284,199594957023","-92,2031152867668","181,676174856904","4,95615091493934","-61,0961828899231"
"4533","-69,8642791777653","264,75817073842","-94,8256398857307","9,4396390801562","-71,384984449038","-33,9443502142943"
"4542","177,208952475895","-164,863991416044","117,195431131038","46,2690633236822","-54,1802160001789","-37,5461962310797"
"4542","92,5811595157394","-30,2077152393562","51,543816207888","-105,639884788081","-67,9575149819002","-7,23270649202618"
"4550","-27,340966949621","164,549504039654","-78,6324354417967","-56,4171763172195","-60,2370169297387","-11,8086488768643"
"4550","-4,52683821730062","121,664108072988","-48,8430764015182","7,94312207290752","-53,6296931931476","17,880666471888"
"4562","98,2896851028298","226,20498164002","-52,892129927875","-0,814747510751834","-52,6181665993668","12,9047701581725"
"4562","70,7419483144716","186,56849016387","-46,9873356058423","36,8824868890248","-44,4360575050141","32,8232150545877"
"4570","149,282278727127","-269,12033470467","106,807194694352","24,7387453922125","-45,7067655687949","28,5864113940032"
"4571","121,016627268289","-129,037647031719","60,4062107924793","-113,919600380821","-27,7553703966546","32,6677194839791"
"4578","73,5594713905206","-264,997064322962","-10,9480614820917","-77,5294093571324","-31,5733732505211","30,2829104160475"
"4583","83,426723397224","-201,283818722016","3,75172338524878","-133,503725078019","-11,6945720265577","21,9586534524456"
"4591","27,5660426443841","-57,6257871828156","-71,8299337587297","-111,108357547552","-16,634089912307","21,624696581881"
"4591","46,1077997410267","-94,3975674465911","-46,2735904097072","37,5162039307041","4,27775416042161","5,09997890132898"
"4599","73,6413619203051","132,28438250634","-27,2543896345454","0,260514192879664","-1,19091711093483","6,51139041929076"
"4603","68,2606835330362","54,4498845332119","-29,1099931616985","106,527238961504","11,7586768909209","-21,1279882101793"
"4611","-41,7944075003649","-190,647007784723","-188,727343188969","69,9494721625523","7,66092237940562","-17,8385483458684"
"4612","-9,2497887634897","-123,456458856987","-139,90134099217","-35,9419890757239","24,3237889583339","-48,3522194285161"
"4620","-248,394859626657","-272,554639566156","-190,686749159459","-13,2461971353136","19,9184926283183","-43,9045477899671"
"4623","-170,573118550856","-215,154776468555","-167,423408114607","-78,5840370533063","36,4411859083383","-61,443010116815"
"4632","-435,100691651052","112,179646170719","-85,0323501752436","-56,1336166827395","31,9720005312245","-57,6811785246955"
"4632","-342,303012577128","15,7280652430613","-106,746857063939","159,927752111367","25,3023661965438","-52,552244883332"
"4640","-995,592216602219","723,739557554678","-126,456416771473","103,881793880295","25,2624392956641","-51,2657640653272"
"4644","-782,375964058564","483,288543952547","-123,787544542794","224,464588555611","-28,8032438680854","-38,208376819467"
"4652","7,29416376037642","-418,048912901231","122,525563629414","180,389407377753","-18,4456330031698","-38,8415591303668"
"4652","-198,18159906892","-164,351564159389","47,1494086519609","-232,933289364968","-191,30937119692","-43,3249668952459"
"4660","510,089941371477","-977,776980121384","101,130509365168","-125,928521531002","-155,098267492082","-43,1978123342546"
"4661","262,088868812157","-680,909644078705","72,7315531941015","-365,323109043544","-291,470920200688","-47,194016965028"
"4669","300,302734176128","486,340633367602","-180,54114043304","-278,615744140126","-254,627685431066","-46,7546759211005"
"4673","248,877600166147","155,702174350813","-107,047444518409","208,792858530255","-152,903287403693","-17,9293855175984"
"4681","506,923695058574","645,604264165559","277,759249932452","89,0890480770351","-161,538716495922","-20,4589254553884"
"4681","420,332406183298","441,149605619031","170,843444902737","450,901174002365","-103,706071078544","-7,12828571448452"
"4689","127,539775333027","71,4869058367116","145,383422378347","327,695678104874","-117,346752751426","-9,58637527780219"
"4693","202,515707115483","160,26398350852","136,496884314974","-27,9256282732468","-71,0607152456791","-16,5983611158777"
"4701","42,3201783957554","-301,492984881011","73,5601675238065","48,2269589179954","-83,9641807899287","-17,0914504331399"
"4702","102,989508564894","-140,940584338643","91,5367695534837","-197,500056219419","-15,7231363749546","-6,53359047209033"
"4710","12,9356094177782","334,754369198164","-308,307498875802","-114,784320146833","-32,6198140260033","-7,7684017082235"
"4713","50,0151281660385","205,716901884281","-182,459122517212","105,061869240715","-7,89259452108352","0,954955804304608"
"4722","728,905426568341","146,958506828014","207,861116338865","59,2062851062718","-17,622270544535","-0,455354576334142"
"4722","528,773726703622","147,14059498112","107,436638874717","108,832639976494","-12,7916388916382","-4,07749754832001"
"4730","-138,36979948945","-225,098348635963","-194,719598020256","86,4407582186047","-16,58990392792","-4,39846799361866"
"4730","32,0125671357433","-105,970957770663","-117,448136338291","-183,537793438428","95,9507250094406","2,19199924100988"
"4742","-93,1649236547821","254,408306304214","-20,4487261029942","-112,449473293144","73,2451840729124","1,41499093144989"
"4742","-27,8051040570655","156,290097091671","-38,2119020754369","16,0944060132811","62,8963131710892","10,4316960756329"
"4751","-106,221382112292","540,535284827867","-10,1557664385638","-6,47691304166356","58,1794412303594","9,20935485814846"
"4751","-71,9214018295288","403,435673513029","-21,5670203646206","213,964907926117","97,7233305372988","31,5329755056402"
"4759","109,897529664735","157,3756133122","150,027492830659","148,296657480745","88,7468872778093","28,8373428803163"
"4763","60,2120115075717","216,323266960567","95,4411260257257","-71,2443433241467","35,2407053759734","32,5469640752427"
"4771","-255,109898760476","-432,98127188985","-311,923681624984","-22,2927735083714","42,8533291624105","30,9239881803838"
"4771","-167,368460882928","-216,725319174682","-195,109493553376","-273,203879098895","72,5746931760413","36,6801658269373"
"4783","-101,729387809686","52,7923157983","-92,6029409217492","-194,118605247069","69,1212790100007","35,3685674993358"
"4783","-107,565184977879","-2,23971890263256","-105,876520971941","-29,3498362888401","64,4588329747671","35,8873583253028"
"4792","-7,50709846606661","29,3253194919128","-81,7945667267599","-60,5279679442396","64,3337546848365","35,2197853398282"
"4792","-38,8181733599021","11,2855089410347","-91,2807745888713","40,9082767005386","5,59661912351559","14,4036137440051"
"4800","-171,558387777435","-279,905704529959","-31,5840827065617","6,81126261581851","16,8250467233585","16,065178615454"
"4804","-136,291389413934","-189,339393923136","-51,4370608211284","-132,009716668807","17,3101668435236","3,53759138930057"
"4812","-190,293050697971","-59,8832511236221","15,8326755779316","-99,6706759479293","20,5312778714221","5,51025510586785"
"4812","-168,236849915295","-88,2365168109284","-7,97191238810887","13,3150887222603","-7,34064766580048","-17,6918066132403"
"4820","-174,196170791912","285,637195181145","-178,714666466992","-12,1494547796886","-1,04428507202949","-14,5590550726573"
"4820","-168,845284773487","161,922066319385","-129,897912137057","219,180821579014","-16,7050565557309","-27,5031732672911"
"4832","194,522471020946","32,8454118393934","-7,73425835691968","149,937128501596","-11,8430191685062","-24,7974112370657"
"4832","85,0766883454929","56,2943783105662","-37,690899855895","8,48950931192867","-86,837662814367","-39,3743599351909"
"4841","-39,9900119223475","-201,712428810758","-44,0641874204542","35,0024384571212","-71,0191821002897","-36,7148711664287"
"4841","-19,5995334284633","-115,77755048676","-46,788062069823","-93,1833812541555","-34,4692745008061","-32,2922887468109"
"4849","-8,78709224190636","189,040062612798","56,2461104317413","-52,4994479136481","-36,8103331314728","-31,4584185304173"
"4853","-8,79498151236487","103,910108432887","24,1152433078175","101,877099548431","-47,14263836153","-21,4095063533752"
"4861","-63,9418524064647","217,023570152213","-17,436450967683","66,430482380962","-45,8519598986387","-21,9704374511532"
"4861","-47,2025637718154","168,548946021467","-9,67553467044613","92,3627924266241","-39,0868311090382","-7,37836684698421"
"4869","195,241140356795","-193,238817921913","23,5549532607571","78,5188329527164","-40,0033791589836","-9,02816591070828"
"4873","124,332225146686","-84,4758094746028","14,5432807370367","-87,6420499453275","-69,7611923635409","3,50696052419684"
"4882","233,955068572765","18,1085519775046","-10,3779390321805","-43,9017557864749","-64,3243912336058","1,5391277270132"
"4882","189,290834599943","0,978659958018662","-4,11873937365627","-21,7174417552151","-44,8600201828746","12,5112395491802"
"4890","9,77363310648035","112,014652847085","-71,6063490596099","-19,7401935284309","-46,988429598343","10,541869609539"
"4894","57,0961055751706","74,0161248560987","-49,8606924115503","49,9866559369051","-1,63211336923674","22,8722237414406"
"4902","102,933741156123","71,4247789748193","45,9559806932794","30,9166347546292","-10,9593329871518","20,7731784363679"
"4902","96,6183217121862","66,7712836777329","19,8728928173761","6,37851070423912","0,231588150727498","26,2243037866529"
"4910","1,81400459764534","-2,56708629562368","-4,47733101796703","9,66095936242409","-4,66774508021621","24,7172362659839"
"4910","29,5789472640664","18,9469042092446","-1,0636858859995","-19,6454405130597","19,3508423176097","29,1884575693414"
"4922","-2,37294583611466","-52,531532614807","-76,2390361194197","-10,862675099467","13,2981816000828","28,053494256116"
"4923","11,7850544225986","-26,5572321731151","-52,5727931030937","-41,8101301949478","8,9952488656208","25,9670134452761"
"4931","1,91680479935059","-114,389013949536","2,25499338464847","-31,5434974689669","8,03403175598846","25,6300534373205"
"4931","7,18597879345057","-82,5387612064581","-10,9149475210756","-51,9113335932304","18,4054193252481","21,3364568465694"
"4939","-130,940881303846","-53,5328502212476","-83,657835984027","-44,3172764716625","16,1325540509558","21,585237232037"
"4943","-88,1645213684817","-58,2180310944462","-63,3336500867006","0,208333654802555","21,2734689893116","14,9485125755981"
"4951","-60,8176396399495","-66,3908225699199","-5,95080653455317","-10,7877970408049","19,6166267745862","15,6958803906421"
"4951","-62,2499778300359","-64,4518676939512","-20,4296444488616","22,8345012163212","11,1403917630949","1,22327335100923"
"4959","-67,8161611145687","-9,78059075410565","-50,2886782522738","11,4091406018069","12,2770413098883","2,9496214092713"
"4963","-66,3564827164056","-26,9933836413851","-43,3650800946423","31,4125421037421","-5,73545587649033","-8,17722724862039"
"4972","-29,7638467810758","132,960558264744","-95,1073396718917","23,7038656696799","-1,94530247395209","-6,30700845383847"
"4972","-40,6376211937928","79,2983416309962","-78,1028119744901","83,6424196888905","-20,2925832337276","-17,341668666937"
"4980","140,743344948216","29,0614616695951","44,1037100057994","65,4938553996028","-15,6550195444589","-15,4123780305911"
"4980","83,9366292920747","37,3925373734457","9,15866368478502","12,5922569209205","-28,9834208646074","-10,0984593939624"
"4992","-69,6451277097717","-77,6101901850162","-29,6951908010177","23,9540330092265","-25,0583214791971","-9,69344523529298"
"4992","-32,1455783534611","-39,6120081802477","-23,2045510173686","-61,8033718196073","-10,9156047086975","-2,63778686310202"
"5000","17,8668603228734","11,9181057169209","18,3299251433295","-35,7751636871612","-12,4695503967525","-3,11671337687214"
"5001","8,7067279154062","0,913162584241873","6,5643516152181","4,43529694103223","-10,0893895902158","8,80944899115929"
"5013","63,0398173298382","207,875846010353","-46,7740054586863","-1,91800302033209","-11,0045452792485","7,45140862558477"
"5013","45,0753321595681","140,068469645975","-32,2011971815264","56,7613467834307","-20,6869437089017","12,0181224661493"
"5021","129,714164486806","7,61267871404314","-64,5793086703501","39,2167467922046","-19,1000467328994","10,9443481668083"
"5021","101,136142370676","40,2094819153455","-52,3370816446004","-33,720745001674","-15,2883333663893","23,8485755632805"
"5029","113,907046807299","-135,090841582276","9,77778091619059","-16,660511566817","-15,5510072372723","22,1172525973636"
"5033","105,441120152205","-74,2987328603213","-7,42111983433844","-92,1982426984682","-1,77280562399307","23,726322589151"
"5041","-43,3797198339105","-29,255075081545","74,40262806722","-67,9558175259322","-4,49289226919941","22,7573707626327"
"5042","0,437310990224047","-34,8957969802888","46,5346726823448","-18,1940844209163","26,6958209546999","24,8549473916727"
"5050","17,732547077035","37,0899875745477","-24,9952520151597","-27,5433880063486","19,9112042239378","24,1990172973622"
"5050","19,5186319742772","13,2436319813033","-7,34297838215908","38,6211172081799","16,8188699403687","16,9825788357653"
"5062","7,9499921489236","-39,9610701762181","-95,9621585408511","18,430693561707","15,409426827985","17,3584818525089"
"5062","11,7486196974667","-26,3784309747133","-65,9322613450836","0,282137971112553","13,2228083314891","9,44398664301675"
"5070","23,1394371809495","-159,282778462517","-43,9735185582105","1,57418697768808","13,2261779232979","10,372593930813"
"5074","20,2916011208516","-114,799093931269","-46,0340219265502","-38,4711427163377","10,1392860202256","10,9676201589142"
"5082","-135,590910485172","48,4789826045618","-3,35346503708048","-27,0659069810755","10,7323234694508","11,3488967402865"
"5082","-88,7280455203344","2,65505867542183","-16,8090416453218","32,1422656736366","21,8121187275275","0,719390227067283"
"5091","-96,4390126558767","64,5072930398184","-30,8256585610318","17,7639871784851","19,8621358605701","1,90829230627885"
"5091","-86,5728570951956","38,1054208557237","-28,6169343078337","82,3468159786815","11,2522914021818","-1,40757346729944"
"5103","-156,220013192921","-246,455487297777","-131,790446937954","61,6589350323482","12,3280436146609","-0,532289835641233"
"5103","-133,493366864536","-159,217121495803","-99,6972691404297","-64,5172651892","-7,25642359093434","-6,76756829585359"
"5111","217,450042266594","-408,12854433245","61,1808094735728","-33,2012810220833","-3,18275233854111","-5,76296470518578"
"5111","114,566088662172","-315,899957978903","16,6958146498739","-65,489189491286","-53,8293006127739","-32,3037874926348"
"5119","-63,8294541377667","-82,9034569492671","-29,9269936635654","-50,6441463583712","-42,9132954481391","-29,3104230009524"
"5123","-26,1965867310722","-144,145527812741","-22,5377344342874","200,105955675644","2,21162874233342","-45,0623111530283"
"5132","47,9785457228552","-360,588652165375","-22,2685709663219","132,97004416256","-3,22105616012272","-42,1556915472798"
"5132","31,5049195408691","-300,172088854763","-21,1957664562066","96,6855623910888","-11,8740540842839","-76,9923452187179"
"5140","-102,299164288067","480,607507756866","41,3569731983822","94,2736325138321","-11,8179706234765","-72,3147229409268"
"5144","-64,326568920685","239,507426881041","22,2765113561703","127,224796215601","-34,9556164316721","-101,938884586954"
"5152","84,0432500530003","1313,03865912961","-323,599035078735","117,588355268393","-30,5014347458223","-96,9212395571891"
"5152","45,1014088565126","934,76578074542","-220,152963141131","608,405354884257","67,2699787458146","-111,376023939972"
"5160","428,954262610402","503,790789534016","-121,262276933196","469,7735285145","49,8328340832939","-107,638255609201"
"5164","306,177290552518","587,105904218965","-135,513892322319","126,155318605746","-41,5023231478262","-98,4470592434188"
"5172","-32,8176517648977","-536,703028544511","-51,1634341734027","196,083031926144","-29,1316220764388","-97,5575912442525"
"5173","50,3727832471951","-165,109368736339","-79,3479539377132","-526,909207140911","72,2480312427244","-37,1816445819868"
"5181","-276,430164346501","723,856908418591","208,775747418895","-312,29943930681","56,455472290021","-42,4943843347142"
"5181","-163,865856811272","493,039749306774","115,708704251565","109,150391163542","87,8627892292365","16,6258112637255"
"5193","-22,4267283904321","329,962439192499","-82,4160393116368","31,7017100000966","77,1778090424699","8,5084204720043"
"5193","-47,2864892508052","348,836993148779","-36,0056850606485","219,714518514752","22,8928996863612","48,1615176706887"
"5201","-333,335875332855","-543,032892395515","-291,527332986213","152,846932209092","30,1505902908713","40,570141066977"
"5201","-250,493895479035","-254,947976108068","-205,641944050259","-432,822021748374","38,0911866646443","76,4826120074956"
"5209","-239,632058337383","78,1269783185556","-255,050945640381","-282,022338455225","38,7104004497455","69,4943440995869"
"5213","-229,626278338832","13,123066169084","-226,415308134469","-126,722736786714","-30,4969941054238","77,2494980035677"
"5222","-101,058574923231","597,978929753132","73,618326198314","-141,87904169499","-17,04076545644","73,2187891522308"
"5222","-138,480226035598","401,470069043596","-14,2272662929981","360,685789171559","16,8882465300826","85,5875207882669"
"5230","-295,313940481366","220,827510054598","-34,5290944600769","217,748804780999","14,3526199998222","82,5130667413388"
"5234","-253,714300460245","250,272393848084","-42,0204215904714","14,3575023011441","-50,1158516181585","58,7954041251615"
"5242","-61,2589875550933","-488,619628057189","49,3471357459335","44,3883571397821","-38,4996875671622","59,5977726706716"
"5242","-113,001115741953","-247,956181914416","20,0606316099598","-328,772177929065","-91,8853275815175","27,4904541061515"
"5250","246,630275786219","-31,7091267797775","-62,2300821488733","-219,13590069039","-78,2177624732556","30,9169598950205"
"5251","129,150534597822","-66,1751355591658","-41,4884337280763","-5,99224536348279","-95,1514835766483","5,92802599404111"
"5262","144,892142711083","253,722554228535","38,4910301458747","-44,9558614985399","-87,869638985338","9,9157985661722"
"5263","121,248294455473","146,395550193797","17,1242247641615","229,32242999669","-87,6391028499173","-11,9950363477005"
"5271","-14,5399942379819","16,2082655525884","-50,9177248597623","145,586432583558","-85,5340276741995","-8,03490188040618"
"5271","22,8835150754463","42,3771491554722","-33,3220084986455","-24,0160225658123","-32,0712924040977","-10,9342647763263"
"5283","-96,0056948018162","265,705732292102","-56,2348924418759","7,64185345497741","-41,7037185631888","-8,79209745815904"
"5283","-53,9057286020226","198,025569732208","-46,4324693397572","-12,740114501133","-43,0056172024656","-1,98254597998524"
"5291","161,090568202023","48,1236974576154","2,91585496782814","-1,15050201997879","-45,5990045603268","-1,61917108042514"
"5291","102,586172883681","86,3208826100968","-10,7361947944105","44,6317609607692","-54,5021038692659","17,6428514083265"
"5300","-87,6540817884622","-173,210112338223","-92,2570643335381","34,0308635316434","-53,5600131536949","15,9854301687005"
"5303","-39,2989838391603","-84,6596094015534","-69,3071850866769","-153,021370269124","-33,0558411050871","35,3118088646619"
"5312","-198,244898762778","-16,8853896052681","-149,575383212948","-102,851671028634","-36,7103236354531","32,6956253277054"
"5312","-142,229764830863","-25,793833352383","-121,286675932558","-41,5645066514508","-38,375986128386","48,6892007503332"
"5320","-176,703653564949","-211,561105272886","144,062806527791","-49,2889158726338","-39,1351720096454","45,9374477570554"
"5324","-157,243561398022","-153,408590755091","66,8356931899639","12,330177297896","-42,5696261297256","59,1256994314651"
"5332","79,0599806721882","170,620005815424","165,28354507488","-6,28983610642581","-42,1350027224393","56,5763714778762"
"5332","10,4519075698809","75,334749304539","122,912149924435","13,1362431232846","-95,9843924321214","71,2535588665552"
"5340","205,151762655128","1035,32591104835","-167,000667045046","4,24599150981915","-85,5281980082714","68,6583003173207"
"5341","135,030763279431","714,4200729957","-84,4175516808436","303,152123515847","-105,469831224088","105,053692932065"
"5353","268,997446351952","-726,308211516154","84,9287188095593","218,161894409608","-98,558951289489","100,374868064352"
"5353","217,069846830832","-311,636459246226","45,7342375008783","-223,198489829434","-66,0690046823243","116,405986436495"
"5361","268,184316286297","-1652,50703237375","76,6411182583317","-116,011930441813","-70,2605372696961","112,678289941519"
"5361","244,329147213347","-1163,65278893624","61,0009463202443","-847,511637448077","-67,5383381616023","107,571229139586"
"5373","167,073610714964","-772,955809587215","172,64807176681","-623,577576219535","-69,2975975328072","106,298763840643"
"5373","186,69480127823","-827,428383960662","135,846873763838","-3,67860892691368","-8,33088924765445","123,153357268734"
"5381","-155,976297067021","1817,26304929052","-432,740824587329","-134,712518732139","-20,543108497753","120,95332113451"
"5382","-48,8031592318167","963,211227208364","-263,534907970786","786,488909564054","41,8361409660478","116,825143434426"
"5390","201,433454251599","-360,282264372533","242,283805705101","505,218446525792","26,2677384099536","116,179919734274"
"5394","142,681059228979","-60,0458035128553","113,09986003334","2,12543840551413","-14,8008286052282","83,1450235327"
"5402","-54,5209099950976","-1279,4628981422","140,420185133724","89,8963043485161","-11,5193123159262","85,9771628655864"
"5402","-4,0923169346957","-845,980062208901","111,809905960847","-627,484036833355","14,6837790635351","57,8889206098062"
"5410","83,9633865477945","1479,56827790455","-195,134931873323","-411,109255913289","10,6267849876293","61,8907409023077"
"5414","65,3309100923255","798,033756862834","-105,158711882779","393,501313498943","22,6755880337602","56,2996346090509"
"5422","-10,4793584644115","150,755809511732","-105,034769888441","209,56154609269","19,1672654879317","58,7170061585627"
"5423","9,54177894163007","259,522835651518","-91,0012455166204","406,218739688047","22,2008622649261","42,5960374357259"
"5431","54,7174427371202","-1342,01264278137","139,361151422331","317,069922166086","20,583533635807","45,2661602760801"
"5431","44,2188368279109","-813,893850162344","70,6705784218599","-634,615559260498","24,4790192343389","30,6663749569201"
"5443","165,389120609888","-813,54491337622","171,427431011956","-385,932717698813","23,2545275858824","33,3112306416482"
"5443","126,920392590946","-737,456917192322","129,68058445448","-117,258742548743","11,8869242545902","43,1613456548642"
"5451","-56,0521502492624","1810,8213658863","-345,121474669882","-145,75736855731","13,7057281902666","43,4730307554478"
"5451","-6,68586923997013","1006,45571496709","-205,548008841063","785,781372349286","62,405343421867","69,4980681740565"
"5463","62,1198758127512","-246,829795556499","39,7463076636911","520,762125281869","53,6019531573122","67,1742024828207"
"5463","49,1603870603227","38,1119765741798","-13,9054145325201","-78,3489079766656","58,8547730224967","71,1220417915077"
"5472","-181,897709736837","-730,72996237908","89,1896964566205","39,2230708296322","55,2489355226234","69,6517095680471"
"5472","-113,838072384429","-443,619398343007","49,0753122409037","-503,606685631553","56,6938724767809","85,0202879977755"
"5480","-93,2807589175348","815,552457860995","-181,423487016448","-330,333531202601","55,3524547163166","82,8680539743067"
"5484","-88,5919642102565","454,095126401461","-116,769808710657","238,236704578168","28,4894195019402","110,032733743519"
"5492","-39,0428392967834","123,490636987281","-145,978921597487","112,0592574781","33,2456203234997","106,439119793978"
"5492","-53,3311838311036","177,11756024419","-126,879529992464","171,818600922356","26,1481475968016","124,524838998894"
"5500","-60,731719093682","-599,37155098727","6,2707137258154","131,613672633507","28,9132178858938","121,113674691255"
"5504","-60,7796581836113","-343,189479460018","-31,7142269538382","-334,42737447103","5,46607687429306","118,927893620954"
"5513","-152,12631331295","-259,358547576143","-26,4229188682216","-212,003196691038","10,7791949354652","117,527304714525"
"5513","-124,404537000311","-249,217749610017","-33,9917027527715","-23,4908687092694","5,47977122689494","130,222118222587"
"5521","24,5751310808131","669,195314767213","-34,3094248333878","-53,2013498048587","8,06436734079662","128,356608547423"
"5525","-16,1979474813826","376,804156600734","-35,3953636890837","269,495327496559","-26,2745283059441","123,083559011495"
"5533","-17,1413917790157","-135,634020486378","-40,8776400730404","173,987526728767","-18,9257210677773","122,704732658107"
"5533","-23,4024697129407","-13,8625967228299","-39,360510127687","-80,2207009296338","-24,8415197185434","106,151263836494"
"5541","55,8586715960934","-301,256382842692","-13,0074156929072","-27,1724138004605","-21,5378587614713","107,544252407271"
"5545","30,7924890619698","-191,732422802454","-20,8793156396213","-187,464222257353","-30,8415928870323","94,8445688113747"
"5553","58,3213915574141","43,8778739960382","-48,9512760124193","-132,878029722753","-28,0821059688157","96,706957867056"
"5553","45,9394237027847","-15,7050400737285","-41,544302430034","39,3548531409067","-23,7359423565847","88,3857351080597"
"5562","73,5318670341349","-8,00927083507977","12,3446371322685","1,52428000986794","-23,7550212119658","90,0537224730675"
"5562","63,1674827402942","-19,0685229629988","-3,07924718931568","50,3036280331997","-5,23315079191624","85,6856142178863"
"5570","103,381149398589","-72,5441580585236","11,7735051997122","29,6453518755462","-8,79113893352364","86,8866495606237"
"5574","89,5094174193285","-57,02984373873","4,79094252031561","-2,13424776553408","-8,86860676313389","69,9862857643997"
"5582","85,6707137097469","-53,117385923373","2,90226847749084","2,87066494300424","-9,90391552630857","72,1569934948221"
"5582","84,6084349552275","-52,1307276772256","2,39141167550818","4,44477348977528","-10,3757949130879","73,547923816087"
"5590","58,4653997760684","136,88224752348","-9,85337653750256","4,93985059927022","-10,5908709982012","74,4391940370843"
"5594","66,2308766269763","76,5482465992096","-6,16540032012309","47,2327414434794","26,3722328986319","69,5733866160923"
"5603","25,2980181866488","127,750010434777","-57,0533294145797","35,5343922059294","19,2195034141562","70,45550990499"
"5603","38,9707292962935","102,662262755394","-40,8177186777654","33,5406002601457","45,2994517438732","68,3022959167446"
"5611","56,5405301843538","-52,2288413568666","-10,4835052903879","31,9135273969193","38,1863307724302","68,922575108435"
"5615","53,4025949897035","-6,28985935107581","-17,2785747992808","-54,5580605985092","38,0326965247459","76,116169443787"
"5623","-57,7551365545338","22,7733675583554","-24,3050817711855","-30,7544721331712","35,9626721637396","75,7256285338754"
"5623","-24,5156498823215","20,1026408293129","-23,2056420581302","-30,0098908022063","47,3728946120138","79,5530623744655"
"5631","5,36192159902838","63,1245334623939","-48,8509953064741","-25,7757105267264","44,5735158792352","79,0055776103494"
"5631","1,6298974112933","48,9739552669396","-40,7876624333067","-24,4440071088363","43,2975978470764","78,6547643027047"
"5639","-85,5664346220162","-69,9504636033085","-76,6560008864807","-24,0251694878946","42,7160520898962","78,4299727013907"
"5643","-59,6961455866321","-33,9412683823542","-64,3578256900953","31,7276415697054","40,9067777347671","86,4412959852775"
"5652","-54,2603705621526","-10,8778047651275","-0,498314390305218","16,262608012289","41,0821355569149","85,5747334871771"
"5652","-51,7561366436976","-13,0615742428869","-18,2253149319156","-47,593397191219","25,719922640501","74,1456457187881"
"5664","-82,0820305607239","178,647503154786","-87,0122698830194","-32,6769210021375","28,7180388852224","74,8221979332326"
"5664","-72,4740699722202","116,993415367126","-68,6180658158578","71,4582514486888","19,2750417140599","71,1780323374292"
"5672","-26,7334860909338","104,940889415237","-60,1836899146169","45,2100844016745","21,971054466021","71,8429503953166"
"5672","-39,0757625070268","99,9014383390719","-59,9023230922174","26,8417789663412","4,66929341865117","61,3951936057125"
"5680","59,1817957028708","-97,1248503549751","-30,4244519958668","27,0647138586656","8,78339050385362","62,7005559517369"
"5681","27,3724632964118","-34,8116768006861","-39,4511487068481","27,1348297107927","10,6585389414683","63,5369965475279"
"5693","16,8466426724819","14,1112013160854","-17,6795101791131","27,1568820358831","11,5132056132238","64,0729648726586"
"5693","14,9338480239203","7,44875571212549","-25,7906223244536","-55,4250605395513","-3,5393877435106","58,9794896854181"
"5701","112,630998192525","51,2118180081598","16,9828551165886","-32,3981292396668","-0,400151194244925","59,715729677909"
"5705","82,6665849042977","36,2481507506015","2,55241206487342","13,6103409958384","-5,14618611178057","61,5467194574912"
"5713","8,89026083497936","11,5007620562035","-8,26885971619691","5,08058861834297","-3,30936305587637","61,7199677795264"
"5713","26,4742486666643","17,2598730093996","-7,1958445585336","-9,40053791314495","12,9699740196268","57,7532987739127"
"5721","-25,527719795152","-54,6960557508593","-48,4139859375777","-6,95503593689674","10,3898702569637","58,2115654410443"
"5725","-6,91814699907795","-30,8421710116648","-35,5628487964514","-29,7827169127129","20,0233917245641","53,0683011501815"
"5729","-1,76834766379504","-24,8266091343723","-32,0868171081366","-22,9623122062918","17,4142173066029","53,7726376427558"
"5733","-0,343251371456984","-23,3095822393745","-31,1466048790179","-20,8172083920935","16,2249917652559","54,223957260853"
"5742","20,7303712913971","-14,1879314248076","-81,0482455415994","-20,1425460264782","15,6829592439892","54,513150565228"
"5742","14,56204347272","-16,8875994035027","-65,5458592031114","12,0939027843994","30,8780469139819","46,5430941365115"
"5754","-49,1826823598813","-42,0378394062804","9,55743491860593","3,23267493604583","27,8037572979902","47,4360993101114"
"5754","-30,8226653040237","-34,3803210028682","-11,1282981494459","-7,98173021167129","17,1372555460551","34,4160399872044"
"5762","41,4656629875092","72,4197562047677","-25,3710437213149","-6,50880291363058","18,2756118656237","36,0731410132486"
"5762","22,4699043026556","39,3529991530964","-24,2234837344235","52,9465073461599","18,7944589005577","27,6203752827995"
"5770","127,502611738222","139,37870876935","-70,6100088030837","36,6459567633692","19,0309421888148","29,2040734987069"
"5775","92,5681562760714","102,603566359443","-56,1568386500289","53,4305618537269","6,78501712908928","23,4227277865327"
"5783","82,900796498989","93,3294733917029","-52,247482077384","45,7095331096761","9,20349419286988","24,718199103985"
"5783","80,2255624407165","90,9906979380118","-51,1900622414422","43,2811716089568","10,3058025228961","25,5483017983827"
"5791","143,246294070645","427,729434893277","33,8422193349077","42,5174211070928","10,8082193837555","26,0802089691268"
"5791","123,685927178467","319,649469125997","7,8421221484257","64,1885469463812","29,5677803242957","37,2948587293634"
"5803","-7,52580282349803","-530,827999164571","538,688864353318","58,0043909757044","26,1181282279745","36,4809004867417"
"5804","29,1641707535422","-274,304588268682","371,274609122761","-281,038067034457","98,6680898000436","80,813838107738"
"5811","-579,337132783364","-623,846008519673","-66,6083784513439","-187,671221687003","83,7353568755303","76,2211756334536"
"5815","-388,726791310842","-474,994671313437","41,9511190572067","-262,806377605095","124,799853751754","80,0744590994199"
"5824","115,517654918013","373,529960112031","-642,975190671494","-224,437337420214","112,51648234952","77,5435380703592"
"5824","-6,94353124326834","123,514075511053","-415,23704965192","193,832654833348","-8,89814747276748","48,7372475157677"
"5832","-40,8320327151758","60,4641345657106","-353,637442852256","84,3838742064572","10,7627468377459","50,2789620386384"
"5832","-50,2099472039265","44,5639646242859","-336,975712230915","49,9608440655833","19,7239100006353","51,2668506643347"
"5840","-394,012838692632","-190,15754596837","-247,722708537237","39,1343643433563","23,8082839850366","51,8998627572369"
"5844","-291,152900286652","-117,350494468774","-272,581166375677","69,439045359103","44,200451343148","30,5578433456607"
