Timer,AX,AY,AZ,GX,GY,GZ
"1001","1,1729046344126","0,187226897245921","-24,5785077808897","0,163685485142558","1,22589836680114","2,02681946654511"
"1008","6,175818590998","7,19714701780103","-21,2167190052093","0,166144723028986","1,22774877943579","2,02801497280899"
"1008","4,95043997757557","4,98643359588284","-22,4052284965356","0,166764851474716","1,22839787347884","2,02844128300207"
"1020","1,26038076683795","4,40807110129015","-33,2048798781336","0,166935046851877","1,22869896359703","2,02866087873793"
"1020","1,838571559701","4,25614634703187","-29,8964470524638","-1,55669819916096","-1,76179231539007","-0,727266476759367"
"1028","0,447775078489629","0,741746388669684","-22,0688413319095","-1,03297751711962","-1,27222795841899","-0,445808856000376"
"1028","0,910785226410954","1,81830416306502","-24,1177280796893","-4,33560374941561","-1,02471902369018","-0,270201435514743"
"1041","2,70344362025227","2,10118018054635","-22,8776956395128","-3,24821125215035","-0,899451353115314","-0,159818060263493"
"1041","2,3956147273279","2,17550861003773","-23,568604305854","0,499609877563169","2,15137716562521","-0,090227426317506"
"1049","0,662872208298189","3,93227938493922","-25,4915599886296","-0,464762782914389","1,69599911885265","-0,0463025314663991"
"1049","0,993834822057054","3,39388802439321","-24,9708772370167","-0,731245802961899","1,46544205366875","-0,0185645264945427"
"1061","2,73550963527289","-0,222060063358345","-28,3425701307262","-0,804882481904275","1,34871089499513","-0,00104504199196529"
"1061","2,40799592590932","0,827814342002412","-27,1830006069501","7,79313042288099","-0,204088934520721","-1,35830039067531"
"1069","3,89542333555433","2,84091932799797","-19,8910082497184","5,16900080930995","0,00972650600773862","-1,21565073466729"
"1070","3,469740960283","2,3698822792","-22,073401248546","4,44388072539324","0,117981541937865","-1,12554185902123"
"1077","4,91926400249659","2,24611270474115","-29,6203432845679","4,24350985446517","0,172791208677268","-1,06862165062343"
"1081","4,4789461928358","2,2135910430145","-27,5014992170082","-2,70654681244786","3,18793878395345","5,80891174170403"
"1090","2,69504772765832","9,15400668262996","-25,2226153796713","-0,627041001254212","2,71451196791926","5,15334271259247"
"1090","3,00625826294669","6,97766852085453","-25,6545792360932","1,67125651436891","0,981116663770804","0,634283644265102"
"1098","3,12642123309229","6,40581446213687","-25,7622508423186","1,30634011648043","1,10349634073796","0,779663763469054"
"1098","3,17281792522494","6,2555542359388","-25,7890891405113","1,20550355425766","1,16545733219578","0,87149814193712"
"1110","3,19073237123308","1,00435112998782","-24,0450395568631","1,17763960421391","1,1968282636903","0,929508503167751"
"1110","3,19764940262104","2,62454634503696","-24,6103165650751","2,89361217284919","-3,2683846454461","0,966152754395491"
"1118","-0,0274503803798776","4,78750868110784","-31,7541751635046","2,36778317664892","-2,52912781603574","0,989300363265123"
"1119","0,72729110489082","4,35584811128469","-29,5348582426652","2,22248198272973","2,32625494232941","-3,1010238706479"
"1131","4,24647845633985","5,97966534615249","-27,2309304732172","2,18233121678319","1,78454162091385","-2,68481866858312"
"1131","3,60528851158778","5,4063391474414","-27,6566518619963","2,17123644211127","1,51027145357157","-2,42190825501333"
"1139","4,9716009079475","0,0439713347660149","-19,0090708854303","2,16817064692359","1,37140810700038","-2,25583179747293"
"1139","4,49915424267379","1,6349569399103","-21,8535689380615","0,443651328409135","-0,192597272407104","0,585706956313649"
"1147","4,31673562859291","2,05300391057084","-22,5625904677064","0,967118619624424","0,0155447463023719","0,380663207029033"
"1151","4,24630111564337","2,16284982565227","-22,7393216590093","4,5591115165596","-4,36016872880665","0,251140229748432"
"1159","2,60522003773359","-1,28276760136379","-31,5370703776389","3,55167917685491","-3,57559821819768","0,169322560581754"
"1160","2,97157446918415","-0,188137155155941","-28,7300032390781","-5,34506320130197","-0,190971767766149","-1,25067580761392"
"1168","3,11302930961334","1,83672791668477","-26,2795724484617","-2,80348085966426","-0,477330942901098","-1,14766689865949"
"1172","3,16764710637813","1,36878094503544","-26,6687763940068","-0,377498731665768","2,36508239866087","0,285717649213216"
"1180","1,57485056660237","4,7203038300239","-21,5135716869852","-0,707132315640764","1,80420001313813","0,191164583717822"
"1180","1,95984836920011","3,60094912602067","-23,2285818366232","-2,52189140782543","0,0265258390766583","0,131436869038691"
"1188","0,494616414411226","3,30682777030876","-27,1575450716481","-2,02335987889794","0,126487065937721","0,0937077919104023"
"1192","0,928868781618124","3,22954451811316","-26,1368811342056","-3,60927388924706","4,65819361963767","0,0698749151864301"
"1200","1,09654001481717","3,20923759053399","-25,8824697432364","-3,0475060917731","3,95260260995286","0,0548200541568668"
"1200","1,161280346858","3,20390174743746","-25,8190549859589","2,27874245549355","-3,87313246827612","2,78194094471925"
"1208","2,80016281767402","4,9397399584533","-22,3017695477821","0,750533244173154","-2,83531243437603","2,50462119409676"
"1209","2,43295947165082","4,3958483627818","-23,4250485743692","0,32824648447041","-0,816164101454181","-3,1438190483056"
"1221","3,90506212814053","4,25293554622142","-28,9572558212488","0,211556893739461","-0,793866643986772","-2,71185172300269"
"1221","3,4734626400291","4,21538381109669","-27,3362175824872","1,90298446440819","-0,782577411935191","1,66596160248415"
"1229","-1,5348401034946","2,46827647099735","-19,9291992178094","1,37037300178813","-0,776861658894704","1,43135883051925"
"1229","-0,468619538347275","3,00920699319332","-22,082920755367","6,39421408533343","2,21342960307326","-1,45346694029039"
"1241","1,55694919693172","3,15134175884466","-26,1212374909323","4,78244127092857","1,72741800320888","-1,27576693273559"
"1241","1,33905111144322","3,18868905351154","-25,1278310818095","-4,28129720889287","-1,5060476779112","0,204798831345191"
"1249","1,25491745215988","3,19850241910541","-24,8802139209878","-1,78586054032958","-1,14315560639795","0,140049413199851"
"1249","1,22243220747066","3,20108097653876","-24,8184926981627","4,07471456109051","5,01537186421831","0,0991482033621523"
"1258","4,4376597268326","3,2017585176304","-26,5538473401644","2,69415465557533","4,13344242510854","0,0733115392792052"
"1262","3,67910641520512","3,20193654815433","-25,986403024852","-4,58202110521614","-0,79417566325583","-1,3113244905134"
"1270","6,61398836281342","3,20198332740926","-27,5957007830108","-2,592631080795","-0,289035184455885","-1,18597773722308"
"1270","5,74718949793734","3,20199561911432","-26,996835442635","-2,04290722036105","-1,52698057978905","-2,47511353156825"
"1278","2,18473514221534","3,2019988488796","-23,3460832259781","-1,89100321007612","-1,15375396215925","-2,28944075093329"
"1282","2,80921905952549","3,2019996975319","-24,4360942320977","1,59831640576227","-0,964788834614619","1,93279210538651"
"1291","1,43645621997979","1,46475966474049","-22,9570518046166","0,562512579443553","-0,869115541925252","1,59991154810214"
"1291","1,90641227415879","2,0082829180808","-23,5883846777848","-1,44738101476403","-5,30177208098865","-2,71531019267319"
"1299","2,08786922662258","2,15109894910446","-23,7457511414513","-1,00277058247373","-4,54603191857741","-2,44116928100464"
"1299","2,15793242786162","2,18862525288632","-23,7849764137908","-0,879912339380376","-4,16339968005284","-2,2679986908368"
"1311","2,18498486151715","5,67296616643557","-22,0440144157884","-0,845963185694908","-3,96967247427461","-2,15860949709495"
"1311","2,19543020448956","4,58851069364438","-22,6100610377098","4,33443437262006","2,10320660225687","0,647120785536953"
"1319","2,19946330521539","2,56631919521604","-31,5048507867864","2,76592247167602","1,17791326853795","0,419457376737204"
"1319","2,20102054479168","3,03496867433135","-28,7219721618307","2,3324989565589","0,709436036306292","0,275645909045206"
"1331","2,20162181792192","-0,316369619975039","-28,0283099328631","2,21273197019213","0,47224539727149","0,184802420630614"
"1331","2,20185397833105","0,803033587028594","-27,8554072113496","-1,26770729104797","-2,63524190401723","-1,24089741852167"
"1340","5,42971416955427","-2,37731282418964","-22,5600914121328","-0,229449575470809","-2,20856681305088","-1,14149004092715"
"1340","4,67603851854429","-1,2129798337226","-24,2401773751234","-1,66622221119749","2,48855539988935","0,289619475074885"
"1348","4,38503325206815","-0,907039994964136","-24,6589567510884","-1,06324249891475","1,86671455610838","0,19362930699858"
"1348","4,27267183372676","-0,826651321186192","-24,7633419846996","2,55072189406951","0,0581770344302674","0,132993796760757"
"1360","1,00151688495018","13,0923936324382","-23,0386218031997","1,54936089054292","0,142512107787408","0,0946912791645957"
"1361","1,73847579256802","8,74975832419651","-23,6087168714085","4,72000126917122","-2,80218630229933","0,0704961689321576"
"1368","2,02302647827202","-6,28923346488901","-25,5015584741445","3,59613749564821","-2,29309098154287","0,0552124905762864"
"1372","2,13289568793574","-2,24087510066971","-24,9733694663532","3,28558263983873","-2,03533535084844","0,0455580264369763"
"1381","3,78920308290956","5,7718315307433","-28,3431913455147","3,19976768544748","-1,90483333590954","0,039459450188058"
"1381","3,42872775667984","3,87724827569873","-27,1831554513731","-1,99496183786102","1,14863737463366","0,0356070735333627"
"1389","3,28954292534426","3,37942806420552","-23,3925254787604","-0,430410257933533","0,694613612705481","0,0331735865547793"
"1393","3,23580161251563","3,24862095276755","-24,447670459783","-5,16909755159394","0,464740784701156","1,39995179748458"
"1397","3,21505130030969","3,21425010962435","-24,7106766192529","-3,47852880463256","0,348355869448493","1,26332453515693"
"1397","3,20703929922559","3,20521883567152","-24,7762337144039","5,606983185511","1,7831287180751","1,17701919858278"
"1409","1,59006047229761","-0,271634731128404","-24,7925745207687","3,11756314415632","1,50955609900542","1,12250144718911"
"1409","1,9657211377498","0,814788114979509","-24,7966476413369","-2,74134939562663","4,35844329072596","-0,280251983563541"
"1422","3,72465452749358","4,57473681570039","-30,0498808587778","-1,36033007803531","3,80083862405589","-0,166349713321974"
"1422","3,4038046089779","3,5626999745706","-28,3593053626779","-0,978715984629436","3,51852264770368","-0,0943994041209971"
"1430","3,27991973103155","10,2457384561895","-26,1871720423098","-0,873265384170073","3,37558569744522","-0,0489495023487414"
"1430","3,23208595549319","8,0017719382116","-26,6457446055866","0,879545707055019","-7,15267425891936","-1,38855490681421"
"1442","4,82750190575691","3,93766735835023","-23,2585700838622","0,363896220454256","-5,48314612641837","-1,23476300129884"
"1442","4,44351549611852","4,86978427847499","-24,414280646453","5,392424370298","-0,15676578337934","-1,13761502408144"
"1446","4,29525268928604","5,11470708198724","-24,7023538515505","3,78194672282775","-0,460012408002672","-1,07624814364774"
"1450","4,23800623644791","5,17906293519102","-24,7741591756354","-1,83408955843681","0,880152111323418","-1,03748363076718"
"1458","0,988131987401522","-0,0157477046314902","-28,2935360522319","-0,385956767468478","0,558679170656666","-1,01299668523162"
"1462","1,73330768653636","1,61926518039333","-27,1707783390155","0,0142026474776876","3,38331436653216","-2,36584406617217"
"1471","2,02103099643457","7,26060151520305","-28,6416582998936","0,124777836692886","2,8134308824584","-2,22041691317484"
"1471","2,1321252030155","5,74291760757935","-28,0082908447186","0,155332840557088","2,52489812469998","-2,128552821246"
"1479","2,17502031200134","0,132410604860791","-26,0996779235422","0,163776038961429","2,37881360983639","-2,07052368973941"
"1483","2,19158274519686","1,65819521989914","-26,6239357617148","-1,55756302414335","3,79854951210547","-0,66555217426982"
"1491","2,19797774452992","2,05910999507675","-21,5023946803184","-1,03321693980077","3,51736366731149","-0,778053314570088"
"1491","2,20044694793664","2,16445425885521","-23,2257958482987","-0,88832551572112","0,387601535464244","3,25582766990856"
"1499","2,20140034373017","2,19213449066036","-23,6553720018781","-0,848287980591721","0,802998850412752","2,80396813714975"
"1499","2,20176846388448","2,19940774128935","-23,7624484476602","-0,837224494747613","1,01331505749207","-1,58641078930454"
"1512","2,20191060049651","2,20131885876424","-23,7891383957539","-0,834167345534326","1,11979842984057","-1,35974551387054"
"1512","2,20196548153532","2,20182102350312","-23,7957911504661","7,78503819959171","-0,319987582985455","-1,21656455164728"
"1520","2,20198667191252","2,20195297218146","-29,0496673692776","5,16676470267854","-0,0489531355455547","-1,12611934382299"
"1520","2,20199485382917","2,20198764298243","-27,3592521481391","4,44326282686421","0,0882719617819618","-1,06898649954427"
"1532","0,58811273765228","5,67647726463935","-28,6886374104327","4,24333911189556","0,157749209100209","-1,03289656206834"
"1532","0,964969088723497","4,58943326891032","-28,0200008899355","-0,982921839440586","-2,79447173785784","3,09484711687487"
"1540","2,72436415029086","0,829321355073878","-26,1025967774202","0,572916728896625","-2,28918508741641","2,70227920205168"
"1540","2,40369249006422","1,84131531036716","-26,6246633172283","-5,89185036642304","2,44773826151199","-0,282330715707147"
"1549","2,27987644026807","2,10722658320911","-26,754793979926","-3,67824553319259","1,84604878524651","-0,167662816389729"
"1549","2,23206924029196","2,17709736124546","-26,7872304378924","-1,34289272365045","0,0477139274538148","1,27308653606334"
"1561","3,82749545177159","7,40717735635972","-16,2908796743392","-1,69756971198494","0,137214622959357","1,18318570415064"
"1561","3,44351300413976","5,78143183811006","-19,6745521056913","1,65176746764686","0,182528942846138","-1,61023408057411"
"1569","0,0674811764255718","1,87977085000682","-34,5238831393204","0,577282596244076","0,205471642622972","-1,37479431991624"
"1573","0,763945576808739","2,85457140675162","-30,2252375466223","-1,44329964783518","3,20448493038832","-1,22607065056697"
"1581","2,64674601233678","-0,363770759861725","-22,1507969419748","-1,00164278714128","2,72288930366036","-1,13212420004856"
"1581","2,3737229840991","0,790578475636377","-24,1381563556193","0,844071455808409","-0,508340564450831","-3,80941048902627"
"1589","3,8821900480594","4,568375497059","-26,3842662382132","0,354093697016468","-0,14431649786962","-3,50061098839247"
"1593","3,46463139312606","3,56102847611151","-25,9441331234214","0,218699198309129","0,0399893659716972","-3,30554710156573"
"1598","3,30340584804515","3,29633823054966","-25,8344252422687","0,181285928112113","0,133303667318079","-3,182328249638"
"1598","3,24115429109734","3,22678828932911","-25,8070793807952","3,61829190761181","1,67424750520127","-1,7361773921669"
"1610","-0,0106525023442876","-0,265967147002439","-25,8002631326654","2,56803236684373","1,45442939767694","-1,82266617658157"
"1610","0,733777012943481","0,816277327934775","-25,7985641099957","0,554144256199007","-0,150563483709923","-0,508984401988636"
"1622","-0,592673065064357","-2,37383290221666","-27,5488799266509","0,997650892366151","0,0368265088218538","-0,679151865084946"
"1622","-0,104834971715709","-1,21206545031508","-26,985164843963","-5,77448448988076","-1,36199637575992","-3,52327484404747"
"1631","6,53906760072006","0,830440523969204","-21,5924348883653","-3,64581407332599","-1,07022224259648","-3,31986350999732"
"1631","5,10437621317462","0,367128871333705","-23,2482393321253","-3,05760316213449","2,06490075358279","-0,454740889946932"
"1643","9,39207656909997","15,8805515220421","-16,6580090151729","-2,89506410801229","1,65221765129865","-0,644887074266728"
"1643","8,04762081147246","10,9568544896714","-19,0153237000201","10,9392271901851","-3,0378203993631","0,603315917872389"
"1647","7,52850664679235","9,663105116844","-19,6029095702789","6,76202710646879","-2,41239283490019","0,391786516742149"
"1651","7,3280690240274","9,32315986255905","-19,7493716260864","0,436733942946486","3,87905670120346","1,62648206027677"
"1663","-29,8686842262128","-13,3502873906845","-35,5425327041351","1,68887930733288","3,06442587872995","1,40642021197451"
"1663","-21,2308983658469","-6,30795659146291","-30,4791468336928","-6,58347883083322","2,65197722153589","4,00404134725241"
"1671","11,1542128993772","19,8638480289945","-22,2140865444912","-3,86936173704116","2,44315392375707","3,64491859644028"
"1672","5,65858121878201","12,7407447167615","-24,1539319652195","3,77531300919301","-3,6373683240156","0,681435473492222"
"1680","3,53663690557089","-1,29160187807311","-26,3881984774494","1,88774951569685","-2,7159447379519","0,809448843587671"
"1683","2,71732296132174","2,02126231990477","-25,9451132760623","1,36616316122579","-9,71792018575831","2,2586283243154"
"1692","4,01485905865948","-4,05721135394138","-32,8376268206167","1,22203432735727","-8,26302956718916","2,17405267454947"
"1692","3,51585685162544","-1,65438954171057","-30,5556594597806","-0,541464636795428","-4,53901916418523","-3,35263408898121"
"1700","3,32318475184946","-1,02302469692993","-29,9868547150267","-0,0287685070997781","-4,65354779761949","-2,84375696695051"
"1700","3,2487912170939","-0,857127431807801","-29,845074055405","3,56024801797305","-4,71153379540779","1,58263909216765"
"1712","12,9033784299173","-11,2369778435564","-21,056037130201","2,55199322384254","-4,74089218237777","1,37872528451565"
"1712","10,631156713347","-7,96438468275753","-23,8652757763482","0,549712194360741","2,7127370493827","1,24991607395475"
"1720","-16,0683459544896","8,53068336114767","-33,3192051032609","0,996426190264751","1,48651933585149","1,16854928022769"
"1721","-10,3774170757635","3,86492322120513","-30,675697991812","-5,77482290917451","3,85308106289083","3,85378194458369"
"1733","-11,407836189339","13,0623908149547","-28,2660362853947","-3,6459075880005","3,05127437887721","3,55000204684527"
"1733","-9,80569618166637","9,47911504733182","-28,6654023607447","12,4554203825608","1,15161991551577","4,72642437299076"
"1741","6,95176641962417","-7,09758787887507","-21,7619913569395","7,90466565947204","1,18982236141989","4,46955223108863"
"1741","3,42206947799903","-2,45327809972532","-24,0412424096312","-0,247523206869888","-0,284534374299284","1,57065924239742"
"1749","2,05920151523391","-1,23294045009172","-24,6093700855596","1,49980000296871","-0,0310031293434413","1,73947320515232"
"1749","1,53297812703663","-0,912284841415699","-24,7509819785429","-6,63572670774388","-2,89003729514542","1,84611038448067"
"1762","14,2408777310739","-11,2514709903967","38,2403351276532","-3,88379928032941","-2,33757005480273","1,9134714476862"
"1762","11,1475848877522","-7,96819289831417","17,9415939025264","3,77132351395368","-0,56415647981737","0,587706986309338"
"1770","-98,1770944742248","74,5448124351585","-209,461977373741","1,88664710707047","-0,66627485359616","0,75024200232414"
"1774","-73,3889629451217","49,2259086111524","-139,144747046893","-3,80515792677671","3,76311853243214","2,22122827489857"
"1782","74,9762333140314","28,6751978722389","37,6998516416568","-2,37796215200866","3,00572623134603","2,15042763956144"
"1782","46,2622202174456","31,2752983750057","-9,21974276424571","6,63477255201665","-1,85883854018864","0,737388561894714"
"1790","151,375056780789","-32,3193893459223","57,8683162802205","4,12524211994637","-1,32177408412121","0,844793547453281"
"1794","119,960670729161","-12,0295132250292","29,5907317519479","-3,46289963472034","-36,8986260676241","-4,56062200661947"
"1798","107,831113708329","-6,69815056531006","22,5422416964338","-1,55971450143265","-30,9112330338488","-3,97513973001926"
"1799","103,147713138926","-5,29728307651454","20,7853302454925","-28,6125659158262","-17,4239172730931","-4,97361500367168"
"1811","-40,6825210119365","54,1369772031474","-61,9373465658897","-20,0880220771155","-17,5952715587248","-4,60433645036857"
"1811","-8,21749226954383","35,7539082319541","-35,5568575530312","28,8066949167443","27,12893207127","10,6804006009904"
"1823","-79,6043009528862","-15,9819091749817","-127,022640530535","15,3176667476757","19,7728552109019","9,33553350192852"
"1823","-55,1677989323404","-2,57599932368216","-93,8214641391135","8,14292834032268","11,5673677653893","-7,93378320989745"
"1831","130,180989328646","-129,346485063889","79,0237795144397","8,16034833013012","10,4129186761093","-6,84254450561416"
"1831","92,7468856749566","-87,6566654712427","28,1073031377855","-28,0319532742169","-3,61486857572967","-12,9948028648141"
"1843","-52,4316802525207","232,526506390757","-47,6107879636323","-17,0328940207257","-1,71715571710917","-11,8810896814853"
"1844","-27,4872622628119","138,657754731783","-30,4843311270256","27,3745840259568","11,1932482746862","-15,2825204442181"
"1847","-17,8558551787965","113,992825555908","-26,2153787849923","15,6456067838302","9,72980280141121","-14,4311518506448"
"1851","-14,1370270844191","107,511875074526","-25,15129680514","45,1543346906949","22,4321465919742","-2,94683216996924"
"1864","-199,911824737588","-208,631544112979","-84,4111997542898","34,3084179133535","19,863359965079","-3,69236436844931"
"1864","-155,642209583066","-110,701308074555","-65,1823636848652","-42,8065135274948","21,5501772849204","1,30995605694966"
"1872","261,694488966507","234,683022762089","88,4234710199787","-21,1155164320898","20,4042151132311","0,46984479811779"
"1872","174,834333419414","141,436121189263","41,7113664130078","-40,976772234694","-16,0247554661927","10,8856827169315"
"1880","102,563101767973","-180,133494555939","-13,7006076278975","-31,4649902707982","-10,4687911986291","9,46520705175393"
"1884","98,6581150577045","-93,629044537086","-2,51263416761931","69,4126927257614","-62,922650500858","-17,4300782765013"
"1893","-33,5743651129162","-131,702566328913","19,5342202256244","40,2880055843532","-52,480108476927","-15,4194156383677"
"1893","-3,63127278571427","-106,706755176371","14,0296342271555","-81,5223186404136","14,048610346619","-23,7275188785891"
"1901","7,93019606381038","-100,138862231435","12,6575573571831","-49,1819031620731","6,73218821603515","-21,9756196911524"
"1901","12,3942494253631","-98,4130843611788","12,3155525383581","56,2802948082347","40,3703411739546","-22,2372873734025"
"1905","38,326165289978","138,305055377082","-33,2889180380405","29,4224368147807","32,4013822728612","-21,4025788167238"
"1909","33,3388598440696","64,5050532262157","-18,6563195579033","30,6192235351655","-0,0135871056826566","-26,3485679106033"
"1921","-52,5088465424357","-27,8507072050439","27,0087555338979","25,9499290318102","2,57467125094012","-25,4728730175564"
"1921","-33,6559100569497","-10,1180831929222","14,3912633767108","-68,4186233733742","18,8220967055795","-15,3415021954636"
"1933","-345,925798193143","149,155719321491","-335,400165955243","-40,4952821958875","17,0481895893221","-15,9416713428094"
"1934","-268,4978000719","102,006462930637","-224,589416815241","67,1936994548184","54,9862238753921","-5,37426568899674"
"1942","-61,0743296090906","-31,9892815234575","118,164423204314","38,9511637994243","48,1943005479155","-6,69899835120401"
"1942","-90,9850734223647","2,80203093762693","23,5994797400528","-34,3525770951627","-9,01761180494012","11,6206041367038"
"1950","-102,534052034341","11,9437873008729","0,028157269363044","-16,6084419251613","-1,98407830051292","9,19281477524929"
"1950","-106,993282731261","14,345872864573","-5,84724668757184","-1,3632103497241","-13,3599778769133","15,8691100839264"
"1958","78,495634574886","-73,6222087920583","-31,8221043223405","-3,15052834570258","-9,11961079924043","14,0864229676608"
"1958","34,1156368088863","-45,7366794274092","-24,2966150977928","-26,0521520789057","-12,9475021063081","26,6434810540737"
"1970","-126,655923313998","109,25593687736","-88,9489005236993","-19,3805084365211","-10,8855685112731","24,5755811786446"
"1974","-99,7321899847462","64,9817570931152","-67,064173397701","6,59446263597328","-27,7659930314085","32,8475285379297"
"1983","-89,3365401033785","53,3482849375923","-61,609171349665","-0,227929555931593","-24,3125741748221","31,072790237565"
"1983","-85,3226266117245","50,2914767696523","-60,2494538090827","-2,11314649533977","26,7279529190656","58,6863389472854"
"1991","-90,2283366104085","-105,126112127369","-70,4149655823983","-2,63408443157401","19,5698389385893","55,1293922208238"
"1995","-88,1225034758348","-56,9635980327626","-66,9488279981145","-37,2514771681031","3,99608693790842","62,4607316262963"
"1999","-87,3094102948893","-44,3084281484194","-66,0848561737375","-26,8172267394171","4,11107581022905","60,0918257736064"
"1999","-86,9954630452018","-40,9831589465876","-65,8695019660159","-79,0914617190231","7,15669219625463","61,3320552588983"
"2007","-241,807229821527","-182,563113035873","-113,085784166547","-61,5362884756979","6,69869177948957","60,1154891163417"
"2008","-205,58233252521","-137,764625558619","-97,8549469539859","-8,42248495590479","15,4289976719602","62,0836338422413"
"2024","79,5373599767067","-72,1389385185153","53,0036045057875","-21,7456620328952","13,8491630314166","61,3268805420694"
"2024","21,6262715435433","-85,895149777797","6,60671019857902","38,3486428382104","-33,2553685402086","44,4290662558381"
"2032","-2,34793769719107","-20,0201180983574","58,0684039811955","17,9543726640906","-26,1044548483859","45,7549773185719"
"2032","-10,604732897229","-42,7108116239854","34,8957809625647","29,5555894541209","-22,4839378380579","45,2242195012145"
"2044","18,4849024042039","72,9338054539303","15,1138425740168","22,7613287014574","-20,6508653123658","45,888947965461"
"2044","9,71683892921074","33,3205554573888","18,1829830845485","50,1863118789355","17,6196888276338","44,940531287586"
"2048","6,3313605147219","22,9117880206961","18,9479991468586","40,7645984087708","11,9961207396842","45,3414310845808"
"2052","5,02417744885354","20,1767829514172","19,1386875736621","-15,2727201526398","6,16150344937827","52,4362503454199"
"2056","-244,01887758236","-8,33771037354764","-112,119230014253","0,242608309958202","5,20742903893424","51,9179383614691"
"2057","-186,178068205371","0,169828653909111","-69,8366683053808","-5,81210731856454","30,1172575435011","52,9588440740846"
"2073","-96,0616984543105","-4,54369359045302","-94,312074385486","-1,4851938467378","25,7291364881836","52,6163681753418"
"2073","-103,266441160105","-1,78221748974245","-80,4128308411093","8,32881360271588","-30,2657276116957","41,453508169399"
"2081","-240,00077625907","181,353614121363","-152,230086487969","6,0406971425014","-22,6160009755671","42,4021014916268"
"2085","-209,795916408005","124,474338392453","-127,131304738597","43,3292142360445","-11,2744408935606","44,369628685309"
"2093","-198,133375263078","109,52875445068","-178,649562672244","31,6330698475072","-10,5321941024241","44,6124852995497"
"2093","-193,630296400015","105,601656636967","-158,491038872578","-16,4143765409349","34,6545669547252","50,2391557096788"
"2097","-219,327641025362","-6,61360295019514","-153,466311446028","-3,69122391043596","27,5326835282929","49,7934367167402"
"2101","-212,24976416999","27,9007441434451","-152,213844451816","-44,9909385511561","-44,7832749001966","33,0920980102326"
"2106","185,885000760402","14,3856018324047","285,783175379493","-30,4031997409765","-35,396939795625","34,5421196695469"
"2109","94,6106959009113","23,8343664957003","144,958612041671","16,7196025517614","-54,5438049324403","20,406606532247"
"2122","-355,40017295006","233,048711919979","3,06148680065756","4,74094500991869","-48,2378879419402","22,4774206715421"
"2122","-272,155995672536","169,021819810175","28,692112334909","42,7990400670266","7,23426007874427","23,7855220579678"
"2130","-240,014193083092","152,198130016398","-318,568522292336","29,3155514995413","0,319881604003581","24,6118295496442"
"2131","-227,603769826045","147,7775415894","-203,126945533699","-48,5282144729226","-21,1052615268179","23,7654798539226"
"2142","182,273281442003","-60,1156015331508","-25,5390572951235","-27,0386146537776","-19,9528396821183","24,2308537909813"
"2143","89,5328462387095","4,25844935551304","-66,2733788395307","-77,9816209027421","-89,5732051500178","19,0515617082859"
"2146","73,0910219389378","9,01267671074486","89,8933913582151","-59,0585920916573","-77,8220877830206","19,7798826978344"
"2150","54,7425914764476","17,2618962745547","33,8196272833532","-7,29048414302922","13,2683434078264","47,6062599887944"
"2155","-68,5417475237525","111,503192653633","-170,98794295939","-19,9855143786605","2,38754856362552","45,1837537980175"
"2159","-44,1436461322736","83,2660115848722","-113,038417963953","-45,9012427405572","5,84077992465035","62,8099096615015"
"2171","241,251202151188","-59,6583228412418","213,03771854681","-40,0624801380377","1,5891555060094","59,9440807514422"
"2172","180,446355416855","-19,2130843974232","116,315679301861","-57,4094611376628","-12,5130370055674","59,5020961904064"
"2179","258,643481107884","-197,944891769487","15,174147748736","-51,2029150330411","-11,6529956278441","58,2229013529274"
"2179","225,83654276364","-135,908415758","33,9635404339952","-66,7245950557779","42,5555970895223","64,256430718658"
"2187","161,524971987031","-444,471655020535","-17,3766608158772","-61,0136674637901","34,0014789023048","63,0677182594314"
"2191","168,693327543871","-338,549652843908","1,826245514541","-111,145743761269","74,4814781400746","59,5801960993002"
"2196","121,430691640602","-329,827257458646","-16,1468360334369","-94,9986324233792","64,9765550120006","59,3771820835609"
"2200","134,181891991887","-316,535363078255","-7,62681862994212","78,3831351583204","115,431051247673","41,4608409645943"
"2208","-398,318478482017","388,802275025653","-138,559301297803","28,2933455413281","103,976229072666","43,1433643196962"
"2208","-270,924712411353","170,136612400413","-95,1956214582282","174,753652182394","159,418283592843","20,9448264784679"
"2216","-396,035713237212","277,71790311937","-115,900068661399","122,22471325072","146,488668739202","23,9223521406116"
"2220","-336,342912873603","210,98593555121","-103,060873328805","69,7887173130428","105,587317987989","6,64679352591565"
"2229","-269,719741262693","82,268084451792","71,7118862674883","77,2991914992466","107,878910290452","9,734089316326"
"2229","-270,995553699863","112,446214820755","17,2758638327421","-46,4535225831085","52,2785964831527","-11,577075421073"
"2241","-515,184840243408","-112,414381637481","-316,678191208274","-7,64984351033628","62,1280844515081","-8,03900984114079"
"2241","-458,469919383217","-37,4986944473151","-216,919807323037","-81,3872419954662","14,8354392164833","-8,54069914016587"
"2249","-147,685989045875","-36,9235104570048","-36,2381651993019","-52,7629384933898","25,8911107130335","-6,85760854075219"
"2249","-206,687737353486","-25,7723752588331","-80,201335534809","55,1197385666435","-40,2089251111843","2,41546630221579"
"2257","-131,022179360551","291,598180470302","-49,1418818453357","26,9307263465018","-25,6754602140404","2,27312480876116"
"2257","-162,806593269515","193,990386515676","-65,3999811804797","120,837974399067","-48,1911215023799","21,3396255806788"
"2265","-205,742843725973","366,388376701848","-83,4584006675832","87,7871619834404","-39,5908304355808","19,3836403576512"
"2269","-203,321162249099","297,687628506681","-79,9596546571482","13,154760328408","-41,211286490784","33,1995441072156"
"2278","38,0827906525423","121,546974207147","80,2297229407218","30,5317495323228","-38,0317255234997","30,9268376419613"
"2278","-17,7075885398913","166,264300937198","29,1586367370431","-93,9419160148756","-82,7265688371438","37,7010964267809"
"2286","-5,35748465866902","9,50190945989448","-37,8442959345417","-53,3374559075019","-74,3556268099792","35,9802913290554"
"2290","-21,5889276989915","65,311063572483","-23,545492748356","-116,235215524501","-52,1930236362257","38,9982314830267"
"2298","-45,6088648881042","-187,559536758522","-60,2483675615298","-90,6156179618579","-52,9720684909435","37,9046177804003"
"2298","-43,8833163223398","-100,003751021479","-46,3969512346077","-135,246374368302","-32,4547183450588","33,1088526324505"
"2306","-1,25603945425419","-235,08647843276","-37,6921197808433","-117,579095154402","-36,0667569723773","33,0794416776166"
"2307","-10,7970201831311","-179,580781335474","-38,5223475403805","-74,7763465568308","-64,7821131997492","9,79950130884957"
"2319","182,413070260625","-210,164365213968","90,8254187199374","-84,9487552311495","-61,3207358372616","12,0939216556899"
"2319","135,014331134742","-192,200499891119","49,0667313850017","51,8577694592055","-8,78248065702367","-8,34977487629169"
"2327","115,099094752366","114,799485272514","29,9042358445851","8,66122175469845","-16,1822929368826","-5,26374299621956"
"2327","108,409528739954","21,466722848713","30,1277791030124","120,829207853246","14,4262421100623","-23,8390753119839"
"2339","-76,542447311953","82,0674026005453","-113,377124280559","79,8243458494447","6,92338367470085","-20,5728265427157"
"2339","-34,9551286214111","48,9908217115091","-67,1472546255084","9,88870741994315","27,0238555271488","-36,2976878118834"
"2347","66,6382670771025","-89,9933914061947","24,9100428418928","24,563543089452","21,2007508713939","-33,2308404001467"
"2347","52,8649730849771","-51,5128476951945","1,85630775669599","-5,85483425729199","28,7083961133623","-38,1351371773698"
"2355","-71,8806089073357","-22,2920670587498","-14,3945179118543","5,73972104965229","25,509526776866","-36,2331058902513"
"2359","-46,0467149514245","-25,6140222128984","-12,445209830188","22,7329967751862","58,2450047630405","-25,4534141809536"
"2368","-186,163198705814","-92,5020280192591","-117,003682937287","19,4287120540326","51,8190203361409","-25,6440490126365"
"2368","-147,264236251614","-72,0775033161193","-83,0659994402498","4,7262689427765","41,0970425446935","-13,4496314342196"
"2376","-66,0754777851204","153,918752055079","25,1854717783853","8,66357450593176","40,6684910824256","-14,7466057312891"
"2380","-75,7273026639685","86,3014703104007","-4,83169248412622","83,8694642906549","19,539733332467","-10,0926227834119"
"2388","-202,109295295065","66,7971303987414","-159,375893935148","61,6509458263622","22,8422154854395","-11,1527734599026"
"2388","-174,907243582387","62,6721750324337","-113,897687264977","17,5905630897985","27,5016639131107","-4,98087727252436"
"2397","-88,5515229342698","-66,9674761124704","-55,2917968351138","27,4154524313499","27,8607487822823","-6,08218554235605"
"2397","-102,208307633008","-27,0315576876781","-67,6836525123045","-4,34310013773541","-7,80621450022626","0,0637120274303804"
"2409","-65,5203761380451","164,134980624127","22,0167288271462","6,88112743666796","-1,86444493569328","-1,05401916856917"
"2409","-77,3546255703533","110,365851333774","-8,62449278374486","78,9295802234107","4,13127818085124","13,291396734754"
"2417","-136,796102892924","87,5512873957586","-116,054285658544","58,8385739943761","5,16692068308006","11,3531749387501"
"2417","-125,747332542987","86,5565384109847","-85,8323092901901","-58,751820487891","-30,157500579693","10,1288300927098"
"2429","-14,9648114493027","-191,663282503105","5,73632838290856","-26,2453209132548","-24,0423015398997","9,35543031714438"
"2429","-38,1900488195631","-104,768251482573","-19,4392103767579","-99,9991332914633","-44,8453471700092","11,6035164091367"
"2438","-72,9798193574177","-15,9206056381385","-15,2100464855883","-72,3793654051069","-39,3779565422314","11,0235977568238"
"2438","-70,4126620297865","-30,5750209417781","-20,1558822022053","45,5677634155403","-29,1413160524612","14,7622183005409"
"2446","141,997526283878","61,1226027094574","43,3886701048278","14,1598394722465","-28,9584915045705","14,1238472964782"
"2449","93,0122276605676","30,2170468453568","22,2278286641597","0,309939037782706","-55,752503513591","8,24733654005247"
"2458","-34,0320308774568","29,0452719147558","-53,0763097912681","-0,51717411750449","-51,31834704552","8,53523523556596"
"2458","-16,085689783086","24,7373766337112","-31,8466708350643","-16,2587778995619","-14,71825805204","5,98046559149817"
"2466","139,32110209816","-16,3510907114599","25,9672229740529","-11,608621366286","-19,1875848414336","6,36665696908789"
"2466","107,325952756398","-4,14748588134292","10,3779536776137","-18,9420143972438","-30,4126029810608","-0,230968923606673"
"2478","91,7443839270295","-0,940869797656836","32,753251496074","-15,9684350978455","-30,0958444334413","0,601412450662833"
"2478","87,7281107686352","-0,0983001757055707","23,3305335303616","7,26098566620329","10,3943953131928","-7,08267750281129"
"2487","-31,6362565355793","10,5465347373417","-91,0654958302422","0,67992147129917","3,89465696822992","-5,93659873640948"
"2487","-4,7245963520119","7,34356883632549","-55,5799283317998","-6,3096262843036","34,9589006326024","-5,21263843749358"
"2499","210,629821877628","-106,41865829046","75,8169806221559","-5,2410329605864","27,6867680698012","-4,75532387084133"
"2499","166,781333777673","-71,3107919918434","38,5690639962244","-15,2877837927255","16,5363843639052","-9,93970693365046"
"2507","-119,66805411301","12,6154729754553","-102,020825887368","-12,0639808101346","15,8909304235161","-9,21460183780222"
"2507","-63,2703806487679","-8,33208310865457","-62,0643579740483","7,78723941745805","57,3876994058706","-4,65161789908272"
"2515","81,160872438092","-131,968594980534","82,7021458879407","2,27268434473521","50,3975681372014","-4,76925124762202"
"2519","60,92790595669","-96,4552932158626","41,7867436308127","-9,59317370412652","12,5033857393893","-10,3168200501425"
"2528","-116,34229423564","-7,21077536185782","-104,969524177634","-6,87204070049618","16,317511335585","-9,82113379040879"
"2528","-79,788928774143","-29,7609086777758","-63,5500918423849","36,9716879696009","46,6288831455186","0,0701914328743198"
"2536","-118,93335021948","-32,2116954283581","-91,7421207727761","24,0869310765212","42,9755705722931","-0,681610820818427"
"2540","-101,047587728002","-34,8556635280713","-76,76928518146","10,1844810335668","9,75822123878063","-5,26145894282088"
"2548","-118,349910598219","33,9392183216529","-38,0223596195053","12,3428469581538","13,940233568545","-5,15447843903224"
"2548","-110,030592229311","12,0157438799207","-48,3642744590799","40,518018028058","25,0197840192544","0,386361125589382"
"2556","-45,4907404451578","9,72961785483072","-66,6987610695834","32,3036023623523","24,62937498935","-0,113575890046649"
"2556","-58,5709533436246","7,12891596523041","-62,2688277390998","12,7970090354174","-0,961167249945959","-0,429378400213816"
"2568","105,836537764745","39,4531210618128","31,6245642310149","17,4067941172955","3,08230754589161","-0,628865980266282"
"2569","64,3166909268529","28,9466209250065","2,02849531707191","32,4699833312693","-5,32636663553759","11,5599594534013"
"2577","9,55202008887398","-38,0919538275293","19,1617093689226","28,6323619616548","-2,58368943653639","10,2594526846526"
"2577","12,4065742869196","-18,7069925821735","9,43234601904821","-17,2435556877064","3,28602769076907","23,1210966675618"
"2585","-9,08563415955722","15,9196792246235","-45,5149812286345","-3,92034919806639","3,25787319486533","21,2455990101454"
"2589","-3,38409230630309","8,01817465166123","-29,2111895909558","-7,13346486182353","1,74991985220578","40,5856071434656"
"2597","-91,5602184622518","129,286035491738","-109,182782516905","-4,02133819235123","1,98644109086606","37,802392306664"
"2597","-69,6063191349481","90,1503475878119","-81,1165564535933","26,1410556837833","2,10619210518087","51,0957478544671"
"2605","129,308867148704","32,9615773382796","64,1876562268211","17,475765015777","2,16682220127986","48,4929557411446"
"2609","88,1129495322267","44,9346706954314","21,4062836374551","-33,1815164001964","-20,2079609664236","57,7953353220844"
"2618","-68,2014198097443","-43,9930159130603","-125,815097211941","-19,1795338614435","-16,536343121799","55,6715051801038"
"2618","-41,556699489342","-14,3596321001114","-84,5115992713204","-23,9287569555217","21,1713702477316","74,8546455090234"
"2626","107,525353039779","-63,9021001899798","76,347320062231","-20,2410995435963","16,2628351371875","71,9723396970694"
"2630","79,0881287044959","-43,9198664331493","30,4431242894158","-17,4984249599951","-7,13414422802055","76,9932085596132"
"2638","24,5331952259968","39,5064717079164","-3,75859804855453","-17,7405475998479","-4,98006566305332","75,1648140627469"
"2638","30,4687321068499","16,4275549788184","0,716257254605753","2,87661301980286","25,9845208352566","82,2197378724112"
"2647","103,771482410094","-106,031752415189","50,8523636011567","-3,42629139416744","21,6619317181633","80,6762245466288"
"2647","88,0747536605902","-71,209128703021","35,3493237517857","-41,3650746274503","3,04271363336932","82,4378417742126"
"2658","-24,5024126107952","-91,5922293517614","-85,8145087478395","-30,8486168806771","4,61577902051108","81,550628235357"
"2659","-1,97011416919355","-79,9480876645724","-49,0158884876018","-29,6662989171985","27,8177043607642","89,20008155527"
"2667","-12,6366852643783","-175,911170552856","-32,8404819740882","-28,339591540985","24,5648696863379","88,0321233610998"
"2667","-4,75520542591104","-144,126405666849","-32,8085890859101","-29,6966575032895","18,4368591580318","87,2943421647626"
"2675","112,873804540681","-127,088447696492","116,012202434853","-29,0716526176229","18,3342393651831","86,82829715015"
"2679","87,2920973365026","-127,611558218222","68,1073746918418","52,1136448711011","36,2066670411528","94,7437961378161"
"2687","-4,89352553919421","72,0336188099439","-71,6373855114935","27,5474032584068","33,2555006875023","93,7438948929571"
"2688","10,5122480661203","9,4923344600094","-33,4702599961794","53,5088375523698","31,7613212799229","98,5855343108634"
"2695","6,7773324479693","12,1686453948357","26,8147439781783","41,6827047716107","31,004816280036","97,6439233352366"
"2699","11,3352265324214","1,87187217151567","12,8414252912533","14,2834048179375","32,1154954876331","106,627330039612"
"2708","-174,115595387015","21,7504179982761","-151,709590770599","20,7122152780163","31,6778338317137","105,302009645973"
"2708","-129,720888431264","13,9736996151204","-100,725689552908","-3,36640768378854","40,4184372655593","118,147979244346"
"2716","39,1257775030481","-10,6538322432646","59,0446950884568","4,97999829693495","38,843816283762","116,262580319716"
"2720","10,319961430813","-4,1249562150683","14,8691704139354","5,56267053004885","3,69151386915375","121,913179903477"
"2728","-110,546587033464","-30,2052745124044","-122,195281840271","6,72367909318781","8,89385690822244","120,482576600841"
"2728","-89,2149411149102","-21,0581322773087","-84,3600609327835","0,149809472969398","24,9710981924844","130,52540979339"
"2736","11,0129821696921","-98,56768328932","58,1269601338317","2,33326624049419","24,1110266068606","128,869312789575"
"2737","-7,28754082756763","-72,9340730876056","17,6433724364359","33,9627149168508","7,24488570373935","129,191497235179"
"2749","-7,89810112453145","194,387446139813","-125,503782347165","24,702812341851","9,70553637441236","128,395016185519"
"2749","-12,1338474454848","114,628780155692","-85,1847400314592","61,7885029489947","6,47027099332397","136,101783820927"
"2757","70,1527028474913","-67,8919303052043","91,1854470657312","49,0363119543455","7,83225187437547","134,970030196805"
"2757","49,9247515574646","-22,8510255002027","40,1476005021674","-44,1184255203869","-9,40255962574836","130,150172648074"
"2765","6,60896565720821","-77,0312185940977","4,66626085774379","-17,8596734776453","-6,12856736338224","130,105542894862"
"2769","11,8841029106994","-53,2675922730737","8,82215787610496","3,18572814618294","22,4156355446608","141,023874224664"
"2777","-126,487107875279","62,4226682150385","-207,233615601072","1,00115864649425","18,8676030314178","139,920815905211"
"2778","-92,9142698294169","29,8214114692855","-137,087825435286","26,2525835710698","5,12164002723042","144,697292588453"
"2786","-68,6541057837813","-65,6068992035325","-16,3096181571551","18,2302554305809","6,16204087322132","143,714519317312"
"2789","-66,2868992229823","-40,6816177069763","-45,2043596237901","-33,9730296889961","30,5879761398271","149,935293619484"
"2798","68,5795919393019","-209,593522950496","77,1480267595959","-19,3982510236703","26,9548593014918","148,864860901694"
"2798","37,6535300409098","-152,976771967478","33,6456662531486","-42,949588291129","8,68472193854295","142,715423417551"
"2806","-119,537152614133","-32,1285133580194","-29,7199413594997","-33,4574785902253","10,4345273544258","142,830918504192"
"2810","-90,2307897673281","-61,3744558367361","-15,5144960419483","100,164539337016","41,194429825469","145,640505785294"
"2818","-74,0735157198064","193,264166421416","-38,2347267716344","61,0880237378744","36,7682089160763","145,415278783002"
"2818","-70,8349542996169","109,172945673721","-28,8979870192366","70,9741601977952","-1,32156097794617","138,431429319958"
"2826","-113,159400482606","-62,3255039781771","-100,101756164882","61,705974991682","3,39353841159193","139,019839215446"
"2827","-102,501492367134","-21,3883927423107","-75,850056350721","-59,788461284696","-1,6876939857347","138,023213273539"
"2839","48,477242945893","-34,9531314459571","5,47672952501201","-24,360757169979","0,739671366333733","138,393660021213"
"2839","15,7723557614939","-24,5173987180968","-17,2517002169661","28,5207078474568","-26,411625364825","138,627665524185"
"2847","-155,016239731766","144,999756299366","-145,468756290512","18,1333291725517","-21,158362621637","138,775483195053"
"2847","-122,960231256501","93,5420405921375","-107,42822736125","44,5654338139149","15,8564409565986","144,342118968933"
"2855","36,2806256852919","-142,345728365314","42,1129261880909","34,8693603564601","11,5970847070894","143,85847702124"
"2859","6,76586531872948","-76,3275382004775","-0,612343623098626","-81,5722968969668","-15,9523105997046","136,711390818626"
"2868","43,7863400063138","-147,579868484036","48,2630631596092","-47,7483692381891","-12,9006056891225","137,196686580743"
"2868","28,0804903972637","-115,302112564205","26,4457804748978","-2,20476093012984","-14,3429208465777","133,398294215159"
"2876","31,6995422518538","54,7425261130117","-80,5352906656268","-10,6197937442795","-13,0731669083911","133,998908280263"
"2880","27,0969114622358","6,42341187729831","-49,2014656109556","76,6858503681656","-3,46809671287421","131,641676117109"
"2888","7,56702991348037","118,808392196314","-8,12712794405262","48,8108309551828","-4,60503703589461","132,1526488779"
"2888","11,0262550765501","76,3386408787639","-16,8889104508811","30,7661539581362","12,7437127948368","127,002160869608"
"2896","-19,915792658766","167,676474976808","-31,3280535632267","31,7799072305814","9,52740765916124","127,748676949168"
"2900","-11,8629729006469","132,676380901739","-27,927164248786","26,8890190269974","21,3422762964866","125,483608840611"
"2908","-60,3979894276994","38,3549926016355","-44,5868494148425","28,5375304243503","18,3241598318933","126,052800214704"
"2909","-47,1380739706347","62,571128737714","-38,7394539310995","-81,3219578237645","9,32759007335104","119,570772600291"
"2917","-4,89886403214023","-184,702922869575","-2,26714181026495","-47,6791935813049","9,77261496819026","120,476175625909"
"2917","-11,5896831166876","-103,676589421392","-13,1760283515365","-62,5141711575446","-0,457959132444537","114,206527731697"
"2929","-19,0147627113046","37,4834468793208","-68,4173643564559","-52,6134885576278","1,36228774046529","115,246087754398"
"2929","-18,8816952745929","5,57462191134918","-52,1868575426469","43,200642052216","9,75237454875124","111,797815582586"
"2937","-18,8303159779052","73,6288384789569","-6,1234867269571","15,676754386343","9,00028653827298","112,619595179737"
"2937","-18,8104776749111","47,5107470171454","-18,6416994196562","16,6894985619322","17,5816954951278","102,192177432679"
"2945","-81,7443435520929","58,0203665430359","-53,2753053670339","11,9693479785888","15,9264741401846","103,605338298766"
"2949","-67,0440358473406","50,7818714814762","-43,9081016676732","-18,6373876820887","1,64514523139509","94,9198023949495"
"2958","-48,456948382752","76,6757304631143","-43,3239653845557","-10,0948810223224","3,41448961552739","96,4332831839589"
"2958","-49,2802002240452","67,4795942259189","-42,1783631751979","-19,800053634559","-12,1203745226937","91,9160640512897"
"2966","48,8489319133828","179,721076702132","3,62641263625878","-15,4818630781994","-8,98569667444651","93,0626063227052"
"2970","25,7380347502032","143,213619928111","-10,9562576240207","15,013799834017","-16,3607972617651","93,7868594105969"
"2978","29,7256592579731","138,832650691508","13,420685074705","6,44060068091176","-14,0948203922361","94,2443589275342"
"2978","23,2653397968565","134,681508335475","3,49689848055714","-78,6646763637834","7,9642282588426","101,37493135942"
"2986","-55,0816926138812","-234,704178994213","-51,4988908379383","-54,1816342584142","5,13275361305213","100,879204102764"
"2990","-38,3326354614427","-119,763867714359","-35,2071788891684","-142,218256434646","3,69917427463557","100,566060832485"
"2999","-12,4989545666124","-99,9856224569482","-11,8881631503856","-111,545226615551","2,97335116949484","100,368253053298"
"2999","-14,5241899808315","-88,7886957920511","-17,0756493419713","-34,1225281959642","-7,85002481396559","92,0334084838755"
"3007","47,6353625429064","-28,5176657647258","16,6461006269028","-52,7284807050441","-6,32991431425504","92,7684155856641"
"3007","32,636081050885","-45,6808653310546","5,05160708282017","16,2480791332631","1,90821305340323","74,0762925472364"
"3019","-126,474463549436","64,4671936226349","-88,8768887490003","-7,69177665755874","1,07918777820849","76,2687664164116"
"3019","-92,9093876690251","27,4096694192983","-60,2895698476299","9,82438471169989","17,0901367184232","59,865618086678"
"3027","-73,493876535772","48,9427684424118","-72,4220076687672","0,664587854215724","14,1965012317903","62,5040020127333"
"3028","-69,9972618003332","36,6008000339231","-64,4461474161324","1,58082522605039","-6,68663311857054","42,2775819742396"
"3035","16,8887522282744","14,2481847581614","26,8296260908603","-0,165992874505154","-4,25979151522532","45,5008640676341"
"3039","-2,563278387864","19,3748172857226","-1,41891219110806","-14,4380645891713","-17,9680652619755","29,7488614113114"
"3048","-256,998440959696","58,9411755645863","9,04723100266938","-10,3818354249878","-14,908582295358","32,7985640269542"
"3048","-202,239603701115","47,3376217455361","1,65602901181934","-0,642625587229144","0,08372611495051","22,4101755175469"
"3056","-221,443542213448","-280,575252919398","-80,7203155960179","-2,9514107103742","-1,32564841215672","24,8479905517291"
"3060","-203,858465644614","-179,737555991796","-55,2534995812845","-96,6676886429059","-21,4572994859296","-2,3467028013688"
"3068","-100,235492126909","-443,360591255446","-89,1726278802124","-68,5641058653471","-18,6499809109527","1,47482840049937"
"3068","-120,225136238192","-345,630112571015","-74,6273329936447","-84,9297135247528","-81,4576752496673","-23,4774773614481"
"3076","56,0394892178702","-196,606418829098","-153,286510706015","-75,4519866388415","-70,2572935268171","-19,239464467077"
"3080","10,0978565439489","-228,448991179209","-125,893151129147","218,467567231953","-85,4983071054489","-37,0871081248656"
"3089","111,786626068234","786,418573311092","-64,7921447872101","130,685724469818","-79,2148523322748","-33,3611896419706"
"3089","77,0501573145861","464,084914970627","-80,5620661660162","266,730667251473","-74,5398322293962","-31,0075843421519"
"3097","108,826682955341","337,694839213784","225,387971416499","211,323673258531","-73,1728634005801","-29,5208481366323"
"3097","93,0960674039196","328,484615236357","124,649286990622","-14,2748248284622","-65,0122718623778","-29,9500151891508"
"3109","-71,1385118713903","211,406682258186","178,322362855625","45,3860281193812","-65,8805536300368","-29,2211134039808"
"3109","-36,5519012286853","246,643314535394","146,700950446976","-82,9164778215031","-24,4966026697943","15,0254156525574"
"3118","130,121599573567","389,669582714915","-272,604763741274","-34,370032933048","-31,5438538514889","10,9752663441736"
"3118","99,4766924447155","350,251128358069","-142,121192777891","-0,271232535642842","-70,9606548207577","46,7296808278795"
"3126","129,605259725006","-403,645284101315","-184,878559252814","-2,84878446838539","-66,9174330105362","41,3151935832145"
"3130","115,238343184975","-173,738912605207","-152,536289657515","-353,466481090638","-54,4144536981305","74,8394614059848"
"3138","69,343933277457","-631,0263694604","-44,6824923989586","-247,35191399097","-55,0841788226122","69,0162248758355"
"3146","76,6234258323707","-453,183104657283","-74,7987811446859","-221,476848535935","-21,0681917944054","84,4941917795379"
"3146","84,2758009219155","-203,195943960293","280,097450584242","-212,326847431923","-26,8458528086118","80,2713850010779"
"3150","84,2304956226454","-254,509381558034","161,559127980335","276,277100073974","12,0524729800386","74,8672722062667"
"3158","-182,078067850847","786,512347964213","-151,607584593151","129,291976467739","3,74674650373383","73,4535774158207"
"3159","-119,903725512243","453,050951337749","-67,6677335102312","147,280747091596","-15,3954405821344","41,0893138330151"
"3167","97,7689366012767","-319,04194072457","16,2817865516025","118,251545331467","-15,087155088285","43,645307169178"
"3171","61,8155566002518","-127,916871554578","1,20710132625753","-351,714168718181","-50,7798381613538","-3,99946587876651"
"3179","9,20018057234459","-678,782025766968","-144,360309633784","-213,578782206501","-44,8510905606199","1,90406505753833"
"3179","12,8846091442041","-477,527212785838","-99,6445420275706","-99,5665536131154","-4,50689074161806","-35,4162276214812"
"3187","-40,5648780936291","282,411234499219","109,334883513716","-112,061800060694","-9,08056929407985","-28,9908815070582"
"3191","-27,2025121419298","75,0924665284548","48,4252380226766","287,824699422881","-32,3080103433741","-52,2983975061405"
"3199","-227,006535859216","336,795166637605","-17,5285820319924","164,324474496144","-30,0680943060052","-47,0213962601082"
"3199","-177,153811463697","223,560101179166","-4,96827631753898","131,921595507377","-21,4655284476124","-68,3176732054965"
"3208","8,32524284960377","66,9879456707551","-56,1104047289491","121,967777750066","-22,1100380354718","-63,7702032367297"
"3208","-23,0585631631631","98,8470861378709","-37,858126627375","-91,0707420508672","-76,2095067240639","-80,0540522213165"
"3216","242,411954576976","-301,033074371039","80,4895042464872","-27,939217356598","-67,600138897508","-76,3403087369962"
"3220","172,914030440783","-171,105483063787","44,9889156433146","-58,7570394290986","-60,2538072712538","-75,3627096033561"
"3228","-154,102802614208","243,489873611321","-198,459053718765","-39,2728618228452","-58,5343499036198","-73,7451752926629"
"3228","-94,3688170699294","133,428843484801","-125,141061029824","162,609784555912","11,046353103554","-57,6719343114381"
"3236","4,54796225238282","309,503585542906","38,4455952073385","104,395581387905","0,275154580509064","-58,5187156266108"
"3240","-4,25881273487227","237,768939729156","-3,77868299967679","59,0069493991539","-39,5333871427856","-48,1070910796209"
"3248","123,065469067907","27,8235344075057","145,013742316696","63,4648064858092","-36,6885041917243","-49,5302282668635"
"3249","91,2272490793066","82,6583334056681","91,101843994182","-128,354644707946","-33,7544375263665","-29,9044709941252"
"3257","-87,2961398249481","-107,927639017789","-155,184601701846","-69,3597004899236","-33,268915713467","-32,5071825021393"
"3261","-53,226648977908","-40,0059603831129","-83,5741295648339","-53,0577546253598","-33,0230953808152","-34,1512752613565"
"3269","72,9000523734375","92,4989794034018","-74,4781508943049","-48,5530730379165","-32,8986362229781","-35,189823326552"
"3269","51,5994289385681","61,3159434891868","-67,2108810311279","68,1777302359182","-22,3797315972269","-9,8478654021989"
"3277","-26,0221222535927","115,662946156651","-79,4053509053895","33,4337016741583","-24,0539963459259","-12,839741029012"
"3277","-12,992946120194","93,9431506765104","-74,4449528047336","-38,2192384435921","-12,952089316218","-1,04650869454975"
"3289","-4,73441881416928","-139,342410735877","87,8594965088191","-22,0189410506429","-15,3311791807618","-3,59690552909979"
"3290","-3,54567981726835","-69,6404651820999","36,3156145272614","-72,6998566922973","-16,5357155092494","-3,83963650794924"
"3298","-138,653053314954","153,668750385435","-207,629838480181","-54,7044049482203","-17,1455738371208","-4,99296592749316"
"3298","-106,819999633172","94,3454227492449","-136,435848904859","48,517552245434","7,93853172292329","-0,24824472364275"
"3310","-207,500758149074","186,466536212012","-178,215123132465","20,0406533434976","3,63864737008295","-1,25107744185416"
"3310","-176,375081502466","148,672256422468","-154,629053594788","-32,6437827949983","-7,50058184098901","-3,25286682630416"
"3318","-656,592008411355","-504,03745350763","-52,4593113824327","-21,201959554363","-7,14038824597307","-3,5173663385698"
"3318","-537,010834924066","-305,543289936772","-81,9924115756895","-193,854824884452","-51,7689822851787","-22,8408623055361"
"3330","-34,1092501280364","-635,579870560613","803,523198941515","-139,563619278279","-44,3644981632044","-21,0472169876543"
"3330","-122,93154318112","-502,300198067566","514,247425527863","-91,8116764480444","-173,554781016898","-60,9636610901621"
"3339","930,53153716866","-8,64823788724664","389,620168955977","-97,6164849402878","-149,963991195979","-56,1782638306336"
"3339","663,289144382251","-142,936375098077","388,5554937637","312,737129622393","-230,629261701423","-54,5237175183367"
"3347","-64,4706800819809","1274,11096215168","-1087,58313146576","187,129260059993","-209,470194286254","-52,4785661047202"
"3351","41,5305356730451","810,453958030713","-612,52645456281","423,036836182448","-28,475680600889","-29,2936289521391"
"3359","502,069337495612","-364,144032781039","190,425570199336","331,224668563072","-50,8379201950714","-30,6480613669143"
"3359","419,890150158703","-66,7811004044614","-0,430059055972489","-505,995174460666","-89,0465278408223","-32,8719508625304"
"3367","405,91229389564","-1199,50255063439","85,0533243220025","-266,342330367327","-90,3915961613342","-33,2767475930875"
"3371","389,515237773226","-800,136149165842","30,360970915683","-541,406662634252","9,00520582924066","-2,06119708630794"
"3379","697,89172165361","-252,202470442447","669,75408245285","-419,414597099219","-7,67006255071307","-5,34281477418912"
"3380","621,960422820126","-363,227557173244","456,129646646744","500,262694729203","63,0532573996777","2,16244574291589"
"3388","-712,990957468719","451,898283746279","-605,544372432635","240,395139856179","45,8605673382769","-0,0965968231863704"
"3388","-419,435342109591","180,080541210907","-294,177964392969","120,323677845472","211,918631808476","-6,99686083540473"
"3400","797,808331817954","-919,788450714887","620,286832532217","115,144589374029","178,994048325393","-7,35565129844416"
"3400","583,80403782623","-616,789745705446","370,226953117852","-415,453888245537","-16,919553730606","-37,6852326635468"
"3408","46,0581811299916","-116,761741579602","-206,820502379053","-255,073022692175","3,88913179310356","-34,8439619191375"
"3408","120,426587732187","-227,37451111419","-56,6557457168663","-210,755323563576","14,4245966508756","-33,0491749658101"
"3416","-84,8720403524915","507,946618400323","-143,528067240474","-198,509109220759","19,7587163694364","-31,9154356999648"
"3420","-19,1408636094299","261,159410308864","-94,1819215060798","382,305032378869","182,285147425394","-42,1457933307222"
"3429","-130,94133680291","-79,9075340347661","-95,8877820074671","207,800153091903","157,572493298258","-40,608152625304"
"3429","-89,1091457273834","-10,5261970913501","-88,3129859624973","-86,9055223420412","146,554142684625","-73,8447338613955"
"3437","-193,998516438293","-148,647197763145","237,461886377669","-25,3409068581979","139,975537272559","-69,8397701468748"
"3441","-159,497846930581","-94,9398365706529","133,664753819555","22,6972095031563","121,707793853816","-75,5197887164992"
"3449","-133,265548220182","181,495574542096","-32,2669357141785","17,9714787263684","122,4588113268","-73,1077689339701"
"3449","-131,136871426297","103,131672458585","6,37281788981765","135,59900634116","97,4461748276431","-64,7425561639185"
"3457","-207,781451188225","-56,4384268713647","-349,900327792673","99,1027676850513","101,78224406004","-64,4583801412573"
"3458","-189,375052000036","-18,3670253559731","-229,705215702354","89,0178406676897","103,977601617187","-64,2788705260879"
"3470","-277,48730149021","-446,147938089141","-133,217205858329","86,231094507247","105,089114036711","-64,1654770679189"
"3470","-252,508738441688","-306,551541299795","-147,166538546842","-104,142897989516","60,8409137068327","-58,6205865388207"
"3478","-325,172296489795","-47,5044750455886","38,4362873991949","-46,7485332831757","68,4379916643074","-59,1179646226107"
"3482","-302,228766198691","-107,437334176486","-23,3002252916973","186,293819288122","-24,8060122528818","-21,1193192944473"
"3490","90,7347642123152","997,334688068167","-57,94684313827","124,689910616356","-7,01557411339365","-25,1161604918946"
"3490","4,46376956019508","642,624302051198","-55,5828827938002","267,968545539666","-69,705788725641","-19,4310110533798"
"3498","-3,0245673810844","43,883777317417","-291,343448109908","214,560422115335","-53,4459268627171","-21,839789745083"
"3498","-21,9159245373624","177,558870186055","-215,10928783188","-236,286784538192","-55,6694281994906","-21,9930627250296"
"3506","-29,2101557042995","212,683303396394","-196,10710891264","-107,86842205774","-49,7951898516668","-23,0898829049604"
"3510","-32,0265657629615","221,912590482507","-191,370612801685","-72,3828525581642","-46,8210552476737","-23,7827273137375"
"3519","207,354882867668","-618,223848458228","63,6672103078157","-62,5772015719126","-45,3152469847274","-24,2203864519966"
"3519","150,7835849955","-353,977884261622","-17,7618875109892","-311,523761629934","-74,4268279669046","-10,8136949149396"
"3527","180,5849027044","582,338205336785","130,01201424203","-234,314628356366","-69,1660597190713","-12,3448944300363"
"3531","160,091630286215","329,364381545863","70,8462380396558","305,845723471823","58,9681636508903","-13,3121295722854"
"3539","152,178876048991","-282,600396002902","68,3537114197983","154,107070022887","39,8426895239443","-13,9231171092965"
"3540","149,123645125346","-129,400104421389","60,7324225301619","-234,280648190336","46,5901223386443","-37,5704304445809"
"3547","41,4275473063405","-426,169844613385","-89,9801070274956","-140,602989802775","39,0063564500423","-35,5080739405151"
"3551","65,844498149502","-310,14898563756","-42,5468152011171","-13,0205871539199","66,5343581741769","-45,1518383692439"
"3560","75,2722424014587","-279,663374409243","-30,7235604459503","-36,7660166340066","59,4718216645476","-43,2436557758403"
"3560","78,9124332775113","-271,652983000594","-27,7764878810259","-43,3275400161567","55,8960501378382","-42,0382862312637"
"3568","-26,1984635967905","401,026564129283","4,47140913343002","-45,1406716392594","54,0856323093721","-41,2768728612774"
"3568","-0,783328602662111","191,779669873094","-5,49045800588034","97,4230983811965","90,5114824894735","-87,3186236101511"
"3580","-129,764304430934","-116,839067884178","-28,9824316153651","53,8174378780312","83,9539383596275","-82,4024881855459"
"3580","-93,5657583998397","-51,9316484778325","-22,8380570208979","-87,5074319101364","79,140146454858","-86,1386182173182"
"3588","-56,9945729110891","29,4012979071336","-98,3390359211396","-51,5594287742918","77,7029172801683","-83,4986739952317"
"3589","-56,8738996954417","13,772322095657","-73,1584615488081","48,0049575071741","60,5445607303608","-76,3578002755413"
"3601","67,4418602108172","106,951110732912","17,1535528154898","23,5173699132382","62,8572622346607","-75,8470203674042"
"3601","38,4420056184945","75,4347454016815","-8,33521272939781","49,5005385027892","37,1416097308602","-71,4194223476192"
"3609","27,244734747266","67,1535133085998","-14,6885598581402","37,6804115131157","42,1217410351767","-71,6225768952368"
"3609","22,9213035878265","64,9775388820206","-16,2721995078209","34,4141812818298","44,6431880667028","-71,750906492932"
"3617","-114,314399972079","99,1505855139313","-116,459079633615","33,5116309172622","45,9198000161269","-71,8319703226012"
"3617","-83,3031258662669","88,1298865060456","-84,4317298807962","3,95980450218088","64,4905345378069","-65,0416000590346"
"3629","27,1177854920563","10,5327594549699","39,1002240883519","12,7938119615782","61,8929218588727","-65,7522277838678"
"3630","8,75292527839096","33,1433581990602","3,89188340491102","-0,278155170437371","29,2100747707802","-38,8348122256681"
"3638","-17,7046409705372","165,903052013813","-60,9078297876824","5,10969630812415","33,662706290623","-41,8314955385099"
"3641","-15,9202968780379","127,786955202896","-45,0598506076185","30,7299198571925","38,9044768559442","-35,5145617738834"
"3650","-28,1424175527386","-31,6310826430321","-97,1332305991121","23,809501046242","39,5583921895448","-37,5242520407846"
"3650","-24,8615583118684","12,4802745090061","-78,1130769031724","-110,825559230564","33,9146756459087","-33,3204807901204"
"3658","-23,5947702494164","24,0709634313376","-73,3721003870862","-71,0289754418516","35,0572545346637","-34,6650232592564"
"3658","-23,1056447254744","27,1165298878675","-72,190361338843","-60,0320711627223","35,6357437292837","-35,5143500214273"
"3666","-1,93627757911104","-284,786463889971","64,6618664085804","-56,9933202898739","35,9286335696139","-36,0508566513764"
"3670","-6,76247321206884","-186,742014755532","20,7737462754141","-47,535268036779","30,1021293437488","-35,0214442163102"
"3679","47,8600462266726","226,424696660547","-53,1924519428154","-49,9217448296994","31,1521625885052","-35,371180241402"
"3679","33,9506052802498","111,988276071188","-35,6293170882142","80,417888877392","34,6711931704938","-56,116834207429"
"3691","104,432573259746","-343,704871198824","12,5169648203719","40,4343591167346","34,4528829839961","-54,2215441861365"
"3691","84,6466989199696","-218,442686016903","-0,482060029033033","-94,7185986233841","35,8360509336925","-68,0757881594962"
"3699","59,2543434683288","99,3785756699759","-72,001039183727","-60,065124325192","35,5363506864001","-65,8273006228994"
"3699","60,4499811345325","18,8892090975237","-50,8279088319592","104,641089440378","56,2963936376779","-68,511911910324"
"3707","60,9116344428174","-2,26015627523693","-45,5502798824523","60,1540027239427","52,8072306970308","-67,2077394983516"
"3707","61,0898855828364","-7,81735811093403","-44,2347744816957","47,8609818738284","51,0406629096353","-66,383913879303"
"3719","19,1976938139659","261,731912858314","19,1197446775037","44,4640779006689","50,1462473146775","-65,863515928564"
"3719","29,0225017235313","176,558610352056","-1,08846455553665","126,261682131293","64,6303903656231","-69,6397347824204"
"3728","-105,978128954427","-40,392413476304","-105,917717631018","100,864637921719","61,9637310484985","-69,0251140515894"
"3732","-72,1038602981966","14,6015909949541","-75,0475289340573","-109,546586765345","48,6640084530918","-49,4804519052294"
"3740","-38,0439978034209","-64,7591722689987","-154,889770401034","-49,6890672712805","49,9303414051482","-51,1343899551311"
"3740","-37,892983374136","-31,6119861250957","-124,791302104609","-64,1748666094257","38,6218979701014","-31,6544260313484"
"3748","-53,9735272327061","36,1639287242117","-92,7785868890321","-50,177696339083","40,8964181808907","-34,3492329516362"
"3752","-50,1824619971151","19,9727107740844","-98,7990756043465","15,7423091143586","40,5543120717628","-22,3683468922474"
"3757","-48,7186758874893","15,7183104869483","-100,29974673829","-2,04215776601736","41,3811032986166","-24,8002057599724"
"3760","-48,1534865168033","14,600425355704","-100,673805051284","-6,95650119250796","41,7997087845473","-26,3363735386731"
"3769","-173,818310054718","155,023150862983","79,5591064872249","-8,31447112637986","42,0116492928158","-27,306747056494"
"3769","-144,339348795087","110,92059029952","21,4840852592059","17,1653662757771","31,6630642606008","-16,973193799712"
"3781","15,5203575459301","15,9446804889656","-106,789789796842","9,206154863233","33,4235620435896","-18,445647418122"
"3781","-14,7554559552422","38,9888347203736","-73,7634236060117","-72,2821159637343","-34,3952350923924","-18,0074582753806"
"3789","176,904151343014","-142,578036832657","-126,807125053374","-48,7995943210122","-22,731981308697","-18,7306609451615"
"3789","124,906747844308","-82,2865015602005","-105,028834347023","-80,2315070818179","-12,3457645201311","-20,5558123363231"
"3801","133,879719665168","-54,283631383082","-24,3185721168008","-66,9170198327531","-10,0872092953689","-20,7087323497185"
"3801","119,344316209202","-53,9256043780024","-47,2006769642332","-23,5933967092661","19,436575188909","-27,6469066019224"
"3809","113,731982905913","-53,8315292937249","-52,9042860651131","-34,6218732477676","15,3845061165083","-27,0296443794714"
"3810","111,564978377787","-53,8068101486429","-54,3259715696829","-37,6693484150437","13,3329382140139","-26,6397293438077"
"3818","57,4700519349954","-258,794665134806","298,969000003249","-38,5114506639575","12,2942266858188","-26,3934260232626"
"3818","69,5832043057843","-194,657221478548","185,031546197928","-50,8098520421037","34,1738059376312","-42,6576248964418"
"3830","-127,475388618671","484,084054264646","-330,074111352866","-47,2082428049848","30,2514656988718","-40,9314687394977"
"3830","-78,5626129684937","281,429938268404","-180,469699779303","300,245085058567","11,8348941477691","-100,046960405408"
"3838","143,672874626515","282,035042513997","-221,962471081462","195,256114755648","13,5105597415323","-93,3893056888633"
"3842","103,481268729968","251,194039550794","-187,304987628679","83,5084753423096","-19,9961183036035","-115,18176051604"
"3851","-171,872831443603","-462,229278347135","-159,408107126431","100,629490840236","-13,9605934811917","-109,947718470507"
"3851","-117,191104017394","-243,688206876392","-163,454511616767","-285,913074767721","33,906161207337","-97,0632469019446"
"3859","-96,0776838880373","-186,264410835845","-164,463121166928","-165,725549335084","28,1411620824277","-95,9243247252124"
"3859","-87,9254814880626","-171,175748876265","-164,714527873081","-132,514389308252","25,2223354407177","-95,2048851337281"
"3867","-352,68275180866","588,488455346443","111,839618280237","-123,337220992677","23,7445296718417","-94,7504262283091"
"3867","-288,909432341453","353,097627338763","22,7736938560316","256,682887872448","-5,38396033572157","-73,9386204322617"
"3879","158,552327483448","-462,715877429397","-100,969819708588","142,693026017004","-1,13175314968778","-75,7921233617422"
"3879","69,3239016761829","-243,078825271001","-73,8142125145775","-311,105224696671","-81,1322826957462","-61,9114831263053"
"3891","-66,8032797327755","281,950579180346","-151,080874474567","-191,502317865006","-66,6366560582689","-64,1432965508394"
"3892","-56,3639889018653","150,907171200351","-122,340415469068","144,913594855391","-48,8416104300314","-35,4501597476657"
"3900","115,510843637886","592,478068922772","79,1555150941945","61,8746793998252","-46,8319554162569","-39,3251473088805"
"3900","77,874247280748","434,505125061958","18,3805285277759","283,690160610907","-56,2703552291563","-19,8798707341658"
"3908","63,3422032409987","392,996194739894","3,23171381875754","202,983954758111","-54,0490294721355","-23,5965891184263"
"3908","57,7311670577768","382,08931882575","-0,544290094256498","180,682582730629","-52,9243693188504","-25,9443828576849"
"3916","78,1590572215043","207,23664557782","30,02780828012","174,520092633954","-52,3549524035737","-27,4274479899384"
"3920","72,0465664075509","260,292401879547","19,6482304258851","-118,483368995672","-55,0540532388948","-24,2593311626764"
"3928","19,6560001645094","-335,538010945231","-203,532144089697","-30,4483844377366","-54,4206115429119","-25,2580805745812"
"3932","30,4272311045542","-141,098257815741","-133,162236850492","-112,989540320262","2,66065082614509","-13,5741365257389"
"3941","204,044115883484","-136,912804923974","43,6954921212524","-73,7979601370971","-6,43903093697007","-15,1935690864929"
"3941","166,080151547029","-108,813036392702","-3,22082942128273","-9,53439842920439","-17,0210065230734","-36,7412707916787"
"3949","101,391262374684","-148,335035307012","102,384310375912","-22,7765868419178","-18,3786746845806","-35,3526219699341"
"3953","107,413929743044","-131,719825632679","61,707519733751","8,03767083546911","13,7953071945405","-49,5269033831457"
"3957","109,739370295725","-127,35401738854","51,5683950838063","-3,4474917124086","8,08503654990285","-47,4805785664349"
"3957","110,637257134448","-126,20685873101","49,0411099405049","-6,62116194098425","5,19391900975836","-46,1879467077748"
"3969","-147,237699589701","353,572878980545","-135,416471084253","-7,49813539937109","3,73014239546068","-45,3714110784464"
"3969","-86,8070175031446","203,639680142101","-76,3944938611725","124,982288266716","40,3314974783569","-58,538772173506"
"3982","168,925638320297","-136,299293084785","-42,4245029814853","84,5903183843075","33,8628117117004","-56,8563913056023"
"3982","123,667782311315","-52,6215707392496","-44,9571198263935","-114,451372430451","2,20743259496867","-85,8965961896035"
"3990","185,27343619093","-136,606089421848","54,2037393908948","-60,4521341306746","5,18027250050806","-82,2408461877135"
"3990","160,060286276441","-97,6738400690698","21,9206429648363","2,7321793880653","29,0909055210508","-79,9315652362487"
"4002","-9,44952441892259","247,843357178788","-211,971635516041","-7,80823535212759","26,1968904775721","-78,4728280386719"
"4002","24,1002416964863","145,631367550187","-141,271784783943","87,5284673202947","74,0237034368034","-74,8147354116394"
"4006","37,0543004026996","118,774171299472","-123,649091646441","56,8726530208222","65,2384817618012","-74,5039746599653"
"4010","42,0560532133384","111,71718128225","-119,256447104724","48,4015978860425","60,7905124693985","-74,3076718810736"
"4019","-283,631407270425","-41,2770138627434","-337,003948048551","46,0608094667405","58,5384997646478","-74,1836704401163"
"4019","-206,38413140183","5,52227055428226","-266,279839027891","-68,3483777148905","84,2848790875058","-67,2637636045685"
"4031","155,902545970353","1456,25417034561","385,116533214362","-33,9628219789793","79,320304812104","-67,892565072672"
"4031","89,7867666535715","1009,44811326213","185,484038379344","359,917754900545","-56,1324485816344","1,49431649318588"
"4039","299,885740925652","-169,408328295154","-443,771207455133","245,75792631699","-35,7123558344108","-5,67505947652053"
"4043","235,008048529035","131,835654652767","-269,619800311779","-428,717326640088","-41,8043215383886","2,11099484759553"
"4051","-229,018978698786","-1668,70351019822","-588,613739938797","-242,093620514697","-33,8886917892572","-1,97067459685324"
"4052","-136,186646553795","-1059,81272060704","-461,126387455854","-883,440499657543","43,3102374997392","15,9757288094426"
"4059","-100,342716187658","-899,820732478016","-429,348802801075","-658,662501352388","33,3961569661628","12,3121953380723"
"4060","-86,5028468834394","-857,781278600474","-421,427900320755","-596,550081237644","28,3766449484717","9,99799768885778"
"4068","248,073526610772","284,208404062184","315,856982054942","-579,386689973376","25,8352594099526","8,53615468906487"
"4068","173,258390941774","-66,7226790229976","79,6331159856949","419,914865785654","-26,2372026994154","29,505777503523"
"4080","-359,161040472447","805,235101307369","218,585336332655","119,049712259184","-18,6015587749505","26,7519651530603"
"4080","-252,736022639039","479,350504634943","140,220661790808","10,0572101198208","88,3295870094874","-42,0350306311878"
"4092","-845,900669387673","-858,829073050533","-439,549151757098","-5,06045323371884","73,4689668049878","-36,4867160557754"
"4092","-681,930273647805","-489,448796599495","-264,062971924231","-428,090217991662","-29,6517005539221","-68,5581318084508"
"4101","220,601453730844","682,961188689278","-276,344824861622","-301,98512170913","-17,8618301092904","-62,8171510099483"
"4101","49,082243148728","372,023336541137","-247,406207923033","479,211270577917","-88,0712360931651","-72,8738159633605"
"4109","-17,1438496198774","290,321386043328","-240,192948476915","262,07758701331","-72,6183507143819","-69,2264562697745"
"4109","-42,7147191948406","268,853402428499","-238,394966495003","202,077503925475","-64,7945345163886","-66,9224753467944"
"4117","494,519099878484","383,082058194045","327,541998858315","185,497810202019","-60,8333260818766","-65,467086095553"
"4121","362,952988010499","344,096750565244","145,607833825669","149,89028037617","-57,334062355545","-74,1259469790877"
"4129","-112,298452461808","-187,319095630438","44,2351413257915","158,050928355654","-56,5623805270682","-72,5956159907524"
"4133","-32,8000315462339","-26,9537874496413","50,9669146753971","-29,2979942983843","-99,4889388479529","-48,3675675617392"
"4141","180,264515469753","1054,05343286749","-264,238935129924","28,9322814417956","-92,2227118024956","-50,0630826545756"
"4142","149,531874376622","740,098613574676","-161,807360787757","524,203786906509","-10,871479903736","-23,7678052724253"
"4150","255,479174222214","103,424283966825","84,3179573168616","383,061095229555","-21,6832441629782","-27,1574836856944"
"4153","223,386986731054","255,131899969578","19,6673224062366","-335,067389399432","-21,1824598946517","-19,7204834639079"
"4158","210,99572059402","294,994554346222","3,5524609408025","-139,506286755769","-24,9289121607371","-22,0226450068655"
"4158","206,211270281273","305,468855214037","-0,464340447291132","-85,467308487908","-26,8257458721068","-23,4768849837782"
"4166","-244,296182977142","-504,807359875559","-132,771019823517","-70,5348340195299","-27,7861152757581","-24,3955059714844"
"4170","-140,243744251372","-249,715330897567","-90,7498731951344","-245,670479522355","24,0071023836181","6,49546966862716"
"4182","167,837390183585","642,501706885425","2,00909440895417","-190,065335213571","15,2300766267321","3,00882303824904"
"4182","120,7920525803","401,940427519275","-21,8697418981752","118,324180712218","-17,5940180640393","18,5944623742589"
"4191","-134,613980469448","-741,832831812539","10,6944679923109","33,5407913973998","-15,2129003912664","15,4396706123611"
"4191","-86,2300105981324","-420,370400876737","-3,18855478322782","10,1127800458411","-14,0073373808045","13,446837262755"
"4203","-198,272954695255","259,9703929849","-230,743679007939","3,63896813144957","-13,3969592424987","12,1879951397132"
"4203","-160,534385205928","95,7365659603299","-159,464224872651","-465,265080086743","9,31755627710139","15,4977501872542"
"4207","-145,96296783832","52,5825275795856","-141,697059394541","-323,836325742614","5,81794536921367","14,5884714568567"
"4211","-140,336729033453","41,2433834927334","-137,268403578415","280,608843807405","18,9830746056762","11,2774632779464"
"4219","231,415372665389","715,787612648229","70,4227255110922","119,633875574302","15,6485968589076","11,185950424565"
"4219","145,954333056329","503,030681764136","4,19195836555499","352,663226115204","-53,2560944066951","-10,7649033495395"
"4232","-264,692587150355","-702,926324303737","-119,1118662299","256,055724620386","-43,1426302494923","-8,63091947830211"
"4232","-189,249409680331","-357,803278754752","-88,8466618627796","-354,964478365065","24,7131747015169","-33,2809074815345"
"4240","146,518514330055","274,900124221385","62,2578876019097","-184,806374958988","17,0686580232595","-29,8519251168415"
"4244","86,1634538605336","129,149108552579","17,9223109256181","-137,786952754071","13,1982291714867","-27,6858897879484"
"4252","4,75960639315444","321,904562975233","-68,4105958299715","-124,794177092907","11,2386259516727","-26,3176386431417"
"4252","9,32838224164715","239,552936875748","-46,9299952016538","271,793339716862","-28,5896895295739","-37,7681741402826"
"4260","11,0924538704422","217,914244665999","-41,5757260007682","153,381514013663","-22,7548180581791","-36,001300993582"
"4260","11,7735879016831","212,228467435776","-40,241117198547","41,3721101873738","-7,85102548078108","-38,9901406707934"
"4268","-102,549270768197","-423,35821929573","-83,6769346011004","56,4207928888923","-8,30521569054743","-37,8781446453537"
"4269","-75,6910098663894","-225,36481452899","-69,503776147942","-175,563922122989","-5,54777542262763","-41,2806601102684"
"4281","-10,4485404919144","505,920821875337","-15,199524810389","-102,667758742511","-6,15167978713091","-40,4299767063512"
"4281","-19,2574623929495","307,073248646457","-30,6636099891571","95,0137129260864","9,97324816634907","-27,5777744422636"
"4293","43,5105794413911","195,757942470054","5,74880583773466","46,6386081994734","7,13732040408977","-28,4592362879895"
"4293","26,7462446319944","200,508761091712","-8,17501049472169","179,78335279151","-15,2102951338389","-26,2794113407878"
"4301","21,8871733882142","-333,312913803624","-41,4082388502788","131,574953279666","-12,5249222825159","-26,9024495065546"
"4301","19,0110144327963","-165,579760556578","-32,6919760748134","-105,823749931131","-23,1149039495926","-16,3494898593317"
"4309","8,21717545762115","1,83781804791305","-44,5252689849477","-41,4236222482885","-20,4766256004298","-17,6833478413298"
"4313","10,0495152936472","-25,1715818205522","-39,4748436672434","-147,732468762529","-1,21647758907462","-8,94771752746593"
"4322","-63,4817139805014","21,585883107832","-60,975582309809","-105,108563337595","-3,46503931115369","-10,4295544494612"
"4322","-45,8732043259398","2,87186263264651","-53,3348711258963","58,3527581855791","-3,10979038503922","-12,7339234093466"
"4330","-1,95493813620069","-50,6881557626095","37,8573628950544","15,5216730772181","-3,92992738636129","-13,1895577775225"
"4334","-7,99744887860238","-36,7615724964013","9,58800150367159","-10,103125646925","-4,34516382915064","-25,7922136523166"
"4342","75,2053683425877","151,045240073448","-69,2387508116308","-9,18397108424827","-4,55539858644411","-24,7531171972753"
"4342","54,3312012052677","94,3933101064998","-47,8871609948759","-8,92998308374185","-4,66184072065889","-24,0967359761521"
"4350","-36,0367711336665","84,7191842463379","-130,102014927478","-8,85979912663525","-4,71573251325329","-23,6821100717398"
"4354","-19,9291758918134","79,1772134097993","-100,594945636609","98,0272681989538","-0,261921945721639","-31,6300897190969"
"4359","-13,7097961899963","77,7210065703327","-93,239993368458","65,5631412853705","-1,00695179568794","-30,65070600653"
"4359","-11,3084021088445","77,3383740336675","-91,4066929368383","-14,0781592903652","6,08433203277845","-25,9270981833409"
"4367","-79,778255333811","-115,595834785716","8,84241780617825","4,91473166362815","4,67465836483675","-25,9432678988188"
"4371","-63,2154738595954","-55,2911781457938","-23,1694203004391","-60,5075619997684","3,96093873210914","-28,6901128732789"
"4383","-39,0676020223092","68,2633538665522","-18,8935377428923","-37,5855634924874","3,59958154304806","-28,4252525225624"
"4383","-40,7437531366191","38,7285110949594","-24,8277283327823","6,66921036910582","1,92292723846209","-24,1529980982778"
"4391","-78,510301095331","96,9830730825647","-122,597551128391","-3,1019632915718","2,07403495814621","-24,4542808017691"
"4391","-70,092521361942","74,2900268898975","-91,9677240126852","56,2501868788496","0,656842311086606","-24,6445964436534"
"4403","33,2185944128968","-119,294739747762","-10,8018610806618","36,6508386948418","0,93931580933919","-24,764815902408"
"4404","11,1085374350927","-62,1610235137683","-32,5704025856268","8,82725502571384","-7,87985959290771","-22,1041258679407"
"4408","2,57151887278895","-47,1485828499612","-37,9964441263173","14,13882408058","-6,34501970208581","-22,4234089668475"
"4412","-0,724749698851649","-43,2039177810673","-39,3489429510357","-60,2350162563424","-20,5049150894559","-25,3617259955029"
"4416","-18,1363402841651","13,4242695885148","35,5957228640142","-36,7865793603182","-17,674088753664","-25,2178155913808"
"4420","-14,8592117889864","-3,69612238278514","11,2764815116651","24,8503856266606","-17,7345363397944","-25,1269096063477"
"4432","-60,3965372071062","-13,4063929654068","-66,5656611816457","9,88239539957246","-16,7651410321806","-25,0694856962054"
"4433","-48,9791690728864","-12,9578611799737","-44,9686468972446","60,9038318260612","-7,31214280649209","-25,033211896908"
"4440","0,618032590043274","-139,658543754924","2,43238324014188","43,0024754569982","-8,5260773679113","-25,0102982967681"
"4444","-8,23175754573935","-99,9503827004288","-9,7524035753498","-39,5094147171485","-22,583982192557","-19,522562499949"
"4453","-47,1542678847352","65,0977063062679","-44,3028995605808","-17,3097476038242","-20,7015179006729","-20,0560443475276"
"4453","-40,1828222475321","19,4656999571615","-34,9149798152254","-71,5038867946936","-45,1413013868229","-20,3930366112023"
"4461","-37,4910444348091","7,47544564076473","-32,5749405201101","-51,4792365467203","-40,5151959202623","-20,6059094320715"
"4461","-36,4517093857913","4,32488948349232","-31,9916607253087","66,0928219302266","-33,6918965831437","-16,6354316917656"
"4469","-42,505947920847","112,943186267799","-52,8551437993056","33,5812556067347","-33,2372511516308","-17,1273420770043"
"4469","-40,843578565864","78,4837021481231","-46,0555898566208","40,1104538977286","-41,9692556775486","-17,4380742884171"
"4481","55,017517964714","-50,4404407340421","-26,8533352293079","32,9146531980183","-40,3902810573542","-17,6343590388654"
"4482","33,0308988576661","-15,3165155411474","-32,0669681105484","-74,2177483000143","-60,5026257105439","-19,1266644986938"
"4489","77,7997555609103","63,402248289755","-26,3635645427384","-42,8214140498687","-56,6855322694252","-19,0693308654769"
"4494","62,0856703404329","44,0863705390362","-28,9419302694822","-11,7379946310115","-47,2844394164875","-14,9281678712391"
"4502","-73,0925913746589","33,7992146745826","110,474529823012","-16,1487802946253","-47,5246537364202","-15,3122590113443"
"4502","-45,2869086774226","34,096164230919","65,2255719975808","18,8295120360976","-49,1399732469839","-16,9231988739557"
"4510","-34,5507251586676","34,1741906203873","53,9467858291211","7,49498821492133","-48,9578116403906","-16,9408047651575"
"4510","-30,4053266153747","34,1946928145261","51,1354278764228","-24,9394829556447","-39,9033908732593","-16,9519261353728"
"4518","-195,034910557751","289,574397565924","-26,5978630423871","-16,9020305125047","-41,3191257263377","-16,9589513335891"
"4519","-155,600817033311","209,677903464598","-1,97371629024193","31,8580895651797","-31,5800233546819","9,03460369299591"
"4531","356,701931933575","-285,582268718073","-72,8684145461334","18,3318685201772","-33,6491030105826","6,45433191640118"
"4534","246,509566795849","-142,716704881627","-46,5396755106515","47,3439679181374","-82,4950386615042","32,1907221330101"
"4543","113,585096651772","-530,801248537405","243,642813210358","36,3608188546353","-75,2258001461219","28,448003308133"
"4543","118,261001460902","-387,774243962943","153,973898773532","-292,448168162588","-90,9634580183938","54,8184090415119"
"4551","65,194337797434","-185,154680525452","96,6081775219359","-194,307247312278","-85,9314549045038","50,4761880501993"
"4555","78,7045175681444","-226,91441586327","102,30915861652","-330,937032666463","-5,71141352177187","70,9946358730231"
"4559","83,9209969104817","-237,887193239202","103,730189062443","-273,691646961877","-17,0959010275389","66,9558232316708"
"4559","85,9351563954669","-240,770397415851","104,084396083084","62,7298677987826","-6,42919650204345","68,5095137342485"
"4567","133,515526015169","32,955973005892","-20,129805483488","-30,3074996570643","-12,0286299670478","66,4909560867671"
"4568","122,887007330321","-53,1197559166609","19,9084776973034","56,0223749958834","-5,90143839126926","33,7446099563917"
"4584","104,258212286709","-647,289036584265","36,891404805651","14,8777233099006","-8,79923323516273","36,0592476340621"
"4584","106,065360217612","-474,412804794046","37,1245808294739","-134,385461982334","52,4689541652218","-2,15977821461932"
"4592","-211,172272597691","184,257919943762","-76,6153531088791","-95,6310364711222","41,48911805403","2,69785200345495"
"4592","-136,662393845425","4,33007109905172","-39,9662468168534","51,2479906166926","38,9174099539057","-25,7049121947827"
"4604","-114,348573627542","492,122274340296","-146,379860391826","12,8347558041727","35,6153507593239","-20,6465007328472"
"4604","-101,732879077898","312,294428894981","-106,904590476342","353,849228770481","83,235570428005","-39,3442266626794"
"4608","-96,8617736504096","265,042910222687","-97,0649577043198","244,081023562673","74,3457502981911","-35,1552920536798"
"4612","-94,9809681194626","252,627113262494","-94,6123241112995","172,380880156632","16,0716700341969","-62,6121455583079"
"4616","34,8560606170976","-450,743081451591","77,5714740035353","176,568133966601","22,5674265277648","-57,9562168850176"
"4620","4,98804921898605","-232,56045390448","22,4901252596087","-270,429571229936","-14,4736278905749","-61,8567155125483"
"4633","11,2083082504139","406,744643189704","-110,289762894627","-133,947484303446","-6,22756247594754","-59,320600399949"
"4633","2,61004185367627","239,728286978755","-75,3865686098281","-22,1157805772718","2,42852734550732","-50,8769985218487"
"4641","-13,6209576113762","75,9735342916901","1,59225879623636","-34,2135667647009","3,81111701056553","-50,5433053073867"
"4645","-11,8879855008564","101,945377361329","-18,2199460469922","255,467744204697","-2,95736944470903","-36,6493623734656"
"4653","9,76164912780845","80,9738881106212","6,60421860187941","165,514756910514","-1,38426304202929","-37,8727726883241"
"4654","5,12089184154484","91,4634249592569","-4,20809314316816","7,93548583138906","5,38699753668498","2,40388007989098"
"4661","3,32902711972387","94,2196529785585","-6,90317736211513","41,3919452694071","4,81529567635257","-2,1539789153032"
"4662","2,63716176602173","94,9438787479138","-7,57495589740791","-28,6520224380362","-4,43634983374874","38,7529848102537"
"4670","39,4893836981859","272,332682215698","-93,5286303686453","-2,00712116456692","-3,12047012751637","32,5932835355099"
"4670","30,7185692228027","216,94331884184","-65,9535020418138","60,5131159388588","-2,45423850100298","62,91018032279"
"4682","-8,17344745082275","-242,344281591078","-39,8219742211213","45,7891983931987","-2,11692455196615","57,0608969260036"
"4682","-1,1902277604112","-107,026574002841","-44,3084117279958","-130,646645421227","11,4971461032972","76,6273566468427"
"4694","72,5170483023816","-194,814585929532","-38,4237469439206","-79,4007821113457","9,38996798752082","71,9871877889008"
"4694","56,9765129051454","-146,881741488702","-40,9569313759531","-104,884582623598","-18,5634753829752","69,0560646131677"
"4703","-145,917920231816","-375,763315097686","-78,3538803000137","-88,9264663287305","-14,7163405386345","67,2045192633439"
"4703","-102,258448418477","-296,904178835152","-66,6754693605739","-53,4906956548874","-18,7433258427975","55,0884033356293"
"4711","-85,4008834802671","-276,18317236164","-63,7645006642007","-61,6988054708874","-16,7821938004315","55,4348395790413"
"4711","-78,8919294356343","-270,738526000742","-63,0389106164444","-45,0065410833463","9,60360756660841","29,6556852803458"
"4719","65,6431777926777","76,4029187852285","105,212924810943","-51,394003619169","5,9627735134368","32,3713906934418"
"4719","33,4503109245078","-31,3822839757125","51,1514923588976","177,813031243603","-0,361681610802563","-4,22597143892548"
"4731","-422,798279719692","75,8008436675313","-485,794952806972","107,149317490461","-0,56376156102624","0,656038763510415"
"4735","-323,962578674894","25,9642548714411","-320,634590888907","194,490639217908","-11,1219656960852","-30,4679557885544"
"4744","-524,655679928586","7,65748477938668","-97,3897172562199","156,625478523431","-9,46759834065345","-25,1285036146973"
"4744","-454,146241461242","5,84720255256022","-145,743547401392","-50,3363453206745","36,1809705582374","-31,3338617923986"
"4752","-748,084678832909","420,571954389831","62,7968976748011","6,47433967854416","29,2929010496602","-28,2536909462998"
"4756","-662,578637647017","290,544924103025","-11,222168387139","-65,7345659526964","-5,56220997605533","-20,8347328508632"
"4760","-629,563496097365","256,379054883576","-29,6722114074118","-34,6878973125771","-2,20939854578795","-20,1482913270581"
"4760","-616,815863808158","247,401639826524","-34,2710817466439","170,389787308728","-73,7031012402376","-3,29489190665296"
"4768","-553,793945364611","278,050301402282","148,410228889726","113,058462176384","-60,9004569757141","-4,6488591558221"
"4768","-565,460254676946","267,10353587852","88,9454972950368","-73,427322649002","-230,674906093013","1,33743762947446"
"4784","635,607512190604","-604,392961322039","-307,537893297047","-25,9585378917724","-198,631933046249","0,118889076907641"
"4785","352,35746229821","-333,387158012413","-188,365614348352","-329,997267168238","-283,980044170314","2,08578154494707"
"4793","522,192599905792","561,274138787702","44,4251100715801","-230,011634349919","-259,191905121371","1,32823721277856"
"4793","414,76844730152","322,355112295692","-13,5493147789835","194,061775609102","-157,019716647665","33,6892779016204"
"4805","324,873841936331","77,16658314887","483,215820772919","81,2450675570423","-165,289803199749","30,1312487129962"
"4805","320,164211136917","117,740907945325","315,039838144802","377,568378868149","-166,489561532993","37,4619043437984"
"4809","318,345753337529","128,402207150616","273,120177717462","269,450761221961","-169,097000755587","35,0925665611842"
"4813","317,643620005004","131,203567402819","262,671254494998","-39,6600361212927","-52,4149546014828","7,59789965261573"
"4817","436,800026361457","-231,143561352514","83,2420778107038","36,9240430530295","-72,3386811199684","9,22994218123403"
"4821","408,808069393804","-117,353800222006","139,517438538072","-171,162039778955","-6,24745716766054","-3,42227577019034"
"4834","418,980471215775","-177,790924993567","-114,318441946126","-95,6620188442771","-23,7853835271459","-1,41448691534554"
"4834","409,908185344443","-141,671368439749","-24,5897470866593","45,8577900939216","59,9444597123211","10,8003256272221"
"4842","-11,5910441287104","114,507513322756","-54,7460907364189","14,9636540735191","40,3369895043187","10,516234514778"
"4846","84,6618969369164","39,8210107684528","-32,2628815752361","-14,2573218362812","58,789976543772","3,49520150027941"
"4854","171,857018310027","362,43273485009","-16,1542655886268","-10,3318911693896","49,1327481596711","4,060123119207"
"4854","174,524338591103","250,202108951166","-18,1390209528557","18,3315690946151","69,6361583569995","-12,0028094838874"
"4862","175,554230227023","220,712418396658","-18,633742432104","10,2520813301726","63,0170619153868","-10,1495165250726"
"4862","175,951886552461","212,963714849519","-18,7570570463082","156,25529911721","143,31293100167","10,1775957832823"
"4866","-382,298877750975","264,782115416735","-115,078456922785","110,600053807041","127,966835161975","9,01791944537713"
"4870","-251,847717903806","247,397905095507","-84,0875949198355","-33,0148454901097","172,476540600082","19,2318930273309"
"4883","-225,686883367268","-2,12084162732432","-58,8553983035886","3,30035872408936","160,011863022956","17,6839027707152"
"4883","-200,585799943196","73,3156763064543","-62,5660037214391","-79,7430354283688","35,6987843033994","23,5476382115515"
"4895","-166,685622898096","-92,7473509054377","-329,603287828734","-48,690237664547","51,7589089941659","22,2516695460115"
"4895","-168,596265372246","-29,3820294595244","-244,165183863379","-52,1751900216761","107,688529153673","39,2211264002814"
"4903","14,6489288231492","-113,49210863959","92,2642532703209","-46,138179400165","104,005769424695","36,9404708439691"
"4904","-28,5974034739821","-77,5928515310104","-3,87711518184647","-144,442970186602","48,3680306923564","36,8681312746351"
"4912","-45,2954491616434","-68,1599719155819","-27,8413784229692","-113,60732128261","56,1985703719256","35,8224354832342"
"4912","-51,7428104747718","-65,6813908806028","-33,8147270650321","-58,5474246827039","4,89633159335895","24,2153623057214"
"4920","-326,978843144684","-85,8770026312276","-213,87905828526","-70,3328420506221","15,9219406035592","24,8833530115322"
"4920","-264,251528116808","-79,1835964091262","-156,762016611832","-6,36626704347374","6,56723410793859","11,6221583769421"
"4932","-28,6126170769331","-308,477792721414","195,367704279955","-27,6905211515142","11,8309339016095","13,2452660436329"
"4936","-68,6289638205027","-235,727077094859","90,1397992930625","-83,5694988222372","-40,7708992882714","-10,3591191796986"
"4944","-9,84114186005191","214,224465768974","-251,222457175381","-70,0104163623714","-30,4032766383417","-7,2696456487125"
"4945","-33,1422981701602","84,4536180818898","-156,310646643616","92,3141738503042","-38,5974238095105","-32,6843809624258"
"4952","95,0410306803032","-10,4483456155906","-53,8695946211528","45,1689782273571","-33,7461313029703","-28,7384776911785"
"4956","59,5345014059934","-0,384761322425335","-73,3350679456224","142,456465720258","-47,7206010520259","-46,7706424973145"
"4961","45,8249076314472","2,25954351235232","-78,1870451368221","105,339707588367","-43,7958934715986","-43,1612831808834"
"4961","40,5314316059246","2,95436037437011","-79,3964522892456","5,45236175626422","-67,201686493865","-54,5644605822846"
"4969","-21,2262126195981","-45,5057968866143","51,6075387725292","29,8507066332062","-62,0520702950621","-51,7676720561591"
"4969","-8,07174841567089","-30,239175413223","9,2616831641184","7,29022210375871","-41,5204286263719","-44,5277222061327"
"4985","87,3849593273206","145,759063462705","3,95874418801526","18,0561320075259","-43,1252314368912","-43,9543574329443"
"4985","68,2421997548962","93,0043156923755","-0,363070007277489","57,2281679347861","-42,4440465268873","-32,6456484823562"
"4993","181,892294063423","75,6680111504485","-94,2295121278235","47,052492248595","-43,0991617107458","-33,5021112733697"
"4994","150,774268935467","73,1127282033449","-64,6267256759489","42,5169975500276","-67,3300263397097","-18,9916561440213"
"5001","-12,9460746504469","11,6378937573548","25,0368329789632","42,2637140691276","-63,5981449808901","-20,825625203731"
"5006","17,8390899638822","30,484781982548","0,386432920545061","-7,79276767367286","-66,1897845920647","-8,30096113088241"
"5010","29,7256953226987","35,4369855118849","-5,75794265377205","7,37523254468528","-64,5019351369144","-10,3893238055804"
"5014","34,3152886780151","36,7382252445637","-7,28949391090355","-24,6305418584527","-14,3553181538596","8,81622077596861"
"5022","95,8011534401349","101,358028127861","55,355365958955","-12,4746285609537","-21,9660199995308","5,94806738521476"
"5022","82,5417511835264","81,3375110048246","34,9702665661939","20,1868153943862","-3,41384809194954","17,8194531499872"
"5034","-25,8665568894661","11,7990355825114","-141,683390235968","12,2120818519783","-9,02085904682394","15,3184246332417"
"5035","-3,72460091242613","30,5271235673088","-87,7162015248996","-7,22828063008511","-8,87229870150324","21,9484558959289"
"5043","4,82473432318463","35,4481111758664","-74,2643031644262","-2,60019412150053","-10,7970824032127","20,136544494609"
"5043","8,12575854374796","36,7411486211857","-70,911273780789","-80,6102440261283","18,1023707630902","20,3603033859671"
"5055","-42,2439962089504","37,0809068095807","41,9718208534399","-56,1665930877936","12,734201922992","19,5016484301487"
"5055","-29,6925001967126","37,170181584259","6,10913821056807","-54,58314813581","17,4847843982839","20,3275647311545"
"5059","-24,8461827698184","37,1936394012185","-2,83001858762339","-51,1455982028639","14,890010555667","19,8492833334743"
"5063","-22,9749482508959","37,1998031712027","-5,05819892366792","68,737671187282","24,0321639357071","15,4422141220352"
"5076","-48,0746014552053","-169,530167676358","-98,4027804368468","32,8647567972392","21,6608482199706","15,6583364015941"
"5076","-41,7659471413646","-104,850481938237","-68,6699146531356","-11,5213714469551","15,9791519002268","11,6899112942776"
"5084","-34,4884269919656","-9,67945274741875","-57,7572015643654","-3,78649465989294","16,1025015783701","12,1831182961505"
"5084","-34,6784693032392","-29,6723374603769","-57,0370912378284","-72,3196911290207","-15,2027186884776","2,91646171018659"
"5092","12,050825546795","38,0384280091763","2,66754070562909","-50,2573216933689","-10,0525928965525","4,06285751770357"
"5096","1,09369436158746","13,830091424689","-16,4504419105721","23,0623393353192","-5,95137874795377","0,68207186512407"
"5104","-27,3452944591338","73,4842448155881","-22,966542646425","4,32260334168299","-4,87492862872219","1,54648165669862"
"5104","-23,3260067973866","51,1589549020585","-23,5907503715037","43,9597684609895","-14,7858113075074","-6,1173764390309"
"5112","-21,7741006485232","45,2927674348106","-23,7463408158853","28,9126209225792","-12,8037042471104","-4,95851751980731"
"5112","-21,1748868331495","43,7513695163879","-23,7851233964434","19,5836585920481","-11,800160834656","-5,59479960242081"
"5120","29,0869219795858","-8,77085547988527","-11,5396151555392","20,0058065252194","-11,2920654846102","-4,99672919070724"
"5121","17,4937464504605","7,42841811438967","-15,4872913980262","-7,45629670862629","-11,0348161404023","-0,513991104711792"
"5133","-35,3991075870179","-7,42470771309222","-46,2338602531489","0,955159456316538","-10,9045704589775","-0,682314522056089"
"5133","-25,8218173604244","-0,327511256343306","-36,8977710302464","-26,0229475962183","-12,3323255834552","10,1578814258819"
"5145","6,92605037448677","58,8662747101305","-60,8317407897133","-16,4777498089895","-12,055199881416","9,00546618954957"
"5145","1,57048430830517","41,4200187699132","-51,7975384578242","-0,0507686326982721","-19,3833841955798","20,592341904655"
"5153","39,849753274623","-50,0261677676348","-35,5397524773979","-3,51153630688313","-18,0936535552267","18,9115927730269"
"5153","29,6299426719155","-24,054544351855","-39,4873256269666","-11,3625313997613","-5,49107176043696","23,3231510707942"
"5162","25,6839233149266","-17,2302472262261","-40,4713004095485","-9,53197996325296","-7,11036801704473","22,1098644779046"
"5162","24,1603071373816","-15,4370966590355","-40,7165666366894","-45,2232628602982","-10,9176172108892","22,7117654376393"
"5169","70,3746894812204","-98,3534611522452","38,0055673651651","-34,0857581865794","-10,8452324867714","22,0919770003186"
"5170","59,2187429954569","-72,1405438778791","12,6279003160629","-36,1791719713393","-12,3022826900587","23,0687816008045"
"5186","-91,952292265787","-21,8218380451104","-49,7214124442954","-33,7576404934074","-12,0399891249632","22,6858140171456"
"5186","-59,3216549229467","-33,6001077711649","-33,2626447769275","13,4506442402828","9,00459203291851","16,9706376663474"
"5194","-87,0696172530698","-156,564540560733","7,60540454658052","-0,504392122775104","5,6594911606299","17,3604488201905"
"5194","-72,7835140881693","-119,8746434683","-3,20779753378102","-2,63688510882111","17,4091503470569","8,02847867006273"
"5202","-149,575588340228","-28,5837234711424","-51,4223258997152","-4,22615230240655","14,3580182516804","9,13361690539399"
"5206","-128,226138946486","-51,5961446833607","-37,4403122089352","-39,138754161509","-3,61745947021538","-6,5880691843226"
"5211","-19,9219151012868","-57,6428825948956","-33,9551459155769","-28,7860782338029","-1,71846749039602","-4,51921606064705"
"5211","-40,1040595312829","-59,2317219018773","-33,0864309821643","86,1133444120167","-38,0994724611339","-23,7370845249902"
"5219","-46,2827973956769","263,477482663868","-232,45417655151","52,86325438599","-31,5192231427863","-20,8767159411213"
"5219","-49,6684990649622","162,272470712014","-168,14871713827","176,39808448049","-47,6057171519912","-36,8579654699444"
"5231","-18,6980628260871","121,781945611809","-73,3366251240003","133,534197994661","-42,7503302331795","-33,9530745716167"
"5231","-26,7399213649709","119,142665593269","-94,703698236737","56,1901707185212","-46,2668361855226","-37,5913613759092"
"5239","-123,450347329956","-338,445018220265","80,296480077925","72,8178622552173","-44,0472477757139","-35,88961109451"
"5243","-102,791666823624","-195,680640975929","20,9171441884266","-148,388495722717","-53,3793580340006","-38,9195878823739"
"5251","260,239714485798","-274,563006865383","91,9024368156459","-78,5139721589159","-51,1042177356385","-37,8335775359273"
"5252","180,411476324699","-228,290117149722","60,596279395109","58,0040108998696","-75,3451888430813","-54,9356618255068"
"5260","375,53255667362","108,732463347576","-25,9903840397888","27,7277311078106","-70,6184244076122","-52,7387849766673"
"5260","310,871678888805","10,288430394378","-2,57303497487238","255,504637014898","-48,8071744586845","-67,7708366048234"
"5268","248,785800533635","182,466690635181","8,51620741427647","181,445738807835","-50,7641099133923","-65,2663520170893"
"5268","247,813528706968","113,708206255772","8,28031955493519","152,36284221457","16,9552305709534","-60,9476768756929"
"5284","281,329711020359","670,667769151689","421,396000610815","149,326428041586","5,24162175368365","-60,2196363273963"
"5284","273,270802526102","486,014321437396","288,36949775616","186,408169639943","54,5778575190408","-40,6033286298206"
"5292","76,4929062514989","53,5647322191555","81,8880283875449","174,654887424202","42,5568585966646","-42,2120092888739"
"5292","120,514063011349","160,934388769452","129,420316142268","-64,7359568236084","97,7122570847531","-18,598510747097"
"5297","-98,1159703658708","-133,979875314382","-98,583039630217","6,11368681741669","84,637507904925","-21,6822275352314"
"5300","-36,532245506731","-25,4714719109758","-18,4153119970246","-196,662291618154","136,271993882607","6,47277503856823"
"5309","-164,459078420449","-297,502395837779","-17,6907818673773","-123,694940973229","123,414602066443","2,25785637577854"
"5309","-119,853512288146","-195,981171827882","-6,51018499183328","-8,73006166999983","103,461599514909","10,5418804537133"
"5317","-341,485667152099","-316,970902716012","-177,046494073982","-31,9620641988739","102,359368071736","7,77477083045162"
"5321","-279,06110560422","-263,762133457053","-120,554491087228","-72,8551564961583","65,9525384176952","15,6050381648681"
"5329","-535,774101118208","73,345676719179","-180,004307074668","-64,1550566096546","71,5197126649098","13,5512973978292"
"5330","-460,89476869892","-24,0759613053832","-152,822808859029","143,366009570662","74,3383803107731","30,0420812906991"
"5338","-380,338427068044","643,484416063531","-146,047530027297","81,7098588016376","75,7654754482769","27,4590553996617"
"5341","-381,23443739925","419,892410070347","-144,358719392816","302,539304705758","-22,0960975725939","31,3006593700335"
"5350","-162,092002735968","324,659386395183","-171,949594358591","225,560629840443","-5,64354074544238","29,7273414099063"
"5350","-213,477881913621","320,635981453291","-162,82691471899","-38,748495282783","-91,4166066914472","27,3651852876961"
"5358","-188,129938794559","-488,237926339247","-99,2771132867377","29,2155334762649","-71,8436228279475","26,8730476594157"
"5358","-206,342724716328","-235,777427454566","-118,436646326864","-412,224577947079","-115,706947982805","27,9304873092357"
"5370","228,829615904008","-586,378632730684","309,220246469692","-267,20677310393","-101,915007217854","27,5984556438841"
"5370","122,856064384285","-438,502515751186","168,818295996688","-158,187429293019","-172,604461048852","28,7570317637078"
"5378","-131,094740626756","390,797691303436","-233,833646587597","-168,062348838195","-156,394624526646","28,4888864482316"
"5379","-97,1488857819503","153,704401588159","-124,198945126487","220,482514856773","-88,4396155951772","36,5293956267696"
"5387","287,151721942096","37,5513814977464","234,018406290322","100,848280141703","-94,0339051676093","35,6084613934323"
"5391","205,535845281909","38,031043648765","134,307908250773","62,6189932853037","-111,803288181723","30,921775205732"
"5399","83,6451781182185","-19,1718488879639","-139,150981573326","55,0551767916267","-110,799950180203","30,9612677494906"
"5399","92,5813967271241","-1,20246629938362","-65,3135314399869","-55,6262620259385","-90,8738759335401","25,5129529522707"
"5407","357,481216919177","60,8480925141691","77,393733320476","-23,2106256139081","-93,7852783265517","26,0713364379304"
"5411","297,762938056337","44,1524814765361","41,9650437168096","40,904226300575","-84,8034343981513","29,1606894970395"
"5419","-40,0027974346332","112,729637733631","-120,930995505939","26,6209452309597","-87,2559150001656","29,1121862263185"
"5419","24,5808786051302","88,74895377087","-73,5345736296717","-1,45733321683839","8,59280532662498","40,0280707147902"
"5428","46,2898163463813","-89,5389899358557","25,8164567068997","4,78385657843356","-7,87886146776549","38,9234667633675"
"5428","56,6719568651056","-37,3858844211982","0,580762464071275","-77,9514644313029","9,17438959696151","31,3841284302595"
"5440","-76,4995942105857","-348,546075587481","-184,284914192049","-51,8135374795218","0,808473047282495","31,6216445650351"
"5440","-42,9190909873357","-243,306447828826","-128,364659165095","-129,050835967054","14,4971827035948","20,8251565906351"
"5448","-217,163856170096","83,1516138372105","563,110177213116","-101,393652294089","9,42779441224887","22,0051814804355"
"5448","-168,442325702888","-3,06834938186523","348,467667753975","-2,39657814299044","3,87375908207455","36,4337390940995"
"5456","103,749762846352","1513,47138176009","-18,4166085258868","-28,0409298759581","3,06174368719513","35,5480366355401"
"5460","51,8471361724284","1025,95697360977","69,1335658959212","557,816042599121","-97,4271926264672","65,0914909961717"
"5469","338,444970078579","852,689565771764","-362,485100659329","375,704637906045","-81,3048732911682","61,7536359350234"
"5469","259,104613806728","833,161866007118","-211,070664622448","-90,022803394926","-79,1169165376117","59,6451643197665"
"5477","130,023132194571","-2992,16054985515","178,569603797875","22,2837358964376","-74,0091511546828","58,3132752859704"
"5481","141,182871462592","-1798,30128939442","74,6916035373717","-1189,45046298827","-4,20664202585175","69,7867801683997"
"5489","445,674472329775","523,64660020048","38,2944662642078","-803,286364170878","-13,8655398176806","68,0344164284928"
"5489","377,243162961295","-22,2389662445111","35,2220909394137","325,559116766164","-11,2873590557828","97,030414210487"
"5497","-13,9172454397523","1913,80086811701","-56,5821758777074","44,4905570550997","-14,9820227440292","93,3467392633652"
"5501","61,0499611707797","1225,51419978765","-27,4653701996014","1097,55242033375","80,2377786519136","107,439603440174"
"5509","125,501379567459","54,4332250731488","401,720479899609","732,542736788038","63,4476893753926","104,341848609636"
"5510","128,387021235937","316,720287699848","267,699638369353","-693,823489234532","84,8208187715071","64,0722132102838"
"5518","232,789867595706","-1608,71304445191","10,1988792925162","-318,968196172974","75,642062304493","66,6345049692707"
"5518","209,101343872111","-966,639414314864","74,0140640079661","-620,448196629181","73,9822431978211","57,3065419384926"
"5530","56,319066552014","1606,41220251215","-454,559246754092","-468,755515787292","71,1418746003584","59,4142114093787"
"5530","86,3275796109323","898,506587206583","-275,311791629047","1012,42764450845","-52,7794998735182","47,062439669324"
"5538","256,075065351139","966,134566143489","-46,8048201947339","586,719796822556","-33,5210548078153","49,2600157668679"
"5538","223,617069070229","837,904476590858","-94,8470162436904","53,679875119982","59,8766475896219","38,3333520648281"
"5550","-469,975027418473","-2449,64022802259","329,112042853956","147,386101688595","51,1640271928979","40,4311469531169"
"5551","-315,78114878376","-1440,47463370855","185,78836782461","-1024,67240554467","130,399942346347","45,8612378844684"
"5559","-4,47851883742823","706,124656738991","-11,0046065079426","-653,544808312048","114,51719043592","46,2913426635177"
"5559","-40,2799895883305","187,164537233243","31,9426421443884","450,461602682498","-74,2618085579595","45,1947178185885"
"5567","-71,8562026385926","1892,27738010317","-395,037126341434","174,529316275936","-48,8408641171998","45,5019967999223"
"5571","-73,0482434464457","1280,31239455668","-251,466395399724","891,170732722611","-3,10883544604944","56,6426234554225"
"5579","91,1077901294506","-1974,51226406487","144,972442306148","629,198711731176","-1,95464916212722","55,6799856682729"
"5579","52,4908518356427","-1048,74915883524","37,7890580745715","-765,247994626203","-37,2190515522658","53,7035868024848"
"5587","-170,610917179326","-612,662213707709","12,8231937460346","-383,572449448094","-31,0734648782934","53,4551260896622"
"5591","-127,753795294729","-609,076119549654","5,60018533203557","-515,97162539573","6,39312348009169","83,4011162429893"
"5600","-151,553161361725","1420,96278038867","-262,312602747834","-414,557204506285","2,36250645916648","80,3175368401531"
"5600","-135,742447037875","786,375282486897","-177,092727501346","902,773195120606","7,79029318026665","108,472626198129"
"5608","202,822669289119","1194,65775851916","12,2202112312266","518,788267007077","5,53838873827181","104,257762355566"
"5608","127,547645960759","970,937957489649","-36,5915162095469","33,4746650341398","-65,805591607511","90,648774548017"
"5620","-70,975102856009","-2220,09078138199","129,817049484655","119,369002734312","-54,9271427208741","90,052186625855"
"5620","-42,6276593550574","-1255,5646765968","69,296162358502","-947,980473379787","-12,0769026287045","86,9387004128294"
"5628","-5,86012960737566","-20,5852994954481","-106,857332441385","-609,91885511432","-15,3817696937689","86,9719591420446"
"5628","-7,66364498225153","-261,082434255108","-58,7654730076233","193,649911119353","14,3126441342911","84,2563373545452"
"5636","132,048010129529","1201,02154470807","-151,822422212774","3,69833745880581","8,34696492313717","84,540920911404"
"5640","98,9927373754509","707,203612238996","-115,017861003282","719,967208906754","-18,5726452597336","62,8276414450703"
"5649","-7,37573613215593","-843,61439061686","191,781752845769","471,892243358259","-16,2020793123271","65,1116973461809"
"5649","9,55383000645926","-433,106932374283","98,2548343810224","-356,797197419503","-0,0648718108827264","46,0297691606796"
"5657","-19,4148912826165","-615,361220363091","17,1678532966539","-144,787165647454","-1,89458242185196","48,9760091242391"
"5661","-8,60014112703389","-496,25031045747","29,9560569449042","-413,700599470866","19,5845129536674","45,3638418873819"
"5669","48,8338072376732","549,595551140087","-50,8918338472223","-298,008869417564","15,459407201441","47,0820914971015"
"5669","38,0099003969137","240,401742223801","-23,0440343892397","447,56024888432","7,39606599449236","45,4308524878908"
"5677","33,8306305872985","-54,5224953818187","-110,642595929441","239,581757438182","7,31358573281323","46,3877902466778"
"5677","32,2169529754597","-9,01671261844608","-78,4774732781809","121,782983481083","10,2592232364928","44,2556422708872"
"5690","31,5938882886672","-773,606019114181","164,139095559959","124,231902004275","9,75060338005798","44,9087972449276"
"5690","31,353313838678","-527,509309720004","90,6138674079153","-481,823991799705","15,4678832149423","49,4263314002482"
"5698","60,3103594571961","103,495322078319","25,0169572251403","-297,294111530305","14,3625495173304","49,2799881237879"
"5698","53,4911011532908","-56,7020622706529","35,6662265383143","138,075523146628","13,8029176119881","62,8706994023929"
"5710","-26,608408105237","775,036362652471","-159,512872042255","35,380276539548","13,519575242029","61,4557423228102"
"5710","-9,53600806836412","490,583738440667","-95,1633476164292","356,908167491927","32,7942015237803","67,4035127719146"
"5718","-41,6773496368121","-723,788568132753","36,4252537133696","242,755277049017","29,5529701690512","66,1606277263567"
"5719","-30,0875948868647","-386,876724792114","3,22511846011855","-330,021401624509","20,4434370480903","64,0072009852468"
"5726","-33,6820462993353","-390,423588568774","45,7210702149145","-174,295547519336","20,8312684439158","63,6469144910803"
"5731","-30,0699169167817","-338,355561587502","27,313640207723","-196,763699527112","15,0528332525086","63,4193270637074"
"5739","-12,5363678214302","417,127409083347","-103,327839149678","-164,97227557651","16,1272039126535","63,275563592312"
"5739","-15,766406340085","188,637921217069","-63,8916236259527","335,059143998262","15,1774605070476","54,9748579794523"
"5747","-44,4496214540731","-3,43017761044537","-59,3139435269479","188,2317491348","15,6966041712516","55,7314301341169"
"5751","-38,5246331603065","22,1020578694039","-55,1729078552872","30,4495449011671","9,98465255408659","42,5261910359791"
"5759","28,3185030767977","-363,805396273597","5,38442627889856","54,8499282577045","11,0926839353399","44,1846449529309"
"5759","14,1276222207064","-239,206340215621","-13,5210112061705","-262,457931305741","-1,7896064776171","32,9174260757533"
"5767","-5,87665331181007","87,1268791111829","2,77547831339848","-162,138928678795","0,688072937611663","34,800097506896"
"5768","-4,60059865116273","3,87411235098273","-5,16244756553836","86,2120409401436","3,43622396966304","37,357667450488"
"5780","70,1308275082179","379,826655226042","6,86485413164552","26,838329443406","3,82761645281811","37,973244978963"
"5780","52,985731543541","249,611849229599","1,86278757686287","143,154475485454","-6,43011180841431","31,5205187835933"
"5788","-53,6951295350025","-316,198878156902","-85,1702574471305","98,2958655839791","-4,62361312274064","32,44443106417"
"5788","-32,8861808373282","-158,871160160177","-57,8641737623444","-179,545329173421","17,2028011193359","37,1329984384281"
"5800","-10,3265718623472","-53,2538797571499","-12,5415757148149","-102,320588069202","14,2535433662002","37,0946942112344"
"5800","-10,615974654431","-62,5019101735622","-23,2444339342404","-55,1261593878447","17,2414263385978","38,4388134282365"
"5809","-23,6387995364968","221,712721923917","-69,6807185977378","-57,0850245639985","15,7541954185555","38,2878728285555"
"5809","-20,667103980191","131,39288595656","-56,2554586657389","123,359262604186","6,03901634099977","34,08757975582"
"5817","-58,2529351767303","-368,343361124497","41,630853880213","68,2210438123277","7,12020839217821","34,4343193363648"
"5821","-48,7653780404727","-225,653929583447","12,0300630793318","-115,935052507864","3,18652129714367","41,4949264229277"
"5829","98,5336969757827","-174,262969002997","58,9246685259451","-68,8225099439891","4,19489034553997","40,9550031355989"
"5829","66,4080387690363","-168,759493345815","39,6136499457419","-78,2117405357486","-17,7000513437149","32,4040494707121"
"5837","23,3400288644966","251,361500153889","-36,9801397147993","-67,8062464013887","-13,7854891272443","33,0025437865233"
"5841","25,7108360783524","120,752384946036","-15,0719600998357","181,554199392542","4,62714440094037","34,748918831884"
