Timer,AX,AY,AZ,GX,GY,GZ
"1006","7,19960079840319","-1,80039920159681","-22,8003992015968","-3,1187624750499","-1,00898203592814","-0,0459081836327345"
"1006","7,19960079840319","-1,80039920159681","-22,8003992015968","-1,1187624750499","-2,00898203592814","1,95409181636727"
"1014","4,19960079840319","0,199600798403194","-30,8003992015968","-1,1187624750499","-2,00898203592814","1,95409181636727"
"1018","4,19960079840319","0,199600798403194","-30,8003992015968","-2,1187624750499","-0,00898203592814371","-0,0459081836327345"
"1026","5,19960079840319","0,199600798403194","-27,8003992015968","-2,1187624750499","-0,00898203592814371","-0,0459081836327345"
"1026","5,19960079840319","0,199600798403194","-27,8003992015968","-1,1187624750499","-0,00898203592814371","1,95409181636727"
"1034","4,19960079840319","0,199600798403194","-26,8003992015968","-1,1187624750499","-0,00898203592814371","1,95409181636727"
"1034","4,19960079840319","0,199600798403194","-26,8003992015968","-3,1187624750499","-0,00898203592814371","-0,0459081836327345"
"1047","7,19960079840319","1,19960079840319","-23,8003992015968","-3,1187624750499","-0,00898203592814371","-0,0459081836327345"
"1047","7,19960079840319","1,19960079840319","-23,8003992015968","-3,1187624750499","-1,00898203592814","-0,0459081836327345"
"1055","4,19960079840319","1,19960079840319","-30,8003992015968","-3,1187624750499","-1,00898203592814","-0,0459081836327345"
"1055","4,19960079840319","1,19960079840319","-30,8003992015968","-0,1187624750499","1,99101796407186","1,95409181636727"
"1063","5,19960079840319","-0,800399201596806","-31,8003992015968","-0,1187624750499","1,99101796407186","1,95409181636727"
"1067","5,19960079840319","-0,800399201596806","-31,8003992015968","-5,1187624750499","-0,00898203592814371","1,95409181636727"
"1075","6,19960079840319","0,199600798403194","-26,8003992015968","-5,1187624750499","-0,00898203592814371","1,95409181636727"
"1075","6,19960079840319","0,199600798403194","-26,8003992015968","-0,1187624750499","-2,00898203592814","0,954091816367265"
"1083","5,19960079840319","-2,80039920159681","-26,8003992015968","-0,1187624750499","-2,00898203592814","0,954091816367265"
"1087","5,19960079840319","-2,80039920159681","-26,8003992015968","-1,1187624750499","-1,00898203592814","0,954091816367265"
"1096","7,19960079840319","-0,800399201596806","-27,8003992015968","-1,1187624750499","-1,00898203592814","0,954091816367265"
"1096","7,19960079840319","-0,800399201596806","-27,8003992015968","-1,1187624750499","-1,00898203592814","-0,0459081836327345"
"1104","1,19960079840319","1,19960079840319","-33,8003992015968","-1,1187624750499","-1,00898203592814","-0,0459081836327345"
"1104","1,19960079840319","1,19960079840319","-33,8003992015968","-2,1187624750499","0,991017964071856","-0,0459081836327345"
"1116","2,19960079840319","1,19960079840319","-32,8003992015968","-2,1187624750499","0,991017964071856","-0,0459081836327345"
"1116","2,19960079840319","1,19960079840319","-32,8003992015968","-3,1187624750499","-2,00898203592814","-0,0459081836327345"
"1124","8,19960079840319","1,19960079840319","-24,8003992015968","-3,1187624750499","-2,00898203592814","-0,0459081836327345"
"1124","8,19960079840319","1,19960079840319","-24,8003992015968","-0,1187624750499","-1,00898203592814","-0,0459081836327345"
"1136","0,199600798403194","0,199600798403194","-29,8003992015968","-0,1187624750499","-1,00898203592814","-0,0459081836327345"
"1137","0,199600798403194","0,199600798403194","-29,8003992015968","-1,1187624750499","0,991017964071856","0,954091816367265"
"1145","6,19960079840319","-3,80039920159681","-25,8003992015968","-1,1187624750499","0,991017964071856","0,954091816367265"
"1145","6,19960079840319","-3,80039920159681","-25,8003992015968","1,8812375249501","-0,00898203592814371","-1,04590818363273"
"1153","6,19960079840319","-0,800399201596806","-25,8003992015968","1,8812375249501","-0,00898203592814371","-1,04590818363273"
"1157","6,19960079840319","-0,800399201596806","-25,8003992015968","-0,1187624750499","-1,00898203592814","-0,0459081836327345"
"1165","0,199600798403194","-3,80039920159681","-30,8003992015968","-0,1187624750499","-1,00898203592814","-0,0459081836327345"
"1165","0,199600798403194","-3,80039920159681","-30,8003992015968","0,8812375249501","2,99101796407186","0,954091816367265"
"1173","5,19960079840319","1,19960079840319","-26,8003992015968","0,8812375249501","2,99101796407186","0,954091816367265"
"1177","5,19960079840319","1,19960079840319","-26,8003992015968","0,8812375249501","-0,00898203592814371","1,95409181636727"
"1186","7,19960079840319","1,19960079840319","-24,8003992015968","0,8812375249501","-0,00898203592814371","1,95409181636727"
"1186","7,19960079840319","1,19960079840319","-24,8003992015968","-1,1187624750499","-1,00898203592814","-1,04590818363273"
"1194","4,19960079840319","1,19960079840319","-25,8003992015968","-1,1187624750499","-1,00898203592814","-1,04590818363273"
"1194","4,19960079840319","1,19960079840319","-25,8003992015968","0,8812375249501","1,99101796407186","-0,0459081836327345"
"1206","5,19960079840319","-0,800399201596806","-27,8003992015968","0,8812375249501","1,99101796407186","-0,0459081836327345"
"1206","5,19960079840319","-0,800399201596806","-27,8003992015968","1,8812375249501","0,991017964071856","-1,04590818363273"
"1214","4,19960079840319","1,19960079840319","-28,8003992015968","1,8812375249501","0,991017964071856","-1,04590818363273"
"1214","4,19960079840319","1,19960079840319","-28,8003992015968","1,8812375249501","1,99101796407186","0,954091816367265"
"1227","8,19960079840319","-1,80039920159681","-23,8003992015968","1,8812375249501","1,99101796407186","0,954091816367265"
"1227","8,19960079840319","-1,80039920159681","-23,8003992015968","1,8812375249501","0,991017964071856","0,954091816367265"
"1235","5,19960079840319","1,19960079840319","-29,8003992015968","1,8812375249501","0,991017964071856","0,954091816367265"
"1235","5,19960079840319","1,19960079840319","-29,8003992015968","0,8812375249501","-0,00898203592814371","0,954091816367265"
"1243","6,19960079840319","1,19960079840319","-26,8003992015968","0,8812375249501","-0,00898203592814371","0,954091816367265"
"1247","6,19960079840319","1,19960079840319","-26,8003992015968","-0,1187624750499","-0,00898203592814371","1,95409181636727"
"1256","6,19960079840319","-2,80039920159681","-28,8003992015968","-0,1187624750499","-0,00898203592814371","1,95409181636727"
"1256","6,19960079840319","-2,80039920159681","-28,8003992015968","0,8812375249501","-4,00898203592814","1,95409181636727"
"1264","5,19960079840319","-0,800399201596806","-29,8003992015968","0,8812375249501","-4,00898203592814","1,95409181636727"
"1268","5,19960079840319","-0,800399201596806","-29,8003992015968","-1,1187624750499","-1,00898203592814","0,954091816367265"
"1276","2,19960079840319","-3,80039920159681","-29,8003992015968","-1,1187624750499","-1,00898203592814","0,954091816367265"
"1276","2,19960079840319","-3,80039920159681","-29,8003992015968","-3,1187624750499","-0,00898203592814371","-0,0459081836327345"
"1284","7,19960079840319","1,19960079840319","-25,8003992015968","-3,1187624750499","-0,00898203592814371","-0,0459081836327345"
"1284","7,19960079840319","1,19960079840319","-25,8003992015968","-0,1187624750499","0,991017964071856","-0,0459081836327345"
"1296","8,19960079840319","1,19960079840319","-23,8003992015968","-0,1187624750499","0,991017964071856","-0,0459081836327345"
"1297","8,19960079840319","1,19960079840319","-23,8003992015968","2,8812375249501","-0,00898203592814371","-0,0459081836327345"
"1305","4,19960079840319","0,199600798403194","-31,8003992015968","2,8812375249501","-0,00898203592814371","-0,0459081836327345"
"1305","4,19960079840319","0,199600798403194","-31,8003992015968","-2,1187624750499","1,99101796407186","-2,04590818363273"
"1317","5,19960079840319","0,199600798403194","-31,8003992015968","-2,1187624750499","1,99101796407186","-2,04590818363273"
"1317","5,19960079840319","0,199600798403194","-31,8003992015968","0,8812375249501","-0,00898203592814371","-1,04590818363273"
"1325","6,19960079840319","-0,800399201596806","-27,8003992015968","0,8812375249501","-0,00898203592814371","-1,04590818363273"
"1325","6,19960079840319","-0,800399201596806","-27,8003992015968","-2,1187624750499","1,99101796407186","0,954091816367265"
"1333","7,19960079840319","-0,800399201596806","-26,8003992015968","-2,1187624750499","1,99101796407186","0,954091816367265"
"1337","7,19960079840319","-0,800399201596806","-26,8003992015968","1,8812375249501","0,991017964071856","0,954091816367265"
"1346","0,199600798403194","1,19960079840319","-33,8003992015968","1,8812375249501","0,991017964071856","0,954091816367265"
"1346","0,199600798403194","1,19960079840319","-33,8003992015968","-0,1187624750499","-0,00898203592814371","0,954091816367265"
"1354","1,19960079840319","3,19960079840319","-33,8003992015968","-0,1187624750499","-0,00898203592814371","0,954091816367265"
"1358","1,19960079840319","3,19960079840319","-33,8003992015968","-2,1187624750499","2,99101796407186","-3,04590818363273"
"1366","11,1996007984032","-1,80039920159681","-28,8003992015968","-2,1187624750499","2,99101796407186","-3,04590818363273"
"1366","11,1996007984032","-1,80039920159681","-28,8003992015968","-0,1187624750499","-1,00898203592814","-0,0459081836327345"
"1374","-1,80039920159681","1,19960079840319","-31,8003992015968","-0,1187624750499","-1,00898203592814","-0,0459081836327345"
"1375","-1,80039920159681","1,19960079840319","-31,8003992015968","-0,1187624750499","-1,00898203592814","-0,0459081836327345"
"1387","5,19960079840319","2,19960079840319","-29,8003992015968","-0,1187624750499","-1,00898203592814","-0,0459081836327345"
"1387","5,19960079840319","2,19960079840319","-29,8003992015968","-1,1187624750499","-0,00898203592814371","1,95409181636727"
"1395","9,19960079840319","2,19960079840319","-25,8003992015968","-1,1187624750499","-0,00898203592814371","1,95409181636727"
"1395","9,19960079840319","2,19960079840319","-25,8003992015968","-0,1187624750499","-2,00898203592814","-0,0459081836327345"
"1407","3,19960079840319","-0,800399201596806","-27,8003992015968","-0,1187624750499","-2,00898203592814","-0,0459081836327345"
"1407","3,19960079840319","-0,800399201596806","-27,8003992015968","-3,1187624750499","-1,00898203592814","0,954091816367265"
"1415","6,19960079840319","-2,80039920159681","-28,8003992015968","-3,1187624750499","-1,00898203592814","0,954091816367265"
"1416","6,19960079840319","-2,80039920159681","-28,8003992015968","-3,1187624750499","0,991017964071856","-0,0459081836327345"
"1423","8,19960079840319","1,19960079840319","-26,8003992015968","-3,1187624750499","0,991017964071856","-0,0459081836327345"
"1427","8,19960079840319","1,19960079840319","-26,8003992015968","-0,1187624750499","-0,00898203592814371","3,95409181636727"
"1436","7,19960079840319","1,19960079840319","-25,8003992015968","-0,1187624750499","-0,00898203592814371","3,95409181636727"
"1436","7,19960079840319","1,19960079840319","-25,8003992015968","-3,1187624750499","0,991017964071856","-0,0459081836327345"
"1444","3,19960079840319","-0,800399201596806","-27,8003992015968","-3,1187624750499","0,991017964071856","-0,0459081836327345"
"1448","3,19960079840319","-0,800399201596806","-27,8003992015968","0,8812375249501","-2,00898203592814","-0,0459081836327345"
"1456","1,19960079840319","1,19960079840319","-32,8003992015968","0,8812375249501","-2,00898203592814","-0,0459081836327345"
"1456","1,19960079840319","1,19960079840319","-32,8003992015968","3,8812375249501","-0,00898203592814371","0,954091816367265"
"1465","6,19960079840319","0,199600798403194","-24,8003992015968","3,8812375249501","-0,00898203592814371","0,954091816367265"
"1465","6,19960079840319","0,199600798403194","-24,8003992015968","2,8812375249501","-1,00898203592814","0,954091816367265"
"1477","-0,800399201596806","0,199600798403194","-31,8003992015968","2,8812375249501","-1,00898203592814","0,954091816367265"
"1477","-0,800399201596806","0,199600798403194","-31,8003992015968","-1,1187624750499","1,99101796407186","0,954091816367265"
"1485","7,19960079840319","-0,800399201596806","-26,8003992015968","-1,1187624750499","1,99101796407186","0,954091816367265"
"1485","7,19960079840319","-0,800399201596806","-26,8003992015968","-0,1187624750499","0,991017964071856","2,95409181636727"
"1493","8,19960079840319","1,19960079840319","-23,8003992015968","-0,1187624750499","0,991017964071856","2,95409181636727"
"1497","8,19960079840319","1,19960079840319","-23,8003992015968","-1,1187624750499","1,99101796407186","-0,0459081836327345"
"1505","4,19960079840319","-0,800399201596806","-27,8003992015968","-1,1187624750499","1,99101796407186","-0,0459081836327345"
"1506","4,19960079840319","-0,800399201596806","-27,8003992015968","-2,1187624750499","2,99101796407186","-0,0459081836327345"
"1514","10,1996007984032","-3,80039920159681","-25,8003992015968","-2,1187624750499","2,99101796407186","-0,0459081836327345"
"1517","10,1996007984032","-3,80039920159681","-25,8003992015968","-2,1187624750499","0,991017964071856","-0,0459081836327345"
"1526","7,19960079840319","-1,80039920159681","-23,8003992015968","-2,1187624750499","0,991017964071856","-0,0459081836327345"
"1527","7,19960079840319","-1,80039920159681","-23,8003992015968","-1,1187624750499","2,99101796407186","2,95409181636727"
"1534","4,19960079840319","1,19960079840319","-32,8003992015968","-1,1187624750499","2,99101796407186","2,95409181636727"
"1534","4,19960079840319","1,19960079840319","-32,8003992015968","-2,1187624750499","1,99101796407186","2,95409181636727"
"1546","4,19960079840319","1,19960079840319","-29,8003992015968","-2,1187624750499","1,99101796407186","2,95409181636727"
"1546","4,19960079840319","1,19960079840319","-29,8003992015968","-0,1187624750499","-0,00898203592814371","0,954091816367265"
"1555","4,19960079840319","1,19960079840319","-28,8003992015968","-0,1187624750499","-0,00898203592814371","0,954091816367265"
"1555","4,19960079840319","1,19960079840319","-28,8003992015968","-1,1187624750499","1,99101796407186","0,954091816367265"
"1567","3,19960079840319","0,199600798403194","-22,8003992015968","-1,1187624750499","1,99101796407186","0,954091816367265"
"1567","3,19960079840319","0,199600798403194","-22,8003992015968","-0,1187624750499","-0,00898203592814371","-1,04590818363273"
"1575","5,19960079840319","0,199600798403194","-26,8003992015968","-0,1187624750499","-0,00898203592814371","-1,04590818363273"
"1575","5,19960079840319","0,199600798403194","-26,8003992015968","-0,1187624750499","0,991017964071856","1,95409181636727"
"1583","6,19960079840319","0,199600798403194","-33,8003992015968","-0,1187624750499","0,991017964071856","1,95409181636727"
"1587","6,19960079840319","0,199600798403194","-33,8003992015968","-2,1187624750499","-1,00898203592814","0,954091816367265"
"1596","5,19960079840319","-1,80039920159681","-21,8003992015968","-2,1187624750499","-1,00898203592814","0,954091816367265"
"1596","5,19960079840319","-1,80039920159681","-21,8003992015968","-0,1187624750499","-0,00898203592814371","-1,04590818363273"
"1604","1,19960079840319","-2,80039920159681","-28,8003992015968","-0,1187624750499","-0,00898203592814371","-1,04590818363273"
"1608","1,19960079840319","-2,80039920159681","-28,8003992015968","-1,1187624750499","-2,00898203592814","0,954091816367265"
"1616","9,19960079840319","-3,80039920159681","-24,8003992015968","-1,1187624750499","-2,00898203592814","0,954091816367265"
"1616","9,19960079840319","-3,80039920159681","-24,8003992015968","-2,1187624750499","1,99101796407186","-0,0459081836327345"
"1624","11,1996007984032","1,19960079840319","-21,8003992015968","-2,1187624750499","1,99101796407186","-0,0459081836327345"
"1624","11,1996007984032","1,19960079840319","-21,8003992015968","0,8812375249501","-2,00898203592814","0,954091816367265"
"1637","1,19960079840319","1,19960079840319","-29,8003992015968","0,8812375249501","-2,00898203592814","0,954091816367265"
"1637","1,19960079840319","1,19960079840319","-29,8003992015968","-4,1187624750499","1,99101796407186","1,95409181636727"
"1645","10,1996007984032","-1,80039920159681","-23,8003992015968","-4,1187624750499","1,99101796407186","1,95409181636727"
"1645","10,1996007984032","-1,80039920159681","-23,8003992015968","-2,1187624750499","0,991017964071856","0,954091816367265"
"1657","-0,800399201596806","0,199600798403194","-29,8003992015968","-2,1187624750499","0,991017964071856","0,954091816367265"
"1657","-0,800399201596806","0,199600798403194","-29,8003992015968","-3,1187624750499","1,99101796407186","-1,04590818363273"
"1665","5,19960079840319","4,19960079840319","-28,8003992015968","-3,1187624750499","1,99101796407186","-1,04590818363273"
"1665","5,19960079840319","4,19960079840319","-28,8003992015968","-0,1187624750499","-0,00898203592814371","0,954091816367265"
"1673","4,19960079840319","-0,800399201596806","-27,8003992015968","-0,1187624750499","-0,00898203592814371","0,954091816367265"
"1677","4,19960079840319","-0,800399201596806","-27,8003992015968","-1,1187624750499","-2,00898203592814","-1,04590818363273"
"1686","9,19960079840319","-4,80039920159681","-20,8003992015968","-1,1187624750499","-2,00898203592814","-1,04590818363273"
"1686","9,19960079840319","-4,80039920159681","-20,8003992015968","-0,1187624750499","-1,00898203592814","0,954091816367265"
"1694","10,1996007984032","1,19960079840319","-24,8003992015968","-0,1187624750499","-1,00898203592814","0,954091816367265"
"1698","10,1996007984032","1,19960079840319","-24,8003992015968","0,8812375249501","-2,00898203592814","0,954091816367265"
"1706","6,19960079840319","3,19960079840319","-30,8003992015968","0,8812375249501","-2,00898203592814","0,954091816367265"
"1706","6,19960079840319","3,19960079840319","-30,8003992015968","-2,1187624750499","0,991017964071856","-0,0459081836327345"
"1714","10,1996007984032","1,19960079840319","-24,8003992015968","-2,1187624750499","0,991017964071856","-0,0459081836327345"
"1715","10,1996007984032","1,19960079840319","-24,8003992015968","-1,1187624750499","-0,00898203592814371","1,95409181636727"
"1727","10,1996007984032","-2,80039920159681","-17,8003992015968","-1,1187624750499","-0,00898203592814371","1,95409181636727"
"1727","10,1996007984032","-2,80039920159681","-17,8003992015968","-3,1187624750499","-0,00898203592814371","0,954091816367265"
"1735","2,19960079840319","1,19960079840319","-31,8003992015968","-3,1187624750499","-0,00898203592814371","0,954091816367265"
"1735","2,19960079840319","1,19960079840319","-31,8003992015968","-2,1187624750499","-1,00898203592814","-2,04590818363273"
"1747","9,19960079840319","0,199600798403194","-29,8003992015968","-2,1187624750499","-1,00898203592814","-2,04590818363273"
"1747","9,19960079840319","0,199600798403194","-29,8003992015968","-1,1187624750499","-2,00898203592814","-2,04590818363273"
"1755","2,19960079840319","-0,800399201596806","-26,8003992015968","-1,1187624750499","-2,00898203592814","-2,04590818363273"
"1756","2,19960079840319","-0,800399201596806","-26,8003992015968","-1,1187624750499","-2,00898203592814","-1,04590818363273"
"1763","4,19960079840319","0,199600798403194","-28,8003992015968","-1,1187624750499","-2,00898203592814","-1,04590818363273"
"1768","4,19960079840319","0,199600798403194","-28,8003992015968","-1,1187624750499","0,991017964071856","0,954091816367265"
"1776","3,19960079840319","0,199600798403194","-28,8003992015968","-1,1187624750499","0,991017964071856","0,954091816367265"
"1776","3,19960079840319","0,199600798403194","-28,8003992015968","1,8812375249501","1,99101796407186","-0,0459081836327345"
"1784","8,19960079840319","-0,800399201596806","-22,8003992015968","1,8812375249501","1,99101796407186","-0,0459081836327345"
"1788","8,19960079840319","-0,800399201596806","-22,8003992015968","0,8812375249501","-0,00898203592814371","-1,04590818363273"
"1796","12,1996007984032","-0,800399201596806","-22,8003992015968","0,8812375249501","-0,00898203592814371","-1,04590818363273"
"1797","12,1996007984032","-0,800399201596806","-22,8003992015968","-2,1187624750499","-5,00898203592814","-2,04590818363273"
"1804","0,199600798403194","1,19960079840319","-34,8003992015968","-2,1187624750499","-5,00898203592814","-2,04590818363273"
"1805","0,199600798403194","1,19960079840319","-34,8003992015968","-2,1187624750499","-0,00898203592814371","-1,04590818363273"
"1817","10,1996007984032","-4,80039920159681","-25,8003992015968","-2,1187624750499","-0,00898203592814371","-1,04590818363273"
"1817","10,1996007984032","-4,80039920159681","-25,8003992015968","-0,1187624750499","-1,00898203592814","-1,04590818363273"
"1825","0,199600798403194","-0,800399201596806","-34,8003992015968","-0,1187624750499","-1,00898203592814","-1,04590818363273"
"1825","0,199600798403194","-0,800399201596806","-34,8003992015968","-2,1187624750499","-0,00898203592814371","0,954091816367265"
"1837","2,19960079840319","1,19960079840319","-28,8003992015968","-2,1187624750499","-0,00898203592814371","0,954091816367265"
"1837","2,19960079840319","1,19960079840319","-28,8003992015968","-2,1187624750499","-0,00898203592814371","1,95409181636727"
"1845","9,19960079840319","-1,80039920159681","-22,8003992015968","-2,1187624750499","-0,00898203592814371","1,95409181636727"
"1846","9,19960079840319","-1,80039920159681","-22,8003992015968","-2,1187624750499","-2,00898203592814","0,954091816367265"
"1854","2,19960079840319","-0,800399201596806","-29,8003992015968","-2,1187624750499","-2,00898203592814","0,954091816367265"
"1858","2,19960079840319","-0,800399201596806","-29,8003992015968","-1,1187624750499","-0,00898203592814371","0,954091816367265"
"1866","1,19960079840319","3,19960079840319","-36,8003992015968","-1,1187624750499","-0,00898203592814371","0,954091816367265"
"1866","1,19960079840319","3,19960079840319","-36,8003992015968","2,8812375249501","-0,00898203592814371","1,95409181636727"
"1874","6,19960079840319","2,19960079840319","-26,8003992015968","2,8812375249501","-0,00898203592814371","1,95409181636727"
"1878","6,19960079840319","2,19960079840319","-26,8003992015968","0,8812375249501","-3,00898203592814","0,954091816367265"
"1886","2,19960079840319","2,19960079840319","-25,8003992015968","0,8812375249501","-3,00898203592814","0,954091816367265"
"1887","2,19960079840319","2,19960079840319","-25,8003992015968","1,8812375249501","2,99101796407186","2,95409181636727"
"1895","1,19960079840319","-1,80039920159681","-26,8003992015968","1,8812375249501","2,99101796407186","2,95409181636727"
"1895","1,19960079840319","-1,80039920159681","-26,8003992015968","1,8812375249501","-0,00898203592814371","0,954091816367265"
"1907","8,19960079840319","-4,80039920159681","-30,8003992015968","1,8812375249501","-0,00898203592814371","0,954091816367265"
"1907","8,19960079840319","-4,80039920159681","-30,8003992015968","-4,1187624750499","0,991017964071856","-1,04590818363273"
"1915","6,19960079840319","0,199600798403194","-31,8003992015968","-4,1187624750499","0,991017964071856","-1,04590818363273"
"1915","6,19960079840319","0,199600798403194","-31,8003992015968","-0,1187624750499","0,991017964071856","-0,0459081836327345"
"1927","7,19960079840319","1,19960079840319","-23,8003992015968","-0,1187624750499","0,991017964071856","-0,0459081836327345"
"1927","7,19960079840319","1,19960079840319","-23,8003992015968","-0,1187624750499","-2,00898203592814","-1,04590818363273"
"1936","2,19960079840319","1,19960079840319","-30,8003992015968","-0,1187624750499","-2,00898203592814","-1,04590818363273"
"1936","2,19960079840319","1,19960079840319","-30,8003992015968","0,8812375249501","0,991017964071856","3,95409181636727"
"1944","9,19960079840319","-0,800399201596806","-27,8003992015968","0,8812375249501","0,991017964071856","3,95409181636727"
"1948","9,19960079840319","-0,800399201596806","-27,8003992015968","0,8812375249501","-1,00898203592814","-1,04590818363273"
"1956","4,19960079840319","-2,80039920159681","-27,8003992015968","0,8812375249501","-1,00898203592814","-1,04590818363273"
"1956","4,19960079840319","-2,80039920159681","-27,8003992015968","-3,1187624750499","-0,00898203592814371","-0,0459081836327345"
"1964","8,19960079840319","1,19960079840319","-30,8003992015968","-3,1187624750499","-0,00898203592814371","-0,0459081836327345"
"1968","8,19960079840319","1,19960079840319","-30,8003992015968","0,8812375249501","0,991017964071856","-1,04590818363273"
"1977","2,19960079840319","4,19960079840319","-27,8003992015968","0,8812375249501","0,991017964071856","-1,04590818363273"
"1977","2,19960079840319","4,19960079840319","-27,8003992015968","2,8812375249501","-0,00898203592814371","-0,0459081836327345"
"1985","4,19960079840319","0,199600798403194","-27,8003992015968","2,8812375249501","-0,00898203592814371","-0,0459081836327345"
"1989","4,19960079840319","0,199600798403194","-27,8003992015968","-1,1187624750499","-0,00898203592814371","-1,04590818363273"
"1997","2,19960079840319","-2,80039920159681","-25,8003992015968","-1,1187624750499","-0,00898203592814371","-1,04590818363273"
"1997","2,19960079840319","-2,80039920159681","-25,8003992015968","-1,1187624750499","-1,00898203592814","-1,04590818363273"
"2005","5,19960079840319","1,19960079840319","-22,8003992015968","-1,1187624750499","-1,00898203592814","-1,04590818363273"
"2005","5,19960079840319","1,19960079840319","-22,8003992015968","0,8812375249501","-0,00898203592814371","-0,0459081836327345"
"2017","1,19960079840319","2,19960079840319","-29,8003992015968","0,8812375249501","-0,00898203592814371","-0,0459081836327345"
"2017","1,19960079840319","2,19960079840319","-29,8003992015968","-2,1187624750499","0,991017964071856","1,95409181636727"
"2026","4,19960079840319","-1,80039920159681","-26,8003992015968","-2,1187624750499","0,991017964071856","1,95409181636727"
"2026","4,19960079840319","-1,80039920159681","-26,8003992015968","-1,1187624750499","0,991017964071856","-1,04590818363273"
"2038","6,19960079840319","-3,80039920159681","-20,8003992015968","-1,1187624750499","0,991017964071856","-1,04590818363273"
"2038","6,19960079840319","-3,80039920159681","-20,8003992015968","-1,1187624750499","0,991017964071856","1,95409181636727"
"2046","2,19960079840319","1,19960079840319","-28,8003992015968","-1,1187624750499","0,991017964071856","1,95409181636727"
"2046","2,19960079840319","1,19960079840319","-28,8003992015968","1,8812375249501","-2,00898203592814","0,954091816367265"
"2054","10,1996007984032","1,19960079840319","-26,8003992015968","1,8812375249501","-2,00898203592814","0,954091816367265"
"2058","10,1996007984032","1,19960079840319","-26,8003992015968","1,8812375249501","0,991017964071856","0,954091816367265"
"2067","12,1996007984032","-2,80039920159681","-24,8003992015968","1,8812375249501","0,991017964071856","0,954091816367265"
"2067","12,1996007984032","-2,80039920159681","-24,8003992015968","-2,1187624750499","1,99101796407186","-1,04590818363273"
"2075","3,19960079840319","-0,800399201596806","-31,8003992015968","-2,1187624750499","1,99101796407186","-1,04590818363273"
"2075","3,19960079840319","-0,800399201596806","-31,8003992015968","-0,1187624750499","0,991017964071856","2,95409181636727"
"2087","8,19960079840319","1,19960079840319","-25,8003992015968","-0,1187624750499","0,991017964071856","2,95409181636727"
"2087","8,19960079840319","1,19960079840319","-25,8003992015968","-1,1187624750499","-1,00898203592814","0,954091816367265"
"2095","1,19960079840319","-0,800399201596806","-26,8003992015968","-1,1187624750499","-1,00898203592814","0,954091816367265"
"2095","1,19960079840319","-0,800399201596806","-26,8003992015968","-0,1187624750499","-0,00898203592814371","2,95409181636727"
"2107","-17,8003992015968","18,1996007984032","-25,8003992015968","-0,1187624750499","-0,00898203592814371","2,95409181636727"
"2108","-17,8003992015968","18,1996007984032","-25,8003992015968","4,8812375249501","-0,00898203592814371","0,954091816367265"
"2116","-55,8003992015968","76,1996007984032","-56,8003992015968","4,8812375249501","-0,00898203592814371","0,954091816367265"
"2116","-55,8003992015968","76,1996007984032","-56,8003992015968","15,8812375249501","3,99101796407186","-4,04590818363273"
"2128","-36,8003992015968","113,199600798403","-61,8003992015968","15,8812375249501","3,99101796407186","-4,04590818363273"
"2128","-36,8003992015968","113,199600798403","-61,8003992015968","-11,1187624750499","-10,0089820359281","-10,0459081836327"
"2136","75,1996007984032","-210,800399201597","5,19960079840319","-11,1187624750499","-10,0089820359281","-10,0459081836327"
"2137","75,1996007984032","-210,800399201597","5,19960079840319","-58,1187624750499","-19,0089820359281","-12,0459081836327"
"2145","185,199600798403","-64,8003992015968","85,1996007984032","-58,1187624750499","-19,0089820359281","-12,0459081836327"
"2148","185,199600798403","-64,8003992015968","85,1996007984032","-58,1187624750499","-19,0089820359281","-12,0459081836327"
"2157","-25,8003992015968","124,199600798403","-63,8003992015968","-58,1187624750499","-19,0089820359281","-12,0459081836327"
"2157","-25,8003992015968","124,199600798403","-63,8003992015968","44,8812375249501","27,9910179640719","4,95409181636727"
"2165","-21,8003992015968","49,1996007984032","-69,8003992015968","44,8812375249501","27,9910179640719","4,95409181636727"
"2169","-21,8003992015968","49,1996007984032","-69,8003992015968","-25,1187624750499","20,9910179640719","7,95409181636727"
"2177","90,1996007984032","-47,8003992015968","2,19960079840319","-25,1187624750499","20,9910179640719","7,95409181636727"
"2177","90,1996007984032","-47,8003992015968","2,19960079840319","-19,1187624750499","-23,0089820359281","4,95409181636727"
"2185","62,1996007984032","-13,8003992015968","23,1996007984032","-19,1187624750499","-23,0089820359281","4,95409181636727"
"2189","62,1996007984032","-13,8003992015968","23,1996007984032","-2,1187624750499","-1,00898203592814","3,95409181636727"
"2198","68,1996007984032","-121,800399201597","20,1996007984032","-2,1187624750499","-1,00898203592814","3,95409181636727"
"2198","68,1996007984032","-121,800399201597","20,1996007984032","-10,1187624750499","9,99101796407186","3,95409181636727"
"2206","38,1996007984032","152,199600798403","-38,8003992015968","-10,1187624750499","9,99101796407186","3,95409181636727"
"2206","38,1996007984032","152,199600798403","-38,8003992015968","54,8812375249501","7,99101796407186","-0,0459081836327345"
"2218","8,19960079840319","232,199600798403","-70,8003992015968","54,8812375249501","7,99101796407186","-0,0459081836327345"
"2218","8,19960079840319","232,199600798403","-70,8003992015968","40,8812375249501","9,99101796407186","-6,04590818363273"
"2226","56,1996007984032","112,199600798403","-46,8003992015968","40,8812375249501","9,99101796407186","-6,04590818363273"
"2227","56,1996007984032","112,199600798403","-46,8003992015968","-42,1187624750499","-0,00898203592814371","-16,0459081836327"
"2238","-40,8003992015968","-183,800399201597","28,1996007984032","-42,1187624750499","-0,00898203592814371","-16,0459081836327"
"2239","-40,8003992015968","-183,800399201597","28,1996007984032","-66,1187624750499","26,9910179640719","-22,0459081836327"
"2247","-90,8003992015968","-66,8003992015968","-67,8003992015968","-66,1187624750499","26,9910179640719","-22,0459081836327"
"2247","-90,8003992015968","-66,8003992015968","-67,8003992015968","-66,1187624750499","26,9910179640719","-22,0459081836327"
"2255","-123,800399201597","86,1996007984032","-95,8003992015968","-66,1187624750499","26,9910179640719","-22,0459081836327"
"2259","-123,800399201597","86,1996007984032","-95,8003992015968","49,8812375249501","-4,00898203592814","-16,0459081836327"
"2267","59,1996007984032","179,199600798403","-47,8003992015968","49,8812375249501","-4,00898203592814","-16,0459081836327"
"2268","59,1996007984032","179,199600798403","-47,8003992015968","27,8812375249501","-9,00898203592814","-20,0459081836327"
"2276","72,1996007984032","-171,800399201597","29,1996007984032","27,8812375249501","-9,00898203592814","-20,0459081836327"
"2279","72,1996007984032","-171,800399201597","29,1996007984032","-84,1187624750499","-12,0089820359281","-26,0459081836327"
"2288","36,1996007984032","-189,800399201597","42,1996007984032","-84,1187624750499","-12,0089820359281","-26,0459081836327"
"2288","36,1996007984032","-189,800399201597","42,1996007984032","-39,1187624750499","4,99101796407186","-17,0459081836327"
"2296","36,1996007984032","-189,800399201597","42,1996007984032","-39,1187624750499","4,99101796407186","-17,0459081836327"
"2296","36,1996007984032","-189,800399201597","42,1996007984032","-39,1187624750499","4,99101796407186","-17,0459081836327"
"2304","71,1996007984032","-116,800399201597","27,1996007984032","-39,1187624750499","4,99101796407186","-17,0459081836327"
"2308","71,1996007984032","-116,800399201597","27,1996007984032","36,8812375249501","16,9910179640719","-25,0459081836327"
"2317","26,1996007984032","39,1996007984032","-20,8003992015968","36,8812375249501","16,9910179640719","-25,0459081836327"
"2317","26,1996007984032","39,1996007984032","-20,8003992015968","43,8812375249501","6,99101796407186","-45,0459081836327"
"2329","27,1996007984032","115,199600798403","-29,8003992015968","43,8812375249501","6,99101796407186","-45,0459081836327"
"2329","27,1996007984032","115,199600798403","-29,8003992015968","27,8812375249501","12,9910179640719","-45,0459081836327"
"2337","-7,80039920159681","64,1996007984032","-31,8003992015968","27,8812375249501","12,9910179640719","-45,0459081836327"
"2337","-7,80039920159681","64,1996007984032","-31,8003992015968","-1,1187624750499","8,99101796407186","-41,0459081836327"
"2345","-37,8003992015968","40,1996007984032","-52,8003992015968","-1,1187624750499","8,99101796407186","-41,0459081836327"
"2346","-37,8003992015968","40,1996007984032","-52,8003992015968","-1,1187624750499","8,99101796407186","-41,0459081836327"
"2357","-30,8003992015968","-61,8003992015968","-36,8003992015968","-1,1187624750499","8,99101796407186","-41,0459081836327"
"2358","-30,8003992015968","-61,8003992015968","-36,8003992015968","-14,1187624750499","5,99101796407186","-36,0459081836327"
"2366","16,1996007984032","-54,8003992015968","-22,8003992015968","-14,1187624750499","5,99101796407186","-36,0459081836327"
"2369","16,1996007984032","-54,8003992015968","-22,8003992015968","5,8812375249501","-12,0089820359281","-37,0459081836327"
"2378","28,1996007984032","126,199600798403","-47,8003992015968","5,8812375249501","-12,0089820359281","-37,0459081836327"
"2378","28,1996007984032","126,199600798403","-47,8003992015968","26,8812375249501","-3,00898203592814","-31,0459081836327"
"2386","-0,800399201596806","107,199600798403","-63,8003992015968","26,8812375249501","-3,00898203592814","-31,0459081836327"
"2386","-0,800399201596806","107,199600798403","-63,8003992015968","-6,1187624750499","0,991017964071856","-33,0459081836327"
"2394","-0,800399201596806","107,199600798403","-63,8003992015968","-6,1187624750499","0,991017964071856","-33,0459081836327"
"2398","-0,800399201596806","107,199600798403","-63,8003992015968","-6,1187624750499","0,991017964071856","-33,0459081836327"
"2407","51,1996007984032","-81,8003992015968","-2,80039920159681","-6,1187624750499","0,991017964071856","-33,0459081836327"
"2407","51,1996007984032","-81,8003992015968","-2,80039920159681","-51,1187624750499","-7,00898203592814","-33,0459081836327"
"2419","-35,8003992015968","-123,800399201597","-23,8003992015968","-51,1187624750499","-7,00898203592814","-33,0459081836327"
"2419","-35,8003992015968","-123,800399201597","-23,8003992015968","-33,1187624750499","5,99101796407186","-41,0459081836327"
"2427","-28,8003992015968","-56,8003992015968","-38,8003992015968","-33,1187624750499","5,99101796407186","-41,0459081836327"
"2427","-28,8003992015968","-56,8003992015968","-38,8003992015968","20,8812375249501","-6,00898203592814","-53,0459081836327"
"2435","39,1996007984032","106,199600798403","-40,8003992015968","20,8812375249501","-6,00898203592814","-53,0459081836327"
"2439","39,1996007984032","106,199600798403","-40,8003992015968","27,8812375249501","-14,0089820359281","-65,0459081836327"
"2447","39,1996007984032","106,199600798403","-40,8003992015968","27,8812375249501","-14,0089820359281","-65,0459081836327"
"2448","39,1996007984032","106,199600798403","-40,8003992015968","27,8812375249501","-14,0089820359281","-65,0459081836327"
"2456","63,1996007984032","-72,8003992015968","10,1996007984032","27,8812375249501","-14,0089820359281","-65,0459081836327"
"2456","63,1996007984032","-72,8003992015968","10,1996007984032","-25,1187624750499","-12,0089820359281","-72,0459081836327"
"2468","92,1996007984032","119,199600798403","-25,8003992015968","-25,1187624750499","-12,0089820359281","-72,0459081836327"
"2468","92,1996007984032","119,199600798403","-25,8003992015968","-3,1187624750499","3,99101796407186","-80,0459081836327"
"2476","76,1996007984032","-86,8003992015968","11,1996007984032","-3,1187624750499","3,99101796407186","-80,0459081836327"
"2477","76,1996007984032","-86,8003992015968","11,1996007984032","-39,1187624750499","9,99101796407186","-82,0459081836327"
"2488","41,1996007984032","-4,80039920159681","-22,8003992015968","-39,1187624750499","9,99101796407186","-82,0459081836327"
"2489","41,1996007984032","-4,80039920159681","-22,8003992015968","3,8812375249501","13,9910179640719","-78,0459081836327"
"2497","41,1996007984032","-4,80039920159681","-22,8003992015968","3,8812375249501","13,9910179640719","-78,0459081836327"
"2497","41,1996007984032","-4,80039920159681","-22,8003992015968","3,8812375249501","13,9910179640719","-78,0459081836327"
"2505","-21,8003992015968","31,1996007984032","-30,8003992015968","3,8812375249501","13,9910179640719","-78,0459081836327"
"2509","-21,8003992015968","31,1996007984032","-30,8003992015968","-0,1187624750499","16,9910179640719","-76,0459081836327"
"2517","4,19960079840319","170,199600798403","-48,8003992015968","-0,1187624750499","16,9910179640719","-76,0459081836327"
"2517","4,19960079840319","170,199600798403","-48,8003992015968","38,8812375249501","-9,00898203592814","-84,0459081836327"
"2526","27,1996007984032","61,1996007984032","-48,8003992015968","38,8812375249501","-9,00898203592814","-84,0459081836327"
"2529","27,1996007984032","61,1996007984032","-48,8003992015968","-33,1187624750499","-13,0089820359281","-91,0459081836327"
"2538","51,1996007984032","-62,8003992015968","-4,80039920159681","-33,1187624750499","-13,0089820359281","-91,0459081836327"
"2538","51,1996007984032","-62,8003992015968","-4,80039920159681","-26,1187624750499","-15,0089820359281","-98,0459081836327"
"2546","51,1996007984032","-62,8003992015968","-4,80039920159681","-26,1187624750499","-15,0089820359281","-98,0459081836327"
"2546","51,1996007984032","-62,8003992015968","-4,80039920159681","-26,1187624750499","-15,0089820359281","-98,0459081836327"
"2554","12,1996007984032","38,1996007984032","-41,8003992015968","-26,1187624750499","-15,0089820359281","-98,0459081836327"
"2558","12,1996007984032","38,1996007984032","-41,8003992015968","2,8812375249501","-5,00898203592814","-101,045908183633"
"2566","90,1996007984032","-59,8003992015968","-25,8003992015968","2,8812375249501","-5,00898203592814","-101,045908183633"
"2570","90,1996007984032","-59,8003992015968","-25,8003992015968","21,8812375249501","-24,0089820359281","-103,045908183633"
"2579","156,199600798403","134,199600798403","23,1996007984032","21,8812375249501","-24,0089820359281","-103,045908183633"
"2579","156,199600798403","134,199600798403","23,1996007984032","38,8812375249501","-11,0089820359281","-98,0459081836327"
"2587","37,1996007984032","-58,8003992015968","-30,8003992015968","38,8812375249501","-11,0089820359281","-98,0459081836327"
"2591","37,1996007984032","-58,8003992015968","-30,8003992015968","-56,1187624750499","11,9910179640719","-86,0459081836327"
"2595","37,1996007984032","-58,8003992015968","-30,8003992015968","-56,1187624750499","11,9910179640719","-86,0459081836327"
"2599","37,1996007984032","-58,8003992015968","-30,8003992015968","-56,1187624750499","11,9910179640719","-86,0459081836327"
"2607","31,1996007984032","-101,800399201597","-32,8003992015968","-56,1187624750499","11,9910179640719","-86,0459081836327"
"2607","31,1996007984032","-101,800399201597","-32,8003992015968","-27,1187624750499","1,99101796407186","-81,0459081836327"
"2615","89,1996007984032","-121,800399201597","30,1996007984032","-27,1187624750499","1,99101796407186","-81,0459081836327"
"2619","89,1996007984032","-121,800399201597","30,1996007984032","-71,1187624750499","8,99101796407186","-73,0459081836327"
"2628","-75,8003992015968","-237,800399201597","-5,80039920159681","-71,1187624750499","8,99101796407186","-73,0459081836327"
"2628","-75,8003992015968","-237,800399201597","-5,80039920159681","-68,1187624750499","24,9910179640719","-69,0459081836327"
"2636","-114,800399201597","-114,800399201597","-79,8003992015968","-68,1187624750499","24,9910179640719","-69,0459081836327"
"2640","-114,800399201597","-114,800399201597","-79,8003992015968","41,8812375249501","-11,0089820359281","-63,0459081836327"
"2644","-114,800399201597","-114,800399201597","-79,8003992015968","41,8812375249501","-11,0089820359281","-63,0459081836327"
"2648","-114,800399201597","-114,800399201597","-79,8003992015968","41,8812375249501","-11,0089820359281","-63,0459081836327"
"2657","72,1996007984032","208,199600798403","-76,8003992015968","41,8812375249501","-11,0089820359281","-63,0459081836327"
"2657","72,1996007984032","208,199600798403","-76,8003992015968","61,8812375249501","-31,0089820359281","-66,0459081836327"
"2669","27,1996007984032","-264,800399201597","-28,8003992015968","61,8812375249501","-31,0089820359281","-66,0459081836327"
"2669","27,1996007984032","-264,800399201597","-28,8003992015968","-70,1187624750499","-25,0089820359281","-47,0459081836327"
"2677","136,199600798403","-32,8003992015968","-0,800399201596806","-70,1187624750499","-25,0089820359281","-47,0459081836327"
"2677","136,199600798403","-32,8003992015968","-0,800399201596806","71,8812375249501","-34,0089820359281","-37,0459081836327"
"2689","59,1996007984032","-16,8003992015968","-97,8003992015968","71,8812375249501","-34,0089820359281","-37,0459081836327"
"2689","59,1996007984032","-16,8003992015968","-97,8003992015968","-29,1187624750499","-15,0089820359281","-30,0459081836327"
"2697","59,1996007984032","-16,8003992015968","-97,8003992015968","-29,1187624750499","-15,0089820359281","-30,0459081836327"
"2698","59,1996007984032","-16,8003992015968","-97,8003992015968","-29,1187624750499","-15,0089820359281","-30,0459081836327"
"2706","224,199600798403","-234,800399201597","49,1996007984032","-29,1187624750499","-15,0089820359281","-30,0459081836327"
"2706","224,199600798403","-234,800399201597","49,1996007984032","-74,1187624750499","-35,0089820359281","-26,0459081836327"
"2718","106,199600798403","11,1996007984032","-12,8003992015968","-74,1187624750499","-35,0089820359281","-26,0459081836327"
"2718","106,199600798403","11,1996007984032","-12,8003992015968","-1,1187624750499","-1,00898203592814","-16,0459081836327"
"2726","139,199600798403","-117,800399201597","33,1996007984032","-1,1187624750499","-1,00898203592814","-16,0459081836327"
"2730","139,199600798403","-117,800399201597","33,1996007984032","-47,1187624750499","-6,00898203592814","-18,0459081836327"
"2738","181,199600798403","-92,8003992015968","-23,8003992015968","-47,1187624750499","-6,00898203592814","-18,0459081836327"
"2739","181,199600798403","-92,8003992015968","-23,8003992015968","-1,1187624750499","1,99101796407186","-15,0459081836327"
"2747","79,1996007984032","-18,8003992015968","-51,8003992015968","-1,1187624750499","1,99101796407186","-15,0459081836327"
"2751","79,1996007984032","-18,8003992015968","-51,8003992015968","7,8812375249501","18,9910179640719","-5,04590818363273"
"2759","124,199600798403","2,19960079840319","4,19960079840319","7,8812375249501","18,9910179640719","-5,04590818363273"
"2759","124,199600798403","2,19960079840319","4,19960079840319","4,8812375249501","-0,00898203592814371","1,95409181636727"
"2767","91,1996007984032","18,1996007984032","-23,8003992015968","4,8812375249501","-0,00898203592814371","1,95409181636727"
"2767","91,1996007984032","18,1996007984032","-23,8003992015968","-1,1187624750499","8,99101796407186","9,95409181636727"
"2779","128,199600798403","-81,8003992015968","-8,80039920159681","-1,1187624750499","8,99101796407186","9,95409181636727"
"2780","128,199600798403","-81,8003992015968","-8,80039920159681","-24,1187624750499","13,9910179640719","18,9540918163673"
"2788","85,1996007984032","-36,8003992015968","-35,8003992015968","-24,1187624750499","13,9910179640719","18,9540918163673"
"2788","85,1996007984032","-36,8003992015968","-35,8003992015968","11,8812375249501","11,9910179640719","19,9540918163673"
"2796","85,1996007984032","-36,8003992015968","-35,8003992015968","11,8812375249501","11,9910179640719","19,9540918163673"
"2796","85,1996007984032","-36,8003992015968","-35,8003992015968","11,8812375249501","11,9910179640719","19,9540918163673"
"2804","16,1996007984032","14,1996007984032","-57,8003992015968","11,8812375249501","11,9910179640719","19,9540918163673"
"2808","16,1996007984032","14,1996007984032","-57,8003992015968","21,8812375249501","9,99101796407186","15,9540918163673"
"2816","66,1996007984032","55,1996007984032","-61,8003992015968","21,8812375249501","9,99101796407186","15,9540918163673"
"2820","66,1996007984032","55,1996007984032","-61,8003992015968","41,8812375249501","13,9910179640719","12,9540918163673"
"2829","38,1996007984032","-0,800399201596806","-90,8003992015968","41,8812375249501","13,9910179640719","12,9540918163673"
"2829","38,1996007984032","-0,800399201596806","-90,8003992015968","1,8812375249501","8,99101796407186","13,9540918163673"
"2837","93,1996007984032","-28,8003992015968","-24,8003992015968","1,8812375249501","8,99101796407186","13,9540918163673"
"2841","93,1996007984032","-28,8003992015968","-24,8003992015968","22,8812375249501","-4,00898203592814","10,9540918163673"
"2845","93,1996007984032","-28,8003992015968","-24,8003992015968","22,8812375249501","-4,00898203592814","10,9540918163673"
"2849","93,1996007984032","-28,8003992015968","-24,8003992015968","22,8812375249501","-4,00898203592814","10,9540918163673"
"2857","68,1996007984032","15,1996007984032","-35,8003992015968","22,8812375249501","-4,00898203592814","10,9540918163673"
"2857","68,1996007984032","15,1996007984032","-35,8003992015968","22,8812375249501","-3,00898203592814","12,9540918163673"
"2869","59,1996007984032","62,1996007984032","-7,80039920159681","22,8812375249501","-3,00898203592814","12,9540918163673"
"2870","59,1996007984032","62,1996007984032","-7,80039920159681","35,8812375249501","-6,00898203592814","15,9540918163673"
"2878","60,1996007984032","102,199600798403","-59,8003992015968","35,8812375249501","-6,00898203592814","15,9540918163673"
"2878","60,1996007984032","102,199600798403","-59,8003992015968","-0,1187624750499","-15,0089820359281","13,9540918163673"
"2890","138,199600798403","9,19960079840319","12,1996007984032","-0,1187624750499","-15,0089820359281","13,9540918163673"
"2890","138,199600798403","9,19960079840319","12,1996007984032","-11,1187624750499","-15,0089820359281","5,95409181636727"
"2898","108,199600798403","43,1996007984032","-33,8003992015968","-11,1187624750499","-15,0089820359281","5,95409181636727"
"2898","108,199600798403","43,1996007984032","-33,8003992015968","6,8812375249501","-0,00898203592814371","0,954091816367265"
"2906","68,1996007984032","36,1996007984032","-66,8003992015968","6,8812375249501","-0,00898203592814371","0,954091816367265"
"2910","68,1996007984032","36,1996007984032","-66,8003992015968","-8,1187624750499","3,99101796407186","-0,0459081836327345"
"2919","74,1996007984032","-2,80039920159681","-14,8003992015968","-8,1187624750499","3,99101796407186","-0,0459081836327345"
"2919","74,1996007984032","-2,80039920159681","-14,8003992015968","-4,1187624750499","-1,00898203592814","-2,04590818363273"
"2927","46,1996007984032","-27,8003992015968","-20,8003992015968","-4,1187624750499","-1,00898203592814","-2,04590818363273"
"2931","46,1996007984032","-27,8003992015968","-20,8003992015968","-7,1187624750499","5,99101796407186","-1,04590818363273"
"2939","52,1996007984032","-17,8003992015968","-32,8003992015968","-7,1187624750499","5,99101796407186","-1,04590818363273"
"2939","52,1996007984032","-17,8003992015968","-32,8003992015968","6,8812375249501","1,99101796407186","-2,04590818363273"
"2947","31,1996007984032","19,1996007984032","-63,8003992015968","6,8812375249501","1,99101796407186","-2,04590818363273"
"2948","31,1996007984032","19,1996007984032","-63,8003992015968","3,8812375249501","-1,00898203592814","-6,04590818363273"
"2960","34,1996007984032","-76,8003992015968","-42,8003992015968","3,8812375249501","-1,00898203592814","-6,04590818363273"
"2960","34,1996007984032","-76,8003992015968","-42,8003992015968","-8,1187624750499","-6,00898203592814","-10,0459081836327"
"2968","95,1996007984032","-49,8003992015968","5,19960079840319","-8,1187624750499","-6,00898203592814","-10,0459081836327"
"2968","95,1996007984032","-49,8003992015968","5,19960079840319","16,8812375249501","-14,0089820359281","-10,0459081836327"
"2980","42,1996007984032","8,19960079840319","-7,80039920159681","16,8812375249501","-14,0089820359281","-10,0459081836327"
"2980","42,1996007984032","8,19960079840319","-7,80039920159681","25,8812375249501","-0,00898203592814371","-9,04590818363273"
"2988","48,1996007984032","-14,8003992015968","-51,8003992015968","25,8812375249501","-0,00898203592814371","-9,04590818363273"
"2988","48,1996007984032","-14,8003992015968","-51,8003992015968","7,8812375249501","-7,00898203592814","-11,0459081836327"
"2996","79,1996007984032","-13,8003992015968","-57,8003992015968","7,8812375249501","-7,00898203592814","-11,0459081836327"
"3000","79,1996007984032","-13,8003992015968","-57,8003992015968","7,8812375249501","-7,00898203592814","-11,0459081836327"
"3009","63,1996007984032","51,1996007984032","-53,8003992015968","7,8812375249501","-7,00898203592814","-11,0459081836327"
"3009","63,1996007984032","51,1996007984032","-53,8003992015968","18,8812375249501","-0,00898203592814371","-0,0459081836327345"
"3017","56,1996007984032","1,19960079840319","18,1996007984032","18,8812375249501","-0,00898203592814371","-0,0459081836327345"
"3021","56,1996007984032","1,19960079840319","18,1996007984032","-3,1187624750499","0,991017964071856","-1,04590818363273"
"3029","77,1996007984032","33,1996007984032","-32,8003992015968","-3,1187624750499","0,991017964071856","-1,04590818363273"
"3029","77,1996007984032","33,1996007984032","-32,8003992015968","-0,1187624750499","-3,00898203592814","-1,04590818363273"
"3037","53,1996007984032","-7,80039920159681","-37,8003992015968","-0,1187624750499","-3,00898203592814","-1,04590818363273"
"3041","53,1996007984032","-7,80039920159681","-37,8003992015968","-12,1187624750499","2,99101796407186","-4,04590818363273"
"3049","58,1996007984032","-114,800399201597","-35,8003992015968","-12,1187624750499","2,99101796407186","-4,04590818363273"
"3050","58,1996007984032","-114,800399201597","-35,8003992015968","-11,1187624750499","8,99101796407186","-8,04590818363273"
"3058","20,1996007984032","74,1996007984032","-33,8003992015968","-11,1187624750499","8,99101796407186","-8,04590818363273"
"3058","20,1996007984032","74,1996007984032","-33,8003992015968","47,8812375249501","9,99101796407186","-12,0459081836327"
"3070","30,1996007984032","-9,80039920159681","-24,8003992015968","47,8812375249501","9,99101796407186","-12,0459081836327"
"3070","30,1996007984032","-9,80039920159681","-24,8003992015968","-0,1187624750499","1,99101796407186","-14,0459081836327"
"3078","39,1996007984032","-103,800399201597","-39,8003992015968","-0,1187624750499","1,99101796407186","-14,0459081836327"
"3078","39,1996007984032","-103,800399201597","-39,8003992015968","-9,1187624750499","-2,00898203592814","-12,0459081836327"
"3090","97,1996007984032","28,1996007984032","5,19960079840319","-9,1187624750499","-2,00898203592814","-12,0459081836327"
"3090","97,1996007984032","28,1996007984032","5,19960079840319","36,8812375249501","3,99101796407186","-8,04590818363273"
"3095","97,1996007984032","28,1996007984032","5,19960079840319","36,8812375249501","3,99101796407186","-8,04590818363273"
"3098","97,1996007984032","28,1996007984032","5,19960079840319","36,8812375249501","3,99101796407186","-8,04590818363273"
"3107","57,1996007984032","56,1996007984032","16,1996007984032","36,8812375249501","3,99101796407186","-8,04590818363273"
"3107","57,1996007984032","56,1996007984032","16,1996007984032","38,8812375249501","20,9910179640719","-7,04590818363273"
"3119","-1,80039920159681","26,1996007984032","-34,8003992015968","38,8812375249501","20,9910179640719","-7,04590818363273"
"3119","-1,80039920159681","26,1996007984032","-34,8003992015968","0,8812375249501","12,9910179640719","1,95409181636727"
"3128","-28,8003992015968","24,1996007984032","-83,8003992015968","0,8812375249501","12,9910179640719","1,95409181636727"
"3131","-28,8003992015968","24,1996007984032","-83,8003992015968","-2,1187624750499","5,99101796407186","4,95409181636727"
"3140","-104,800399201597","86,1996007984032","-109,800399201597","-2,1187624750499","5,99101796407186","4,95409181636727"
"3140","-104,800399201597","86,1996007984032","-109,800399201597","10,8812375249501","1,99101796407186","12,9540918163673"
"3148","-104,800399201597","86,1996007984032","-109,800399201597","10,8812375249501","1,99101796407186","12,9540918163673"
"3148","-104,800399201597","86,1996007984032","-109,800399201597","10,8812375249501","1,99101796407186","12,9540918163673"
"3156","-82,8003992015968","140,199600798403","-35,8003992015968","10,8812375249501","1,99101796407186","12,9540918163673"
"3156","-82,8003992015968","140,199600798403","-35,8003992015968","7,8812375249501","-21,0089820359281","12,9540918163673"
"3169","160,199600798403","-259,800399201597","-1,80039920159681","7,8812375249501","-21,0089820359281","12,9540918163673"
"3169","160,199600798403","-259,800399201597","-1,80039920159681","-105,11876247505","-39,0089820359281","2,95409181636727"
"3181","135,199600798403","-289,800399201597","-16,8003992015968","-105,11876247505","-39,0089820359281","2,95409181636727"
"3181","135,199600798403","-289,800399201597","-16,8003992015968","-4,1187624750499","-14,0089820359281","-2,04590818363273"
"3189","-7,80039920159681","175,199600798403","12,1996007984032","-4,1187624750499","-14,0089820359281","-2,04590818363273"
"3189","-7,80039920159681","175,199600798403","12,1996007984032","127,88123752495","8,99101796407186","-8,04590818363273"
"3197","-7,80039920159681","175,199600798403","12,1996007984032","127,88123752495","8,99101796407186","-8,04590818363273"
"3197","-7,80039920159681","175,199600798403","12,1996007984032","127,88123752495","8,99101796407186","-8,04590818363273"
"3205","25,1996007984032","117,199600798403","-12,8003992015968","127,88123752495","8,99101796407186","-8,04590818363273"
"3206","25,1996007984032","117,199600798403","-12,8003992015968","53,8812375249501","0,991017964071856","-18,0459081836327"
"3218","1,19960079840319","-184,800399201597","-101,800399201597","53,8812375249501","0,991017964071856","-18,0459081836327"
"3222","1,19960079840319","-184,800399201597","-101,800399201597","-66,1187624750499","-1,00898203592814","-18,0459081836327"
"3230","-12,8003992015968","105,199600798403","-29,8003992015968","-66,1187624750499","-1,00898203592814","-18,0459081836327"
"3230","-12,8003992015968","105,199600798403","-29,8003992015968","82,8812375249501","-5,00898203592814","-2,04590818363273"
"3238","7,19960079840319","181,199600798403","8,19960079840319","82,8812375249501","-5,00898203592814","-2,04590818363273"
"3242","7,19960079840319","181,199600798403","8,19960079840319","82,8812375249501","-5,00898203592814","-2,04590818363273"
"3246","7,19960079840319","181,199600798403","8,19960079840319","82,8812375249501","-5,00898203592814","-2,04590818363273"
"3247","7,19960079840319","181,199600798403","8,19960079840319","59,8812375249501","-9,00898203592814","8,95409181636727"
"3254","25,1996007984032","24,1996007984032","5,19960079840319","59,8812375249501","-9,00898203592814","8,95409181636727"
"3258","25,1996007984032","24,1996007984032","5,19960079840319","-57,1187624750499","-18,0089820359281","11,9540918163673"
"3271","7,19960079840319","27,1996007984032","-31,8003992015968","-57,1187624750499","-18,0089820359281","11,9540918163673"
"3271","7,19960079840319","27,1996007984032","-31,8003992015968","-40,1187624750499","-7,00898203592814","18,9540918163673"
"3279","7,19960079840319","163,199600798403","-49,8003992015968","-40,1187624750499","-7,00898203592814","18,9540918163673"
"3279","7,19960079840319","163,199600798403","-49,8003992015968","65,8812375249501","-12,0089820359281","13,9540918163673"
"3287","80,1996007984032","103,199600798403","14,1996007984032","65,8812375249501","-12,0089820359281","13,9540918163673"
"3291","80,1996007984032","103,199600798403","14,1996007984032","65,8812375249501","-12,0089820359281","13,9540918163673"
"3295","80,1996007984032","103,199600798403","14,1996007984032","65,8812375249501","-12,0089820359281","13,9540918163673"
"3299","80,1996007984032","103,199600798403","14,1996007984032","-27,1187624750499","-12,0089820359281","9,95409181636727"
"3308","31,1996007984032","-143,800399201597","-46,8003992015968","-27,1187624750499","-12,0089820359281","9,95409181636727"
"3308","31,1996007984032","-143,800399201597","-46,8003992015968","-45,1187624750499","-0,00898203592814371","9,95409181636727"
"3320","49,1996007984032","134,199600798403","-2,80039920159681","-45,1187624750499","-0,00898203592814371","9,95409181636727"
"3320","49,1996007984032","134,199600798403","-2,80039920159681","53,8812375249501","-2,00898203592814","15,9540918163673"
"3328","8,19960079840319","-64,8003992015968","-35,8003992015968","53,8812375249501","-2,00898203592814","15,9540918163673"
"3332","8,19960079840319","-64,8003992015968","-35,8003992015968","60,8812375249501","6,99101796407186","16,9540918163673"
"3341","43,1996007984032","-55,8003992015968","-25,8003992015968","60,8812375249501","6,99101796407186","16,9540918163673"
"3341","43,1996007984032","-55,8003992015968","-25,8003992015968","-15,1187624750499","0,991017964071856","21,9540918163673"
"3349","43,1996007984032","-55,8003992015968","-25,8003992015968","-15,1187624750499","0,991017964071856","21,9540918163673"
"3349","43,1996007984032","-55,8003992015968","-25,8003992015968","-15,1187624750499","0,991017964071856","21,9540918163673"
"3357","20,1996007984032","63,1996007984032","-50,8003992015968","-15,1187624750499","0,991017964071856","21,9540918163673"
"3357","20,1996007984032","63,1996007984032","-50,8003992015968","38,8812375249501","11,9910179640719","26,9540918163673"
"3369","-18,8003992015968","-77,8003992015968","18,1996007984032","38,8812375249501","11,9910179640719","26,9540918163673"
"3369","-18,8003992015968","-77,8003992015968","18,1996007984032","-21,1187624750499","4,99101796407186","24,9540918163673"
"3377","18,1996007984032","7,19960079840319","-32,8003992015968","-21,1187624750499","4,99101796407186","24,9540918163673"
"3381","18,1996007984032","7,19960079840319","-32,8003992015968","-12,1187624750499","-0,00898203592814371","21,9540918163673"
"3390","34,1996007984032","31,1996007984032","-92,8003992015968","-12,1187624750499","-0,00898203592814371","21,9540918163673"
"3390","34,1996007984032","31,1996007984032","-92,8003992015968","38,8812375249501","-2,00898203592814","24,9540918163673"
"3398","34,1996007984032","31,1996007984032","-92,8003992015968","38,8812375249501","-2,00898203592814","24,9540918163673"
"3398","34,1996007984032","31,1996007984032","-92,8003992015968","6,8812375249501","-8,00898203592814","19,9540918163673"
"3410","29,1996007984032","124,199600798403","-1,80039920159681","6,8812375249501","-8,00898203592814","19,9540918163673"
"3410","29,1996007984032","124,199600798403","-1,80039920159681","3,8812375249501","4,99101796407186","19,9540918163673"
"3418","56,1996007984032","220,199600798403","-19,8003992015968","3,8812375249501","4,99101796407186","19,9540918163673"
"3422","56,1996007984032","220,199600798403","-19,8003992015968","46,8812375249501","19,9910179640719","22,9540918163673"
"3431","-106,800399201597","-13,8003992015968","-158,800399201597","46,8812375249501","19,9910179640719","22,9540918163673"
"3431","-106,800399201597","-13,8003992015968","-158,800399201597","18,8812375249501","17,9910179640719","28,9540918163673"
"3439","-222,800399201597","-73,8003992015968","-316,800399201597","18,8812375249501","17,9910179640719","28,9540918163673"
"3443","-222,800399201597","-73,8003992015968","-316,800399201597","-75,1187624750499","30,9910179640719","36,9540918163673"
"3447","-222,800399201597","-73,8003992015968","-316,800399201597","-75,1187624750499","30,9910179640719","36,9540918163673"
"3447","-222,800399201597","-73,8003992015968","-316,800399201597","-85,1187624750499","26,9910179640719","45,9540918163673"
"3455","-290,800399201597","-136,800399201597","-90,8003992015968","-85,1187624750499","26,9910179640719","45,9540918163673"
"3459","-290,800399201597","-136,800399201597","-90,8003992015968","-56,1187624750499","-30,0089820359281","46,9540918163673"
"3472","-366,800399201597","206,199600798403","-493,800399201597","-56,1187624750499","-30,0089820359281","46,9540918163673"
"3472","-366,800399201597","206,199600798403","-493,800399201597","21,8812375249501","-102,008982035928","28,9540918163673"
"3480","301,199600798403","-337,800399201597","-182,800399201597","21,8812375249501","-102,008982035928","28,9540918163673"
"3480","301,199600798403","-337,800399201597","-182,800399201597","109,88123752495","74,9910179640719","45,9540918163673"
"3492","-358,800399201597","-276,800399201597","-296,800399201597","109,88123752495","74,9910179640719","45,9540918163673"
"3492","-358,800399201597","-276,800399201597","-296,800399201597","-111,11876247505","-39,0089820359281","3,95409181636727"
"3496","-358,800399201597","-276,800399201597","-296,800399201597","-111,11876247505","-39,0089820359281","3,95409181636727"
"3500","-358,800399201597","-276,800399201597","-296,800399201597","38,8812375249501","17,9910179640719","5,95409181636727"
"3504","192,199600798403","466,199600798403","162,199600798403","38,8812375249501","17,9910179640719","5,95409181636727"
"3508","192,199600798403","466,199600798403","162,199600798403","237,88123752495","-43,0089820359281","-0,0459081836327345"
"3521","124,199600798403","-260,800399201597","-167,800399201597","237,88123752495","-43,0089820359281","-0,0459081836327345"
"3521","124,199600798403","-260,800399201597","-167,800399201597","34,8812375249501","34,9910179640719","14,9540918163673"
"3529","-148,800399201597","150,199600798403","3,19960079840319","34,8812375249501","34,9910179640719","14,9540918163673"
"3533","-148,800399201597","150,199600798403","3,19960079840319","-214,11876247505","23,9910179640719","27,9540918163673"
"3541","-60,8003992015968","460,199600798403","197,199600798403","-214,11876247505","23,9910179640719","27,9540918163673"
"3541","-60,8003992015968","460,199600798403","197,199600798403","42,8812375249501","48,9910179640719","50,9540918163673"
"3549","-60,8003992015968","460,199600798403","197,199600798403","42,8812375249501","48,9910179640719","50,9540918163673"
"3550","-60,8003992015968","460,199600798403","197,199600798403","163,88123752495","-21,0089820359281","68,9540918163673"
"3558","66,1996007984032","311,199600798403","81,1996007984032","163,88123752495","-21,0089820359281","68,9540918163673"
"3558","66,1996007984032","311,199600798403","81,1996007984032","-72,1187624750499","-26,0089820359281","57,9540918163673"
"3570","-66,8003992015968","-84,8003992015968","-166,800399201597","-72,1187624750499","-26,0089820359281","57,9540918163673"
"3570","-66,8003992015968","-84,8003992015968","-166,800399201597","-232,11876247505","-1,00898203592814","51,9540918163673"
"3578","-33,8003992015968","130,199600798403","0,199600798403194","-232,11876247505","-1,00898203592814","51,9540918163673"
"3582","-33,8003992015968","130,199600798403","0,199600798403194","9,8812375249501","-7,00898203592814","39,9540918163673"
"3590","43,1996007984032","163,199600798403","159,199600798403","9,8812375249501","-7,00898203592814","39,9540918163673"
"3591","43,1996007984032","163,199600798403","159,199600798403","108,88123752495","-17,0089820359281","32,9540918163673"
"3599","43,1996007984032","163,199600798403","159,199600798403","108,88123752495","-17,0089820359281","32,9540918163673"
"3599","43,1996007984032","163,199600798403","159,199600798403","8,8812375249501","-30,0089820359281","16,9540918163673"
"3607","146,199600798403","-196,800399201597","-13,8003992015968","8,8812375249501","-30,0089820359281","16,9540918163673"
"3607","146,199600798403","-196,800399201597","-13,8003992015968","-72,1187624750499","-15,0089820359281","13,9540918163673"
"3619","-45,8003992015968","28,1996007984032","-130,800399201597","-72,1187624750499","-15,0089820359281","13,9540918163673"
"3623","-45,8003992015968","28,1996007984032","-130,800399201597","-8,1187624750499","29,9910179640719","15,9540918163673"
"3631","-138,800399201597","170,199600798403","-25,8003992015968","-8,1187624750499","29,9910179640719","15,9540918163673"
"3632","-138,800399201597","170,199600798403","-25,8003992015968","73,8812375249501","27,9910179640719","19,9540918163673"
"3640","46,1996007984032","-22,8003992015968","29,1996007984032","73,8812375249501","27,9910179640719","19,9540918163673"
"3640","46,1996007984032","-22,8003992015968","29,1996007984032","41,8812375249501","6,99101796407186","23,9540918163673"
"3648","46,1996007984032","-22,8003992015968","29,1996007984032","41,8812375249501","6,99101796407186","23,9540918163673"
"3648","46,1996007984032","-22,8003992015968","29,1996007984032","-37,1187624750499","-20,0089820359281","23,9540918163673"
"3656","110,199600798403","-96,8003992015968","-21,8003992015968","-37,1187624750499","-20,0089820359281","23,9540918163673"
"3656","110,199600798403","-96,8003992015968","-21,8003992015968","-34,1187624750499","-13,0089820359281","17,9540918163673"
"3668","1,19960079840319","109,199600798403","-52,8003992015968","-34,1187624750499","-13,0089820359281","17,9540918163673"
"3672","1,19960079840319","109,199600798403","-52,8003992015968","15,8812375249501","12,9910179640719","17,9540918163673"
"3681","21,1996007984032","138,199600798403","18,1996007984032","15,8812375249501","12,9910179640719","17,9540918163673"
"3681","21,1996007984032","138,199600798403","18,1996007984032","33,8812375249501","12,9910179640719","21,9540918163673"
"3689","84,1996007984032","-27,8003992015968","24,1996007984032","33,8812375249501","12,9910179640719","21,9540918163673"
"3693","84,1996007984032","-27,8003992015968","24,1996007984032","14,8812375249501","-2,00898203592814","17,9540918163673"
"3697","84,1996007984032","-27,8003992015968","24,1996007984032","14,8812375249501","-2,00898203592814","17,9540918163673"
"3697","84,1996007984032","-27,8003992015968","24,1996007984032","-53,1187624750499","-1,00898203592814","15,9540918163673"
"3709","-46,8003992015968","74,1996007984032","-43,8003992015968","-53,1187624750499","-1,00898203592814","15,9540918163673"
"3713","-46,8003992015968","74,1996007984032","-43,8003992015968","-16,1187624750499","19,9910179640719","13,9540918163673"
"3721","-62,8003992015968","11,1996007984032","-91,8003992015968","-16,1187624750499","19,9910179640719","13,9540918163673"
"3722","-62,8003992015968","11,1996007984032","-91,8003992015968","39,8812375249501","17,9910179640719","10,9540918163673"
"3730","70,1996007984032","-133,800399201597","44,1996007984032","39,8812375249501","17,9910179640719","10,9540918163673"
"3730","70,1996007984032","-133,800399201597","44,1996007984032","-16,1187624750499","2,99101796407186","3,95409181636727"
"3742","18,1996007984032","108,199600798403","-89,8003992015968","-16,1187624750499","2,99101796407186","3,95409181636727"
"3742","18,1996007984032","108,199600798403","-89,8003992015968","-22,1187624750499","-11,0089820359281","-6,04590818363273"
"3750","18,1996007984032","108,199600798403","-89,8003992015968","-22,1187624750499","-11,0089820359281","-6,04590818363273"
"3750","18,1996007984032","108,199600798403","-89,8003992015968","56,8812375249501","18,9910179640719","-5,04590818363273"
"3758","-65,8003992015968","85,1996007984032","-98,8003992015968","56,8812375249501","18,9910179640719","-5,04590818363273"
"3758","-65,8003992015968","85,1996007984032","-98,8003992015968","7,8812375249501","29,9910179640719","-3,04590818363273"
"3771","103,199600798403","14,1996007984032","55,1996007984032","7,8812375249501","29,9910179640719","-3,04590818363273"
"3771","103,199600798403","14,1996007984032","55,1996007984032","-29,1187624750499","5,99101796407186","-7,04590818363273"
"3779","104,199600798403","-66,8003992015968","33,1996007984032","-29,1187624750499","5,99101796407186","-7,04590818363273"
"3783","104,199600798403","-66,8003992015968","33,1996007984032","5,8812375249501","-9,00898203592814","-11,0459081836327"
"3791","22,1996007984032","-60,8003992015968","-62,8003992015968","5,8812375249501","-9,00898203592814","-11,0459081836327"
"3791","22,1996007984032","-60,8003992015968","-62,8003992015968","-13,1187624750499","12,9910179640719","-7,04590818363273"
"3807","22,1996007984032","-60,8003992015968","-62,8003992015968","-13,1187624750499","12,9910179640719","-7,04590818363273"
"3807","22,1996007984032","-60,8003992015968","-62,8003992015968","15,8812375249501","39,9910179640719","-6,04590818363273"
"3807","-72,8003992015968","143,199600798403","-92,8003992015968","15,8812375249501","39,9910179640719","-6,04590818363273"
"3808","-72,8003992015968","143,199600798403","-92,8003992015968","68,8812375249501","32,9910179640719","-5,04590818363273"
"3820","33,1996007984032","-113,800399201597","20,1996007984032","68,8812375249501","32,9910179640719","-5,04590818363273"
"3824","33,1996007984032","-113,800399201597","20,1996007984032","-22,1187624750499","9,99101796407186","-5,04590818363273"
"3832","26,1996007984032","-224,800399201597","-29,8003992015968","-22,1187624750499","9,99101796407186","-5,04590818363273"
"3832","26,1996007984032","-224,800399201597","-29,8003992015968","-97,1187624750499","-4,00898203592814","-14,0459081836327"
"3840","-58,8003992015968","17,1996007984032","-67,8003992015968","-97,1187624750499","-4,00898203592814","-14,0459081836327"
"3840","-58,8003992015968","17,1996007984032","-67,8003992015968","-53,1187624750499","3,99101796407186","-20,0459081836327"
"3849","-58,8003992015968","17,1996007984032","-67,8003992015968","-53,1187624750499","3,99101796407186","-20,0459081836327"
"3849","-58,8003992015968","17,1996007984032","-67,8003992015968","48,8812375249501","17,9910179640719","-26,0459081836327"
"3857","44,1996007984032","151,199600798403","14,1996007984032","48,8812375249501","17,9910179640719","-26,0459081836327"
"3857","44,1996007984032","151,199600798403","14,1996007984032","83,8812375249501","2,99101796407186","-33,0459081836327"
"3869","47,1996007984032","-81,8003992015968","-11,8003992015968","83,8812375249501","2,99101796407186","-33,0459081836327"
"3873","47,1996007984032","-81,8003992015968","-11,8003992015968","-6,1187624750499","6,99101796407186","-37,0459081836327"
"3881","-17,8003992015968","-1,80039920159681","-51,8003992015968","-6,1187624750499","6,99101796407186","-37,0459081836327"
"3882","-17,8003992015968","-1,80039920159681","-51,8003992015968","-38,1187624750499","14,9910179640719","-43,0459081836327"
"3889","-83,8003992015968","-20,8003992015968","-98,8003992015968","-38,1187624750499","14,9910179640719","-43,0459081836327"
"3893","-83,8003992015968","-20,8003992015968","-98,8003992015968","18,8812375249501","34,9910179640719","-38,0459081836327"
"3898","-83,8003992015968","-20,8003992015968","-98,8003992015968","18,8812375249501","34,9910179640719","-38,0459081836327"
"3901","-83,8003992015968","-20,8003992015968","-98,8003992015968","2,8812375249501","29,9910179640719","-36,0459081836327"
"3906","-2,80039920159681","-30,8003992015968","-35,8003992015968","2,8812375249501","29,9910179640719","-36,0459081836327"
"3906","-2,80039920159681","-30,8003992015968","-35,8003992015968","22,8812375249501","9,99101796407186","-39,0459081836327"
"3922","3,19960079840319","-54,8003992015968","-28,8003992015968","22,8812375249501","9,99101796407186","-39,0459081836327"
"3922","3,19960079840319","-54,8003992015968","-28,8003992015968","30,8812375249501","13,9910179640719","-40,0459081836327"
"3930","2,19960079840319","-54,8003992015968","-38,8003992015968","30,8812375249501","13,9910179640719","-40,0459081836327"
"3931","2,19960079840319","-54,8003992015968","-38,8003992015968","-33,1187624750499","13,9910179640719","-41,0459081836327"
"3943","-45,8003992015968","79,1996007984032","-41,8003992015968","-33,1187624750499","13,9910179640719","-41,0459081836327"
"3943","-45,8003992015968","79,1996007984032","-41,8003992015968","11,8812375249501","9,99101796407186","-46,0459081836327"
"3947","-45,8003992015968","79,1996007984032","-41,8003992015968","11,8812375249501","9,99101796407186","-46,0459081836327"
"3951","-45,8003992015968","79,1996007984032","-41,8003992015968","34,8812375249501","13,9910179640719","-51,0459081836327"
"3955","-28,8003992015968","-14,8003992015968","4,19960079840319","34,8812375249501","13,9910179640719","-51,0459081836327"
"3959","-28,8003992015968","-14,8003992015968","4,19960079840319","-15,1187624750499","2,99101796407186","-58,0459081836327"
"3971","23,1996007984032","-64,8003992015968","-51,8003992015968","-15,1187624750499","2,99101796407186","-58,0459081836327"
"3972","23,1996007984032","-64,8003992015968","-51,8003992015968","-4,1187624750499","-6,00898203592814","-58,0459081836327"
"3980","47,1996007984032","-42,8003992015968","-28,8003992015968","-4,1187624750499","-6,00898203592814","-58,0459081836327"
"3983","47,1996007984032","-42,8003992015968","-28,8003992015968","-3,1187624750499","5,99101796407186","-58,0459081836327"
"3992","-29,8003992015968","34,1996007984032","-72,8003992015968","-3,1187624750499","5,99101796407186","-58,0459081836327"
"3992","-29,8003992015968","34,1996007984032","-72,8003992015968","9,8812375249501","10,9910179640719","-56,0459081836327"
"4000","-29,8003992015968","34,1996007984032","-72,8003992015968","9,8812375249501","10,9910179640719","-56,0459081836327"
"4000","-29,8003992015968","34,1996007984032","-72,8003992015968","37,8812375249501","20,9910179640719","-57,0459081836327"
"4008","30,1996007984032","-1,80039920159681","-27,8003992015968","37,8812375249501","20,9910179640719","-57,0459081836327"
"4008","30,1996007984032","-1,80039920159681","-27,8003992015968","1,8812375249501","6,99101796407186","-60,0459081836327"
"4021","39,1996007984032","46,1996007984032","85,1996007984032","1,8812375249501","6,99101796407186","-60,0459081836327"
"4021","39,1996007984032","46,1996007984032","85,1996007984032","16,8812375249501","15,9910179640719","-61,0459081836327"
"4033","22,1996007984032","71,1996007984032","21,1996007984032","16,8812375249501","15,9910179640719","-61,0459081836327"
"4033","22,1996007984032","71,1996007984032","21,1996007984032","39,8812375249501","13,9910179640719","-65,0459081836327"
"4041","317,199600798403","-358,800399201597","334,199600798403","39,8812375249501","13,9910179640719","-65,0459081836327"
"4041","317,199600798403","-358,800399201597","334,199600798403","13,8812375249501","21,9910179640719","-60,0459081836327"
"4049","317,199600798403","-358,800399201597","334,199600798403","13,8812375249501","21,9910179640719","-60,0459081836327"
"4049","317,199600798403","-358,800399201597","334,199600798403","-55,1187624750499","28,9910179640719","-56,0459081836327"
"4057","598,199600798403","-356,800399201597","265,199600798403","-55,1187624750499","28,9910179640719","-56,0459081836327"
"4058","598,199600798403","-356,800399201597","265,199600798403","-20,1187624750499","41,9910179640719","-60,0459081836327"
"4070","3,19960079840319","325,199600798403","-435,800399201597","-20,1187624750499","41,9910179640719","-60,0459081836327"
"4074","3,19960079840319","325,199600798403","-435,800399201597","223,88123752495","202,991017964072","-34,0459081836327"
"4082","-7,80039920159681","-392,800399201597","178,199600798403","223,88123752495","202,991017964072","-34,0459081836327"
"4082","-7,80039920159681","-392,800399201597","178,199600798403","-4,1187624750499","122,991017964072","-58,0459081836327"
"4090","-82,8003992015968","-2,80039920159681","438,199600798403","-4,1187624750499","122,991017964072","-58,0459081836327"
"4094","-82,8003992015968","-2,80039920159681","438,199600798403","-164,11876247505","34,9910179640719","-66,0459081836327"
"4098","-82,8003992015968","-2,80039920159681","438,199600798403","-164,11876247505","34,9910179640719","-66,0459081836327"
"4099","-82,8003992015968","-2,80039920159681","438,199600798403","154,88123752495","8,99101796407186","-65,0459081836327"
"4107","10,1996007984032","560,199600798403","270,199600798403","154,88123752495","8,99101796407186","-65,0459081836327"
"4107","10,1996007984032","560,199600798403","270,199600798403","235,88123752495","23,9910179640719","-46,0459081836327"
"4123","-218,800399201597","-267,800399201597","-358,800399201597","235,88123752495","23,9910179640719","-46,0459081836327"
"4123","-218,800399201597","-267,800399201597","-358,800399201597","-140,11876247505","25,9910179640719","-25,0459081836327"
"4131","36,1996007984032","-27,8003992015968","24,1996007984032","-140,11876247505","25,9910179640719","-25,0459081836327"
"4131","36,1996007984032","-27,8003992015968","24,1996007984032","-231,11876247505","-52,0089820359281","-27,0459081836327"
"4143","-41,8003992015968","132,199600798403","216,199600798403","-231,11876247505","-52,0089820359281","-27,0459081836327"
"4144","-41,8003992015968","132,199600798403","216,199600798403","20,8812375249501","-100,008982035928","-22,0459081836327"
"4147","-41,8003992015968","132,199600798403","216,199600798403","20,8812375249501","-100,008982035928","-22,0459081836327"
"4152","-41,8003992015968","132,199600798403","216,199600798403","34,8812375249501","-58,0089820359281","-10,0459081836327"
"4156","-131,800399201597","81,1996007984032","-107,800399201597","34,8812375249501","-58,0089820359281","-10,0459081836327"
"4160","-131,800399201597","81,1996007984032","-107,800399201597","-73,1187624750499","-39,0089820359281","-18,0459081836327"
"4172","119,199600798403","-259,800399201597","-231,800399201597","-73,1187624750499","-39,0089820359281","-18,0459081836327"
"4172","119,199600798403","-259,800399201597","-231,800399201597","-97,1187624750499","-74,0089820359281","-37,0459081836327"
"4180","312,199600798403","-213,800399201597","355,199600798403","-97,1187624750499","-74,0089820359281","-37,0459081836327"
"4184","312,199600798403","-213,800399201597","355,199600798403","-149,11876247505","-100,008982035928","-52,0459081836327"
"4193","170,199600798403","60,1996007984032","168,199600798403","-149,11876247505","-100,008982035928","-52,0459081836327"
"4193","170,199600798403","60,1996007984032","168,199600798403","-4,1187624750499","-48,0089820359281","-58,0459081836327"
"4202","170,199600798403","60,1996007984032","168,199600798403","-4,1187624750499","-48,0089820359281","-58,0459081836327"
"4202","170,199600798403","60,1996007984032","168,199600798403","127,88123752495","26,9910179640719","-55,0459081836327"
"4205","40,1996007984032","40,1996007984032","-53,8003992015968","127,88123752495","26,9910179640719","-55,0459081836327"
"4209","40,1996007984032","40,1996007984032","-53,8003992015968","6,8812375249501","47,9910179640719","-59,0459081836327"
"4221","72,1996007984032","-76,8003992015968","2,19960079840319","6,8812375249501","47,9910179640719","-59,0459081836327"
"4221","72,1996007984032","-76,8003992015968","2,19960079840319","-63,1187624750499","48,9910179640719","-65,0459081836327"
"4233","-0,800399201596806","33,1996007984032","140,199600798403","-63,1187624750499","48,9910179640719","-65,0459081836327"
"4234","-0,800399201596806","33,1996007984032","140,199600798403","67,8812375249501","27,9910179640719","-66,0459081836327"
"4242","-71,8003992015968","58,1996007984032","101,199600798403","67,8812375249501","27,9910179640719","-66,0459081836327"
"4242","-71,8003992015968","58,1996007984032","101,199600798403","95,8812375249501","49,9910179640719","-55,0459081836327"
"4250","-71,8003992015968","58,1996007984032","101,199600798403","95,8812375249501","49,9910179640719","-55,0459081836327"
"4250","-71,8003992015968","58,1996007984032","101,199600798403","57,8812375249501","42,9910179640719","-48,0459081836327"
"4258","-137,800399201597","-9,80039920159681","-204,800399201597","57,8812375249501","42,9910179640719","-48,0459081836327"
"4259","-137,800399201597","-9,80039920159681","-204,800399201597","6,8812375249501","35,9910179640719","-41,0459081836327"
"4271","-55,8003992015968","24,1996007984032","-32,8003992015968","6,8812375249501","35,9910179640719","-41,0459081836327"
"4274","-55,8003992015968","24,1996007984032","-32,8003992015968","-11,1187624750499","7,99101796407186","-33,0459081836327"
"4283","-71,8003992015968","259,199600798403","-29,8003992015968","-11,1187624750499","7,99101796407186","-33,0459081836327"
"4283","-71,8003992015968","259,199600798403","-29,8003992015968","54,8812375249501","6,99101796407186","-19,0459081836327"
"4291","-78,8003992015968","175,199600798403","-103,800399201597","54,8812375249501","6,99101796407186","-19,0459081836327"
"4295","-78,8003992015968","175,199600798403","-103,800399201597","53,8812375249501","-2,00898203592814","-5,04590818363273"
"4299","-78,8003992015968","175,199600798403","-103,800399201597","53,8812375249501","-2,00898203592814","-5,04590818363273"
"4299","-78,8003992015968","175,199600798403","-103,800399201597","-22,1187624750499","-10,0089820359281","1,95409181636727"
"4307","-28,8003992015968","-93,8003992015968","-68,8003992015968","-22,1187624750499","-10,0089820359281","1,95409181636727"
"4307","-28,8003992015968","-93,8003992015968","-68,8003992015968","-110,11876247505","-23,0089820359281","4,95409181636727"
"4323","62,1996007984032","78,1996007984032","11,1996007984032","-110,11876247505","-23,0089820359281","4,95409181636727"
"4323","62,1996007984032","78,1996007984032","11,1996007984032","-39,1187624750499","-34,0089820359281","-0,0459081836327345"
"4331","62,1996007984032","78,1996007984032","11,1996007984032","-39,1187624750499","-34,0089820359281","-0,0459081836327345"
"4331","62,1996007984032","78,1996007984032","11,1996007984032","41,8812375249501","-16,0089820359281","-0,0459081836327345"
"4343","1,19960079840319","106,199600798403","-21,8003992015968","41,8812375249501","-16,0089820359281","-0,0459081836327345"
"4343","1,19960079840319","106,199600798403","-21,8003992015968","45,8812375249501","-7,00898203592814","6,95409181636727"
"4347","1,19960079840319","106,199600798403","-21,8003992015968","45,8812375249501","-7,00898203592814","6,95409181636727"
"4351","1,19960079840319","106,199600798403","-21,8003992015968","-52,1187624750499","3,99101796407186","7,95409181636727"
"4356","67,1996007984032","-163,800399201597","-13,8003992015968","-52,1187624750499","3,99101796407186","7,95409181636727"
"4356","67,1996007984032","-163,800399201597","-13,8003992015968","-72,1187624750499","4,99101796407186","8,95409181636727"
"4372","50,1996007984032","-175,800399201597","-42,8003992015968","-72,1187624750499","4,99101796407186","8,95409181636727"
"4372","50,1996007984032","-175,800399201597","-42,8003992015968","-36,1187624750499","16,9910179640719","6,95409181636727"
"4380","50,1996007984032","-175,800399201597","-42,8003992015968","-36,1187624750499","16,9910179640719","6,95409181636727"
"4380","50,1996007984032","-175,800399201597","-42,8003992015968","20,8812375249501","24,9910179640719","8,95409181636727"
"4392","26,1996007984032","-20,8003992015968","-25,8003992015968","20,8812375249501","24,9910179640719","8,95409181636727"
"4392","26,1996007984032","-20,8003992015968","-25,8003992015968","74,8812375249501","30,9910179640719","5,95409181636727"
"4400","26,1996007984032","-20,8003992015968","-25,8003992015968","74,8812375249501","30,9910179640719","5,95409181636727"
"4401","26,1996007984032","-20,8003992015968","-25,8003992015968","16,8812375249501","42,9910179640719","4,95409181636727"
"4405","51,1996007984032","-141,800399201597","13,1996007984032","16,8812375249501","42,9910179640719","4,95409181636727"
"4409","51,1996007984032","-141,800399201597","13,1996007984032","-13,1187624750499","42,9910179640719","1,95409181636727"
"4421","-14,8003992015968","-91,8003992015968","27,1996007984032","-13,1187624750499","42,9910179640719","1,95409181636727"
"4421","-14,8003992015968","-91,8003992015968","27,1996007984032","46,8812375249501","52,9910179640719","2,95409181636727"
"4429","-88,8003992015968","46,1996007984032","-116,800399201597","46,8812375249501","52,9910179640719","2,95409181636727"
"4433","-88,8003992015968","46,1996007984032","-116,800399201597","46,8812375249501","35,9910179640719","9,95409181636727"
"4442","-34,8003992015968","85,1996007984032","-46,8003992015968","46,8812375249501","35,9910179640719","9,95409181636727"
"4442","-34,8003992015968","85,1996007984032","-46,8003992015968","24,8812375249501","15,9910179640719","17,9540918163673"
"4450","-34,8003992015968","85,1996007984032","-46,8003992015968","24,8812375249501","15,9910179640719","17,9540918163673"
"4450","-34,8003992015968","85,1996007984032","-46,8003992015968","38,8812375249501","10,9910179640719","30,9540918163673"
"4458","-131,800399201597","162,199600798403","-66,8003992015968","38,8812375249501","10,9910179640719","30,9540918163673"
"4458","-131,800399201597","162,199600798403","-66,8003992015968","18,8812375249501","8,99101796407186","48,9540918163673"
"4470","-97,8003992015968","99,1996007984032","-77,8003992015968","18,8812375249501","8,99101796407186","48,9540918163673"
"4470","-97,8003992015968","99,1996007984032","-77,8003992015968","-33,1187624750499","-22,0089820359281","61,9540918163673"
"4483","-13,8003992015968","-169,800399201597","52,1996007984032","-33,1187624750499","-22,0089820359281","61,9540918163673"
"4483","-13,8003992015968","-169,800399201597","52,1996007984032","-53,1187624750499","-37,0089820359281","63,9540918163673"
"4491","-13,8003992015968","-169,800399201597","52,1996007984032","-53,1187624750499","-37,0089820359281","63,9540918163673"
"4491","-13,8003992015968","-169,800399201597","52,1996007984032","-71,1187624750499","-49,0089820359281","61,9540918163673"
"4495","65,1996007984032","-119,800399201597","30,1996007984032","-71,1187624750499","-49,0089820359281","61,9540918163673"
"4499","65,1996007984032","-119,800399201597","30,1996007984032","-20,1187624750499","-55,0089820359281","52,9540918163673"
"4507","45,1996007984032","55,1996007984032","-89,8003992015968","-20,1187624750499","-55,0089820359281","52,9540918163673"
"4507","45,1996007984032","55,1996007984032","-89,8003992015968","44,8812375249501","-40,0089820359281","46,9540918163673"
"4519","101,199600798403","54,1996007984032","-66,8003992015968","44,8812375249501","-40,0089820359281","46,9540918163673"
"4520","101,199600798403","54,1996007984032","-66,8003992015968","-6,1187624750499","-40,0089820359281","46,9540918163673"
"4527","23,1996007984032","12,1996007984032","-1,80039920159681","-6,1187624750499","-40,0089820359281","46,9540918163673"
"4531","23,1996007984032","12,1996007984032","-1,80039920159681","-7,1187624750499","-10,0089820359281","44,9540918163673"
"4540","-50,8003992015968","-136,800399201597","-39,8003992015968","-7,1187624750499","-10,0089820359281","44,9540918163673"
"4544","-50,8003992015968","-136,800399201597","-39,8003992015968","-19,1187624750499","-9,00898203592814","55,9540918163673"
"4548","-50,8003992015968","-136,800399201597","-39,8003992015968","-19,1187624750499","-9,00898203592814","55,9540918163673"
"4548","-50,8003992015968","-136,800399201597","-39,8003992015968","-26,1187624750499","-12,0089820359281","60,9540918163673"
"4556","64,1996007984032","40,1996007984032","-9,80039920159681","-26,1187624750499","-12,0089820359281","60,9540918163673"
"4556","64,1996007984032","40,1996007984032","-9,80039920159681","42,8812375249501","-18,0089820359281","60,9540918163673"
"4568","96,1996007984032","70,1996007984032","-37,8003992015968","42,8812375249501","-18,0089820359281","60,9540918163673"
"4569","96,1996007984032","70,1996007984032","-37,8003992015968","29,8812375249501","-5,00898203592814","60,9540918163673"
"4581","-36,8003992015968","4,19960079840319","-69,8003992015968","29,8812375249501","-5,00898203592814","60,9540918163673"
"4581","-36,8003992015968","4,19960079840319","-69,8003992015968","-19,1187624750499","18,9910179640719","66,9540918163673"
"4589","-52,8003992015968","-52,8003992015968","-90,8003992015968","-19,1187624750499","18,9910179640719","66,9540918163673"
"4589","-52,8003992015968","-52,8003992015968","-90,8003992015968","-2,1187624750499","-3,00898203592814","66,9540918163673"
"4597","10,1996007984032","86,1996007984032","-10,8003992015968","-2,1187624750499","-3,00898203592814","66,9540918163673"
"4597","10,1996007984032","86,1996007984032","-10,8003992015968","24,8812375249501","-11,0089820359281","68,9540918163673"
"4605","59,1996007984032","-43,8003992015968","3,19960079840319","24,8812375249501","-11,0089820359281","68,9540918163673"
"4606","59,1996007984032","-43,8003992015968","3,19960079840319","-37,1187624750499","-9,00898203592814","68,9540918163673"
"4618","24,1996007984032","-111,800399201597","-16,8003992015968","-37,1187624750499","-9,00898203592814","68,9540918163673"
"4618","24,1996007984032","-111,800399201597","-16,8003992015968","-7,1187624750499","-0,00898203592814371","71,9540918163673"
"4626","289,199600798403","78,1996007984032","89,1996007984032","-7,1187624750499","-0,00898203592814371","71,9540918163673"
"4630","289,199600798403","78,1996007984032","89,1996007984032","46,8812375249501","-12,0089820359281","63,9540918163673"
"4638","638,199600798403","-438,800399201597","359,199600798403","46,8812375249501","-12,0089820359281","63,9540918163673"
"4638","638,199600798403","-438,800399201597","359,199600798403","-74,1187624750499","7,99101796407186","40,9540918163673"
"4646","428,199600798403","-809,800399201597","145,199600798403","-74,1187624750499","7,99101796407186","40,9540918163673"
"4647","428,199600798403","-809,800399201597","145,199600798403","-57,1187624750499","145,991017964072","54,9540918163673"
"4655","143,199600798403","1197,1996007984","-15,8003992015968","-57,1187624750499","145,991017964072","54,9540918163673"
"4658","143,199600798403","1197,1996007984","-15,8003992015968","448,88123752495","189,991017964072","82,9540918163673"
"4667","-521,800399201597","1724,1996007984","-359,800399201597","448,88123752495","189,991017964072","82,9540918163673"
"4667","-521,800399201597","1724,1996007984","-359,800399201597","422,88123752495","252,991017964072","56,9540918163673"
"4675","-514,800399201597","41,1996007984032","202,199600798403","422,88123752495","252,991017964072","56,9540918163673"
"4679","-514,800399201597","41,1996007984032","202,199600798403","-591,11876247505","146,991017964072","24,9540918163673"
"4687","-779,800399201597","-1090,8003992016","-17,8003992015968","-591,11876247505","146,991017964072","24,9540918163673"
"4687","-779,800399201597","-1090,8003992016","-17,8003992015968","-406,11876247505","64,9910179640719","61,9540918163673"
"4696","-443,800399201597","1466,1996007984","-663,800399201597","-406,11876247505","64,9910179640719","61,9540918163673"
"4696","-443,800399201597","1466,1996007984","-663,800399201597","502,88123752495","-39,0089820359281","80,9540918163673"
"4708","-316,800399201597","565,199600798403","-558,800399201597","502,88123752495","-39,0089820359281","80,9540918163673"
"4708","-316,800399201597","565,199600798403","-558,800399201597","-279,11876247505","-72,0089820359281","92,9540918163673"
"4716","-143,800399201597","-1333,8003992016","-16,8003992015968","-279,11876247505","-72,0089820359281","92,9540918163673"
"4716","-143,800399201597","-1333,8003992016","-16,8003992015968","-806,11876247505","-102,008982035928","84,9540918163673"
"4724","-8,80039920159681","83,1996007984032","273,199600798403","-806,11876247505","-102,008982035928","84,9540918163673"
"4728","-8,80039920159681","83,1996007984032","273,199600798403","250,88123752495","-189,008982035928","72,9540918163673"
"4737","-272,800399201597","778,199600798403","-183,800399201597","250,88123752495","-189,008982035928","72,9540918163673"
"4737","-272,800399201597","778,199600798403","-183,800399201597","404,88123752495","-141,008982035928","57,9540918163673"
"4745","768,199600798403","-309,800399201597","278,199600798403","404,88123752495","-141,008982035928","57,9540918163673"
"4749","768,199600798403","-309,800399201597","278,199600798403","-283,11876247505","-233,008982035928","-20,0459081836327"
"4757","34,1996007984032","-696,800399201597","-232,800399201597","-283,11876247505","-233,008982035928","-20,0459081836327"
"4757","34,1996007984032","-696,800399201597","-232,800399201597","-57,1187624750499","-106,008982035928","-34,0459081836327"
"4765","185,199600798403","440,199600798403","-80,8003992015968","-57,1187624750499","-106,008982035928","-34,0459081836327"
"4769","185,199600798403","440,199600798403","-80,8003992015968","320,88123752495","-39,0089820359281","-39,0459081836327"
"4777","614,199600798403","337,199600798403","282,199600798403","320,88123752495","-39,0089820359281","-39,0459081836327"
"4778","614,199600798403","337,199600798403","282,199600798403","81,8812375249501","-14,0089820359281","-43,0459081836327"
"4786","72,1996007984032","-6,80039920159681","106,199600798403","81,8812375249501","-14,0089820359281","-43,0459081836327"
"4786","72,1996007984032","-6,80039920159681","106,199600798403","-159,11876247505","119,991017964072","-31,0459081836327"
"4798","-246,800399201597","-88,8003992015968","-222,800399201597","-159,11876247505","119,991017964072","-31,0459081836327"
"4798","-246,800399201597","-88,8003992015968","-222,800399201597","-37,1187624750499","73,9910179640719","-17,0459081836327"
"4806","19,1996007984032","178,199600798403","-21,8003992015968","-37,1187624750499","73,9910179640719","-17,0459081836327"
"4806","19,1996007984032","178,199600798403","-21,8003992015968","118,88123752495","19,9910179640719","-0,0459081836327345"
"4814","-124,800399201597","237,199600798403","-150,800399201597","118,88123752495","19,9910179640719","-0,0459081836327345"
"4818","-124,800399201597","237,199600798403","-150,800399201597","17,8812375249501","33,9910179640719","25,9540918163673"
"4827","-160,800399201597","16,1996007984032","-29,8003992015968","17,8812375249501","33,9910179640719","25,9540918163673"
"4827","-160,800399201597","16,1996007984032","-29,8003992015968","-64,1187624750499","0,991017964071856","35,9540918163673"
"4835","-155,800399201597","31,1996007984032","-95,8003992015968","-64,1187624750499","0,991017964071856","35,9540918163673"
"4839","-155,800399201597","31,1996007984032","-95,8003992015968","-21,1187624750499","6,99101796407186","58,9540918163673"
"4847","-56,8003992015968","31,1996007984032","-61,8003992015968","-21,1187624750499","6,99101796407186","58,9540918163673"
"4847","-56,8003992015968","31,1996007984032","-61,8003992015968","-33,1187624750499","-30,0089820359281","63,9540918163673"
"4855","26,1996007984032","0,199600798403194","-11,8003992015968","-33,1187624750499","-30,0089820359281","63,9540918163673"
"4859","26,1996007984032","0,199600798403194","-11,8003992015968","-59,1187624750499","-37,0089820359281","48,9540918163673"
"4867","-49,8003992015968","-235,800399201597","-22,8003992015968","-59,1187624750499","-37,0089820359281","48,9540918163673"
"4868","-49,8003992015968","-235,800399201597","-22,8003992015968","-70,1187624750499","-29,0089820359281","31,9540918163673"
"4876","41,1996007984032","-136,800399201597","4,19960079840319","-70,1187624750499","-29,0089820359281","31,9540918163673"
"4876","41,1996007984032","-136,800399201597","4,19960079840319","19,8812375249501","-57,0089820359281","3,95409181636727"
"4884","47,1996007984032","52,1996007984032","-33,8003992015968","19,8812375249501","-57,0089820359281","3,95409181636727"
"4888","47,1996007984032","52,1996007984032","-33,8003992015968","79,8812375249501","-48,0089820359281","-12,0459081836327"
"4896","40,1996007984032","2,19960079840319","-29,8003992015968","79,8812375249501","-48,0089820359281","-12,0459081836327"
"4896","40,1996007984032","2,19960079840319","-29,8003992015968","16,8812375249501","-27,0089820359281","-26,0459081836327"
"4904","65,1996007984032","61,1996007984032","-16,8003992015968","16,8812375249501","-27,0089820359281","-26,0459081836327"
"4908","65,1996007984032","61,1996007984032","-16,8003992015968","32,8812375249501","-18,0089820359281","-25,0459081836327"
"4917","81,1996007984032","148,199600798403","-47,8003992015968","32,8812375249501","-18,0089820359281","-25,0459081836327"
"4917","81,1996007984032","148,199600798403","-47,8003992015968","30,8812375249501","-10,0089820359281","-14,0459081836327"
"4925","40,1996007984032","26,1996007984032","-2,80039920159681","30,8812375249501","-10,0089820359281","-14,0459081836327"
"4925","40,1996007984032","26,1996007984032","-2,80039920159681","-19,1187624750499","-0,00898203592814371","-2,04590818363273"
"4937","73,1996007984032","7,19960079840319","19,1996007984032","-19,1187624750499","-0,00898203592814371","-2,04590818363273"
"4937","73,1996007984032","7,19960079840319","19,1996007984032","-24,1187624750499","3,99101796407186","10,9540918163673"
"4945","47,1996007984032","52,1996007984032","-33,8003992015968","-24,1187624750499","3,99101796407186","10,9540918163673"
"4946","47,1996007984032","52,1996007984032","-33,8003992015968","-9,1187624750499","12,9910179640719","18,9540918163673"
"4957","13,1996007984032","46,1996007984032","-41,8003992015968","-9,1187624750499","12,9910179640719","18,9540918163673"
"4958","13,1996007984032","46,1996007984032","-41,8003992015968","-27,1187624750499","20,9910179640719","20,9540918163673"
"4966","-40,8003992015968","-25,8003992015968","-19,8003992015968","-27,1187624750499","20,9910179640719","20,9540918163673"
"4966","-40,8003992015968","-25,8003992015968","-19,8003992015968","-36,1187624750499","22,9910179640719","19,9540918163673"
"4974","-29,8003992015968","-100,800399201597","-24,8003992015968","-36,1187624750499","22,9910179640719","19,9540918163673"
"4978","-29,8003992015968","-100,800399201597","-24,8003992015968","-46,1187624750499","16,9910179640719","11,9540918163673"
"4986","-44,8003992015968","-85,8003992015968","-63,8003992015968","-46,1187624750499","16,9910179640719","11,9540918163673"
"4987","-44,8003992015968","-85,8003992015968","-63,8003992015968","-6,1187624750499","10,9910179640719","6,95409181636727"
"4995","-77,8003992015968","5,19960079840319","-69,8003992015968","-6,1187624750499","10,9910179640719","6,95409181636727"
"4998","-77,8003992015968","5,19960079840319","-69,8003992015968","16,8812375249501","1,99101796407186","1,95409181636727"
"5007","-60,8003992015968","-73,8003992015968","-32,8003992015968","16,8812375249501","1,99101796407186","1,95409181636727"
"5007","-60,8003992015968","-73,8003992015968","-32,8003992015968","-13,1187624750499","-7,00898203592814","0,954091816367265"
"5015","-38,8003992015968","-46,8003992015968","-49,8003992015968","-13,1187624750499","-7,00898203592814","0,954091816367265"
"5019","-38,8003992015968","-46,8003992015968","-49,8003992015968","9,8812375249501","-21,0089820359281","-6,04590818363273"
"5027","-31,8003992015968","32,1996007984032","-71,8003992015968","9,8812375249501","-21,0089820359281","-6,04590818363273"
"5028","-31,8003992015968","32,1996007984032","-71,8003992015968","12,8812375249501","-31,0089820359281","-6,04590818363273"
"5036","4,19960079840319","-120,800399201597","-26,8003992015968","12,8812375249501","-31,0089820359281","-6,04590818363273"
"5036","4,19960079840319","-120,800399201597","-26,8003992015968","-17,1187624750499","-23,0089820359281","-4,04590818363273"
"5048","16,1996007984032","-46,8003992015968","12,1996007984032","-17,1187624750499","-23,0089820359281","-4,04590818363273"
"5048","16,1996007984032","-46,8003992015968","12,1996007984032","32,8812375249501","-21,0089820359281","-6,04590818363273"
"5056","0,199600798403194","75,1996007984032","-35,8003992015968","32,8812375249501","-21,0089820359281","-6,04590818363273"
"5056","0,199600798403194","75,1996007984032","-35,8003992015968","59,8812375249501","-17,0089820359281","-4,04590818363273"
"5064","42,1996007984032","152,199600798403","-7,80039920159681","59,8812375249501","-17,0089820359281","-4,04590818363273"
"5068","42,1996007984032","152,199600798403","-7,80039920159681","32,8812375249501","-21,0089820359281","0,954091816367265"
"5076","-6,80039920159681","101,199600798403","-16,8003992015968","32,8812375249501","-21,0089820359281","0,954091816367265"
"5076","-6,80039920159681","101,199600798403","-16,8003992015968","-18,1187624750499","-9,00898203592814","10,9540918163673"
"5085","-10,8003992015968","22,1996007984032","-50,8003992015968","-18,1187624750499","-9,00898203592814","10,9540918163673"
"5089","-10,8003992015968","22,1996007984032","-50,8003992015968","-43,1187624750499","-11,0089820359281","17,9540918163673"
"5097","35,1996007984032","-19,8003992015968","-39,8003992015968","-43,1187624750499","-11,0089820359281","17,9540918163673"
"5097","35,1996007984032","-19,8003992015968","-39,8003992015968","-32,1187624750499","-16,0089820359281","20,9540918163673"
"5105","-17,8003992015968","-86,8003992015968","-42,8003992015968","-32,1187624750499","-16,0089820359281","20,9540918163673"
"5106","-17,8003992015968","-86,8003992015968","-42,8003992015968","-42,1187624750499","-7,00898203592814","19,9540918163673"
"5117","-6,80039920159681","-89,8003992015968","-11,8003992015968","-42,1187624750499","-7,00898203592814","19,9540918163673"
"5118","-6,80039920159681","-89,8003992015968","-11,8003992015968","-15,1187624750499","-13,0089820359281","10,9540918163673"
"5126","4,19960079840319","-1,80039920159681","-23,8003992015968","-15,1187624750499","-13,0089820359281","10,9540918163673"
"5126","4,19960079840319","-1,80039920159681","-23,8003992015968","25,8812375249501","-13,0089820359281","1,95409181636727"
"5138","-21,8003992015968","21,1996007984032","-35,8003992015968","25,8812375249501","-13,0089820359281","1,95409181636727"
"5138","-21,8003992015968","21,1996007984032","-35,8003992015968","2,8812375249501","-9,00898203592814","2,95409181636727"
"5146","34,1996007984032","-45,8003992015968","5,19960079840319","2,8812375249501","-9,00898203592814","2,95409181636727"
"5146","34,1996007984032","-45,8003992015968","5,19960079840319","-25,1187624750499","-24,0089820359281","0,954091816367265"
"5154","-0,800399201596806","-67,8003992015968","-19,8003992015968","-25,1187624750499","-24,0089820359281","0,954091816367265"
"5158","-0,800399201596806","-67,8003992015968","-19,8003992015968","-10,1187624750499","-13,0089820359281","4,95409181636727"
"5167","54,1996007984032","-14,8003992015968","-22,8003992015968","-10,1187624750499","-13,0089820359281","4,95409181636727"
"5167","54,1996007984032","-14,8003992015968","-22,8003992015968","7,8812375249501","-17,0089820359281","6,95409181636727"
"5175","23,1996007984032","-14,8003992015968","-26,8003992015968","7,8812375249501","-17,0089820359281","6,95409181636727"
"5179","23,1996007984032","-14,8003992015968","-26,8003992015968","0,8812375249501","-10,0089820359281","10,9540918163673"
"5187","-15,8003992015968","0,199600798403194","-21,8003992015968","0,8812375249501","-10,0089820359281","10,9540918163673"
"5187","-15,8003992015968","0,199600798403194","-21,8003992015968","0,8812375249501","-3,00898203592814","11,9540918163673"
"5195","-13,8003992015968","22,1996007984032","-3,80039920159681","0,8812375249501","-3,00898203592814","11,9540918163673"
"5195","-13,8003992015968","22,1996007984032","-3,80039920159681","5,8812375249501","-12,0089820359281","8,95409181636727"
"5207","65,1996007984032","-46,8003992015968","0,199600798403194","5,8812375249501","-12,0089820359281","8,95409181636727"
"5208","65,1996007984032","-46,8003992015968","0,199600798403194","-8,1187624750499","-12,0089820359281","2,95409181636727"
"5216","40,1996007984032","-33,8003992015968","-0,800399201596806","-8,1187624750499","-12,0089820359281","2,95409181636727"
"5216","40,1996007984032","-33,8003992015968","-0,800399201596806","3,8812375249501","-1,00898203592814","-2,04590818363273"
"5224","-21,8003992015968","3,19960079840319","-40,8003992015968","3,8812375249501","-1,00898203592814","-2,04590818363273"
"5228","-21,8003992015968","3,19960079840319","-40,8003992015968","21,8812375249501","7,99101796407186","-5,04590818363273"
"5236","-340,800399201597","79,1996007984032","-236,800399201597","21,8812375249501","7,99101796407186","-5,04590818363273"
"5236","-340,800399201597","79,1996007984032","-236,800399201597","17,8812375249501","4,99101796407186","1,95409181636727"
"5244","-348,800399201597","155,199600798403","-235,800399201597","17,8812375249501","4,99101796407186","1,95409181636727"
"5248","-348,800399201597","155,199600798403","-235,800399201597","17,8812375249501","-49,0089820359281","10,9540918163673"
"5257","-383,800399201597","355,199600798403","175,199600798403","17,8812375249501","-49,0089820359281","10,9540918163673"
"5257","-383,800399201597","355,199600798403","175,199600798403","59,8812375249501","-120,008982035928","34,9540918163673"
"5265","84,1996007984032","5,19960079840319","-81,8003992015968","59,8812375249501","-120,008982035928","34,9540918163673"
"5269","84,1996007984032","5,19960079840319","-81,8003992015968","-47,1187624750499","-158,008982035928","32,9540918163673"
"5277","132,199600798403","-1126,8003992016","-480,800399201597","-47,1187624750499","-158,008982035928","32,9540918163673"
"5277","132,199600798403","-1126,8003992016","-480,800399201597","-484,11876247505","-69,0089820359281","36,9540918163673"
"5285","377,199600798403","-1306,8003992016","-21,8003992015968","-484,11876247505","-69,0089820359281","36,9540918163673"
"5289","377,199600798403","-1306,8003992016","-21,8003992015968","-134,11876247505","-109,008982035928","-6,04590818363273"
"5298","528,199600798403","165,199600798403","123,199600798403","-134,11876247505","-109,008982035928","-6,04590818363273"
"5298","528,199600798403","165,199600798403","123,199600798403","722,88123752495","-1,00898203592814","18,9540918163673"
"5306","45,1996007984032","921,199600798403","189,199600798403","722,88123752495","-1,00898203592814","18,9540918163673"
"5306","45,1996007984032","921,199600798403","189,199600798403","269,88123752495","51,9910179640719","6,95409181636727"
"5318","-14,8003992015968","-578,800399201597","-83,8003992015968","269,88123752495","51,9910179640719","6,95409181636727"
"5318","-14,8003992015968","-578,800399201597","-83,8003992015968","-622,11876247505","30,9910179640719","-0,0459081836327345"
"5326","157,199600798403","-1181,8003992016","-109,800399201597","-622,11876247505","30,9910179640719","-0,0459081836327345"
"5327","157,199600798403","-1181,8003992016","-109,800399201597","-197,11876247505","24,9910179640719","-13,0459081836327"
"5335","308,199600798403","121,199600798403","143,199600798403","-197,11876247505","24,9910179640719","-13,0459081836327"
"5338","308,199600798403","121,199600798403","143,199600798403","318,88123752495","28,9910179640719","-2,04590818363273"
"5347","-170,800399201597","185,199600798403","65,1996007984032","318,88123752495","28,9910179640719","-2,04590818363273"
"5347","-170,800399201597","185,199600798403","65,1996007984032","172,88123752495","112,991017964072","13,9540918163673"
"5355","23,1996007984032","231,199600798403","217,199600798403","172,88123752495","112,991017964072","13,9540918163673"
"5359","23,1996007984032","231,199600798403","217,199600798403","103,88123752495","65,9910179640719","2,95409181636727"
"5368","-258,800399201597","408,199600798403","-260,800399201597","103,88123752495","65,9910179640719","2,95409181636727"
"5368","-258,800399201597","408,199600798403","-260,800399201597","34,8812375249501","65,9910179640719","12,9540918163673"
"5376","-87,8003992015968","-390,800399201597","-160,800399201597","34,8812375249501","65,9910179640719","12,9540918163673"
"5376","-87,8003992015968","-390,800399201597","-160,800399201597","-186,11876247505","26,9910179640719","7,95409181636727"
"5388","81,1996007984032","-421,800399201597","99,1996007984032","-186,11876247505","26,9910179640719","7,95409181636727"
"5388","81,1996007984032","-421,800399201597","99,1996007984032","-44,1187624750499","8,99101796407186","12,9540918163673"
"5396","-77,8003992015968","142,199600798403","79,1996007984032","-44,1187624750499","8,99101796407186","12,9540918163673"
"5396","-77,8003992015968","142,199600798403","79,1996007984032","244,88123752495","52,9910179640719","27,9540918163673"
"5404","-127,800399201597","311,199600798403","-57,8003992015968","244,88123752495","52,9910179640719","27,9540918163673"
"5408","-127,800399201597","311,199600798403","-57,8003992015968","90,8812375249501","4,99101796407186","21,9540918163673"
"5416","-111,800399201597","-109,800399201597","-180,800399201597","90,8812375249501","4,99101796407186","21,9540918163673"
"5417","-111,800399201597","-109,800399201597","-180,800399201597","-178,11876247505","-12,0089820359281","25,9540918163673"
"5424","70,1996007984032","-302,800399201597","-12,8003992015968","-178,11876247505","-12,0089820359281","25,9540918163673"
"5428","70,1996007984032","-302,800399201597","-12,8003992015968","-82,1187624750499","-43,0089820359281","20,9540918163673"
"5437","95,1996007984032","183,199600798403","-31,8003992015968","-82,1187624750499","-43,0089820359281","20,9540918163673"
"5437","95,1996007984032","183,199600798403","-31,8003992015968","93,8812375249501","-26,0089820359281","25,9540918163673"
"5445","-68,8003992015968","218,199600798403","-88,8003992015968","93,8812375249501","-26,0089820359281","25,9540918163673"
"5449","-68,8003992015968","218,199600798403","-88,8003992015968","46,8812375249501","12,9910179640719","30,9540918163673"
"5457","20,1996007984032","35,1996007984032","49,1996007984032","46,8812375249501","12,9910179640719","30,9540918163673"
"5457","20,1996007984032","35,1996007984032","49,1996007984032","-56,1187624750499","-10,0089820359281","21,9540918163673"
"5466","-32,8003992015968","-76,8003992015968","-26,8003992015968","-56,1187624750499","-10,0089820359281","21,9540918163673"
"5466","-32,8003992015968","-76,8003992015968","-26,8003992015968","-78,1187624750499","-21,0089820359281","16,9540918163673"
"5478","111,199600798403","-261,800399201597","-49,8003992015968","-78,1187624750499","-21,0089820359281","16,9540918163673"
"5478","111,199600798403","-261,800399201597","-49,8003992015968","-44,1187624750499","-2,00898203592814","14,9540918163673"
"5486","143,199600798403","-62,8003992015968","24,1996007984032","-44,1187624750499","-2,00898203592814","14,9540918163673"
"5486","143,199600798403","-62,8003992015968","24,1996007984032","80,8812375249501","23,9910179640719","11,9540918163673"
"5494","-42,8003992015968","109,199600798403","-85,8003992015968","80,8812375249501","23,9910179640719","11,9540918163673"
"5498","-42,8003992015968","109,199600798403","-85,8003992015968","87,8812375249501","50,9910179640719","14,9540918163673"
"5506","-80,8003992015968","-43,8003992015968","-18,8003992015968","87,8812375249501","50,9910179640719","14,9540918163673"
"5507","-80,8003992015968","-43,8003992015968","-18,8003992015968","8,8812375249501","34,9910179640719","5,95409181636727"
"5515","39,1996007984032","-90,8003992015968","33,1996007984032","8,8812375249501","34,9910179640719","5,95409181636727"
"5519","39,1996007984032","-90,8003992015968","33,1996007984032","2,8812375249501","13,9910179640719","4,95409181636727"
"5527","-42,8003992015968","-25,8003992015968","-70,8003992015968","2,8812375249501","13,9910179640719","4,95409181636727"
"5527","-42,8003992015968","-25,8003992015968","-70,8003992015968","35,8812375249501","24,9910179640719","7,95409181636727"
"5535","-3,80039920159681","-70,8003992015968","-59,8003992015968","35,8812375249501","24,9910179640719","7,95409181636727"
"5535","-3,80039920159681","-70,8003992015968","-59,8003992015968","31,8812375249501","15,9910179640719","15,9540918163673"
"5547","-60,8003992015968","140,199600798403","-61,8003992015968","31,8812375249501","15,9910179640719","15,9540918163673"
"5547","-60,8003992015968","140,199600798403","-61,8003992015968","72,8812375249501","16,9910179640719","20,9540918163673"
"5556","-40,8003992015968","145,199600798403","-65,8003992015968","72,8812375249501","16,9910179640719","20,9540918163673"
"5556","-40,8003992015968","145,199600798403","-65,8003992015968","33,8812375249501","1,99101796407186","35,9540918163673"
"5568","-25,8003992015968","94,1996007984032","-29,8003992015968","33,8812375249501","1,99101796407186","35,9540918163673"
"5568","-25,8003992015968","94,1996007984032","-29,8003992015968","-3,1187624750499","-9,00898203592814","35,9540918163673"
"5576","-1,80039920159681","5,19960079840319","-30,8003992015968","-3,1187624750499","-9,00898203592814","35,9540918163673"
"5576","-1,80039920159681","5,19960079840319","-30,8003992015968","-20,1187624750499","-8,00898203592814","38,9540918163673"
"5584","-23,8003992015968","-92,8003992015968","-38,8003992015968","-20,1187624750499","-8,00898203592814","38,9540918163673"
"5588","-23,8003992015968","-92,8003992015968","-38,8003992015968","-39,1187624750499","-16,0089820359281","37,9540918163673"
"5597","15,1996007984032","-103,800399201597","-31,8003992015968","-39,1187624750499","-16,0089820359281","37,9540918163673"
"5597","15,1996007984032","-103,800399201597","-31,8003992015968","-4,1187624750499","-23,0089820359281","35,9540918163673"
"5605","51,1996007984032","63,1996007984032","-60,8003992015968","-4,1187624750499","-23,0089820359281","35,9540918163673"
"5609","51,1996007984032","63,1996007984032","-60,8003992015968","43,8812375249501","-9,00898203592814","31,9540918163673"
"5617","38,1996007984032","30,1996007984032","-2,80039920159681","43,8812375249501","-9,00898203592814","31,9540918163673"
"5617","38,1996007984032","30,1996007984032","-2,80039920159681","25,8812375249501","-8,00898203592814","28,9540918163673"
"5625","-60,8003992015968","4,19960079840319","-42,8003992015968","25,8812375249501","-8,00898203592814","28,9540918163673"
"5625","-60,8003992015968","4,19960079840319","-42,8003992015968","0,8812375249501","3,99101796407186","32,9540918163673"
"5637","83,1996007984032","26,1996007984032","39,1996007984032","0,8812375249501","3,99101796407186","32,9540918163673"
"5638","83,1996007984032","26,1996007984032","39,1996007984032","25,8812375249501","-10,0089820359281","33,9540918163673"
"5646","125,199600798403","-88,8003992015968","4,19960079840319","25,8812375249501","-10,0089820359281","33,9540918163673"
"5646","125,199600798403","-88,8003992015968","4,19960079840319","-17,1187624750499","-2,00898203592814","35,9540918163673"
"5658","11,1996007984032","-264,800399201597","-81,8003992015968","-17,1187624750499","-2,00898203592814","35,9540918163673"
"5658","11,1996007984032","-264,800399201597","-81,8003992015968","-64,1187624750499","24,9910179640719","30,9540918163673"
"5666","96,1996007984032","-225,800399201597","0,199600798403194","-64,1187624750499","24,9910179640719","30,9540918163673"
"5666","96,1996007984032","-225,800399201597","0,199600798403194","44,8812375249501","14,9910179640719","25,9540918163673"
"5674","-53,8003992015968","229,199600798403","19,1996007984032","44,8812375249501","14,9910179640719","25,9540918163673"
"5678","-53,8003992015968","229,199600798403","19,1996007984032","142,88123752495","40,9910179640719","29,9540918163673"
"5687","-82,8003992015968","232,199600798403","-79,8003992015968","142,88123752495","40,9910179640719","29,9540918163673"
"5687","-82,8003992015968","232,199600798403","-79,8003992015968","73,8812375249501","25,9910179640719","24,9540918163673"
"5695","-67,8003992015968","-19,8003992015968","-94,8003992015968","73,8812375249501","25,9910179640719","24,9540918163673"
"5699","-67,8003992015968","-19,8003992015968","-94,8003992015968","-70,1187624750499","10,9910179640719","30,9540918163673"
"5707","-64,8003992015968","-18,8003992015968","-42,8003992015968","-70,1187624750499","10,9910179640719","30,9540918163673"
"5707","-64,8003992015968","-18,8003992015968","-42,8003992015968","-23,1187624750499","-0,00898203592814371","36,9540918163673"
"5716","-52,8003992015968","161,199600798403","-53,8003992015968","-23,1187624750499","-0,00898203592814371","36,9540918163673"
"5716","-52,8003992015968","161,199600798403","-53,8003992015968","80,8812375249501","-3,00898203592814","46,9540918163673"
"5728","-63,8003992015968","192,199600798403","-63,8003992015968","80,8812375249501","-3,00898203592814","46,9540918163673"
"5728","-63,8003992015968","192,199600798403","-63,8003992015968","35,8812375249501","-12,0089820359281","50,9540918163673"
"5736","-21,8003992015968","93,1996007984032","-55,8003992015968","35,8812375249501","-12,0089820359281","50,9540918163673"
"5736","-21,8003992015968","93,1996007984032","-55,8003992015968","-36,1187624750499","-25,0089820359281","52,9540918163673"
"5748","8,19960079840319","-46,8003992015968","-5,80039920159681","-36,1187624750499","-25,0089820359281","52,9540918163673"
"5748","8,19960079840319","-46,8003992015968","-5,80039920159681","-41,1187624750499","-27,0089820359281","53,9540918163673"
"5756","14,1996007984032","-16,8003992015968","1,19960079840319","-41,1187624750499","-27,0089820359281","53,9540918163673"
"5756","14,1996007984032","-16,8003992015968","1,19960079840319","-17,1187624750499","-30,0089820359281","50,9540918163673"
"5764","-5,80039920159681","-14,8003992015968","-18,8003992015968","-17,1187624750499","-30,0089820359281","50,9540918163673"
"5769","-5,80039920159681","-14,8003992015968","-18,8003992015968","-8,1187624750499","-25,0089820359281","52,9540918163673"
"5777","-34,8003992015968","-165,800399201597","-56,8003992015968","-8,1187624750499","-25,0089820359281","52,9540918163673"
"5777","-34,8003992015968","-165,800399201597","-56,8003992015968","-26,1187624750499","-21,0089820359281","46,9540918163673"
"5785","85,1996007984032","-111,800399201597","-17,8003992015968","-26,1187624750499","-21,0089820359281","46,9540918163673"
"5789","85,1996007984032","-111,800399201597","-17,8003992015968","8,8812375249501","-39,0089820359281","40,9540918163673"
"5797","113,199600798403","49,1996007984032","28,1996007984032","8,8812375249501","-39,0089820359281","40,9540918163673"
"5798","113,199600798403","49,1996007984032","28,1996007984032","71,8812375249501","-24,0089820359281","31,9540918163673"
"5806","123,199600798403","68,1996007984032","22,1996007984032","71,8812375249501","-24,0089820359281","31,9540918163673"
"5806","123,199600798403","68,1996007984032","22,1996007984032","19,8812375249501","2,99101796407186","28,9540918163673"
"5818","36,1996007984032","-122,800399201597","-18,8003992015968","19,8812375249501","2,99101796407186","28,9540918163673"
"5818","36,1996007984032","-122,800399201597","-18,8003992015968","-21,1187624750499","19,9910179640719","31,9540918163673"
"5826","8,19960079840319","-60,8003992015968","-11,8003992015968","-21,1187624750499","19,9910179640719","31,9540918163673"
