Timer,AX,AY,AZ,GX,GY,GZ
"1005","2.72507319270354","6.72505509258018","-27.2748641035664","0.0645907788178162","-0.043391808214684","-1.05299700743336"
"1006","2.72507425762158","6.72506966071269","-27.2749092274127","-3.38053823959689","-0.0433918380887907","-1.05299752278246"
"1013","-2.64151919127657","3.25945449989797","-25.5595720235317","-2.36977194083758","-0.0433918469427608","-1.0529976418544"
"1017","-0.775512167929904","4.33171336013929","-26.0701366023413","-2.06687984085096","-3.34530932882981","0.697059549715338"
"1025","3.19610211223867","4.61946534781305","-26.2162719437982","-1.97522735081741","-2.49845520476926","0.134513944005444"
"1025","2.03625584533204","4.69672003053181","-26.2581258886713","-1.94746945805837","-2.2024789452393","3.49388063010955"
"1033","0.00244199599879469","9.91200492880524","-24.5565352840882","-1.93906201156694","-2.09900880039043","2.33372187490422"
"1037","0.572208746181033","8.31223393773641","-25.0691629699227","-0.239402879198324","-0.412437153918207","-3.20631779524451"
"1045","4.26965701437986","4.41968968565951","-23.5024122904747","-0.724597576289399","-0.822809053542662","-1.5913277097072"
"1045","3.05181571244737","5.37459743901367","-24.0536609678101","0.825555678909869","-7.56786912044035","-4.68758018844537"
"1054","1.00573353448397","3.89946210451651","-20.7843938371397","0.295077552804308","-5.92595328687842","-3.46164330812457"
"1058","1.57290503861719","4.50340944545438","-21.8480049338008","1.83151502731539","1.24965658111831","3.84484091195533"
"1066","-1.88403516020119","9.86010370618838","-34.1476945973087","1.2968825642994","-0.24173832031125","1.67146196697525"
"1066","-0.615316749313769","8.29829921011024","-30.6705920710136","-2.25927608662067","-5.71432747832219","-2.37188276926977"
"1074","-0.34693188805199","0.952919698183883","-24.5339395756608","-1.33639169982375","-4.6275537151851","-1.38271895333102"
"1074","-0.290157718830214","2.9807907555093","-25.7762694096383","-1.05686165637556","2.35397756564751","0.614572000653663"
"1086","-2.06660757061944","5.25675937744336","-26.1320995771759","-0.972195531010348","0.794732468731523","0.113894739149835"
"1086","-1.44239800837109","4.86782427676511","-26.2340170427853","2.44767399018434","1.90001614258101","-1.76127457622612"
"1095","2.26656709957356","6.49491514292162","-26.2632084119942","1.48350934456122","1.28642514624089","-1.23006690507011"
"1095","1.0511620714588","5.93176568063701","-26.2715694522849","-0.505636578471762","-2.22888396901682","0.652735012718891"
"1103","-0.99440473681762","5.780568135048","-22.846807545984","-0.108123795987717","-1.45784186002809","0.123435492166142"
"1107","-0.427124211312329","5.73997376477301","-23.865881571604","-1.6848347964165","-1.1882842612295","-0.00888938797204509"
"1115","-0.307121613550897","5.72907475916017","-27.5849231302469","-1.16240067656404","-1.09404647807475","-0.0419706080065919"
"1115","-0.281736248071154","5.72614853262816","-26.6501371697864","0.692950640310725","-1.06110079294658","-1.80024091301523"
"1123","-3.85328595866793","5.72536288281562","-21.241659193642","0.254913158733716","-1.04958292683993","-1.23980848926739"
"1127","-2.60881205913461","5.72515194712038","-22.6925539787943","-1.57487548062529","-1.04555626176575","-2.84970038333043"
"1136","3.01982371624944","5.72509531391458","-28.2488566988473","-1.12909538636694","-1.04414853298426","-2.25217335684619"
"1136","1.21050607626414","5.72508010871189","-26.8403021215469","-0.994074216977713","3.90753864079954","1.39720839977487"
"1144","2.61622264932125","2.26204731269704","-24.723283243216","-0.953178007348695","2.63865668092523","0.309553838930137"
"1144","1.91358812001653","3.33227272509903","-25.1169231916787","0.756321548577028","-1.10574324089863","5.28764019871895"
"1156","-3.60042688297465","5.35112724011549","-25.229670197329","0.274107407758246","-0.414791657453055","3.53216178866616"
"1156","-1.76686234956336","4.89316069307034","-25.261963381323","3.52227604452655","-0.173233839081817","-2.15670781384704"
"1164","0.409470002621745","9.96474632058548","-32.1255262271417","2.50610536611055","-0.0887848255557233","-0.578925214475341"
"1164","-0.130148362345332","8.32639424974088","-30.0913992590353","2.19832008124485","-0.0592613105081988","1.56552043536758"
"1176","1.54416056410214","2.69197716978745","-26.0816245563382","2.10509579954492","-0.0489398407317392","1.10163184782832"
"1177","0.898344096931666","4.17921707612116","-26.9331382484138","0.379746730431192","-6.64692481042269","-2.5143402990565"
"1185","0.761727995632336","4.57851963893893","-23.7498735203494","0.857160253563232","-4.95359128765539","-1.41833333577771"
"1185","0.732828207406121","4.68572664434124","-24.8381175675221","-0.695349820049147","2.23999429011863","0.605668405041993"
"1193","-1.0617451247284","2.98299582932216","-25.1498142289373","-0.165585544630878","0.754883726754174","0.111668840246918"
"1197","-0.441369405921042","3.52583705128615","-25.2390909026667","-3.39935184522282","1.88608495636259","1.73816894904815"
"1205","-0.310135043911722","12.3291539100014","-26.9782400199911","-2.37881888078841","1.28155478045714","1.14479397624846"
"1205","-0.282373709530192","9.69271809894745","-26.4763699890744","-0.37259970477614","2.72060837250515","0.996450233048534"
"1213","3.30041866101885","3.79032986405454","-28.0462018886997","-0.764941214221677","2.22370389257177","0.959364297248553"
"1217","2.05832303526607","5.20562336250013","-27.4958357400106","0.813336099602174","-1.25081142321885","-0.799907186701442"
"1226","1.79556996151006","2.1225806340852","-25.6246206120042","0.291376396326307","-0.465507734347482","-0.239725057688941"
"1226","1.73998714136576","3.29482792418949","-26.0886640775258","-1.56383122574967","-3.49176094990565","-1.84967952543582"
"1234","-3.63715045707137","5.34107384865948","-31.3623112090266","-1.12575022083006","-2.54974408809285","-1.25216814237253"
"1238","-1.77463085930863","4.89046150179911","-29.8727979501593","2.40116421091941","2.73078159704085","0.647209703393286"
"1246","2.19628651812987","6.50099291284472","-20.8782773736365","1.46942211889711","1.57686212556842","0.122054164834741"
"1246","1.03629490791936","5.93339747460393","-23.3020519010351","-0.509903421489467","4.47424665279058","5.2407652801951"
"1254","0.79091012852342","4.04949189148263","-25.7098517580168","-0.109416168934089","3.48717708402027","3.5204430590352"
"1255","0.739001399676436","4.54369028930437","-25.3994977788034","-3.3823388496043","-0.158700758954598","-2.15963749625478"
"1267","0.728020620277067","8.13940417763923","-25.3106056783329","-2.37366585894465","0.566694306492258","-0.579657635077276"
"1267","0.725697744743492","7.10480173364684","-25.2851450557686","-5.46237674859421","2.47069196639507","-0.1846626697829"
"1275","-2.85171337083988","8.55854018785212","-28.7050092714089","-4.3979083292933","2.1363327029233","-0.0859139284593056"
"1275","-1.60847939369646","7.94884809174766","-27.6845324411225","4.4100687808595","2.01944015043259","-0.0612267431284071"
"1287","0.44297435415617","6.05364016036402","-25.6786674334956","2.07789398141025","1.97857432040917","-0.0550549467956824"
"1287","-0.123060847368748","6.54480403994308","-26.1041442576038","-0.32560496699332","-1.33650912778824","-0.0535119977125013"
"1295","1.54565985796228","3.21364577642334","-24.512431689227","-0.053594491018892","-0.495467793852629","-0.053126260441706"
"1295","0.898661257754106","4.3192776075016","-25.0565307405521","-5.06254377697824","-1.85183669319131","-0.0530298261240071"
"1303","2.550254954967","6.34763823760912","-26.9259508361574","-3.57969135425336","-1.32602550769115","-0.0530057175445824"
"1307","1.89963330518521","5.89222394598835","-26.4613932344839","-1.43344144404327","-1.14220104605344","-0.0529996903997263"
"1316","-0.0264591521744991","4.03843739017021","-29.7554905665088","-1.78336940984847","-1.07793570969652","-0.0529981836135122"
"1316","0.566094993402793","4.54072231440945","-28.6989913772292","-0.192245568478816","-1.05546844162853","1.69700219308304"
"1324","4.26836371029759","6.4070929621725","-28.3963871305605","-0.71031422055216","-1.04761384748722","1.13450228725718"
"1328","3.05154212673014","5.90818668595295","-28.3097147213139","0.829881927153641","5.55672550426428","-0.756122689199286"
"1336","-0.782784206967143","4.04272315667655","-24.8577331770831","0.296387918853414","3.86561348399356","-0.228778933313402"
"1336","0.406101890790409","4.54187298118643","-25.8690109089491","-8.35076373764529","-3.32719545282696","-0.0969429943419312"
"1344","2.44605888101449","4.67588754286409","-26.1586627509281","-5.96987693624796","-1.8418133744984","-0.0639840095990635"
"1345","1.87759165385282","4.71186852865185","-26.2416253109827","3.23682670217622","0.327877004287425","1.69425573658665"
"1357","-1.819581713119","2.99001454994528","-24.5518092401149","1.02542114031098","0.0864043555484247","1.13381567313308"
"1357","-0.601682258551632","3.52772147700696","-25.0678093238611","-3.03861093861331","1.65238346062334","-0.75629434273031"
"1365","-0.344047646064036","5.40360242398059","-26.9291812666587","-2.26955500901779","1.19985235033988","-0.228821846696158"
"1365","-0.289547585896744","4.90724952656145","-26.4623184997356","3.05472016363408","-2.25914996190139","1.65304627731238"
"1377","3.2989010982588","6.50550025647079","-29.7557555825138","1.6673759758176","-1.46842290128655","1.12351330831451"
"1377","2.05800200983812","5.93460763165642","-28.6990672835521","4.64139213478567","-1.19198341078459","0.991130066065048"
"1385","-5.35833741662018","4.04981680127722","-23.2556738378232","3.54218412782964","-1.09533970688812","0.958034255502681"
"1386","-2.92719084458301","4.54377752291954","-24.6965680763798","1.51213527350772","-1.06155290788242","-2.55023969713791"
"1394","1.16401395856851","4.67639888497627","-30.2500064233225","1.89725907387881","-1.04974098697058","-1.42730818529806"
"1398","0.0294679663804712","4.71200581666773","-28.8406314275343","-3.077429612448","-1.0456115198493","0.603424692661905"
"1406","3.3663856905872","6.45308012344276","-26.723377563582","-1.58420008611095","-1.04416785130182","0.111107912151896"
"1406","2.0722777094685","5.92053357852471","-27.116950207074","0.565192917930908","2.25713354392724","-0.0119712829756068"
"1414","-1.77839779903875","5.77755247688809","-28.9432562797739","0.216216955613823","1.41127398143919","-0.0427410817574823"
"1418","-0.59297020789343","5.73916410385233","-28.4663498882911","3.50474175655432","1.11556007693643","-0.0504335314529512"
"1426","-2.13066456480204","5.72885737682712","-21.4754401915933","2.5007944513862","1.01217800597059","-0.0523566438768185"
"1427","-1.45594863343416","5.72609016859266","-23.4730922638674","-2.89462635701241","0.976035462673014","1.69716257801721"
"1435","0.475240731454595","5.72534721291001","-25.7588414218708","-1.52883128513716","0.963399969653643","1.13454238349072"
"1438","-0.116235213626584","5.7251477399757","-25.4135294794195","-1.11514918015794","-0.69141576279743","-4.2561126651409"
"1447","-0.241356113660862","5.72509418435663","-25.3146246612507","-0.989850086974746","-0.269942084633071","-2.60377642729881"
"1447","-0.267824205483664","5.7250798054418","-25.2862961795088","-0.951898571635888","-0.122594188430873","1.30930763216172"
"1455","-2.06188313623781","3.99356158809149","-26.9917606335254","-0.940403536197684","-0.0710811197861754","0.287578647026849"
"1455","-1.44139860089409","4.52867380582504","-26.4802425855843","-2.63403444463141","3.24772462067404","0.0321464007431316"
"1467","0.478318647271935","6.40385811059583","-28.0473110842026","-2.14701389058649","2.40798460628076","-0.0317116608277978"
"1467","-0.115584110905505","5.90731817474679","-27.4961534376226","-1.99950150595852","2.11441010593106","5.20232382377947"
"1476","1.54724148778743","5.77400433070487","-25.6247116074801","-1.95482186474439","2.01177597420179","3.51083269493129"
"1476","0.89899583593753","5.73821147754223","-26.0886901406007","-3.63840157453714","0.325496568544072","1.33795991271924"
"1488","0.761865864588257","0.534058539885191","-22.7944269508023","-3.14833663916665","0.735970494425005","1.79474171716623"
"1488","0.732857372223381","2.13681819120145","-23.8508786348239","-8.09123997898035","-0.770925484152417","1.90893716827798"
"1496","-2.85019882229121","6.0301648606873","-24.1534692749579","-6.58838307198877","-0.297738814953942","1.93748603105591"
"1496","-1.60815900589518","5.07547254537426","-24.2401377869983","-1.04184883630761","1.51808637175058","0.194623246750398"
"1504","2.23150199612637","8.28218007869286","-27.6921182149849","-2.3618735565568","1.15290186556071","0.758907550674019"
"1508","1.04374439481515","7.1431350132721","-26.6808401634024","0.632532820257843","-2.2755639291698","0.899978626654924"
"1517","-0.995973873120684","6.83731776626946","-28.1047665745003","-0.460499246827378","-1.47416125143896","0.93524639565015"
"1517","-0.42745614661443","6.75521022601184","-27.5126099342626","-0.791564877120489","5.40760382512045","-0.805936662101043"
"1525","-0.30719183118882","3.27013681661946","-23.9158467598383","-0.891840481891771","3.81348029789358","-0.241232426538841"
"1525","-0.281751101919613","4.33444464076266","-24.8856558975202","-4.31643791756741","-1.69502295790758","1.64994363235171"
"1537","-2.06482923376087","11.5462534387437","-28.5905869254092","-3.3537052976229","-0.620804822863673","1.12273764707435"
"1537","-1.44202181875567","9.48252056237444","-27.6517594033724","0.332119492608269","3.05554030327198","-0.759063849244994"
"1545","2.2666466787748","2.00238048643437","-29.0964372150737","-0.551490655644849","2.34079665049766","-0.229514223324829"
"1546","1.05117890565361","3.99407026705502","-28.5102242253476","-0.819125027475223","-1.20987560104358","-3.59712681684479"
"1557","2.58251855847446","1.0657816651875","-24.9151634411417","-0.900188103908474","-0.451196503090755","-2.43902996522478"
"1558","1.90645835215926","2.27957821649292","-25.885460180248","-7.7131915264527","3.11483565287904","-0.399505752319775"
"1566","-0.0250153808305055","6.06849387789834","-26.1633741784428","-5.77676435308402","2.3615264029634","-0.889624699093524"
"1566","0.56640040898479","5.08576333621269","-26.2429747658506","-6.88735758979157","-1.2026284452356","-1.01215443578696"
"1574","-1.09695128332601","10.0164573651081","-26.2657740978627","-6.22374227692187","-0.448662885412882","-1.04278686996032"
"1578","-0.448816921389956","8.34027792278914","-26.2723043202784","9.25127192081305","1.46532306666057","2.44955502149634"
"1586","3.26520924186042","0.964190379857424","-29.7013314066939","4.93845858572954","1.1344557266807","1.3226404943605"
"1586","2.05087483005769","2.98381677172752","-28.6834790210227","1.93504920017733","-2.28201272988461","1.04091186257655"
"1594","-1.78292536699392","5.25757181935399","-19.8240523325642","2.02535436944135","-1.47641576285352","0.970479704630556"
"1598","-0.593927970220417","4.86804240575403","-22.2865206750098","-6.43285638210536","3.75641730103808","-0.797128334855942"
"1607","1.44605256421229","9.95800242105974","-31.5597166571517","-3.99474176308975","2.58582441016021","-0.239030344727566"
"1607","0.877590317595642","8.32458360953916","-29.2157608007356","8.62352067910191","-4.42501017660582","3.40049415280453"
"1615","-2.81958199579102","4.42300539570644","-26.8308227396245","5.44543326010067","-2.87600956399518","2.31037527718755"
"1619","-1.60168231834811","5.37548765954113","-27.1477248322554","1.08860543623626","-2.33447638337485","-4.96215444171669"
"1627","0.444412208378745","3.89970111594801","-25.5249141095598","1.76897722676144","-2.14515548619424","-2.78028687144275"
"1627","-0.122756683495403","4.50347361659224","-26.0601059760466","-4.81339717606063","-2.07896858686479","-0.484819978874269"
"1635","1.54572420082847","2.93406350794513","-22.786239827074","-2.8071153807852","-2.05582953719788","-0.910953255732148"
"1636","0.898674868852573","3.51269942550886","-23.848533665293","-0.502325313926739","-3.69813843025301","-1.01748657494662"
"1647","-1.02666189992369","7.13108357564033","-25.8663759695538","-0.804233465429941","-3.27229234031395","-1.04411990475024"
"1648","-0.433947895883018","6.10256777146751","-25.4443297025741","-2.59279024726217","0.177380844602018","0.69922176279886"
"1656","-0.308565096691902","5.82642604426144","-23.6098681675011","-2.13452154328107","-0.616607694382649","0.135057179686134"
"1656","-0.282041602686653","5.75228595502316","-24.0844386579508","-1.99571773148469","-0.894187403126465","-1.75598396609205"
"1668","-2.06489068633174","5.73238040547846","-27.6475226127067","-1.9536758071686","-0.991229729209449","-1.22874425253659"
"1668","-1.44203481844068","5.72703605120606","-26.6680670171765","-1.9409418384301","-2.67555423034848","0.653065675852271"
"1676","0.47818406172757","5.72560116881184","-22.9603730348623","-1.93708487987098","-2.26439686660884","0.123518157949487"
"1676","-0.115612581149447","5.72521592348934","-23.8984091869191","-1.93591665575858","1.18014111529089","-0.00886872152620887"
"1684","1.54723546518824","3.99359813383303","-27.59423974367","-1.93556281540591","0.384357300823517","-0.0419654413951329"
"1688","0.898994561916097","4.52868361783196","-26.6528056496253","3.15588218753147","1.75654830395292","-1.80023962136236"
"1697","0.761865595081594","6.40386074497882","-26.3831585380067","1.69801667723145","1.23626855215275","-1.23980816635417"
"1697","0.732857315211905","5.9073188820408","-26.3059257659367","1.2564475974357","1.05437788890127","0.650299697397876"
"1705","-2.85019883435143","4.04249016378504","-22.8566479382119","1.1227018912275","0.990788611664185","0.122826663335888"
"1709","-1.6081590084464","4.5418104259401","-23.8687000730352","1.08219200331278","0.968557694984616","-3.50904159517961"
"1717","4.01996186267882","4.67587074767854","-29.2993087547431","1.0699220690817","0.960785729680288","-2.41700865980848"
"1717","2.21053529977818","4.71186401938566","-27.8547526829124","1.06620566072353","-3.99312639173643","-0.394000425965701"
"1725","-1.74915077000912","4.72152769609017","-27.4410005415737","1.0650800074947","-2.72502227724099","-0.888248367505006"
"1726","-0.586783287485342","4.72412225454568","-27.3224929683471","1.06473906132586","-0.631292634606809","2.48818964711017"
"1738","-2.12935578283662","2.99330449942326","-22.1478147991001","1.06463579303056","-0.89932128255948","1.33229915076396"
"1738","-1.45567177352324","3.52860478120859","-23.6656749119643","4.45882973380369","3.95817048750413","-2.45667347332259"
"1746","5.84067889971335","8.86686829211352","-25.8140012627303","3.48688827863273","2.6563576584222","-1.40391662934423"
"1746","3.38414989087221","7.30011540431321","-25.4293284523473","-3.5959509711053","2.20124173647499","0.609272581650362"
"1758","1.07603555075779","3.41643603388884","-23.6055714845788","-1.74125366723973","2.04213245610637","0.11256988439901"
"1758","1.58777673648344","4.37372388020824","-24.0832079949157","-6.27082707026669","-2.96468744139908","-1.76160578991383"
"1766","-1.880889199258","4.6307419233375","-29.3607484688137","-4.64277773739668","-1.71507997308415","-1.23014970849204"
"1767","-0.614651252317723","4.69974757795641","-27.8723503475207","0.941675705441768","-2.92861347491367","0.65271431186341"
"1775","-0.346791108728996","11.6443320327924","-27.4460408938011","-0.366863765110018","-2.3528667977884","0.123430316952272"
"1779","-0.290127938353518","9.50885325677998","-27.3239366343756","4.328133958731","-0.501186462386786","1.74110931822449"
"1787","-0.278141403761308","2.00945043682856","-23.8618066409645","2.75018956668139","-0.85383594918579","1.14552906854254"
"1787","-0.275605770640567","3.99596844723386","-24.870177637217","2.27225010776462","-0.977122794055743","4.49663400612206"
"1795","-0.2750693824732","2.79780565613181","-26.8725752718206","2.12748827234092","-1.02022407928929","3.33441024051693"
"1799","-0.274955914848985","3.47611614852618","-26.4461053169914","-1.31058348164048","0.615105983137441","1.29385429911565"
"1807","5.09044768938373","5.38974713417181","-24.6103767419218","-0.351932062803427","0.186820082447867","1.78371531376533"
"1808","3.22544588092745","4.90352958016566","-25.0845843246783","1.6355439733563","1.68748896512053","3.65618056742775"
"1816","-6.11137618496747","8.23601586108823","-28.6475643348119","1.23752540319515","1.21212529287643","3.12429688084336"
"1816","-3.08648876572397","7.13074058361654","-27.668078967291","4.51119581663317","-5.5556560071692","-0.508674040802741"
"1828","1.1303160551584","3.37096132621528","-25.6739548022845","3.5027493048002","-3.92168356281984","0.583083228785734"
"1828","0.0223395074143811","4.36151457406999","-26.1027944579713","-3.59114686628225","1.60075094043078","0.856022546182853"
"1836","1.57641786833795","2.89594954310806","-27.9392017666832","-1.73979856446724","0.531403192577091","0.924257375532133"
"1836","0.905167811356958","3.50246637314536","-27.46518858794","-2.87616111854775","1.80795579134201","-0.808683917130547"
"1848","0.763171485088787","7.1283361479948","-23.9022642593257","-2.22035100696647","1.25424069491814","-0.241919240296218"
"1848","0.73313356335759","6.101830126589","-24.8817655752396","-0.324601784030802","-2.24013570652385","-1.85022807108763"
"1856","0.726779337402297","4.09471364038368","-25.1623159635605","-0.750403249268197","-1.46177548610292","-1.25230527878549"
"1857","0.725435163599187","4.55583167964387","-25.2426716701922","0.817739465866933","2.11113722289027","7.64717541929005"
"1865","0.725150816894226","8.14266396663365","-28.6928439740038","0.292710120442692","1.36023342571161","4.87204559380893"
"1869","0.725090666154467","7.10567694019165","-27.6810480365019","1.83079796190489","-2.20308047222509","2.42826313743865"
"1877","-1.06338192523315","3.36423209778987","-25.6776694245563","1.29666537422863","-1.44882091479735","2.81731752334608"
"1877","-0.441715654917362","4.35970787284808","-26.1038584062313","-3.95645448047317","3.76606450563886","-2.33541888017706"
"1885","3.26671144471385","6.35849318340469","-27.939506504505","-2.54755824409817","2.58919708887255","-0.623602981057846"
"1889","2.05119260624896","5.89513834309198","-27.4652758714514","2.97051648927085","0.52736394692941","-3.69564900627804"
"1897","-1.78285814457619","4.03921986395107","-22.1887109145629","1.64187174463764","0.80654366437118","-2.46366051258309"
"1898","-0.593913749981235","4.54093239738577","-23.6773884450525","2.93655461504365","-2.396651330167","3.09433661084065"
"1906","1.44605557236358","4.6756350096174","-24.1037779276167","2.3286977309027","-1.51649360745046","1.48383589169658"
"1906","0.877590953940365","4.71180072710069","-24.2259051090363","3.84169815531958","-1.20878900930513","-0.668789288089435"
"1918","0.7573378730057","2.98999634620221","-27.688041667803","3.29996690536556","-1.10121497197515","-0.206945583035939"
"1918","0.731899520282201","3.5277165895633","-26.6796725520104","-0.258341878604379","3.88758811917816","-0.0914846567725655"
"1926","-2.85040144641816","7.13511546859025","-24.6772754560113","0.663891260004285","2.6316819455115","-0.062619425206722"
"1926","-1.60820186902992","6.10365027683941","-25.1037455651085","-0.753888561130491","-1.10818161995532","-0.0554031173152612"
"1938","-1.34542680533112","4.09520232459434","-23.5123174950625","-0.183316191147354","-0.415644118811284","-0.053599040342396"
"1938","-1.2898393334314","4.55596288433849","-24.0564980328705","1.6866155946822","3.12726482532788","3.44685197890082"
"1947","2.29883938194655","8.14269919321047","-29.3530981572704","1.25299435329598","2.36587166224471","2.32196473371162"
"1947","1.05798895436122","7.10568639802178","-27.8701591326245","-0.575456662596786","-6.15230436486083","-1.45925707758567"
"1959","-4.56988031128537","1.63272028026336","-24.0182565931019","-0.129271419057559","-4.13027281722181","-0.404562530409999"
"1959","-2.76040052372833","3.16330745202433","-24.9149882914876","-5.08546536421637","-0.122570551664374","-0.140888893616081"
"1967","1.19929680520985","5.30576249009863","-28.5989883582448","-3.58663401399302","-0.721471199489911","-0.0749704844176008"
"1967","0.0369317044483489","4.88098090898427","-27.6541657556724","-3.13265689785222","0.719550484902082","1.69150911788202"
"1975","1.57950470363793","9.96147622342132","-25.6699697571815","-2.99515295389695","0.223334053312982","1.13312901845692"
"1979","0.905820800906581","8.3255162756005","-26.1016530547562","2.13783308599743","-1.60054237648002","0.99353399360065"
"1988","4.34022935276917","2.69174144633567","-29.6524531887355","0.692549831970883","-1.23817259821352","0.958635237386582"
"1988","3.06674459429009","4.1791537877586","-28.6694792409246","-3.13943346049594","3.83970750612787","0.949910548333065"
"1996","-0.779568274958984","2.84698829010409","-19.8200424923739","-2.30009287955238","2.61494280385844","0.947729376069686"
"2000","0.406782189474838","3.4893209796416","-22.2853721699448","-3.74297981115208","0.536364691545098","0.947184083003841"
"2008","-1.13071694269566","7.12480679856506","-26.4186526664778","-3.18001206833516","0.80969033960165","0.94704775973738"
"2008","-0.455959713460734","6.10088254693735","-25.602513708318","-8.10083406705724","-0.745152904136413","0.947013678920764"
"2016","-0.313221479507835","4.09445922885143","-28.795910526228","-6.5912890002885","-0.288728678279215","0.94700515871661"
"2016","-0.283026614526405","4.55576337380001","-27.7105685290012","4.04860882380973","-0.129162012696011","2.69700302866557"
"2028","3.30028054540917","2.94810255704088","-27.3997030775353","1.27129970860949","-0.0733772420311248","2.13450249615281"
"2029","2.05829381827165","3.51646870863499","-27.3106644803355","-1.2670248110165","-5.00506982324944","-3.25612263697538"
"2037","-1.7813559532411","3.66906686040855","-23.8580052086342","-1.03585130045281","-3.72919772068633","-1.60377892025742"
"2037","-0.593595976226558","3.71003727333584","-24.8690888246763","-0.965831759136027","1.66804430975957","0.559307008922063"
"2049","1.44612279426588","12.3786090250926","-28.585841756981","-0.9446237229979","0.554929065989022","0.100078491216935"
"2049","0.877605174070511","9.70599608733136","-27.6504002843762","2.45602514315856","-1.48461621064742","1.73527136179065"
"2057","-1.03111898595821","2.06238045648784","-23.955312900009","1.48603880349142","-1.19764461856693","1.14406957943408"
"2057","-0.434890748455143","4.01017939760571","-24.8969598547181","1.19224217246123","3.85387615496084","2.74626913384494"
"2065","3.26815518633395","1.07010673546451","-28.5938246235419","1.10325487761508","2.61989618696568","2.14681902244765"
"2069","2.05149801554316","2.28073943576805","-27.652686750231","-7.40926130048304","3.8388930887993","0.246956494598333"
"2078","-1.7827935382535","6.0688056486023","-25.6695461379947","-4.98759511039369","3.26505642536747","0.771990862636003"
"2078","-0.593900083151147","5.08584704217067","-26.1015317210475","0.837234871211081","3.06444217707414","2.65324945464542"
"2086","1.44605846344663","4.8219367685017","-27.9388400914832","-0.398497576828942","2.99430710348437","2.12356410264777"
"2090","0.877591565520458","4.75108064893339","-27.4650849963306","-4.16701057253918","-0.331008920758389","0.241142764648363"
"2098","-1.0311218647127","4.73205679809771","-23.9022345884454","-3.30844563905065","0.50645508763799","0.77053743014851"
"2098","-0.43489135742725","4.7269491672703","-24.8817570768569","-4.74550975667816","0.799233892520191","-4.34711390347645"
"2106","1.47969519041977","4.72557784172247","-26.8758918740903","-4.18077835693311","0.901589847795678","-2.62652673688269"
"2107","0.884707083214942","4.72520966050075","-26.4470552637036","2.77872210182071","5.88856868881719","1.30362005476575"
"2119","0.758843219938234","6.45662516594674","-26.3242271718822","0.886667033433485","4.63202475428196","0.286156752677856"
"2119","0.732217961572381","5.9214853715415","-26.2890465464994","0.313587411501356","-5.70965514606705","0.0317909271558833"
"2127","0.726585650878963","4.04629366283027","-27.9925483981917","0.140008820390995","-3.32512357377454","-0.0318005292246098"
"2127","0.725394191126299","4.54283161082759","-27.480468218444","0.08743405392089","-0.841089042148891","-0.0476983933197331"
"2139","0.725142149571866","2.94463056434175","-25.6202190210384","0.0715098201101162","-0.972666454236013","-0.0516728593435139"
"2139","0.725088832667943","3.51553652844204","-26.0874033665553","-1.63042603922985","-1.01866613550486","-0.0526664758494591"
"2147","-1.06338231308914","8.86335965386423","-22.7940583908502","-1.14592095009133","-1.03474770029072","-0.0529148799759454"
"2147","-0.441715736964468","7.29917338531616","-23.8507730712723","-0.999170468064206","-1.04036984198449","-0.052976981007567"
"2156","1.47825156026546","3.41618311531253","-24.1534390392707","-0.954721597540501","-1.04233535203564","-0.0529925062654724"
"2159","0.884401697500228","4.37365597520161","-24.2401291268428","2.45296662429097","2.25777418870686","3.44700361242005"
"2168","-1.02968124848858","2.89920933500001","-27.6921157345288","1.48511241669349","1.4114979519156","2.32200264209143"
"2168","-0.43458660927973","3.50334158046811","-26.680839452946","-2.20226363785598","1.11563837738606","0.290752399509278"
"2176","-0.308700210208732","7.12857112859576","-24.6776096817089","-1.31912334800387","1.01220537993751","0.782939838863739"
"2180","-0.282070184617961","6.10189321550679","-25.1038412945861","2.34259392907921","-2.32475165365573","0.905986698702354"
"2188","1.51202300162699","2.36321622203423","-28.6530799480099","1.4516819190825","-1.49135736141561","0.936748413662008"
"2188","0.891545712694336","3.35943512479243","-27.6696587583534","1.18183590540442","-1.20000133604452","2.69443884240192"
"2196","0.760289864527212","3.62690559764942","-25.6744072886557","1.10010295054368","-1.09814278684344","2.1338614495869"
"2197","0.732523984961004","3.69871757958659","-26.1029240598667","-5.71310336972925","2.23826381703387","0.243717101383145"
"2209","-2.85026934707701","5.44951242256328","-21.0849255088699","-3.77673765152412","1.40467709365309","0.771181014332205"
"2209","-1.60817392471774","4.9195757020594","-22.6476620573529","-1.49312428278818","6.06444882350579","4.40304699256947"
"2217","2.23149884019666","9.97183837126356","-33.3767337143482","-1.80144658912049","4.69351274077495","3.31101348712879"
"2217","1.04374372720936","8.32829836352867","-30.4497721787065","-0.197720918132164","-0.736963814643727","-0.461994889231384"
"2229","-0.995974014346102","2.69248839700246","-24.4706919765722","-0.71197263491954","0.364532584131934","0.594753016678573"
"2229","-0.427456176489274","4.17935433328879","-25.7581539276104","4.2236048337915","-0.900780793005375","0.858939993156063"
"2237","-0.307191837508548","2.84704213369975","-26.1269109108261","2.71852901282009","-0.343136446078865","0.924986737275435"
"2238","-0.281751103256489","3.48933543587401","-26.2325308963803","-2.82867730392568","-0.148183058463927","-0.808501576694722"
"2246","-0.276369366951535","3.66178196621969","-26.2627827474807","-1.5088561485562","-0.0800270311464849","-0.241873655187261"
"2249","-0.27523091373831","3.70808138383403","-26.2714475327503","-1.10909896316842","-0.056199571072434","-0.100216674810396"
"2258","5.09038951608213","8.91505518320551","-27.9875076595411","-0.988017552540156","-0.0478694515521727","-0.0648024297161797"
"2258","3.2254335749395","7.31305289276098","-27.4790244417356","9.23133213824939","-0.0449572279661846","3.44405113155737"
"2266","-2.53445905399353","3.4199095637959","-25.6198054921237","6.32664429646365","-0.0439391097754244","2.32126452187576"
"2270","-0.752907506253052","4.37465647311945","-26.087284922919","-6.43293729154795","-1.69398151712554","2.04056786945536"
"2278","-0.376037855061819","4.6309923111451","-26.2211811553291","-3.29765365982087","-1.27083907659723","1.97039370635026"
"2279","-0.296314798959885","4.69981480348798","-26.2595319358611","-2.34801578281568","-1.12290777830772","0.202850165573984"
"2287","1.50900969401587","6.44980701142816","-22.8433597406036","-2.0603824445374","-1.07119075132669","0.760964280379915"
"2291","0.890908277201789","5.91965479494026","-23.8648940454796","-0.276149323629624","-1.0531103930071","-4.3495071909186"
"2299","2.54861488843053","4.04580217929409","-24.1574835920784","-0.735727609984581","-1.04678946978225","-2.62712505874323"
"2299","1.89928636529211","4.54269965455427","-24.2412875743531","-0.874928077768542","-1.04457966455006","-2.19652952569939"
"2307","1.76192732320654","2.94459513597684","-25.9788691943317","-0.917090144181548","-1.04380711297958","-2.08888064243843"
"2307","1.73287037318766","3.5155270164347","-25.4765501982306","-7.71831094132144","0.606861315485918","-3.81196842162319"
"2319","-0.0617362049733662","8.86335710002682","-27.0462535045045","-5.77831495929338","0.18393773297677","-3.24274036641938"
"2319","0.558632480965123","7.29917269964748","-26.4958505238949","4.9919610191719","1.68648129096983","5.64956664738158"
"2328","-1.09859451185171","3.41618293122033","-28.0517815357301","2.25414180289758","1.21177300832379","2.87264340083181"
"2328","-0.449164530170681","4.37365592577549","-27.4974338717493","-0.272221724300275","-0.604584136963084","-3.07158741080563"
"2340","-3.8887037597158","2.8992093217298","-23.9115000068916","-0.0374253799548474","-0.239585604374966","-1.55764511371499"
"2340","-2.61630434547558","3.50334157690525","-24.8844108933458","-1.66342113768729","-1.76237985579317","-1.17915953944233"
"2348","-2.34714080427532","3.66554241400296","-25.1630736399514","-1.15591474935518","-1.29475124912078","-1.08453814587416"
"2348","-2.29020191299586","3.70909101007577","-25.2428886851183","-1.00219746384223","-1.13126751344068","-1.06088279748212"
"2356","1.29876268181729","7.18381189653828","-26.9793277871275","-0.955638436392097","-1.07411332857995","-1.05496896038411"
"2360","0.0579727292056837","6.1167245686177","-26.4766815491383","4.14980153508269","-2.70453047401356","4.19650949889039"
"2369","1.58395572481162","5.8302269410497","-24.6191344369476","2.69617492428003","-2.27452700940325","2.50937911370902"
"2369","0.906762370517238","5.75330644124202","-25.0870927181846","-4.53256068518448","4.47739628689883","-1.41240348258633"
"2377","0.763508798345482","4.00114003455917","-26.9347044483816","-2.72205354896799","2.8378798581665","-0.392849131660162"
"2380","0.733204918648743","4.53070850989923","-26.4639004585875","-3.87078637711268","-2.68649283120992","1.61203945607138"
"2389","-1.06166543518207","6.40440439942788","-24.6154736558349","-3.21872306555977","-1.61782267643708","1.11326160300426"
"2389","-0.44135254838382","5.90746484545523","-25.0860441911984","5.46434173776859","0.406184523447201","-0.761432860262515"
"2397","-0.310131477866058","5.77404370968436","-25.2208257828959","3.09433257569129","0.113780793989989","-0.230106476079209"
"2397","-0.282372955168418","5.73822205023286","-25.2594301495005","2.37648668564715","0.0115559657045192","-0.097274880033383"
"2409","1.5119589535045","3.99709009213707","-28.6976439653884","2.1590602173876","-0.0241820036346268","-0.0640669810219264"
"2410","0.891532163945994","4.52962115850319","-27.68242285798","-2.99813334731799","3.26412062938512","-3.55576500626906"
"2418","-1.02817286866895","2.94108374755271","-25.6780632031998","-1.56018224730668","2.41371667809177","-2.42868951258085"
"2418","-0.43426752641221","3.51458425905519","-26.1039711929623","-4.51887021070986","2.11641404773333","-2.14692063915879"
"2430","-0.308632711376528","5.40007526956919","-26.2259604644165","-3.41501948660146","2.01247655557608","-2.07647842080328"
"2430","-0.282055905906025","4.9063025362407","-26.2609008334813","0.313548197921346","0.325741492953279","1.4411321337856"
"2438","3.30048588923974","3.04221728952921","-26.2709085118274","-0.557115666626715","0.736056120404265","0.320534772432819"
"2438","2.05833725673286","3.54173716312001","-26.2737749276255","-0.820828772371824","0.879502793988267","-1.70961456790538"
"2446","1.79557296992103","3.67585107766317","-26.2745959311833","-0.90070414675391","0.929651988741928","-1.21715190298992"
"2447","1.73998777776541","3.71185873826893","-26.2748310843813","-0.924897390448235","0.947184230317177","-1.09403623676106"
"2459","1.72822927882911","8.91606934864049","-24.5613200926989","-0.932225218893246","0.953313531020065","-1.06325732020385"
"2459","1.72574188440132","7.31332518162009","-25.070533438002","-2.63155733544618","-2.34534034161185","2.44443740893546"
"2467","-1.8517040335308","3.41998266944537","-26.9299615119403","-2.14626360544993","-1.4985552008373","1.32136109122028"
"2471","-0.608477418480853","4.37467610093677","-26.4625419788807","-0.30216164433274","-1.20251771263204","-2.45940798820851"
"2479","-0.345485095098594","8.09402629456849","-21.1879278685272","-0.743606413917506","-1.09902251626768","-1.40460025806571"
"2479","-0.289851664056563","7.09261842352436","-22.6771641637108","-2.57442707784912","0.587557919013117","-1.14089832553001"
"2487","-0.278082960659811","6.82375478717968","-28.2444487225356","-2.12895957082027","0.177189233587171","-1.07497284239608"
"2491","-0.275593407579109","6.75156876084746","-26.839039581675","-1.99403308016122","0.0337236612455571","-1.0584914716126"
"2495","-0.275066767189536","6.73218784913891","-26.4364999691066","-1.9531655475257","-0.0164321405450769","-1.05437112891673"
"2500","-0.274955361611531","6.72698435259339","-26.3212039069311","-1.9407872872185","1.61643165120507","-2.80334104324276"
"2508","-0.274931794860753","3.26255857484033","-22.8610239286462","-1.93703806825783","1.18728353820073","-2.24058352182427"
"2508","-0.274926809547161","4.33240999164441","-23.8699534514592","-0.238789867392442","-2.26354403944979","-2.09989414146965"
"2520","-0.274925754953262","8.08267845103033","-29.2996677494661","-0.724411901782576","-1.46995907807777","-2.06472179638099"
"2520","-0.274925531864328","7.08957169045329","-27.8548555067752","0.825611917276744","-1.192520460736","-5.55592871010883"
"2528","-0.274925484672065","5.09142242627338","-24.0138733032533","0.295094586705325","-1.09552746044094","-4.42873043854079"
"2529","-0.274925474689008","5.55494803590662","-24.9137328223533","0.134407576949598","-1.06161854683556","-4.14693087064878"
"2540","1.51353439451495","2.21636929370404","-23.4578937307451","0.0857375079125955","-1.04976393445736","-4.07648097867578"
"2541","0.891865432946731","3.32000883279042","-24.0409098882044","1.76810856743597","3.9055754871407","-0.558868505682525"
"2545","0.760357498191897","3.61632020428299","-24.2078983411193","1.27767754713963","2.63797035915346","-1.67946538743421"
"2545","0.732538292195421","3.69587555344027","-24.2557274502274","-0.567980434429678","0.544415163029294","1.54038539212787"
"2557","-1.0618064534306","7.18026373616356","-27.6965834321333","-0.127006963818877","0.812504797770896","0.345348087018386"
"2561","-0.441382379402857","6.11577193849738","-26.6821190982895","1.70367094959647","-2.39456730805379","0.0465887607410159"
"2569","-0.31013778832379","4.09845681672102","-31.5322895784491","1.25816020523628","-1.51576502986679","-0.0281010708283267"
"2569","-0.282374290083486","4.55683666875035","-29.9214834361029","2.82033322825359","0.441864045781729","-0.0467735287206623"
"2577","-0.276501195975744","2.94839072132594","-27.7465353297146","2.29349573836299","0.126254414113526","-0.0514416431937462"
"2581","-0.275258800867612","3.51654607660841","-28.1235830927839","-2.95741452320866","-1.63448157918992","-1.80260867181202"
"2590","-0.274995984441314","7.13211634623489","-21.3772643586253","-1.54784902893688","-1.25003779971285","-1.24040042896658"
"2590","-0.274940388219565","6.10284505554485","-23.4449725792734","-1.12090941494647","-1.11563561744448","-1.09984836825523"
"2598","-0.274928627387427","5.82650049105529","-24.0372089906108","-0.991594789457252","-1.06864839184007","-1.06471035307739"
"2598","-0.274926139499433","5.75230594291849","-24.2068383239043","2.44179819941996","3.89897344955111","-2.80592584928293"
"2610","-0.274925613211276","2.26935705830516","-24.255423838342","1.48172964163076","2.6356622758736","-2.24122972333431"
"2610","-0.274925501880209","3.33423528685012","-24.2693397818132","-0.506175628047845","-2.75718843302241","-2.10005569184716"
"2618","1.51353438876291","3.6201398029514","-27.7004822986793","-0.108287067307049","-1.64253797596228","-2.06476218397537"
"2619","0.891865431729946","3.69690106084546","-26.6832358180996","-5.07910946867792","2.04794235694027","1.44406119299258"
"2631","-1.02810236915764","12.3750821406332","-28.1054527418843","-3.58470889338048","1.33814039587148","0.321267037234564"
"2631","-0.434252612936217","9.70504916948884","-27.5128064674606","1.95926402606248","-2.21080423206189","-3.45943150170494"
"2639","3.26829017760644","0.330611865823734","-27.3430597405035","0.638463515422219","-1.45152115403335","-2.40460613643982"
"2639","2.05152657161488","2.81371003688096","-27.2944406019784","3.6326349151099","0.464323811215148","-0.390899795123534"
"2647","1.79413223668598","3.48038624642102","-27.2805150278403","2.53953167641592","0.134106385321366","-0.887473209794464"
"2647","1.73968300486539","3.65937923733344","-27.276526441844","0.511331879421176","4.96985685557969","-2.7616165634622"
"2660","-1.84875492705494","10.6334937128961","-30.7025407137418","0.897015735940572","3.6604432320639","-2.23015240187913"
"2660","-0.607853564104992","8.5059433234916","-29.6838253927492","-7.47172853587866","-0.0981266265236471","-2.09728636148336"
"2668","-0.345353124861009","4.47169787515424","-27.6784649195301","-5.00651564830076","0.587871123551979","-2.06406985138442"
"2672","-0.289823747054964","5.3885608912038","-28.1040862532186","-4.2598337502947","-2.47309961274358","1.44423427614031"
"2680","-0.278077055093582","2.17169673414131","-21.3716800415629","-4.03367321883743","-1.54322005370208","0.321310308021498"
"2680","-0.275592158314844","3.30801489190364","-23.4433731099364","-2.26805943596093","0.432265723960232","-1.70942068400821"
"2688","1.51339336417213","5.34461436016783","-25.7503292126063","-2.73327728502094","0.122898824901813","-1.21710343201563"
"2688","0.891835599369268","4.89141207830862","-25.4110913983513","0.52003931420263","-3.28605304189449","0.655975880982511"
"2696","0.760351187192955","4.76973377217216","-25.3139263420353","-0.494572111300024","-2.47782826262633","0.124245709232047"
"2697","0.732536957165866","4.73706489388783","-25.2860961657631","2.59234010131758","1.10552514562074","-3.50868683370557"
"2709","2.51511299834134","2.99677941227151","-25.2781250006066","1.5273268854245","0.358271434199848","-2.41691996943997"
"2709","1.89219937100998","3.52953774541966","-25.2758418862874","4.59897303128525","0.0970302986046222","-2.14397825337357"
"2721","-1.81649159469009","5.40409006597356","-23.5616096082541","3.52933591627232","0.00569996476484499","-2.07574282435697"
"2721","-0.601028574488481","4.90738045143557","-24.0706163615265","-5.28020672663584","1.62416907189085","-0.308683967102824"
"2729","1.4445505014417","6.50553540791983","-27.6435636076841","-2.94850610731726","1.18998855329218","-0.866919252789287"
"2729","0.877272571037515","5.93461706931582","-26.6669330724044","-0.545150782096","-0.612200018535568","0.743521925789097"
"2737","-1.03118934484802","5.78133369197139","-26.3872049378249","-0.817204759721299","-0.242248129191031","0.146132220433694"
"2741","-0.434905632184044","5.74017930581598","-26.3070847424709","4.19173135013654","-1.76331067888025","-3.50321520590516"
"2746","-0.308767696356311","5.72912994397929","-26.2841365834907","2.70887493653667","-1.29507666641425","-2.41555206248987"
"2746","-0.282084460646589","5.72616334895982","-26.2775637338083","2.25973642725966","2.16941540644729","1.35636372336395"
"2758","1.51201998167399","5.72536686078795","-26.275681127322","2.12369803630995","1.38060757524097","0.299342669827407"
"2762","0.891545073853079","5.72515301514884","-26.2751419080558","-1.31173149634045","1.10483905052009","-5.21491259355673"
"2770","-1.02817013770549","3.99358124384677","-29.7021441532823","-0.352279781979905","1.00842991737237","-3.59347640940276"
"2770","-0.434266948703836","4.52867908311314","-28.6837118092459","3.33255126332118","-2.32607156162385","-1.43811736336427"
"2778","-0.308632589168022","4.67234517065381","-26.6784323867551","2.44864012225958","-1.49181880342814","-1.89927760185465"
"2778","-0.282055880054022","4.71091745257059","-27.1040769351273","-1.21331063593464","-2.8505610000931","-0.264567661477243"
"2790","3.30048589470848","2.98975919967189","-22.0852557173105","-0.322469344422357","-2.3255795232704","-0.855890176382891"
"2790","2.05833725788971","3.52765291912457","-23.647756636201","1.64446785923733","-0.491646786004546","-1.0037208051093"
"2795","1.79557297016575","3.67206966035533","-24.0952907358745","1.24022833570082","-0.850500862516808","-1.04067846229091"
"2799","1.73998777781718","3.71084348201089","-24.2234741935283","6.20912711052472","2.32483984408238","0.700082123413693"
"2811","-1.84869045534421","5.45276805327483","-25.9737670563085","4.7141438930026","1.43494421615218","0.135272269839843"
"2811","-0.607839925750735","4.92044979216495","-25.4750888354122","-2.52711811114206","1.12383523020996","-1.75593019355362"
"2819","-0.345350239801737","3.04601562463529","-25.3322565938964","-0.72040506191987","1.01507101326565","-1.22873080940199"
"2819","-0.289823136749142","3.54275696156399","-25.2913463468442","-3.56739968089156","0.977046862816628","-4.59693096336408"
"2827","3.29884280819486","7.13915359254055","-32.1339421447654","-2.42971845117652","0.963753556819583","-3.4389810018546"
"2831","2.05798967915025","6.10473445514545","-30.0938097600924","1.30909606690137","-0.691292148138379","0.350506488522769"
"2840","-1.78142029087126","4.09549341090417","-19.2280015974386","0.441535839027454","-0.269898868743457","-0.702121638882888"
"2840","-0.593609586217393","4.5560410368336","-22.1157988367829","-1.51834982402384","-0.122579080084262","-0.965278670734303"
"2848","-0.34233995188553","4.67969146239716","-22.9429265023892","-1.11197447775499","-0.0710758378831679","-1.03106792869716"
"2848","-0.289186340043257","4.7128898264343","-23.1798337775574","0.7082241000698","-0.0530702190768517","-2.79751524318787"
"2860","1.51051764916253","8.18483182419163","-28.3884241854273","0.259539297100707","-0.0467754249096705","-2.23912707181055"
"2860","0.891227270233931","7.11699840454971","-26.8802772720861","-3.27058689136703","-1.6949730975958","-2.09953002896622"
"2868","-1.02823736592532","1.63575739161168","-28.1618896813076","-2.33981759995535","-1.27118573477253","-2.06463076825514"
"2868","-0.434281170170395","3.1641228728181","-27.5289712290731","6.4276637302682","2.17776771573277","-2.05590595307736"
"2881","-0.308635597578948","0.111438348420558","-29.0612680229336","4.08322326971878","1.38352755640565","-2.05372474928292"
"2881","-0.282056516453669","1.2918363804563","-28.5001510071176","-3.41532862192188","-0.544538462383253","3.19682055166569"
"2889","1.51202589299228","10.2663280893886","-23.1986999086509","-1.6865454352691","-0.21859353705557","1.50945687690284"
"2889","0.891546324334134","7.67585026809181","-24.6802495092745","-1.16291880750182","-1.75504099427774","4.58761595821213"
"2897","0.760289993913576","6.98034416409253","-25.1045973983673","-1.00431890473564","-1.29218557097564","3.35715572853945"
"2897","0.732524012331413","6.79361076042335","-25.2261398232052","0.740831615630858","-2.78076889126668","-5.70045932887872"
"2909","-1.06180947419493","1.54893245198135","-25.2609522057225","0.26941570239255","-2.30118008639007","-2.96486309323326"
"2910","-0.441383018415745","3.14081162305722","-25.2709232259497","1.82374237641357","-0.483116702445136","-0.530964034321896"
"2918","-0.310137923500661","3.56820832617137","-23.5602007974181","1.29452832635225","-0.847518731171424","-0.922489269594054"
"2922","-0.282374318678819","3.68295820490079","-24.0702128475948","1.13423606382904","0.675484058985187","2.47962942158791"
"2930","1.51195866506733","8.90830997035085","-25.9298696879052","1.08568555875111","0.207928357801263","1.3301590943834"
"2930","0.891532102929956","7.3112418999493","-25.4625156784886","-5.71747021590397","4.99566513947012","1.04279151258227"
"2938","-1.02817288157629","3.41942333822606","-27.042233714128","-3.77806031416574","3.66946585087228","0.970949617131986"
"2942","-0.43426752914263","4.3745259285346","-26.4946991688811","5.29492553825127","-0.0949723040391688","2.70298914326942"
"2946","-0.308632711954122","4.63095726179827","-26.3378734180705","3.04301854514812","0.588973879918771","2.13599902480377"
"2946","-0.28205590602821","4.69980539324155","-26.2929551269219","5.75516953228872","2.47848094217875","-1.50574850481264"
"2959","-0.276433844970376","4.71829012809398","-24.566511210965","4.57664586683232","2.13905574176239","-0.41618538721674"
"2962","-0.275244553426985","4.72325301401987","-25.0720202866888","-11.0543275780516","-2.93080290014701","1.60620539218223"
"2971","5.09038663074058","9.91912854809408","-28.6439657222531","-6.78875233232725","-1.70323388132105","1.11180308703198"
"2971","3.22543296457396","8.314146532753","-27.6670482467249","1.29168706077349","-2.92447206160617","0.988202510744414"
"2979","-4.32291905020247","0.957174476796334","-27.3872379262445","-0.260849739124807","-2.35141895283443","0.957302366672523"
"2979","-1.91969843864362","2.98193310248166","-27.3070941910686","-0.731093558761531","4.45051473607737","2.69957733065455"
"2991","2.16559890311672","3.52555172438685","-20.429825911171","-0.873524482087162","2.82848202346079","2.13514607165006"
"2991","1.02980324576085","3.67150551973472","-22.4600273461613","0.780447596970192","0.611018356519157","-3.25596174310107"
"2995","0.789536881447616","3.71069201835353","-23.0415210018638","0.281414883593849","0.835789384566023","-1.60373869678885"
"2999","0.738710902807505","3.72121303063924","-23.2080733773052","-4.96107366178205","2.5647680515381","-1.19068293521079"
"3008","-1.06050069856133","5.45555212820782","-26.6829342736828","-3.54895733587006","2.16922185815866","-1.08741899481628"
"3012","-0.441106159844267","4.921197276314","-25.678209683732","3.6672053317341","0.380539910438589","-1.06160300971765"
"3020","-0.310079356801654","3.04621631339781","-28.8175914928094","1.85289000996936","0.755213737949533","-1.05514901344299"
"3020","-0.282361929471527","3.54281084361547","-27.716778427339","-2.09086844242475","2.53659867197973","2.44646448562567"
"3028","5.08888102006616","7.1391680590978","-27.4014817268968","-1.28538314796984","2.1593737963928","1.32186786039284"
"3032","3.22511446749179","6.10473833920838","-27.3111739240299","-6.1327496383789","-1.27330133142792","-0.709281295915371"
"3040","1.04239317615884","2.36398009690118","-20.4309944350392","-4.60095582439545","-0.473370243519632","-0.217068584992423"
"3041","1.58066002408944","3.3596402142274","-22.4603620367019","0.954343035527276","-1.84411135298271","-1.84401540726169"
"3049","1.69452506464058","3.62696066121828","-23.0416168644824","-0.363026990558588","-1.32332471595455","-1.250752112829"
"3049","1.71861209045233","3.69873236336429","-23.2081008344351","-0.762041759794415","5.46033652783834","2.39756371077917"
"3061","-1.85321227109037","8.91254510543157","-28.3965204826501","-0.882898301931911","3.8319157381336","1.30964266668121"
"3061","-0.608796471254662","7.31237897291541","-26.8825962269389","-0.919504224578347","-4.98937458376797","2.78766240565672"
"3069","-2.13401245465691","5.15124298281082","-33.3032889141472","-0.930591696957562","-3.07331229580259","2.1571673404006"
"3069","-1.45665684649902","5.57100899650408","-31.1423143421068","-0.933949952531317","-0.753055402158009","3.74954357408657"
"3081","0.475090915968728","2.22068143104017","-18.5283160154605","-0.934967125797949","-0.941889747837234","3.14763763250806"
"3082","-0.116266905614376","3.3211665797566","-21.9153937341687","2.45895000468345","2.29289013835728","-0.502838852886565"
"3090","1.54709704930396","7.07965975635807","-24.5991044858086","1.48692470716563","1.42377454609502","0.584542025764778"
"3090","0.898965281401541","6.08876121427264","-24.3677773617721","-5.59593993736204","-2.18086639126135","0.856387245427614"
"3098","0.761859401077653","5.82271918187285","-24.3015202639784","-3.74125032525803","-1.44105483528717","0.924348550343323"
"3098","0.732856004931489","5.75129071569057","-24.2825427963497","0.21473699057141","-1.1824154895666","-4.30866112342775"
"3110","0.726720622655949","2.26908448436989","-27.7042639279585","-0.587044335351472","-1.09199474577776","-2.61691354187052"
"3110","0.725422743073941","3.3341621046618","-26.6843189586177","-4.22411900817405","3.89081152553324","1.30602335351879"
"3118","-1.06331167763747","5.35163451140262","-26.3921846321338","-3.32574306408314","2.63280885371392","0.286757577366117"
"3122","-0.441700794731635","4.89329688812813","-26.308511034758","0.340588900551561","3.84340737848876","-3.46805886667205"
"3131","-0.310205145944759","9.96478288700317","-22.8573884151872","-0.548925378775679","3.26663462852238","-2.40676297768159"
"3131","-0.282388538923578","8.32640406729906","-23.8689121616762","-5.90968586661536","1.41459557635546","1.35856099456602"
"3139","3.300415524007","2.69197980566087","-27.5857911568721","-4.53339262069971","1.76711965517898","0.299891987627925"
"3143","2.05832237166217","4.17921778381533","-26.6503857914093","0.974807077973716","0.239964314056459","0.0352247358934005"
"3147","1.7955698211312","4.57851982894466","-26.3824654382108","-0.356828690147382","0.706068276542573","-0.0309420770402305"
"3147","1.73998711167","4.68572669535505","-26.3057272471459","-0.760164372758686","-0.781379349067412","-0.0474837802736383"
"3159","-1.84869059626108","2.98299584301864","-17.7158560441792","-0.882329665072111","-0.301393503448643","-0.0516192060819902"
"3160","-0.607839955560307","3.52583705496346","-20.2555309149879","-0.919331991643865","-1.78398799971534","-1.80265306253408"
"3171","-0.345350246107658","14.0606682678068","-34.6915755527394","-0.930539529773516","-1.30230549203729","-1.2404115266471"
"3172","-0.289823138083098","10.8891192017996","-30.8263713545811","-6.02527198090547","0.516489853875977","2.40014885732464"
"3180","1.51038294082054","-0.351482329978911","-22.8649797912787","-4.56840219720979","0.152343720266563","1.31028895331758"
"3180","0.891198774013364","2.63057753801026","-24.5846648408334","0.964203118709729","-1.62536071453292","-0.712176022684185"
"3192","-2.81670326111174","3.43121779967421","-19.9364848454544","-0.360040495695499","-1.24684913031692","-0.217792266684627"
"3192","-1.60107335043145","3.64617821528437","-21.6051454368162","2.63308803127835","2.1862758329724","-1.84419632768474"
"3196","-1.34391883755936","3.70389200072811","-22.0830859656103","1.53966891958968","1.38650200828924","-1.25079734293477"
"3200","-1.28952033772855","3.71938732353344","-22.219978483026","-5.57996438050848","-3.84429527538948","-1.10244759674727"
"3208","0.510446995247789","5.45506195206125","-30.8270791877225","-3.73641153053436","-2.67299067237622","-1.0653601602004"
"3212","-0.108787675904583","4.92106567105602","-28.2923392193201","-1.48091000924143","-0.613102299337858","0.69391169893632"
"3221","1.54867920655082","1.31466662245736","-27.5663348016902","-1.79774703968173","-0.892961911210915","0.133729663720499"
"3221","0.899299971155823","2.34640025432382","-27.3583914146017","4.89473745789895","3.96039373426407","-1.75631584508346"
"3229","2.55039006848489","6.0864346357041","-27.2988319254528","2.92180662186857","2.65713490917305","-1.22882722228444"
"3233","1.89966188711674","5.09058017211134","-27.2817727979791","-1.06999446969958","-6.05047825115706","0.653044933415308"
"3241","-0.0264531059489043","6.5547219027562","-25.5633083497985","-0.279060684846314","-4.09467423916103","0.123512972340246"
"3241","0.566096272422159","5.94782293701783","-26.0711029178917","-8.52505986346086","1.54027311336341","1.74112998207148"
"3249","0.691444246677246","5.78487927785514","-26.2165462786623","-6.02266903493236","0.510260044032044","1.14553423450429"
"3249","0.717960373810898","5.74113124472244","-26.2582044068138","6.61506186061583","5.1013607978927","-2.50336470238751"
"3262","-1.06489026822318","5.72938552590886","-24.5565578521871","3.44287119064455","3.70641722817799","-1.41558943661046"
"3262","-0.442034729993943","5.72623196903856","-25.0691694291914","0.784942027423776","-0.0820540413104449","2.3563543798338"
"3270","-0.310275786654531","3.99387092747581","-28.6431491749295","0.979888799623533","0.593490125972273","1.29934033394487"
"3270","-0.282403482268712","4.5287568590086","-27.6668143698888","-7.44662732989512","2.48005982928176","-2.46491317752736"
"3282","3.30041236288978","4.67236605236512","-25.6735925942033","-4.99891280952749","2.13960772330957","-1.40597655539542"
"3282","2.05832170295901","4.71092305901028","-26.102690713733","2.53091949257525","0.370186759829361","0.608757600137564"
"3290","-7.14672965578704","8.1843037753748","-22.7984370181347","0.811610747814257","0.751594259342997","0.11244113902081"
"3290","-4.09396744363989","7.11685663102349","-23.8520272049473","3.68507902846354","0.884934953105513","-0.0116379762583781"
"3298","-3.44818571954618","6.83026239790966","-24.153798250314","2.55541633704522","0.931551080569555","-0.0426577550781752"
"3299","-3.31157696780193","6.75331596089987","-24.2402320126644","0.516143142824686","-2.35294853034632","5.19958730021688"
"3311","0.294240999882703","1.5381138768144","-27.6921452032562","0.898473006956816","-1.50121503622445","3.51014856404064"
"3311","-0.942983787991726","3.13790699094521","-26.6808478934277","-2.37994931770723","3.74774743397908","-0.412211120003421"
"3319","0.583753383036549","5.29894283096868","-21.2504554099443","-1.37294209986436","2.58279341027177","0.607198958985564"
"3323","-0.0932804328887531","4.87914992841649","-22.6950734056284","-2.76504492137639","-1.12527313287578","2.61205147873281"
"3331","-0.23650025629271","4.76644156097157","-29.9631566619023","-2.18669531198727","-0.421619340046241","2.11326460866962"
"3331","-0.266796996770624","4.73618098244614","-28.0448930993811","-5.40574572756684","4.7755742212406","-1.51143210884618"
"3339","-0.273205973277997","4.72805645155769","-27.4954608744075","-4.38075550712536","3.59252170120303","-0.417606288225124"
"3343","-0.27456172902017","4.72587513165655","-27.3380915870282","-5.76741150391088","1.52852623690851","1.60585016693014"
"3348","-0.27484852577006","4.72528947857991","-27.2930176152359","-5.18741211999503","1.80695000287361","1.11171428071895"
"3348","-0.274909194792649","4.72513223913695","-27.280107453622","3.47382542835794","-1.39650927355331","-6.01181969083384"
"3360","-2.06338189581789","4.72509002260397","-23.8492530144604","1.09720506598413","-0.516443944222952","-3.79270318372204"
"3360","-1.44171564869485","4.72507868807096","-24.8665820067331","-1.31975588298324","-0.208771646958508","-3.23792405694409"
"3372","2.26671144603016","13.3826474290022","-32.0122804393374","-1.05182287722754","-0.101208902070001","-3.0992292752496"
"3372","1.05119260652741","10.7070803408024","-30.0589632130311","-4.3648945677816","1.58679355491413","2.18544442017402"
"3380","4.37098132385126","-0.400357150657837","-20.9315991363967","-3.36838220594805","1.17692201063173","0.506612844029924"
"3380","3.07324987033998","2.61745535034488","-23.317324408591","2.02478665186707","-3.91756478981181","0.0869049499939004"
"3392","-0.778192147998789","1.69618032386081","-20.5734911009604","0.658309492556542","-2.69860581601439","-0.0180220235151056"
"3393","0.407073295554895","2.44883120582782","-21.7875978229861","-1.45269181782469","1.02834094716242","3.45574623310764"
"3397","0.657804505015341","2.65090716196415","-22.1353442800795","-1.09208749560626","0.331287710536677","2.32418829726333"
"3401","0.710844218388753","2.705161655019","-22.2349463959621","-2.6799776032442","-3.21319994220876","0.291298813302252"
"3409","0.722064246405159","6.18275692111858","-30.8313663221228","-2.16092949399999","-2.45235869827002","0.783076442311982"
"3413","0.72443773262298","5.1164413228636","-28.2935671474517","3.08762146239577","1.1144293475188","0.906020849564415"
"3421","-1.06352004687918","3.09863653681311","-29.2802648515489","1.6773413643364","0.361384357936276","0.936756951377523"
"3421","-0.44174487318872","3.55688492101487","-28.5628764412858","6.34152313502606","0.098118581900505","-0.8055590231692"
"3430","-2.09867433739957","3.67991803318433","-23.2166658313379","4.75424497934742","0.00608043040820077","-0.241138016805881"
"3433","-1.44918141647768","3.71295065743782","-24.6853953385904","-9.30342243662683","-1.67649460300279","1.64996723478495"
"3442","0.476672269428984","12.3793912268971","-28.5332279646194","-5.56131263369237","-1.26472562244684","1.12274354768266"
"3442","-0.11593238589322","9.70620609728593","-27.6353305548738","5.75480089697694","-4.42156719092064","-0.759062374092916"
"3450","-0.241292053441898","8.98849426841803","-27.3781532924406","3.18230899240718","-3.52520423365162","-0.22951385453681"
"3450","-0.267810654176431","8.79579894642519","-27.3044921552163","9.19158407178771","0.0889624276557337","-0.0971267246477831"
"3462","-0.273420402500344","-3.37653747876501","-22.1426589764056","7.01171771806315","-0.647518919442552","-0.0640299421755264"
"3462","-0.274607089406365","0.355364947091519","-23.6641981726935","-3.83121197129107","-0.904994018622471","-0.0557557465574623"
"3471","-0.274858121312184","1.35732717018964","-24.0999999479732","-1.11539864790214","-0.995007739891724","-0.0536871976529462"
"3471","-0.274911224634905","1.62633964210209","-24.2248230138529","-5.38415086704634","-1.02647668598611","-0.0531700604268172"
"3479","-0.274922458118852","8.62462305591992","-32.8284667662613","-3.67710208646002","-1.03747828167982","-0.053040776120285"
"3483","-0.274924834451539","6.50356167944791","-30.2927366518621","0.234166683212073","2.25947222855066","-1.80300845504365"
"3491","1.51353452995086","2.47105843792134","-22.7121352563741","-0.581159326453575","1.41209158945838","-1.24050037477449"
"3491","0.891865461596864","3.38838921148705","-24.5408868561349","9.35456436456319","1.11584591405458","-1.0998733547072"
"3499","0.76035750425255","3.63467935423837","-25.0646809165611","6.36396978389038","1.01227793510068","-1.06471659969038"
"3499","0.732538293477492","3.70080472162432","-25.2147068784106","-4.7245192623515","-2.32472628825047","2.44407258906382"
"3511","-1.06180645315939","8.91310150387192","-28.6848342520502","-2.0830827717294","-1.4913484936279","1.32126988625238"
"3512","-0.441382379345486","7.31252835790853","-27.6787538786811","0.414087643227458","-2.85039657900771","-2.45943078945049"
"3520","-0.310137788311653","6.8827974473549","-27.3905906727263","0.17044907330117","-2.32552204138652","-1.4046059583762"
"3523","-0.282374290080918","6.76742086743977","-27.3080544902659","8.58221707127834","-0.491626690242706","-1.14089975060763"
"3532","-0.276501195975201","1.54190084171878","-22.1436793063074","6.13003552783658","-0.850493837005172","-1.07497319866549"
"3532","-0.275258800867498","3.13892373665327","-23.664490417273","-3.09826238894621","-0.975954386100043","2.44150843932005"
"3540","-2.06345585153343","5.29921581259407","-27.5272403424507","-0.893397461698011","-1.01981560193211","1.32062884881643"
"3540","-1.44173129329675","4.87922322006376","-26.6336155702206","1.47154093175755","0.615248787498295","1.04040895119053"
"3548","-1.31021159761528","4.76646123872663","-26.3776620836973","1.18785094992712","0.186870007089026","0.970353976784051"
"3548","-1.28238990371082","4.73618626564087","-26.3043514623949","-2.29230038775601","1.6875064188578","0.952840233182432"
"3561","0.511955368207591","4.72805787001962","-27.9969320575374","-1.34639434421049","1.2121313947319","0.948461797282027"
"3561","-0.108468594488192","4.72587551249322","-27.4817237934103","-1.05989133122977","1.04593949867545","0.947367188306926"
"3569","-0.239713162016081","2.99377522401097","-25.6205786448987","-0.973113181320341","0.987838536460144","0.947093536063151"
"3573","-0.267476655274366","3.52873116400229","-26.0875063706166","-0.946829173960842","4.2683230301184","-0.802974876997793"
"3581","1.51511011876393","7.13538786726106","-22.7940878934439","-0.938868079565592","3.41518584435085","-0.240491980263029"
"3581","0.892198761863787","6.10372341197174","-23.850781521454","0.760655845258365","1.46652932753522","-1.84987125607934"
"3589","-1.02803185645682","2.36370760350927","-24.1534414595858","0.27542021156876","1.78527578063752","-1.25221607503342"
"3593","-0.434237696670115","3.35956705366381","-24.2401298200734","5.21978628596546","0.246311725598625","5.89719772022807"
"3597","-0.308626401188921","3.62694101865731","-24.2649592437838","3.71737242283439","0.708287342134381","3.68455116904344"
"3598","-0.2820545710481","3.69872708961868","-24.2720709284243","1.56519759898953","0.869794783096595","-0.368610468752722"
"3610","-0.276433562568506","7.18102933268847","-22.5605295242607","1.91333098316625","0.926258052049544","0.618099121798239"
"3610","-0.275244493687656","6.11597749017279","-23.0703070020812","-3.07256163378709","2.59639604758276","-0.885223480564021"
"3622","-0.274992957898565","7.56154071803103","-30.070631689741","-1.58272563675841","2.18027905797852","-0.261054131154586"
"3622","-0.274939747984309","6.94965369102263","-28.0756762747634","5.65697733920379","-2.91639116049727","-0.105011793802227"
"3630","-0.274928491951976","-0.140686618250838","-29.217856187108","3.84979208000404","-1.6981955132615","-0.0660012094641375"
"3630","-0.2749261108494","1.95565880343544","-28.5450012483085","-1.78891937606602","2.02848438968464","3.44375143662039"
"3642","-0.274925607150644","14.6390979500351","-16.357232610373","-0.496813973543803","1.33133785828011","2.32118959814152"
"3643","-0.274925500598143","11.0444192670682","-19.8663917420807","1.59166106951319","2.73801261899483","-3.2094508614782"
"3647","-0.274925478058012","10.0792996488396","-20.8714909094687","1.22423382497215","2.22978844598067","-1.59211097638313"
"3651","-0.27492547328987","9.82017888739205","-21.1593730767822","4.50716996519249","-6.19987928273534","0.562223994890636"
"3659","3.30199426190305","-0.638477457815674","-31.5232988315937","3.50152992516368","-4.14690508733493","0.100807737709078"
"3663","2.05865633808653","2.55352346652294","-28.4917516022044","1.49982162815827","-0.128385220852991","1.73545367341369"
"3671","-1.78127926575128","-3.51552753954131","-20.7691374478904","1.89352942597407","-0.723504017472249","1.14411515733984"
"3671","-0.593579753744768","-1.14498060240812","-22.5572135181875","-8.16989710492493","5.67003483783679","0.99628052832138"
"3679","-0.342333641120306","9.88056335760962","-29.9236706047352","-5.21798210415554","3.90522661474635","0.959321871066764"
"3680","-0.289185005063143","6.84076361914512","-28.0335834375241","0.767453555915823","-1.66294829352657","0.95008220675311"
"3688","-0.277941935527739","11.2191641016737","-27.4922215423369","-0.419633457309113","-0.609591467053369","0.947772290674697"
"3692","-0.275563575103927","9.39470177133326","-27.3371637721744","4.31215068437487","-3.54213286158382","-2.55280518834491"
"3696","-0.275060456423771","-1.48422631179801","-23.8655951796683","2.74534843442351","-2.56735419187392","-1.42794955809981"
"3696","-0.274954026631302","1.59493768467303","-24.871262756744","-4.51766664902616","-2.2265699538876","0.603264349461467"
"3708","-0.274931512458858","2.42164901072806","-25.1593077289011","-2.71754233322524","-2.10743121966142","0.111067826351786"
"3708","-0.274926749807827","2.64360913282969","-25.2418100466414","-2.17230737703057","2.88541490868769","-0.0119813044256341"
"3720","1.51353412477614","6.16623095260911","-28.6925971863601","-2.00716258405868","1.63092218752336","-0.0427435871199892"
"3721","0.891865375886149","5.11200433757913","-27.6809773511765","4.8313081301783","2.84274779686263","3.44956584220642"
"3729","0.760357486121294","4.82895962678334","-27.391227523399","2.90259467832797","2.26640403769306","2.32264319953803"
"3729","0.732538289642004","4.75296618555611","-27.3082368980898","2.31841169429677","0.414514961419481","-1.45908746112907"
"3737","-1.06180645397075","-0.461980032843742","-23.8573098965089","2.14147003481688","0.767091472063797","-0.404520126295849"
"3741","-0.441382379517121","1.13788177755024","-24.8688896722264","-8.0947990209678","0.890352804349161","3.35912170741246"
"3745","1.47832207874417","6.76196477517035","-25.1586280261053","-5.19523584149065","0.933445170340866","2.30003216583953"
"3745","0.884416614988589","5.27195031609469","-25.2416153650415","2.47145572177184","-0.701888010267592","-4.9647402195537"
"3757","-1.02967809284111","13.52947460979","-28.692541425334","0.793599921459331","-0.273603199699515","-2.78093331590201"
"3757","-0.434585941733645","10.7465013308729","-27.6809613800111","0.285398556834496","-1.77427246348046","3.01501841001092"
"3765","-0.308700068995945","-0.389773180783914","-25.6776446042607","0.131470771765934","-1.29890892447245","1.46400634148915"
"3769","-0.282070154745789","2.62029699430389","-26.1038512971612","-3.30937723278284","2.16807564268069","-2.42374667564129"
"3778","-2.06489672623812","1.69694326446684","-27.9395044683134","-2.35156670523491","1.38013919160839","-1.3956849299239"
"3778","-1.44203609612328","2.44903604442714","-27.465275288242","-2.06145797416205","2.75507364598257","2.36133050650544"
"3786","-1.31027607564571","11.3085339422778","-27.3294457814711","-1.9735876977096","2.23575300928304","1.30058436561278"
"3786","-1.28240354340194","8.68718193365081","-27.2905412692964","6.53859014960235","-2.89699737520955","1.03539783038961"
"3794","5.87733208414192","2.78884348315411","-23.8522414852175","4.11682148338414","-1.69141541379245","0.969101196583823"
"3798","3.39190351037772","4.20522429056807","-24.8674379694743","-3.40515214666667","-1.26994196262035","-0.797472961867625"
"3806","-2.49924398172576","2.85398784581896","-21.7310555376987","-1.68346310923679","-1.12259414577502","-0.239116501480487"
"3807","-0.745458105185168","3.4912002598597","-22.8327276897809","-1.1619852098139","0.579317238282846","-5.3495273863837"
"3815","1.4139978593223","8.85682571514125","-23.1482704512326","-1.00403612976837","0.17430827795035","-3.62713010760951"
"3818","0.870809461062891","7.29741911657561","-23.2386487313011","-6.04753317427246","-1.61768186877483","2.05346921208404"
"3827","-2.82101641908319","6.87874083297764","-28.4052700618379","-4.57514483197326","-1.24416459311725","0.47361904200743"
"3827","-1.60198575644198","6.76633172471955","-26.8851022958934","7.75061129853779","0.536816008468795","1.82865649948828"
"3835","0.444348019044038","3.27312277935315","-26.4496933279629","4.48392740615082","0.15944977758947","1.16741586385849"
"3835","-0.122770262115798","4.33524632888773","-26.3249827706143","-1.5968477820443","-3.27327476827567","2.75210570495104"
"3847","1.54572132840531","4.62041125322315","-22.8621062770377","-0.438637909683414","-2.4733609569976","2.14827816522418"
"3847","0.898674261219795","4.69697394134626","-23.8702634594771","-0.0878307440460994","1.10708692307018","-1.50267871970754"
"3855","2.55025770572186","6.44904428072885","-25.8725998531744","0.0184243228457325","0.35881743418379","-0.415417940940465"
"3856","1.89963388708026","5.91945001269788","-25.4461123576234","1.74772025247955","-3.20357550520929","-1.8936027462487"
"3864","-1.81491889617248","5.77726155502015","-25.3239571031619","1.27150218363025","-2.44899397914881","-1.26314894757575"
"3868","-0.600695885635041","5.7390859955075","-25.2889691929694","-0.569850874167072","-0.534792684258085","-1.10553549790752"
"3876","3.23308074557811","5.72883640585792","-28.7061045871162","-0.127573496429615","-0.865584740032247","-1.06613213549046"
"3876","2.044078363684","5.7260845381885","-27.6848461632606","-3.3878384751439","-0.981230190801573","-1.0562812948862"
"3884","0.00409677469821901","7.45686005804544","-30.8194923242617","-2.37533162617187","-1.02166003199695","-1.05381858473513"
"3888","0.572558798234571","6.92154843669769","-29.7173228666301","-2.06865606904488","3.91540065800463","2.44679709280264"
"3896","0.692811330246524","1.58328188128306","-22.5473242874971","-1.97576790988366","2.64140525516626","1.32195101218708"
"3897","0.71824956685084","3.15003395167622","-24.4936814256094","3.1437045713891","2.19601435152292","-0.709260507966811"
"3905","-2.85328895938121","3.57068438900227","-19.9104252250566","1.69432823085824","2.04030495366617","-0.217063388005283"
"3909","-1.6088126939059","3.6836229922225","-21.5976813972041","2.95244302325833","-2.96532633928006","-1.8440141080149"
"3917","0.442903847785567","7.17697409938438","-25.5081047923303","2.33351012940257","-1.7153033328419","-1.25075178801731"
"3917","-0.123075762295757","6.11488871825088","-24.6281347342791","-1.24818205901419","-1.27829321869858","4.14756379198209"
"3925","1.54565670285663","7.5612483984013","-29.5168272875463","-0.333031458754315","-1.1255137587367","2.49714268698194"
"3925","0.89866059032264","6.94957520739882","-27.917054701147","5.03549394742907","5.5294915662235","0.334537410731905"
"3937","-1.02666492040581","1.59080666684106","-24.0316884994667","3.66155259736629","3.85609245413213","0.793886091669396"
"3937","-0.433948534836207","3.15205424856656","-24.9188354803431","-1.84593474171005","3.27106935198449","2.65872326190377"
"3946","-0.308565231856144","5.30274116653041","-25.1729335871439","-0.514083208849653","3.06654430618193","2.12493255446236"
"3946","-0.282041631279315","4.8801697269828","-25.2457127875149","3.28354304561805","-1.95615301816605","0.24148487760201"
"3954","-0.276430825288097","8.2297440758818","-26.9801366712108","2.43379615109715","-0.712096324581684","0.770622958386922"
"3958","-0.275243914642995","7.12905669933149","-26.4769132310564","0.479305922097361","4.6740229861721","-0.84709252141685"
"3966","-0.27499283540738","1.63899487064185","-26.3327791403168","0.887315477305504","3.55701922116857","-0.251521391367793"
"3966","-0.274939722072508","3.1649920894578","-26.2914960154549","-0.686216183026504","-3.43508051840299","-0.102628608855529"
"3974","-0.27492848647059","1.84318607742725","-22.8525149451926","-0.162819081149314","-1.87953017217245","-0.0654054132274629"
"3978","-0.274926109689867","2.48830014012555","-23.8675162943331","-5.09562652803738","0.314691149329745","1.69390038567955"
"3986","1.51353426018678","13.0505901450835","-27.585391350237","-3.58971170238499","0.0817945588083209","1.13372683540631"
"3987","0.891865404530933","9.88641337053819","-26.650271278131","0.260636128580232","3.30117021120175","2.743683447838"
"3995","4.33727722636509","3.84233426362887","-24.6688542944774","-0.573142065223823","2.42666927328023","2.14617260094592"
"3995","3.06612010107821","5.21958579716813","-25.101333562082","5.96276747245668","-6.13104941931069","-1.5032051107771"
"4007","-2.56816024742816","-3.06821372311692","-21.7980483005123","3.94241205543875","-4.12284205304136","-0.415549538707856"
"4007","-0.760036661191367","-0.293368907883165","-22.8519158678024","-3.45797856313749","3.18082394211766","1.60636435430946"
"4015","-0.377545957444991","5.64618015751913","-23.1537663609446","-1.69946356465954","1.73419767505703","1.11184282756378"
"4015","-0.29663382313846","4.24086380855403","-23.2402228788584","-4.5610567654378","-2.07234195105368","2.73821244587737"
"4027","-0.279517659493398","12.5211283288187","-36.9736126550403","-3.42779726206796","-1.40311451118255","2.14480485045576"
"4028","-0.275896903961049","9.74426047425809","-32.907152888292","2.0067905805755","0.481246853758022","-1.50354704839964"
"4036","5.0902486324219","0.341139538204708","-23.1745390272352","0.652858709487724","0.140022709033189","-0.415635023113491"
"4036","3.22540377239129","2.81653656577137","-25.3869076542754","0.242769818435402","1.67112852583884","-3.64365701679195"
"4044","1.04245437575573","0.0181164152119035","-26.0205779386752","0.118559064441252","1.20640565619686","-2.45066251521157"
"4048","1.5806729702603","1.2667807811958","-26.2020748304786","-3.31328802611849","-2.25685891531599","3.09758611018353"
"4056","-3.67085179800112","17.1856584479783","-27.9676378153204","-2.35275123522227","-1.46762194760439","1.4846482665323"
"4056","-1.78176004544809","12.4596485570782","-27.4733332880623","8.12085890495415","2.10909329026268","-2.4185861943805"
"4064","0.40631854205427","2.53321096774531","-27.3317537671184","5.29318334713493","1.35951886347853","-1.39439480960871"
"4068","-0.13081502273263","4.86810498706845","-27.2912023263661","2.73960346714632","-3.85372862752215","-2.88834696341576"
"4077","-0.244440328416926","-1.43106691766451","-25.5660091709283","2.96615632142199","-2.67628858791139","-2.26183500186752"
"4077","-0.268476640683079","0.877695861980009","-26.0718764915505","-8.84501194381728","-0.614255256073084","1.39479298851954"
"4085","-0.273561285374475","6.69210859228161","-26.2167678469102","-5.42246587584776","-0.893364986795819","0.308949986116304"
"4085","-0.274636891788283","5.25319493390157","-26.2582678687582","5.7968558291095","0.659456132058826","-3.4625107644845"
"4097","-0.274864425712016","10.0614103453026","-26.2701543737129","3.19504690104926","0.20232496799204","-2.40537595213471"
"4097","-0.274912558268484","8.3523471525896","-26.2735589261383","0.709879175099964","1.69290949879594","1.35890775095274"
"4105","-0.274922740235876","2.69894515160123","-24.5609557190291","0.95715320817611","1.21402032043033","0.299978676724605"
"4106","-0.274924894130612","4.18108787920011","-25.0704290734923","-2.36217582469874","-0.603798472927192","0.0352464081675706"
"4118","-0.27492534976579","1.11599320907062","-23.5027749303833","-1.36755873295084","-0.239310934926296","-0.030936658971688"
"4118","-0.274925446150916","2.29305929514754","-24.0537648356988","-4.46052697713983","1.5385128554141","1.7025175742435"
"4126","1.5135344005519","9.53514206760795","-31.0658936550627","-3.39734805684486","1.16004299809296","1.13588113254729"
"4126","0.891865434223789","7.47953731874842","-29.0743191990277","0.318900651162858","-2.27306737740478","0.994222022123243"
"4134","-2.81656223572223","5.19612259880502","-26.7903108019281","-0.555494476032791","-1.47328845280552","0.95880724451723"
"4138","-1.60104351790181","5.58305852907003","-27.136121335999","4.27100009497271","0.45671392749939","-2.55004644988427"
"4146","-1.34391252678208","3.9554309143593","-25.5215906169542","2.73288443979096","0.131445957365951","-1.42725987348465"
"4147","-1.28951900274588","4.51843626736309","-26.059154055793","-7.91566705527049","1.66813007924563","2.35343677061526"
"4155","4.08736701183447","6.40110947849728","-21.0723888318485","-5.14097902788465","1.20535739429992","1.29861093164023"
"4158","2.22479419398924","5.90658020648994","-22.6440712815678","7.57922725560633","-5.55802207572489","2.78490447189648"
"4167","3.61924515964381","2.31077748318655","-28.2349702044519","4.43201734065147","-3.92251074430711","2.15647785696054"
"4167","2.91422750225188","3.34535607626527","-26.8363247288352","0.0845419234060687","-0.0499365867441508","-1.50062879677345"
"4175","-2.6002916279716","5.35463993206833","-23.0085656871609","0.767746439964927","-0.696078245010686","-0.414905460206942"
"4175","-0.76683373770204","4.8941038004286","-23.9122126061661","2.67179308273257","-0.921970439296295","-0.143474626065316"
"4187","-3.95590354609772","9.96499953137115","-31.0253500311616","2.24850480133414","-1.00094272468657","-0.0756169175299097"
"4187","-2.63051979721819","8.32646223320153","-29.0627066271561","-2.97104171071163","2.27224511980921","1.69134750960394"
"4195","1.22677179135798","2.69199542237061","-23.3598280205684","-1.55197653219653","1.41655701340505","1.13308861638741"
"4195","0.0427437666697648","4.17922197667769","-24.7264000898132","5.66629085523802","-0.532991309491621","2.74352389308327"
"4208","1.58073418805272","-0.616022115786345","-25.1178159240405","3.85261302656999","-0.214556633272829","2.14613271225724"
"4208","0.906080886203093","1.09652368983432","-25.2299258952098","-8.57651538579773","4.84796368659909","-1.50321508294927"
"4216","-2.81355509712118","6.75086072238917","-21.834879929432","-5.34114165408973","3.61782917823037","-0.415552031750899"
"4216","-1.60040738740247","5.2689690373418","-22.8624652439268","-0.966962528470749","-3.4138212566616","1.60636373104869"
"4224","2.23314177453257","6.60261675197409","-35.1518363432717","-1.6420788284895","-1.87209789904439","1.11184267174859"
"4228","1.04409127375714","5.96068201641519","-31.6717783567484","10.0332252252931","0.317289484329428","-0.761787593076432"
"4236","0.792559372788942","2.32530304242164","-25.5342793535847","6.56952760088286","0.0827029410292448","-0.230195159282689"
"4237","0.739350281027562","3.34925598037908","-26.7763667293937","0.429079437545647","3.30148778313124","3.40270294916575"
"4245","-1.06036544440768","1.89265828669645","-20.2778140730587","1.56921511819543","2.42678029695294","2.31092747627786"
"4248","-0.441077548162628","2.50158271805081","-22.4164878638564","-6.57101520952006","2.12098111053157","-1.46201639194412"
"4257","-2.09853317137485","11.3226419697427","-19.6018936619676","-4.0365883297697","2.01407320829725","-0.40525235899961"
"4257","-1.44915155419805","8.69096973647875","-20.795732931526","6.9137332720092","0.326299685390005","-0.141061350763483"
"4265","2.26513845359172","6.25288916746885","-33.1327227638886","4.23044760471189","0.736251265404982","-0.0750135987044514"
"4265","1.05085985549792","6.59829953776897","-29.6663038137018","3.41771421156525","-0.770827326152624","1.69149833931031"
"4277","2.58245106656212","-3.698048877708","-23.532711325903","3.17154751512068","-0.297704498754582","1.133126323814"
"4277","1.90644407491116","-0.462470604462113","-24.7759176123094","-0.297238492577154","-1.7826983175622","2.74353331993992"
"4286","-3.60193813522574","3.86926442293187","-26.8455771594533","0.652109966107296","-1.30185461701974","2.1461350689714"
"4286","-1.76718204006541","3.03227308785524","-26.4383724729558","-0.757456966493086","2.16704582368561","0.246785506229269"
"4298","0.409402375250452","16.6596677854645","-29.7488969218845","-0.184397016135095","1.37977916518146","0.771948115543737"
"4298","-0.130162668248444","12.3184276157455","-28.6971028146212","6.7776260555787","-3.84664559247866","0.903238767872354"
"4306","-0.244302329262638","0.763780815662734","-23.2551111713801","4.88633505484762","-2.6738123471247","0.936061430954508"
"4306","-0.268447448323639","3.66152403780302","-24.6964069165258","0.919261639936258","-2.26378790134778","-0.805732903274954"
"4314","1.51490475707326","-4.21804529351528","-19.9684901957463","1.71768512623982","-2.12044267575782","-0.241181486832319"
"4318","0.892155319624448","-1.33359653343052","-21.6143124622269","-3.13182029681087","-0.419930604234489","1.64995636727834"
"4327","-2.81650091332604","8.09840833123661","-27.226446634155","-1.60067433855323","-0.825428766547504","1.122740830806"
"4327","-1.60103054575397","5.63076622382142","-25.8338833937213","0.560203074601833","2.33360509037379","-2.50906305331208"
"4335","2.23300995153207","8.43126845910558","-27.1486014698683","0.214705594989967","1.43800856077829","-1.4170140243416"
"4335","1.04406338790209","7.18316310297816","-26.525165197556","1.80717137476039","1.12490653016839","-1.14400176709898"
"4347","0.79255347381146","-0.0779926935929343","-24.6330212037848","1.28950917890718","1.01544554150609","-1.07574870278833"
"4347","0.739349033157081","1.97249122212081","-25.0910701889296","-2.26150939207963","-2.32361888780291","2.44131456328934"
"4355","-1.06036570838237","2.52301671506532","-25.2222653374858","-1.33706813988592","-1.49096134459665","1.32058037980875"
"4355","-0.441077604003868","2.67082490612655","-25.2598424691091","0.640046068178125","3.75133214156093","-0.709603166061392"
"4367","-0.310073316095381","13.0995954242799","-28.6977620626532","0.238889030946529","2.58404662998168","-0.217149052528929"
"4367","-0.282360651619719","9.89957058444254","-27.6824566835941","1.81449623256531","2.17596168112412","5.15596447585419"
"4376","1.51196155619883","3.84586678666646","-22.2509162022869","1.29172778597189","2.03329450687061","3.49924285794997"
"4376","0.891532714520297","5.22053422888794","-23.6952053865339","1.13338781546185","-6.26857388940793","-2.16493754652609"
"4384","0.760287114891748","5.58961270127396","-25.8224594301398","1.08542863501686","-4.17092083564388","-0.580982647645103"
"4388","0.732523403302753","5.68870497231711","-25.4317510546579","-0.626210205706942","-0.136781166252138","3.31500607707514"
"4396","-1.06180960302893","3.98379546762437","-28.7470004042949","-0.144644027277719","-0.726439253894558","2.28900325825521"
"4396","-0.441383045669307","4.52605174269003","-27.6965596109137","0.00121629575440039","0.717813644850928","-3.21749744644978"
"4404","-0.310137929265883","4.67163976747045","-25.6821122753764","0.0453955483431723","0.222726851153427","-1.59412262262603"
"4408","-0.282374319898395","4.7107280619432","-26.1051309349177","-1.63833572285444","1.70004203095189","0.561721083329913"
"4417","-0.276501202282794","9.91576577827995","-24.5127142949765","-1.14831669352233","1.21651386548954","0.100682009818898"
"4417","-0.275258802201807","8.31324367733659","-25.0566116849587","-2.6970087182586","-0.602926725443078","-1.76457775855886"
"4425","-0.27499598472355","2.68844642989727","-23.498817331087","-2.16608800398028","-0.2390061705615","-1.23089270065329"
"4429","-0.274940388279269","4.17826912315084","-24.0526312935572","-0.308166204667493","-1.76217728477195","-1.0974714361769"
"4437","3.30199110678421","4.57826512717599","-31.0655689840461","-0.745425119527085","-1.29468042995613","-1.06411612005781"
"4437","2.05865567065227","4.68565831158686","-29.0742262062177","4.21347249803029","-4.43203944125632","0.694222708971967"
"4445","-1.78127940694041","2.98297748295865","-21.6495491328215","2.71546005608392","-3.52886534971985","0.133807416229411"
"4446","-0.593579783611936","3.52583212555094","-23.5229608350251","-4.52671946194118","5.03887752488178","-5.25629640695623"
"4458","-2.13079351453055","5.40309516023972","-22.3459681712704","-2.72028431610378","3.03417462925189","-3.60382236275264"
"4458","-1.45597591147686","4.90711333352972","-23.0088519841837","-2.17313788906884","0.68292883230419","0.30929614829826"
"4466","4.05215469523809","11.7000067610514","-35.1937646757373","-2.00741413568255","0.860929406044877","-0.712424223939016"
"4466","2.21734537585644","9.52380112200558","-31.6837875391392","1.43700671892583","0.923158701543721","-2.71785431699833"
"4478","-1.74771016561041","0.281949367219729","-25.5377190434845","0.48027836260831","0.944914166354323","-2.21921184026316"
"4478","-0.586478541839372","2.80064485464443","-26.7773519310686","3.58472262699287","-0.697878430258956","-0.344551221079372"
"4486","-0.340831449810031","1.74536407574684","-21.991674600804","2.52501964850575","-0.272201443885249","-0.875886066283423"
"4486","-0.288867231313714","2.46203633708704","-23.6209529779018","-2.88728885027782","-0.123384064168839","-1.00871977758444"
"4494","-2.06633458071869","9.58050997739604","-22.3740352430444","-1.52660884687115","-0.0713572616528689","-1.04192820540969"
"4498","-1.4423402600512","7.4917179511877","-23.016891001342","-2.81158864135028","-0.0531686052930143","-2.800230312366"
"4507","2.26657931566082","3.46787856692173","-28.3417538457365","-2.20079281786414","-0.0468098208938515","-2.23980583910508"
"4507","1.05116465565152","4.38753546177648","-26.8669098761362","1.37843475454383","-0.0445867793323933","-2.09969972078985"
"4515","4.37097541111926","-2.29160729257425","-23.0173259356799","0.462537653173002","-0.0438096003192755","-2.06467319121104"
"4519","3.07324861955986","-0.084861230879729","-23.9147217310482","-1.51198863934612","1.60686044590784","-0.305916558816342"
"4527","-4.35511214677325","7.43367583210588","-27.5989120095624","-1.11004775512886","1.18393742897083","-0.866227400717666"
"4527","-1.92650857057092","5.4522950912484","-26.6541438877564","-6.07964275881736","2.68648118468886","-1.006305111193"
"4535","2.1641582869037","11.8463802359236","-28.0971201830381","-4.58487042023908","2.21177297116778","-1.04132453881183"
"4536","1.02949849761568","9.56310029855139","-27.5104198421626","4.35344032105141","2.04581419320358","2.44992060428346"
"4548","0.789472414984484","0.292500631911151","-25.6287978146843","2.06074193500333","1.98779472945957","1.32273189005729"
"4548","0.738697265563326","2.80347771773149","-26.0898605188322","-0.330800105567493","-1.33328565750744","1.04093471150074"
"4556","0.727956283706358","3.47763901563293","-24.5083405171234","-0.0551680329837724","-0.494340863301677","0.970485416861605"
"4556","0.725684134976774","3.65864164530833","-25.0553589402659","-1.66879516355989","-1.85144271640355","-2.54712690679818"
"4564","-1.0632563827596","17.5593531072993","-33.7799285857823","-1.15754247402703","-1.32588777275339","-1.42652998771313"
"4568","-0.441689097645822","13.2914945648577","-31.2788342658617","5.78575995775501","-4.44294958000392","0.603619242058138"
"4576","-0.310202671541672","3.4880640349904","-30.5624666905652","3.8887987112506","-3.53267955230241","0.111156549500954"
"4577","-0.28238801548802","5.85598368379006","-30.3572835038102","-5.17132997876168","3.38714573018292","-3.51195912363834"
"4585","1.51195576764249","-2.16583567038953","-25.157779561858","-2.91552871329136","1.80632811400756","-2.41773804192317"
"4589","0.89153149000832","0.680421000814682","-26.6685290358086","-5.62650017443761","1.25367165622521","-0.394182771494372"
"4597","4.33720659004259","1.44460005384367","-25.387662056305","-4.44761924543102","1.06046204291922","-0.888293953887174"
"4597","3.06610515866116","1.64977115840228","-26.0207940157533","-4.09055107739193","-3.95827938748005","-1.01182174948537"
"4605","-2.56816340834905","12.0939427952807","-29.6292934089344","-3.98239963182208","-2.71283970681692","-1.04270369838492"
"4605","-0.760037329852992","8.89805293471004","-28.6628457784564","2.8388085161569","1.02336475535452","0.699575814390188"
"4617","-0.37754609889376","4.57697367632002","-21.5317208697238","0.904866450663129","0.329548025635866","0.135145692583966"
"4618","-0.296633853060552","5.41682593239128","-23.4892122688617","5.41043761464707","0.0869885473804603","-1.75596183786759"
"4626","3.29740206836115","2.17928549190409","-29.1906152296868","3.77511830623241","0.00218935189926742","-1.22873872048048"
"4626","2.05768490485434","3.31005236441253","-27.82362050354","-5.20576233996375","-1.67785493049642","5.9030670588663"
"4638","-5.3584044970506","8.80819010592108","-25.7185052665725","-2.92595784131707","-1.26520119519246","3.68601850370299"
"4638","-2.92720503478617","7.28436115375259","-26.1155546756992","-2.23543380637063","0.529461577528942","-3.86824363508783"
"4646","-0.624448910321092","3.41220624379422","-22.8021215354154","-2.02628278349926","0.156878656347756","-1.75680916978554"
"4646","-1.13732357369735","4.37258824229416","-23.853082530486","-1.9629335760071","-1.62377529336526","-4.72895055345997"
"4654","2.33110258603123","8.09346573449795","-29.2948355523537","-1.94374589987342","-1.24629486444991","-3.47198589937857"
"4658","1.06481391684133","7.09246792119328","-27.8534714608793","1.45629102471386","0.53607126208137","0.342255264141776"
"4667","2.58540291055331","3.36068566582829","-27.4406335718381","0.486119335661832","0.159189413018498","-0.704184444978136"
"4667","1.90706850838138","4.35875570678188","-27.322387860268","0.192266564640156","0.0274308941518627","-0.965794372258115"
"4675","-1.81334617539432","4.62672318366787","-27.2885197278221","0.103262265698501","-0.018632102347163","-1.03119685407811"
"4679","-0.600363192072602","4.69866860405143","-27.2788191612634","-6.71214645300693","1.61566254091407","-4.54754747453311"
"4687","-2.13222847765788","8.18101363015333","-25.5624623642811","-4.77644781351538","1.1870146559687","-3.42663512964686"
"4687","-1.45627946376754","7.11597327426754","-26.0708606093194","0.901188724927484","-2.2636380411236","-1.3964070434253"
"4695","0.475170747561902","12.0245682997572","-24.5028985315893","-0.379126760978355","-1.46999194121868","-1.8888500218699"
"4695","-0.116250018028546","10.3424555922952","-25.0538002377608","0.930194432477813","0.457866393411951","3.23803923351894"
"4707","1.54710062170612","-0.49825366078083","-28.6387471056786","0.326771311803621","0.131848861358438","1.51976154736616"
"4708","0.898966037107967","2.59117154285924","-27.665553521927","3.53822727698487","-1.63252575116398","2.84019212582796"
"4716","2.55031942803203","3.42063785572087","-23.9596531153922","2.51093679328162","-1.24935403899448","2.17029977044341"
"4716","1.89964694382595","3.64333765222723","-24.8982029863927","2.19978345961203","-1.11539657356445","2.00282668159727"
"4728","-1.81491613414676","8.89767242078307","-26.8806023387233","2.10553903839955","-1.06856482170355","1.96095840938574"
"4728","-0.600695301355753","7.30838587061171","-26.4484044427813","-3.01434423754645","3.8990026658093","-3.29950865866715"
"4736","1.44462100208449","5.15017089217053","-28.0381919506377","-1.56509232154211","2.63567248992587","-1.61462542568037"
"4736","0.877287484752861","5.57072115555897","-27.4935415202916","3.96520563831287","-1.10678651901635","0.556595382566327"
"4744","-1.03118618999869","-2.97393892057546","-25.6239634977945","2.6402631548508","-0.415156389211557","0.0994005846280012"
"4748","-0.434904964806798","-0.268057476886975","-26.0884758657862","-9.6408334842693","-0.173361349908893","-5.26489811485658"
"4757","3.26815217900503","5.65297591335","-22.7943655778552","-6.36062279508364","-0.0888294035521344","-3.60597278972773"
"4757","2.0514973793724","4.24268837142919","-23.8508610562828","4.8155873184491","1.59112144810686","2.05875854155449"
"4765","1.79412606135512","10.7901038409376","-24.1534642400831","2.20072043297141","1.17843504926256","0.474941374375041"
"4765","1.73968169853508","8.54799089444764","-24.2401363449012","1.40871022609634","1.03415920046979","0.0789870825801797"
"4777","-1.84875520339623","2.75147268746849","-29.4056961465877","1.16882032145987","0.983720124689337","-0.0200014903685357"
"4777","-0.607853622562264","4.19519076845219","-27.8852243357928","2.79327330400852","-2.3347101460861","-5.29474863360571"
"4785","3.2315665969572","-2.34324908127404","-20.5954149042303","2.2852996285272","-1.49483886686893","-3.61343541941501"
"4786","2.04375806048349","-0.0987263097338558","-22.5074556196609","-6.35412224096487","-1.20121847611931","-4.94310711586733"
"4797","-3.57289071646766","7.42995325749196","-26.4822621757712","-3.97089418455368","-1.0985683010302","-4.27552503998041"
"4798","-1.7610373452407","5.45129563340889","-25.6207328492657","1.84229337105404","-1.06268162974376","2.89137047899132"
"4806","2.19916209190249","13.5776262526608","-27.0875505380867","0.603034578987231","-1.05013559000343","0.683094358734248"
"4806","1.0369032071774","10.7594293556793","-26.5076788886145","-3.16654650186252","-1.04574947372338","-1.61897467133002"
"4818","-2.78588092595496","-2.11781654854681","-28.0551694355332","-2.30830507789449","-1.04421608020477","-1.19449192884609"
"4818","-1.59455318955585","1.42482780244577","-27.4984042396191","-2.04835457275759","-1.04368000329007","-1.0883712432251"
"4826","4.02284003941525","4.1074913064048","-27.3389346305644","-1.9696188426544","-1.04349258991249","-1.06184107181986"
"4826","2.21114414966753","3.8277479427058","-27.2932590811611","-5.33999600227915","0.606971273271288","-2.80520852896854"
"4834","-1.7490219738226","12.4102126498678","-22.13944158074","-4.36084074442126","0.183976174400718","-2.24105039325572"
"4838","-0.586756041922929","9.714481206856","-23.663276640901","1.02707086546782","1.68649473015534","3.14998914067249"
"4847","-0.340890152214589","5.52768730289712","-29.2404710352637","-0.340998647947081","1.21177770668531","1.49774902415454"
"4847","-0.288879649228176","6.40359324872273","-27.8379002859021","0.941742957130202","-0.604582494408112","-0.665311004974945"
"4855","-0.277877340513826","-0.28729600731791","-20.5818602715227","0.330269214297181","-0.239585030135026","-0.206076012257317"
"4859","-0.275549910666099","1.91629628731526","-22.5035732793232","-1.55205108161379","-1.76237965503793","-1.84126726407791"
"4867","-0.275057565846777","2.50792918185049","-24.7675718447744","-1.1221821637156","-1.29475117893642","-1.25006507703306"
"4867","-0.274953415158261","2.66677412006734","-24.4160300615995","-0.991980289010418","-1.13126748890411","-1.10226453027185"
"4875","3.3019883510765","13.0985078463794","-32.8832326053913","-0.952543782971244","-1.07411332000192","-1.06531439358154"
"4876","2.05865508770949","9.89927858539041","-30.3084227741623","4.15073886658116","2.24666455845473","2.44392314059103"
"4888","-1.7812795302562","3.84578838911314","-26.1437847907907","2.69645883017143","1.40761400677253","1.32123252413418"
"4888","-0.593579809698175","5.22051318027041","-26.9509422856626","-2.83536208395116","1.11428054372896","-0.709440129980036"
"4896","-0.342333652956697","2.12657833638612","-25.4685513268208","-1.51088088413272","1.01173067904127","-0.21710829350859"
"4896","-0.289185007567014","3.295901249863","-26.0439624545144","-7.89816266891839","-2.32491760987556","-3.59402533439073"
"4904","-0.277941936057408","10.5359050916476","-27.9223510068655","-5.83278977970279","-1.49141537998502","-2.43825459461126"
"4908","-0.275563575215973","8.47974217974848","-27.4603621654192","4.97546128298206","2.10077506688042","3.1006880903336"
"4916","1.51339941064466","1.00163453058804","-25.6144602120485","2.24914424086271","1.35661079880209","1.48542376156982"
"4917","0.891836878440871","2.99386998861983","-26.0857539189515","3.12048979661481","1.09644973771815","2.83160767937887"
"4925","-1.0281084093242","3.52875660693925","-22.7935859533371","2.38440937802969","1.00549699971704","2.16815365883114"
"4929","-0.434253890673855","3.67236598468812","-23.8506377549377","-1.23276531843025","-2.32709691449554","0.252290153694204"
"4937","-0.308629826870625","12.3684948249306","-27.5805569710435","-0.328361922432203","-1.49217726849094","0.77332427740997"
"4937","-0.282055295717263","9.70328056979558","-26.6488866072399","1.6426830716619","-2.85068632007298","-2.59641719166109"
"4945","-0.276433715865117","0.330137022197558","-28.0956143840499","1.23968774604989","-2.325623335343","-1.43885255892885"
"4949","-0.275244526116042","2.81358254818458","-27.5099885487238","1.11762554357975","-2.14206044593418","5.85053859925421"
"4957","-0.27499296475847","3.48035201753637","-23.915095938253","1.08065444162159","-2.07788655566188","3.67288638879997"
"4958","-0.274939749435454","3.65937004736933","-24.8854408459588","2.76656897075246","1.24534542901635","1.37847333618641"
"4966","-0.274928492258951","10.6334912455227","-25.1633686406837","2.27721122271807","0.407152836935284","1.80487007303302"
"4966","-0.274926110914337","8.50594266103726","-25.2429731797164","2.12899093150205","0.114119317989767","1.91146925724468"
"4978","-0.274925607164381","6.20321205411288","-33.8336653668128","2.08409687430891","0.0116743142557228","1.93811905329759"
"4978","-0.274925500601048","6.58496194603817","-31.2942256436376","3.76761164020534","-0.024140628785041","-3.30521849768918"
"4986","1.51353438903351","1.492913240852","-20.2854050465619","3.27752703414758","-0.0366615922118488","-1.61605288543588"
"4986","0.891865431787187","3.12577126912661","-23.1322404277036","-5.35647646179223","-1.6914372849276","-2.94376148237255"
"4998","-4.6050221033298","3.56417020707263","-23.9476357300773","-2.97160724835622","-1.26994960880544","-2.27568863160672"
"4998","-2.76783442308803","3.68187402789732","-24.1811826023472","1.14496478330099","-1.122596818894","3.14132958108474"
"5006","4.77464397133555","14.1025619548451","-27.6752321734057","0.391822542874232","-1.07108203940044","1.4955841342576"
"5006","2.37018085334661","10.9003670553094","-26.676003635421","5.25504308431722","3.89812264233183","-0.665852227449179"
"5014","0.073080538703032","4.84608062765942","-26.3898029434991","3.72805126247683","2.63536483226008","-0.206211317875876"
"5018","0.587151632840634","6.22059164212447","-26.3078288675567","3.26554469457885","2.19390260966689","-0.0913010904825495"
"5026","-1.09256156667354","-0.336429311368763","-27.9979280616802","3.12545728724032","2.03956668521447","-0.0625735336342181"
"5026","-0.447888320145866","1.90310470057552","-27.4820090705656","-0.311198641417303","-2.96558443915397","1.69460835557786"
"5034","-0.311514055893257","4.2359017870182","-27.3342386991044","0.647881613057166","-1.71539356498545","1.13390382788089"
"5038","-0.282665425908047","3.86222431318459","-27.2919140646989","2.63548753812397","-4.5791214503184","-0.756272304043359"
"5047","-0.276562782886766","10.6879547035523","-25.5662130281998","2.23750830967491","-3.58028546377983","-0.22881633702442"
"5047","-0.275271828970955","8.52056531759625","-26.0719348806876","3.81407802950264","0.0697059383419303","-1.84695234526969"
"5055","1.51346112668411","2.74410931382791","-24.5032062261729","3.29160111753763","-0.654251020011648","-1.251486347331"
"5055","0.891849933860058","4.19321380834432","-25.0538883681528","-7.04932620912242","-0.907347572135464","0.647380152153669"
"5067","0.760354219513042","4.58227756059231","-21.7844589695287","-4.18146270018205","-0.995830546099336","0.122096777024837"
"5067","0.73253759862326","4.68673559235337","-22.848023589127","8.56696526175517","0.623634002756917","1.74077593324263"
"5075","2.51511313403532","9.9093241446506","-30.006964906646","5.42830333733424","0.18980149223643","1.14544572229708"
"5075","1.8921993997147","8.31151419118847","-28.0574407293585","-2.31080822080378","3.33892961407881","-0.753386830439311"
"5087","1.76042814556638","2.68798208769642","-25.7854764427057","-0.654887523743293","2.43987002308747","-0.228094968623409"
"5087","1.73255323695041","4.17814445393639","-26.1347366708279","-1.85044263501681","0.475158957319364","-1.84677200316943"
"5096","-1.85026315910728","2.84671729846365","-21.0940373295624","-1.2125612026078","0.788292713508008","-1.25144126180594"
"5096","-0.608172615713799","3.48924822227672","-22.6502718801189","-1.0193549602366","0.897764793485197","-1.10260857646507"
"5104","-0.345420617080741","10.5878159778934","-28.236746190153","-0.960835225698748","0.93603641402333","-1.06540040512985"
"5108","-0.289838024368096","8.49367950743031","-26.8368334095996","4.14822749313176","-0.700982107182917","0.693901637703958"
"5116","-0.2780800753183","2.73689085979305","-26.4358680736488","2.69569816682132","-0.273286494480173","0.133727148412409"
"5116","-0.275592797213582","4.19127575706998","-26.321022918388","2.25574534986824","-0.123763399654584","-0.00631647391047846"
"5124","1.5133932290194","4.5817572216494","-26.2881287789094","2.12248918929446","-0.0714898779671847","-0.0413273794912003"
"5128","0.891835570779043","4.68659588881761","-26.2787071850286","-3.00921025057702","4.89798006129317","-1.80008010588638"
"5137","-1.02810868594716","8.17777227943883","-29.7031653258146","-1.5635373016272","3.63531498569273","-1.23976828748518"
"5137","-0.434253949190712","7.11510301813618","-28.684004295173","2.26856402451793","1.54348684006789","2.40030966711513"
"5145","-2.09708970634142","3.36676286438948","-24.9649378164078","1.42925919448717","1.8121802545255","1.3103291557652"
"5149","-1.44884620341303","4.36038734734632","-25.8997166392057","-2.21918087456885","-1.3946807689101","-2.46216597207228"
"5157","0.476743180445232","1.16413254209802","-22.7403008477156","-1.3242473656826","-0.515804695970139","-1.40528975403165"
"5157","-0.115917385367418","2.30598401493775","-23.8353757467802","-1.05318329070085","1.44185017844628","-1.14107069952149"
"5165","1.54717098686346","6.07558345567753","-25.8626072567524","-0.971081400430634","1.12624956607008","-1.07501593589395"
"5165","0.898980922162704","5.08766678606263","-25.443250261615","4.14512405600686","5.96711009855192","-2.80850224498707"
"5177","0.761862709726348","10.0169684140653","-28.7502940261868","2.69475817484966","4.65948296125605","-2.24187382226035"
"5178","0.732856704843473","8.34041513209712","-27.6975029755481","0.558348028434259","-2.39925902510202","1.39978328342133"
"5186","-1.06173909637671","0.964227218586727","-27.3959608200872","0.911256334616217","-0.867006918763824","0.310197559841752"
"5186","-0.441368130682725","2.98382666239745","-27.3095926167625","-2.37607740895336","2.96946764262694","1.78780112894686"
"5194","-2.09859464123978","3.52606011803875","-23.8576982036953","-1.37176934752649","2.31070550572722","1.15720202122313"
"5198","-1.44916455754145","3.67164201613134","-24.8690008918135","-1.06757709976253","2.08040117120129","0.999552244292203"
"5206","0.476675835770595","7.1737573793126","-25.1586598818036","-0.975441103693534","1.99988639427278","0.96013980005947"
"5206","-0.115931631468841","6.11402507509348","-25.2416244892033","4.14380355686316","-4.62985507776768","-0.799713310998713"
"5214","1.54716797324127","4.09798780897647","-28.6925440386915","2.69435821231015","-2.94762368083732","-0.239676588763259"
"5218","0.898980284660665","4.5567107469044","-27.6809621285333","-2.83599833461314","4.24208057534962","-0.0996674082043954"
"5227","0.761862574869083","4.67987126993626","-27.3912231633043","-1.5110735964353","2.75561309552758","-0.0646651130646795"
"5227","0.732856676315749","4.71293810217709","-27.3082356492643","-6.20110842932599","-1.06485508457517","-1.80591453927975"
"5235","2.5151806317728","2.99030171508114","-27.2844662281196","-4.6216608401882","-0.400497090257096","-1.24122689583352"
"5235","1.89221367819506","3.52779857672316","-27.2776581511686","-0.749040862390717","-0.168236434706249","0.64994501502804"
"5247","-1.81648856814626","7.1351374809656","-25.5621298258479","-1.57607310376479","-0.0870377247061074","0.122737992743429"
"5247","-0.601027934252996","6.10365618684616","-26.0707653631109","6.65899230756099","1.59174782199997","-1.75906376282772"
"5255","5.02147037106147","5.82671826816442","-26.2164495956632","4.15328977879246","1.17865403061339","-1.22951420172051"
"5256","3.21085440984193","5.7523644129457","-26.2581767147092","-1.69699375012365","1.03423575671286","-1.09712681144371"
"5268","-0.74908326542382","4.00088711348614","-19.4158148866166","-0.468970860602151","0.983746888878755","-1.06402996387451"
"5268","0.413230992443604","4.53064060422227","-21.4560142853152","3.29720700704819","-2.33470078928113","2.44424424801779"
"5276","-2.91781262915069","4.6728718109104","-30.6082632975865","2.43793479271563","-1.49483559571441","1.32131280099087"
"5276","-1.62246203958464","4.71105884791861","-28.2296656098506","2.17767207417529","-1.20121733251827","-0.709420060765864"
"5284","2.22847633047872","4.72131151911096","-25.8348053780685","2.09884177856911","-1.09856790122538","-0.217103276205047"
"5288","1.04310434510191","4.72406421413037","-26.1488655461512","2.07496507605786","-1.06268148997134","-0.0940240800648423"
"5296","2.58081046486218","6.45631763004126","-21.0980841454208","2.06773312394571","-1.05013554113875","-0.0632542810297912"
"5297","1.9060970218095","5.92140280256611","-22.6514309758159","-4.72290778203137","-1.04574945664021","-0.0555618312710285"
"5305","-1.81355168379285","9.24081456470015","-26.5234998356106","-2.77970728437955","-1.04421607423246","-0.0536387188313378"
"5308","-0.600406665346541","8.13202896664222","-25.6325442080597","-0.494023747133856","0.606718341954327","-0.0531579407214151"
"5317","1.44468206018424","0.908278524924361","-28.804511911675","-0.8017190255288","0.183887749193241","-0.0530377461939344"
"5317","0.877300400991397","2.96880524139432","-27.7130321520592","-2.59202865512249","0.0360654733998314","-1.80300769756206"
"5325","2.54573627648839","6.98505579579545","-23.9732520232284","-2.13429086662543","-0.0156134391359263","-1.2405001854041"
"5329","1.89867742333928","6.06336140907343","-24.9020980080861","-3.69276047215326","-1.68407881573877","2.4001266926354"
"5337","-1.81512122663937","4.08438534201913","-28.595296301935","-3.16480126380416","-1.26737707578519","1.31028341214527"
"5337","-0.600738686648898","4.55305867981449","-27.6531082707925","5.48067397158161","-1.12169745708784","1.03782259202274"
"5346","-0.343848042738324","8.14191945599092","-27.3832452152624","3.09927940336838","-1.07076762102291","0.969707386992103"
"5346","-0.289505361782694","7.10547704977288","-27.3059505921798","-1.01624020206516","-1.05296246595184","-0.797321414265555"
"5358","1.51045016326137","3.36417843008222","-23.8566550489855","-0.262779195006046","-1.04673775423864","-0.239078614579969"
"5358","0.89121299425743","4.35969346383907","-24.8687021097148","-1.73167796661806","2.25623510160261","1.65048208534143"
"5366","-1.02824038586729","4.62697495797452","-25.1585743041403","-1.17658888213889","1.41095988451392","1.12287226032178"
"5366","-0.43428180900932","4.69873620183809","-25.2415999779073","2.38576582147018","2.76584861128741","-0.759030195933137"
"5378","-2.09709559981115","9.91254613600668","-32.1196937074269","1.4647581409023","2.23951995500604","-0.229505809996865"
"5378","-1.4488474501184","8.31237924961003","-30.0897286990837","1.18579652810615","-6.19647713105648","-1.8471247135128"
"5386","0.476742916717012","0.956699986645009","-29.5083027610929","1.10130257321769","-4.14571568947117","-1.25152943939178"
"5387","-0.11591744115652","2.9818057086882","-29.3417697814705","-9.10696523858579","-0.127969405389174","-1.10263062086153"
"5395","-0.24128889203031","0.0624888073460457","-19.0126010618728","-6.19892083539456","-0.723358647697157","-1.06540591622896"
"5399","-0.267809985411003","1.27869413143745","-22.054103458823","-1.92388563585251","0.718890629881622","-1.05609974007082"
"5407","-0.273420261029617","5.0682565137536","-24.6388339547572","-2.62903138090294","0.223103366904553","-1.05377319603129"
"5407","-0.274607059479628","4.08569960734762","-24.3791567420345","3.94583930348603","3.35057200463878","0.696808439978598"
"5415","-0.274858114981478","10.7479546116409","-34.586249632814","1.93728472651699","2.44394022211686","0.134453848981069"
"5419","-0.274911223295707","8.53667443151027","-31.5097820748955","3.02603148218027","-1.17381643751275","-0.00613479876831345"
"5428","-0.274922457835557","2.74843437963821","-25.487880110376","2.35579914568025","-0.438590159775984","-0.041281960705659"
"5428","-0.274924834391611","4.1943750264202","-26.7630769813469","-4.6356562164795","-1.83195217808077","-0.0500687511899954"
"5436","3.30199439705568","2.85107497415617","-23.7011642907253","-2.75327988539159","-1.31907384826298","-0.0522654488110795"
"5436","2.05865636667673","3.49041819563781","-24.8241661893423","1.21109338849632","-1.13977073439953","-0.0528146232163505"
"5448","-1.7812792597033","10.5881300989437","-28.572974941406","0.411852063524782","-1.07708606871567","-0.0529519168176683"
"5448","-0.593579752465379","8.49376384442256","-27.6467149497602","1.86688455411806","0.59522693742256","1.697013759782"
"5456","-0.342333640849663","6.19994221670088","-27.3814140296691","1.30759554796821","0.179870335129476","1.13450517893192"
"5456","-0.289185005005891","6.58408404163751","-27.3054261009709","-5.65025647839267","0.0346609787869127","-2.5061219662806"
"5468","1.51051793157651","-0.238836820693776","-25.5700831679959","-3.7577021206199","-0.0161044527796305","-1.41627875258373"
"5468","0.891227329975823","1.92930688320411","-26.0730433725345","1.90686655892761","-0.0338521317656711","4.10618205084049"
"5477","-1.02823735328751","4.242936696874","-27.9306804115439","0.622592983344393","-0.040056749744318","2.48679725169654"
"5477","-0.434281167496991","3.86411308548195","-27.4627478872952","1.93071532134768","1.60817244868673","0.331951051910555"
"5485","-0.308635597013416","7.2254330981611","-29.0423002237588","1.32692908247404","1.18439610731612","0.793239501964058"
"5489","-0.282056516334036","6.1278992637054","-28.4947182186796","-0.553062765424895","-0.614155146914607","0.908561614477434"
"5497","1.51202589301758","4.10171282942957","-21.4835654957427","-0.12248858998494","-0.242931645311684","0.937392142605778"
"5497","0.891546324339488","4.55771086141661","-23.4754195269321","0.00792689833654922","-1.76354963724851","0.944599774637864"
"5505","-1.02816987317743","4.68013978632433","-24.0459296557596","0.0474281052464936","-1.29516020665571","0.946401682645885"
"5509","-0.434266892745535","4.71301019497224","-24.2093361112519","-1.63772008699839","-1.13141048567247","-2.55314784035211"
"5517","-2.09709244442273","9.91637849823408","-31.1104526373314","-1.14813022518453","-1.07416331190906","-1.42803522110161"
"5517","-1.44884678262712","8.31340818384756","-29.0870818564898","4.09149819952479","0.5962487380447","0.603242933711017"
"5526","2.26520292501034","2.68849059753368","-28.5075446480557","2.67851557912821","0.18022755831994","0.111062472414174"
"5526","1.05087349379039","4.17828098152711","-28.3415526414794","-2.8407968684328","0.0347858646061618","-0.0119826429100372"
"5538","0.793994084516186","2.84675395416165","-24.8668522468798","-1.51252701182111","-0.0160607924903048","-0.04274392174109"
"5538","0.739653780137028","3.48925806380538","-25.8716228080156","-2.8073234310816","1.61656147510028","-1.80043424144885"
"5546","2.51661849201854","8.85630426338442","-26.1594108553823","-2.19950093945686","1.1873289248496","-1.23985682137579"
"5546","1.89251784334254","7.29727911426529","-26.2418395842989","4.77305126766076","2.68766685726725","-1.09971246635753"
"5558","-0.027964357918398","8.61021760118542","-29.6926056465848","2.88494940927406","2.21218748426566","-1.06467637760296"
"5559","0.565776581979675","7.96272273530442","-28.6809797743681","-4.47538327407296","-2.90523592180001","-4.55591735541432"
"5567","-1.09708324777358","2.59433658932705","-24.9640715281522","-2.70473523213339","-1.69429562333046","-3.42872759986716"
"5567","-0.448844837166735","4.1530019820756","-25.8994685154895","2.9229095615526","0.37944945450957","3.85306983901963"
"5575","-0.31171639763098","2.83996690573492","-26.1673864690114","1.62745220654175","0.104434169593567","1.67351919874133"
"5579","-0.282708229306138","3.48743583874322","-26.244123972757","-0.462038100656872","-1.64210997282683","-2.37136846132825"
"5587","-0.276571837523288","12.3188437357528","-27.9796816002578","-0.0949183668221317","-1.25270469876737","-1.38259037634564"
"5587","-0.275273744389969","9.68994996518301","-27.4767828888807","-3.37794764815779","-1.11656796977257","-1.13539585509999"
"5595","1.51346072149612","2.05807230306227","-29.0463201521458","-2.37233581939832","-1.06897434375873","-1.07359722478858"
"5599","0.891849848146536","4.00902272026232","-28.4958696132226","-3.76486128666826","-1.0523355332491","2.44185243278927"
"5608","-1.02810566571094","1.06979618420401","-21.4838952800736","-3.18663969134976","-1.04651857752703","1.32071484718374"
"5608","-0.434253310289541","2.28065605721314","-23.475513984306","2.07983416781689","-1.04448496016881","1.04043045078235"
"5616","5.05674989718036","7.80029761947547","-22.3323783657463","0.674982691004046","-1.04377400417099","0.970359351682008"
"5616","3.21831744548605","6.28224213445294","-23.0049595695897","1.94658350317831","2.25727123353673","0.952841576906921"
"5628","-2.5359644009639","4.14315167435276","-30.051914769954","1.33173535465723","1.4113221179548","0.94846213321315"
"5628","-0.753225947551237","4.56883659634853","-28.0703153436149","-3.94583222562394","1.11557690554204","2.69736727228971"
"5636","-0.376105218176361","2.95161252960528","-27.5027423556836","-2.54434089704799","1.01218388927899","2.13459355705885"
"5636","-0.296329048962089","3.51741108587649","-27.3401771609487","1.27437837340371","2.62643586264385","-1.50609987174887"
"5649","-0.279453187523621","5.40083423198647","-25.5800366241199","0.431020287447366","2.19078102709514","-0.416273228950798"
"5649","-0.275883265551993","4.90650630675345","-26.075894257914","1.8726903674383","-4.56311799785044","3.35618343174872"
"5657","-0.275128083783644","6.50530071262262","-24.5043402775522","1.30935405561324","-2.92429228712535","2.2992975969236"
"5657","-0.274968332531998","5.934554056998","-25.0542131850261","1.13872659027391","0.949440582934856","-1.46492386178268"
"5665","3.30198519545328","2.31828806043248","-26.9252870380672","1.08704568258699","0.303704012477163","-0.405979226459251"
"5669","2.05865442016854","3.34737255842781","-26.4612031083361","-2.32283303210726","0.0779534375606916","1.60875693237161"
"5677","-1.78127967146791","3.62366697176059","-26.3282794209615","-1.35564229717643","-0.000969337463487006","1.11244097207932"
"5678","-0.593579839570118","3.69784805503181","-26.2902071983886","0.634420190149729","1.62183747278184","-4.26163801799375"
"5685","-2.13079352636795","10.6438220381583","-24.5657241447257","0.237185023432468","1.18917342238057","-2.60515776551202"
"5689","-1.45597591398095","8.50871633054261","-25.0717948538737","8.60243054905154","-3.91328167596574","1.30896229760841"
"5698","4.05215469470837","6.203956744554","-28.643901153413","6.13615793536782","-2.69710843231735","0.287492313388523"
"5698","2.21734537574439","6.58516188473023","-27.6670297528109","1.99492984024956","1.02886443498383","1.78212481733355"
"5706","-1.74771016563411","3.22448127833845","-25.6736542845363","2.74060406995999","0.331470722746381","1.15578294331981"
"5710","-0.586478541844386","4.32218678420247","-26.1027083831804","-2.12487843775946","-3.21313596083703","0.999197474816371"
"5718","-0.340831449811092","6.34841930978679","-26.2255987683484","-0.598571736981452","-2.45233633027645","0.960051107690512"
"5718","-0.288867231313938","5.89243365265434","-26.2607972358947","-0.136272683614087","2.76483551056287","-2.54973548409095"
"5726","-2.06633458071873","7.50152240703554","-26.2708788392351","0.00375187018982513","1.58876743015773","-1.42718213203632"
"5727","-1.44234026005121","6.93353963619231","-26.2737664287525","-5.04517428728961","7.77920545331316","4.10345620597734"
"5739","0.478119448568683","3.31801570301001","-26.274593496922","-3.57443035485106","5.94339284279551","2.48611579048075"
"5739","-0.115626249425666","4.34729943437006","-26.2748303871562","3.65948987549236","3.65119136934782","-3.16821931339339"
"5747","-0.241227293292863","6.35516169581903","-27.9884765822999","1.85055309556347","3.84983393641132","-1.58180308936193"
"5747","-0.267796954805897","5.89424388650479","-27.479301962196","2.99976156482593","-1.03191532249302","0.564800966645937"
"5759","-0.273417504533681","2.30746535838084","-27.333463324644","2.34784231896989","0.261417048299321","0.101451980647904"
"5759","-0.274606476370111","3.34446681830651","-27.2916919806625","2.15038419991846","-0.936830155178765","3.4856147341484"
"5767","-2.06331785872255","3.62288682225521","-20.4254143845704","2.09057662554914","-0.355739362822835","2.33165542252352"
"5768","-1.44170210227919","3.69763859609007","-22.4587637894097","0.375349055710572","-0.15258905903868","-1.4568344053827"
"5776","-3.09866528963568","7.18073708780335","-26.4683157811487","0.855828253343798","-0.0815673762474721","-0.403956862359256"
"5780","-2.44917950251251","6.11589902661684","-25.6167382998318","2.69847195331813","-0.05673807827185","-0.140737476603395"
"5788","-2.3117871927827","5.83000529487463","-27.0864064126254","2.25658549482145","-0.0480577145613106","-0.0749326301644293"
